time,seconds_elapsed,z,y,x
1781215234405254000,2.24125390625,0.1364694982767105,-2.5953147411346436,-2.1763293743133545
1781215234415324700,2.25132470703125,0.150834709405899,-2.7246015071868896,-1.9776105880737305
1781215234425395500,2.2613955078125,0.1364694982767105,-3.0310592651367188,-1.4628572463989258
1781215234435466200,2.27146630859375,0.3471592366695404,-3.3039982318878174,-1.0893617868423462
1781215234445567500,2.2815673828125,0.2466027736663818,-3.464409828186035,-0.8690952062606812
1781215234485911800,2.321911865234375,0.5315127968788147,-3.9408559799194336,-1.0414776802062988
1781215234526225400,2.362225341796875,0.1101332753896713,-3.7900211811065674,0.5554547905921936
1781215234536296400,2.37229638671875,-0.0023942016996443,-3.77565598487854,0.8858546018600464
1781215234546367200,2.3823671875,0.071826048195362,-3.83072280883789,1.3670891523361206
1781215234556438000,2.39243798828125,0.1364694982767105,-3.9408559799194336,1.721431016921997
1781215234566539300,2.402539306640625,0.3663128614425659,-4.0078935623168945,1.8914192914962769
1781215234576610000,2.412610107421875,0.4070142805576324,-3.9264907836914062,2.073378562927246
1781215234586680800,2.422680908203125,0.6607996821403503,-3.598485231399536,2.231395959854126
1781215234596751600,2.432751708984375,0.6344634294509888,-2.8203697204589844,2.255337953567505
1781215234606822400,2.442822509765625,0.4572925269603729,-2.363077163696289,2.698265314102173
1781215234616923600,2.452923583984375,0.3351882398128509,-2.319981336593628,3.189076662063598
1781215234626964000,2.4629638671875,0.3112462162971496,-2.3295583724975586,3.83072280883789
1781215234637065500,2.4730654296875,0.5889736413955688,-2.3750481605529785,3.957615375518799
1781215234647136300,2.48313623046875,0.8236053586006165,-2.477998733520508,4.125209331512451
1781215234657237500,2.493237548828125,1.1109095811843872,-2.473210334777832,3.9480385780334473
1781215234667308300,2.503308349609375,1.2473790645599363,-2.6001031398773193,3.9408559799194336
1781215234677409500,2.513409423828125,1.2976573705673218,-2.9448680877685547,3.9217023849487305
1781215234687511000,2.523510986328125,1.6065093278884888,-3.2585084438323975,3.904942989349365
1781215234697581800,2.533581787109375,2.0374655723571777,-3.3686418533325195,3.646369218826294
1781215234727794200,2.563794189453125,2.894589900970459,-3.936067581176758,3.2585084438323975
1781215234737895400,2.5738955078125,2.82515811920166,-4.2329487800598145,3.0119056701660156
1781215234828563200,2.664563232421875,4.721365928649902,-7.184999465942383,-1.6424223184585571
1781215234838634000,2.674634033203125,4.910507678985596,-7.292738437652588,-1.5059528350830078
1781215234899089400,2.73508935546875,4.031835556030273,-6.610390663146973,-4.627991676330566
1781215234939372500,2.77537255859375,1.556231141090393,-3.780444383621216,-6.821080684661865
1781215234979625200,2.815625244140625,1.6687586307525637,-5.693411827087402,-8.20732307434082
1781215235030070800,2.86607080078125,-2.535459518432617,-2.33913516998291,-9.42597198486328
1781215235050182000,2.886181884765625,-2.760514497756958,-1.1061211824417114,-9.248801231384276
1781215235060283100,2.896283203125,-2.559401512145996,-1.2210428714752195,-8.96389102935791
1781215235070323500,2.906323486328125,-2.142810583114624,-1.429338455200195,-8.520963668823242
1781215235080424700,2.9164248046875,-1.8124107122421265,-1.58256733417511,-8.418013572692871
1781215235100566300,2.936566162109375,-2.382230758666992,-0.6440402865409851,-8.374917984008789
1781215235150951000,2.986950927734375,-3.938461780548096,1.8531121015548704,-7.338228225708008
1781215235161052200,2.99705224609375,-3.679888010025024,1.9991583824157717,-7.175422668457031
1781215235171153400,3.0071533203125,-3.423708438873291,1.8938134908676147,-7.101202011108398
1781215235181193700,3.01719384765625,-3.248931646347046,1.6735470294952393,-6.983886241912842
1781215235211406000,3.047406005859375,-5.07570743560791,1.9297266006469729,-6.387730121612549
1781215235241649200,3.077649169921875,-6.0836663246154785,2.0638017654418945,-6.98628044128418
1781215235342418200,3.178418212890625,-4.426878929138184,0.6129156351089478,-4.41969633102417
1781215235402934500,3.2389345703125,-2.3535003662109375,-2.011129379272461,-1.2665326595306396
1781215235483562000,3.31956201171875,1.6328455209732056,-3.383007049560547,-0.1939303427934646
1781215235493602300,3.329602294921875,1.6136919260025024,-3.2632968425750732,-0.3399766385555267
1781215235503703600,3.33970361328125,1.235408067703247,-3.1076738834381104,-0.3734954595565796
1781215235513804800,3.3498046875,1.158793568611145,-2.7246015071868896,-0.3423708379268646
1781215235523906300,3.35990625,0.8619126081466675,-1.6735470294952393,0.2825157940387726
1781215235533977000,3.36997705078125,0.730231523513794,-1.1061211824417114,0.3830722570419311
1781215235584453000,3.420453125,0.8164227604866028,-2.9879636764526367,1.9608511924743652
1781215235665233200,3.501233154296875,1.158793568611145,0.0550666376948356,2.0470423698425293
1781215235705638400,3.541638427734375,0.8403648138046265,0.3806780576705932,0.8810662031173706
1781215235776347600,3.61234765625,1.1540051698684692,0.7493851184844971,0.3687070608139038
1781215235796550100,3.632550048828125,0.7541735172271729,0.8595184087753296,0.4836287498474121
1781215235836955400,3.672955322265625,0.0239420160651206,0.8619126081466675,0.9193734526634216
1781215235847087400,3.68308740234375,0.0263362191617488,0.7134721279144287,0.8882488012313843
1781215235867351000,3.70335107421875,0.3280056416988373,0.4189853072166443,0.871489405632019
1781215235887523000,3.723523193359375,0.8236053586006165,0.1244984865188598,0.9576807022094728
1781215235897624300,3.733624267578125,0.9074024558067322,-0.0550666376948356,0.9864110946655272
1781215235907725800,3.743725830078125,1.0271124839782717,-0.1867477297782898,1.280897855758667
1781215235917827000,3.7538271484375,0.9265560507774352,-0.1412578970193863,1.5705963373184204
1781215235927897900,3.76389794921875,0.8930372595787048,-0.1651999205350875,1.7310078144073486
1781215235937999000,3.7739990234375,0.9289502501487732,-0.071826048195362,1.8148049116134644
1781215235948100600,3.7841005859375,1.1300631761550903,0.0023942016996443,1.8818424940109253
1781215235958201900,3.794201904296875,1.4197616577148438,0.0263362191617488,1.889025092124939
1781215235968272600,3.804272705078125,1.7573440074920654,-0.1675941199064254,1.886630892753601
1781215235978374000,3.814373779296875,1.920149803161621,-0.1556231081485748,1.9752163887023928
1781215235988475400,3.824475341796875,2.085349798202514,-0.2346317619085312,1.9943699836730957
1781215235998576600,3.83457666015625,2.0374655723571777,-0.1580173075199127,2.032677173614502
1781215236059154000,3.89515380859375,1.9536685943603516,-0.0383072271943092,1.9345149993896484
1781215236140056000,3.97605615234375,2.4803929328918457,-0.8906430602073669,2.652775526046753
1781215236180491800,4.01649169921875,1.4891934394836426,-0.3136404156684875,2.5258827209472656
1781215236210826200,4.046826171875,0.8475474119186401,-0.5937620401382446,1.7405846118927002
1781215236220927700,4.056927734375,0.9385270476341248,-0.4165911078453064,1.534683346748352
1781215236231029000,4.067029052734375,1.09654438495636,-0.9313444495201112,1.168370485305786
1781215236241130200,4.077130126953125,1.3551181554794312,-1.8746598958969116,0.9241618514060974
1781215236251231700,4.087231689453125,1.525106430053711,-2.9305028915405273,0.9481038451194764
1781215236261302500,4.097302490234375,1.4939818382263184,-3.612850427627563,1.194706678390503
1781215236271434200,4.107434326171875,1.400607943534851,-3.8762125968933105,1.3623007535934448
1781215236311839500,4.147839599609375,0.2394201755523681,-2.3295583724975586,0.4740519225597381
1781215236332011800,4.16801171875,0.0143652101978659,-1.7549498081207275,-0.1963245421648025
1781215236422648800,4.25864892578125,-1.6280571222305298,2.1523873805999756,-2.8874073028564453
1781215236473002800,4.309002685546875,-3.794809579849243,5.128379821777344,-4.252102375030518
1781215236563762200,4.39976220703125,-3.88818359375,7.575253963470459,-1.845929503440857
1781215236573833000,4.4098330078125,-3.943250179290771,7.513004779815674,-1.920149803161621
1781215236634257700,4.470257568359375,-4.089296340942383,6.605602264404297,-3.974374771118164
1781215236704844800,4.5408447265625,-0.5051765441894531,-0.0071826050989329,-6.696582317352295
1781215236714946300,4.5509462890625,-0.2992752194404602,0.0478840321302413,-6.189011573791504
1781215236745128200,4.581128173828125,-0.395043283700943,1.9129672050476072,-4.699818134307861
1781215236755229400,4.5912294921875,-0.6248866319656372,2.118868589401245,-4.975151062011719
1781215236785503000,4.6215029296875,-1.3287819623947144,1.8363527059555056,-6.421248912811279
1781215236795604200,4.631604248046875,-1.4844050407409668,1.6519991159439087,-6.852205276489258
1781215236805675000,4.641675048828125,-1.4053963422775269,1.0749965906143188,-7.046135425567627
1781215236815776300,4.6517763671875,-1.1061211824417114,0.3687070608139038,-7.216124057769775
1781215236825877500,4.66187744140625,-0.7876923680305481,-0.545877993106842,-7.800309181213379
1781215236835948500,4.671948486328125,-0.5674257874488831,-1.7573440074920654,-8.315062522888184
1781215236846049800,4.6820498046875,-0.0239420160651206,-2.7988216876983643,-8.99740982055664
1781215236856120600,4.69212060546875,0.4979939460754394,-3.861847400665283,-9.521739959716797
1781215236876292600,4.712292724609375,1.316810965538025,-6.184223175048828,-9.239224433898926
1781215236886363400,4.72236328125,1.6089035272598269,-6.983886241912842,-8.813055992126465
1781215236896403700,4.73240380859375,1.869871497154236,-7.728483200073242,-8.518569946289062
1781215236916606500,4.7526064453125,2.00155258178711,-9.210494041442873,-8.255207061767578
1781215236946757600,4.782757568359375,2.691082715988159,-11.173739433288574,-6.461950302124023
1781215236956859100,4.792859130859375,2.425326347351074,-11.398794174194336,-4.838681697845459
1781215236966899500,4.8028994140625,2.0829553604125977,-11.331756591796877,-3.3710360527038574
1781215237017314300,4.853314208984375,1.161187767982483,-7.0772600173950195,-1.1204863786697388
1781215237027415800,4.863415771484375,0.9528923034667968,-6.694188117980957,-0.0550666376948356
1781215237067699000,4.903698974609375,0.6129156351089478,-6.698976516723633,2.3080103397369385
1781215237077800200,4.91380029296875,0.9720458984375,-6.981492042541504,2.4205379486083984
1781215237087840500,4.923840576171875,1.4484920501708984,-7.230489253997803,2.4803929328918457
1781215237097941800,4.933941650390625,1.7310078144073486,-7.422025203704834,2.5258827209472656
1781215237128154000,4.964154052734375,1.2713210582733154,-7.249642848968506,2.1715409755706787
1781215237138225200,4.97422509765625,0.8858546018600464,-6.981492042541504,2.111685991287231
1781215237148296000,4.9842958984375,0.4118026793003082,-6.584054470062256,2.03507137298584
1781215237158366700,4.99436669921875,-0.0670376494526863,-6.112396717071533,1.9967641830444336
1781215237168468000,5.004468017578125,-0.3232172429561615,-5.762843608856201,1.922544002532959
1781215237178538800,5.014538818359375,-0.2154781520366668,-5.451597213745117,1.886630892753601
1781215237198741500,5.034741455078125,0.5770025849342346,-4.651933670043945,1.6543933153152466
1781215237208781600,5.044781494140625,0.5410895943641663,-3.878606796264648,1.4197616577148438
1781215237299510500,5.135510498046875,1.436521053314209,-0.0478840321302413,-0.7637503147125244
1781215237319682600,5.1556826171875,1.261744260787964,0.9624691009521484,-1.0079588890075684
1781215237329753300,5.16575341796875,1.2210428714752195,1.414973258972168,-0.8762778043746948
1781215237339824000,5.17582421875,1.137245774269104,1.5849615335464478,-0.5099649429321289
1781215237380107300,5.216107177734375,1.280897855758667,0.9026140570640564,-0.1532289087772369
1781215237420451600,5.25645166015625,0.4477157294750213,0.6584054827690125,-0.6631938815116882
1781215237430522400,5.2665224609375,0.2298433631658554,0.6416460275650024,-0.8619126081466675
1781215237460704300,5.296704345703125,-0.0574608407914638,0.3663128614425659,-1.0678139925003052
1781215237470805500,5.306805419921875,-0.0694318488240242,0.2849099934101105,-1.048660397529602
1781215237480876300,5.316876220703125,-0.0023942016996443,0.3064578175544739,-0.9050082564353944
1781215237490947300,5.326947265625,-0.0287304203957319,0.2705447971820831,-0.8978256583213806
1781215237501018000,5.33701806640625,-0.0981622710824012,0.3471592366695404,-1.0103530883789062
1781215237511058200,5.34705810546875,-0.1484405100345611,0.3711012601852417,-1.0630255937576294
1781215237521159700,5.35715966796875,-0.2633621990680694,0.4309563040733337,-1.1013327836990356
1781215237571483100,5.407483154296875,-0.0526724383234977,-2.0925323963165283,-1.4700398445129397
1781215237581492700,5.41749267578125,0.1723825186491012,-2.695871114730835,-1.5179238319396973
1781215237591594200,5.42759423828125,0.629675030708313,-2.9927520751953125,-1.403002142906189
1781215237611705300,5.447705322265625,1.359906554222107,-3.512293815612793,-1.05105459690094
1781215237621776100,5.457776123046875,1.2066776752471924,-3.380612850189209,-0.8786720037460327
1781215237631816400,5.46781640625,1.0869675874710083,-3.0310592651367188,-0.7326257228851318
1781215237661967600,5.497967529296875,0.790086567401886,-3.1052796840667725,-1.072602391242981
1781215237702281500,5.538281494140625,0.5386953949928284,-5.073313236236572,-2.0398597717285156
1781215237712382700,5.5483828125,0.4285621047019958,-4.843470096588135,-2.4636335372924805
1781215237722453500,5.55845361328125,0.3447650372982025,-4.469974517822266,-2.7533318996429443
1781215237732524300,5.568524169921875,0.2226607650518417,-4.094084739685059,-2.8347349166870117
1781215237742564600,5.578564697265625,0.0502782352268695,-4.146757125854492,-3.095702886581421
1781215237752635400,5.588635498046875,-0.1939303427934646,-3.864241600036621,-3.28963303565979
1781215237772807700,5.6088076171875,-0.727837324142456,-3.8283286094665527,-3.112462282180786
1781215237792949200,5.62894921875,-1.1013327836990356,-3.950432777404785,-2.8802247047424316
1781215237803050500,5.639050537109375,-1.843535304069519,-3.852270603179931,-2.5330653190612793
1781215237853404400,5.689404296875,-1.7621324062347412,-3.8762125968933105,-2.0254945755004883
1781215237863506000,5.699505859375,-1.5107412338256836,-3.804386615753174,-1.6687586307525637
1781215237873607200,5.709607177734375,-1.6280571222305298,-3.471592426300049,-1.338358759880066
1781215237883678000,5.719677978515625,-1.8148049116134644,-3.241749048233032,-1.1013327836990356
1781215237913982000,5.74998193359375,-3.093308687210083,-1.4269442558288574,-0.8906430602073669
1781215237934154000,5.770154052734375,-3.3470940589904785,-1.3766659498214722,-0.7493851184844971
1781215237944224800,5.780224853515625,-3.1004912853240967,-1.455674648284912,-0.629675030708313
1781215237954295600,5.790295654296875,-2.765302896499634,-1.2114660739898682,-0.6799532771110535
1781215237964335900,5.8003359375,-2.5043349266052246,-0.7637503147125244,-0.3663128614425659
1781215237974437000,5.81043701171875,-2.432508945465088,-0.1532289087772369,-0.0407014302909374
1781215238045055000,5.881054931640625,-4.771644115447998,2.669534921646118,-0.6991068720817566
1781215238105571300,5.9415712890625,-5.0469770431518555,3.399766445159912,-1.2210428714752195
1781215238115672600,5.951672607421875,-5.04218864440918,3.1507694721221924,-1.3623007535934448
1781215238125713000,5.961712890625,-5.142745018005371,2.82515811920166,-1.4508862495422363
1781215238135814100,5.971814208984375,-5.2911858558654785,2.4875755310058594,-1.5682021379470823
1781215238145915400,5.981915283203125,-5.236119270324707,2.3989901542663574,-1.8770540952682495
1781215238155986200,5.991986083984375,-4.78122091293335,2.5330653190612793,-2.33913516998291
1781215238166026500,6.002026611328125,-4.72376012802124,2.5689783096313477,-2.808398485183716
1781215238176127700,6.012127685546875,-4.929661273956299,2.293645143508911,-2.9233202934265137
1781215238206370800,6.042370849609375,-4.517858505249023,1.486799240112305,-2.209848165512085
1781215238216472000,6.05247216796875,-4.175487995147705,1.436521053314209,-1.659181833267212
1781215238226573300,6.0625732421875,-4.0533833503723145,1.1875240802764893,-0.7996633648872375
1781215238236674800,6.0726748046875,-3.4356794357299805,1.0319008827209473,-0.1244984865188598
1781215238246715100,6.082715087890625,-2.4444799423217773,0.7972691655158997,0.2298433631658554
1781215238256816400,6.09281640625,-1.623268723487854,0.5339069962501526,0.1436520963907241
1781215238266887200,6.10288720703125,-1.012747287750244,-0.1101332753896713,-0.1915361285209655
1781215238317393700,6.1533935546875,-0.2920926213264465,-0.1340752989053726,-0.3495534360408783
1781215238337566000,6.17356591796875,0.9864110946655272,-0.9792284965515136,-0.3184288144111633
1781215238347636700,6.18363671875,1.6759412288665771,-1.3862427473068235,-0.237025961279869
1781215238357738000,6.193738037109375,2.3750481605529785,-1.5490485429763794,-0.9552865028381348
1781215238367839200,6.203839111328125,2.693476915359497,-1.2066776752471924,-1.0558429956436155
1781215238428447200,6.264447265625,-0.237025961279869,0.1651999205350875,-0.5913678407669067
1781215238438548500,6.274548583984375,-0.507570743560791,-0.3806780576705932,-0.2609679996967315
1781215238448619300,6.284619384765625,0.2489969730377197,-0.42377370595932,-0.3734954595565796
1781215238458720500,6.294720458984375,1.0414776802062988,-0.4453215301036834,-0.569819986820221
1781215238468852500,6.3048525390625,1.4437036514282229,-0.4477157294750213,-0.48602294921875
1781215238478953700,6.31495361328125,1.9177556037902832,-0.5171475410461426,-0.1771709322929382
1781215238489055200,6.32505517578125,2.0470423698425293,-0.2777273952960968,0.1125274822115898
1781215238499156500,6.335156494140625,1.434126853942871,0.1556231081485748,0.4213795065879822
1781215238509257700,6.3452578125,0.6799532771110535,0.2657563984394073,0.6943184733390808
1781215238529460500,6.36546044921875,-0.6584054827690125,-1.295263171195984,1.036689281463623
1781215238539561700,6.375561767578125,-0.8954314589500427,-1.5753847360610962,1.1827356815338137
1781215238549663000,6.3856630859375,-0.8810662031173706,-1.58256733417511,1.1971008777618408
1781215238559764200,6.39576416015625,-0.586579442024231,-1.278503656387329,1.108515381813049
1781215238569835300,6.405835205078125,-0.3160346150398254,-0.7589619159698486,1.072602391242981
1781215238579936500,6.4159365234375,-0.1987187415361404,-0.2202665507793426,0.8690952062606812
1781215238590037800,6.426037841796875,-0.3256114423274994,0.3711012601852417,1.0103530883789062
1781215238600139000,6.436138916015625,-0.2705447971820831,0.9792284965515136,0.871489405632019
1781215238610209800,6.446209716796875,-0.0694318488240242,0.5554547905921936,0.7757213711738586
1781215238630412500,6.46641259765625,0.8259995579719543,-0.7493851184844971,0.7110779285430908
1781215238640513800,6.476513671875,1.321599364280701,-1.3000515699386597,0.5889736413955688
1781215238650615300,6.486615234375,1.2210428714752195,-1.314416766166687,0.871489405632019
1781215238660716500,6.496716552734375,1.2066776752471924,-0.9720458984375,1.2689268589019775
1781215238670817800,6.50681787109375,1.1228805780410769,-0.4285621047019958,1.4772224426269531
1781215238680919000,6.5169189453125,0.8954314589500427,-0.0311246216297149,1.5705963373184204
1781215238691020500,6.5270205078125,0.7134721279144287,0.3543418645858764,1.6663644313812256
1781215238751597800,6.587597900390625,0.8595184087753296,1.3527239561080933,1.8483237028121948
1781215238761699000,6.597698974609375,0.9840168952941896,1.7046716213226318,2.070984363555908
1781215238771800600,6.607800537109375,1.3096283674240112,1.9608511924743652,2.2864625453948975
1781215238781901800,6.61790185546875,1.824381709098816,2.0685901641845703,2.248155355453491
1781215238792003000,6.628003173828125,2.3989901542663574,2.190694570541382,2.2026655673980713
1781215238802104300,6.638104248046875,2.8826189041137695,2.08056116104126,2.056619167327881
1781215238812175000,6.648175048828125,3.1914708614349365,1.807622313499451,2.183511972427368
1781215238822307000,6.65830712890625,3.0190882682800293,1.742978811264038,2.2194249629974365
1781215238832408300,6.668408203125,2.6839001178741455,2.2457611560821533,2.4468741416931152
1781215238842509800,6.678509765625,2.2673089504241943,2.8347349166870117,2.5522189140319824
1781215238852611000,6.688611083984375,1.8602946996688845,2.9233202934265137,2.410961151123047
1781215238862712300,6.69871240234375,1.6136919260025024,2.8155810832977295,2.3558945655822754
1781215238872783000,6.708783203125,1.6879122257232666,2.5306711196899414,2.3104045391082764
1781215238882884400,6.71888427734375,1.9321208000183103,2.085349798202514,2.250549554824829
1781215238892985900,6.72898583984375,2.0446481704711914,1.482010841369629,2.2218191623687744
1781215238903056600,6.739056640625,2.243366956710815,0.974440097808838,2.3127987384796143
1781215238983684000,6.81968408203125,1.6280571222305298,0.9457096457481384,1.45806884765625
1781215239003856100,6.839856201171875,1.290474772453308,1.556231141090393,1.2186486721038818
1781215239013896400,6.849896484375,1.3048399686813354,1.6400281190872192,1.2186486721038818
1781215239023967200,6.85996728515625,1.501164436340332,1.357512354850769,1.261744260787964
1781215239034038000,6.8700380859375,1.659181833267212,1.0630255937576294,1.216254472732544
1781215239044108800,6.88010888671875,1.7142484188079834,0.7589619159698486,1.2856862545013428
1781215239064280800,6.90028076171875,1.7310078144073486,0.8307880163192749,1.2761094570159912
1781215239104594700,6.9405947265625,1.070208191871643,0.7709329724311829,0.8020575642585754
1781215239124736300,6.960736328125,0.9576807022094728,1.1468225717544556,0.9768342971801758
1781215239134807000,6.97080712890625,0.8930372595787048,0.9911994934082032,0.974440097808838
1781215239144877800,6.9808779296875,0.8954314589500427,0.6847416758537292,0.8762778043746948
1781215239154918100,6.990918212890625,0.8643068075180054,0.7230489253997803,0.7805097699165344
1781215239185130500,7.021130615234375,0.2082955539226532,1.3503297567367554,0.4453215301036834
1781215239225444400,7.0614443359375,-0.9193734526634216,2.691082715988159,0.1867477297782898
1781215239245555500,7.081555419921875,-0.8140285611152649,2.647987127304077,-0.0814028605818748
1781215239285838600,7.121838623046875,-0.3399766385555267,1.1516109704971311,-0.1460463106632232
1781215239376536800,7.212536865234375,-3.600879430770874,-0.2466027736663818,-2.5067291259765625
1781215239416850400,7.252850341796875,-4.422090530395508,0.4788403511047363,-4.659116744995117
1781215239426921200,7.262921142578125,-4.558559894561768,0.7230489253997803,-5.078101634979248
1781215239436961500,7.27296142578125,-4.666299343109131,0.8690952062606812,-5.207388877868652
1781215239447032300,7.2830322265625,-4.934449672698975,1.036689281463623,-5.185841083526611
1781215239457133800,7.2931337890625,-5.157110691070557,1.2713210582733154,-5.078101634979248
1781215239467204600,7.30320458984375,-5.039794445037842,1.4197616577148438,-4.824316501617432
1781215239497447400,7.333447509765625,-3.332728862762451,1.5921441316604614,-3.7900211811065674
1781215239507518200,7.343518310546875,-2.8993782997131348,1.6711528301239014,-3.581725835800171
1781215239517558500,7.35355859375,-2.7293899059295654,2.0231003761291504,-3.545812606811523
1781215239527659800,7.36365966796875,-2.96162748336792,2.0374655723571777,-3.603273630142212
1781215239537730600,7.37373046875,-3.332728862762451,1.968033790588379,-3.663128614425659
1781215239547801300,7.38380126953125,-3.421314239501953,1.9823989868164065,-3.5482068061828613
1781215239557872000,7.3938720703125,-3.112462282180786,1.9943699836730957,-3.2609026432037354
1781215239567882000,7.403882080078125,-2.9161376953125,2.121262788772583,-2.8658595085144043
1781215239588054000,7.424053955078125,-2.432508945465088,1.987187385559082,-2.449268341064453
1781215239598125000,7.434125,-2.535459518432617,1.4676456451416016,-2.8778305053710938
1781215239608226300,7.444226318359375,-2.5115175247192383,0.8475474119186401,-3.552995204925537
1781215239618297000,7.454297119140625,-2.2457611560821533,0.3782838582992553,-4.242525577545166
1781215239638408200,7.474408203125,-2.183511972427368,0.4716577231884002,-5.202600479125977
1781215239648509400,7.484509521484375,-2.1763293743133545,0.790086567401886,-5.245696067810059
1781215239668651000,7.504651123046875,-3.004723072052002,1.3838485479354858,-4.898536682128906
1781215239739207700,7.575207763671875,-2.094926595687866,0.1675941199064254,-6.236895561218262
1781215239769389600,7.6053896484375,-1.01753568649292,-1.335964560508728,-6.007051944732666
1781215239779460400,7.61546044921875,-0.8379706144332886,-1.8148049116134644,-5.827486991882324
1781215239789561600,7.6255615234375,-0.6703764796257019,-2.387019157409668,-5.403713226318359
1781215239799663000,7.6356630859375,-0.4381389021873474,-2.8826189041137695,-4.824316501617432
1781215239809734000,7.64573388671875,-0.2801215946674347,-3.189076662063598,-4.5154643058776855
1781215239819835100,7.655835205078125,0.0191536135971546,-3.222595453262329,-4.311957359313965
1781215239829906000,7.665906005859375,0.102950669825077,-3.1699230670928955,-4.132391929626465
1781215239839976700,7.675976806640625,0.2489969730377197,-2.97359848022461,-4.108449935913086
1781215239850017000,7.68601708984375,0.3136404156684875,-2.9951462745666504,-4.094084739685059
1781215239860087800,7.696087890625,0.2585737705230713,-3.026270866394043,-3.94564437866211
1781215239870158600,7.70615869140625,0.2106897532939911,-3.00711727142334,-3.869029998779297
1781215239880199000,7.716198974609375,0.2442085742950439,-3.181894063949585,-3.608062028884888
1781215239920543200,7.756543212890625,0.3567360639572143,-3.691859006881714,-4.0294413566589355
1781215239930644500,7.76664453125,0.4141969084739685,-3.823540210723877,-3.9264907836914062
1781215239940715300,7.77671533203125,0.3543418645858764,-3.9887399673461914,-3.833117008209229
1781215239950786000,7.7867861328125,0.1963245421648025,-4.094084739685059,-3.627215623855591
1781215239960826400,7.796826416015625,-0.102950669825077,-4.062960147857666,-3.3854012489318848
1781215239970897200,7.806897216796875,-0.2130839526653289,-4.055777549743652,-3.184288263320923
1781215240021342700,7.8573427734375,0.7589619159698486,-4.965574264526367,-1.7860745191574097
1781215240061656300,7.89765625,0.6775590777397156,-4.666299343109131,-0.0095768067985773
1781215240112102000,7.948101806640625,1.8315643072128296,-6.387730121612549,1.1037269830703735
1781215240132274200,7.968274169921875,1.9608511924743652,-6.428431510925293,1.012747287750244
1781215240182567200,8.018567138671875,2.255337953567505,-6.22731876373291,2.7892448902130127
1781215240192668400,8.02866845703125,2.4229321479797363,-6.287173748016357,2.9759926795959473
1781215240202739200,8.0387392578125,2.2194249629974365,-6.071695327758789,3.069366693496704
1781215240212840400,8.04884033203125,2.027888774871826,-5.762843608856201,3.1435868740081787
1781215240222942000,8.05894189453125,1.8387469053268433,-5.427655220031738,2.911349296569824
1781215240243083500,8.07908349609375,1.5490485429763794,-4.704606533050537,2.33913516998291
1781215240253184800,8.089184814453125,1.5203180313110352,-4.228160381317139,1.903390407562256
1781215240263255600,8.099255615234375,1.5610195398330688,-3.773261785507202,1.501164436340332
1781215240273326300,8.109326416015625,1.5179238319396973,-3.4308910369873047,0.8188169598579407
1781215240283366700,8.11936669921875,1.5083470344543457,-3.083731889724731,0.3280056416988373
1781215240293468000,8.129468017578125,1.2880805730819702,-2.6192567348480225,-0.1891419291496276
1781215240303538700,8.13953857421875,1.6352397203445437,-2.343923568725586,-0.7733271718025208
1781215240313640200,8.14964013671875,1.1827356815338137,-1.9105730056762695,-1.2210428714752195
1781215240323711000,8.1597109375,0.9911994934082032,-1.86508309841156,-1.4101848602294922
1781215240333781800,8.16978173828125,0.4932055473327636,-1.4772224426269531,-1.5059528350830078
1781215240374065000,8.21006494140625,-0.0478840321302413,-0.3711012601852417,0.1005564704537391
1781215240384166100,8.220166259765625,-0.1173158809542656,-0.768538773059845,0.0143652101978659
1781215240394267400,8.230267333984376,-0.2537853717803955,-0.8188169598579407,-0.2154781520366668
1781215240404307700,8.2403076171875,-0.2920926213264465,-0.751779317855835,-0.4477157294750213
1781215240414409200,8.2504091796875,-0.1843535304069519,-0.4979939460754394,-0.6943184733390808
1781215240424480000,8.26047998046875,-0.4381389021873474,-0.4165911078453064,-1.1540051698684692
1781215240434581200,8.270581298828125,-0.5985504388809204,-0.5003881454467773,-1.5969325304031372
1781215240444591000,8.280591064453125,-0.5961562395095825,-0.6943184733390808,-1.9560627937316897
1781215240454692400,8.2906923828125,-0.6033388376235962,-0.629675030708313,-2.3295583724975586
1781215240474864400,8.310864501953125,-0.90979665517807,-0.7709329724311829,-2.387019157409668
1781215240484935200,8.32093505859375,-1.0199298858642578,-0.9289502501487732,-2.456450939178467
1781215240495036700,8.33103662109375,-1.1013327836990356,-0.8667010068893433,-2.559401512145996
1781215240505107500,8.341107421875,-1.1827356815338137,-0.9840168952941896,-2.626439332962036
1781215240525249000,8.3612490234375,-0.9313444495201112,-1.108515381813049,-2.8562827110290527
1781215240535350300,8.371350341796875,-0.8475474119186401,-0.9217676520347596,-2.937685489654541
1781215240555491800,8.391491943359375,-0.7661445140838623,-1.0869675874710083,-3.536235809326172
1781215240575633400,8.41163330078125,-1.0342950820922852,-0.9289502501487732,-4.651933670043945
1781215240595805700,8.4318056640625,-1.429338455200195,-0.6967126727104187,-5.200206279754639
1781215240605845800,8.441845703125,-1.580173134803772,-0.3974374830722809,-5.518634796142578
1781215240615947300,8.451947265625,-1.556231141090393,-0.6129156351089478,-5.779603004455566
1781215240626018000,8.46201806640625,-1.4772224426269531,-0.9648633003234864,-6.169857978820801
1781215240636088800,8.4720888671875,-1.1827356815338137,-1.1994950771331787,-6.617573261260986
1781215240716777200,8.552777099609376,-0.9528923034667968,-0.0502782352268695,-5.961562156677246
1781215240757091000,8.593091064453125,-0.2705447971820831,-1.659181833267212,-5.762843608856201
1781215240777293600,8.61329345703125,-0.5315127968788147,-1.1899182796478271,-5.894524574279785
1781215240797496300,8.633496337890625,-1.278503656387329,0.1340752989053726,-5.87776517868042
1781215240827769600,8.66376953125,-1.5131354331970217,0.272938996553421,-5.499481201171875
1781215240837871000,8.67387109375,-1.3455413579940796,0.0095768067985773,-5.044582843780518
1781215240847972400,8.683972412109375,-1.070208191871643,-0.059855043888092,-4.764461517333984
1781215240858073600,8.694073486328126,-0.8236053586006165,0.1771709322929382,-4.501099109649658
1781215240868175000,8.704175048828125,-0.9002198576927185,0.5602431893348694,-4.2090067863464355
1781215240878276400,8.7142763671875,-1.295263171195984,1.0247182846069336,-3.6559460163116455
1781215240888377600,8.724377685546875,-1.5298948287963867,1.3479355573654177,-3.485957622528076
1781215240898478800,8.734478759765626,-1.9608511924743652,1.3623007535934448,-3.19865345954895
1781215240918681600,8.754681640625,-2.33913516998291,1.8339585065841677,-2.935291290283203
1781215240928782800,8.764782958984375,-2.4660277366638184,2.408566951751709,-2.583343744277954
1781215240938884000,8.774884033203126,-2.4468741416931152,2.8778305053710938,-2.3798365592956543
1781215240948985600,8.784985595703125,-2.5929205417633057,3.0621838569641113,-2.365471363067627
1781215240969188000,8.80518798828125,-2.920926094055176,2.978386878967285,-2.2385785579681396
1781215240979289600,8.81528955078125,-3.026270866394043,2.894589900970459,-2.118868589401245
1781215240989390800,8.825390869140625,-3.112462282180786,2.676717519760132,-1.8267759084701536
1781215240999492000,8.8354921875,-3.2178070545196533,2.492363929748535,-1.4221558570861816
1781215241009593300,8.84559326171875,-3.2178070545196533,2.4588451385498047,-1.1803414821624756
1781215241019694800,8.85569482421875,-3.0095114707946777,2.111685991287231,-1.3646949529647827
1781215241029796000,8.865796142578125,-3.3710360527038574,1.941697597503662,-1.6112977266311646
1781215241049998600,8.88599853515625,-3.0119056701660156,1.601720929145813,-2.274491548538208
1781215241060100000,8.89610009765625,-2.6839001178741455,1.1803414821624756,-2.293645143508911
1781215241070201300,8.906201416015625,-2.7246015071868896,0.9289502501487732,-2.1930887699127197
1781215241080302600,8.916302490234376,-2.4899697303771973,0.6991068720817566,-2.209848165512085
1781215241090404000,8.926404052734375,-2.5665841102600098,-0.1891419291496276,-2.3295583724975586
1781215241100505300,8.93650537109375,-2.8155810832977295,-0.6799532771110535,-2.382230758666992
1781215241120707800,8.956707763671876,-2.655169725418091,-0.6392518281936646,-1.5514427423477173
1781215241130809300,8.966809326171875,-2.612074136734009,-0.6224924325942993,-1.1851298809051514
1781215241140880100,8.976880126953125,-2.5091233253479004,-0.689530074596405,-0.7206547260284424
1781215241151011800,8.98701171875,-2.7006595134735107,-0.6033388376235962,-0.1915361285209655
1781215241161113300,8.99711328125,-2.6575639247894287,-0.7230489253997803,0.0790086537599563
1781215241171214600,9.007214599609377,-2.2864625453948975,-1.2258312702178955,0.1939303427934646
1781215241181315800,9.01731591796875,-1.479616641998291,-2.161964178085327,0.2777273952960968
1781215241191417000,9.0274169921875,-0.7565677165985107,-3.189076662063598,0.0790086537599563
1781215241201518600,9.0375185546875,-0.2274491637945175,-3.9863457679748535,-0.0670376494526863
1781215241241923800,9.077923828125,-0.727837324142456,-4.235342979431152,-0.332794040441513
1781215241252025000,9.088025146484377,-0.4429273009300232,-4.786009311676025,-0.1340752989053726
1781215241342876000,9.1788759765625,-0.5003881454467773,-0.5147533416748047,0.5147533416748047
1781215241393352000,9.22935205078125,-1.0271124839782717,1.1492167711257937,0.7134721279144287
1781215241423595000,9.259594970703125,-0.7541735172271729,1.4317326545715332,0.7996633648872375
1781215241463878100,9.299878173828125,0.0239420160651206,0.8044517636299133,0.6919242739677429
1781215241483989200,9.3199892578125,0.629675030708313,0.0502782352268695,0.9720458984375
1781215241494090500,9.330090576171877,1.0534487962722778,-0.2011129409074783,1.3646949529647827
1781215241504191700,9.340191650390626,1.5538369417190552,-0.4309563040733337,1.4939818382263184
1781215241514293200,9.350293212890625,1.7908629179000854,-0.363918662071228,1.6065093278884888
1781215241524333300,9.360333251953126,2.0374655723571777,-0.1675941199064254,1.525106430053711
1781215241534404400,9.370404296875,1.8986018896102903,0.2705447971820831,1.498770236968994
1781215241544505600,9.380505615234377,1.7381904125213623,0.8619126081466675,1.2761094570159912
1781215241554606800,9.39060693359375,1.889025092124939,2.008735179901123,0.9816226959228516
1781215241564647200,9.400647216796877,2.33913516998291,2.5330653190612793,0.5937620401382446
1781215241574748400,9.41074853515625,2.140416383743286,2.671929121017456,0.7948749661445618
1781215241584819200,9.420819091796876,1.889025092124939,2.4660277366638184,1.0319008827209473
1781215241594890000,9.430889892578126,1.335964560508728,1.86508309841156,1.015141487121582
1781215241665355300,9.501355224609377,1.8291701078414917,0.7350199222564697,1.1827356815338137
1781215241685466400,9.52146630859375,2.3558945655822754,1.1276689767837524,1.33357036113739
1781215241695567600,9.531567626953125,2.2816741466522217,1.3551181554794312,1.5059528350830078
1781215241715739600,9.55173974609375,1.922544002532959,1.2114660739898682,1.4532804489135742
1781215241725749500,9.56174951171875,1.6687586307525637,0.9026140570640564,1.417367458343506
1781215241735820300,9.5718203125,1.522712230682373,0.4740519225597381,1.357512354850769
1781215241745921500,9.581921630859377,1.58256733417511,0.0933738648891449,1.259350061416626
1781215241755992300,9.591992431640625,1.742978811264038,-0.1364694982767105,1.1444283723831177
1781215241766063000,9.60206298828125,1.6950948238372805,-0.0790086537599563,1.2330138683319092
1781215241776134000,9.6121337890625,1.7334020137786863,0.1388636976480484,1.316810965538025
1781215241786204700,9.62220458984375,1.7094600200653076,0.363918662071228,1.235408067703247
1781215241796275500,9.632275390625,1.482010841369629,0.629675030708313,1.1468225717544556
1781215241816356000,9.652356201171877,0.9648633003234864,1.0630255937576294,0.8930372595787048
1781215241856639200,9.69263916015625,0.7565677165985107,0.8547300100326538,1.7693150043487549
1781215241917125000,9.753125,2.2816741466522217,1.2856862545013428,2.3942017555236816
1781215241927196000,9.76319580078125,2.604891538619995,1.460463047027588,2.470816135406494
1781215241937266700,9.7732666015625,2.849100112915039,1.7525556087493896,2.2840683460235596
1781215241947307000,9.78330712890625,2.8131868839263916,2.085349798202514,1.9369091987609863
1781215241957408300,9.793408203125,2.760514497756958,2.5019407272338867,1.7094600200653076
1781215241967509800,9.803509765625,2.209848165512085,3.0550012588500977,1.558625340461731
1781215241987651300,9.8236513671875,0.8331822156906128,4.153939723968506,1.0821791887283323
1781215241997691600,9.833691650390625,0.1771709322929382,4.357447147369385,0.6344634294509888
1781215242007762400,9.843762451171877,-0.4046200811862945,4.125209331512451,0.4572925269603729
1781215242017863700,9.85386376953125,-0.9792284965515136,3.6727054119110103,0.4429273009300232
1781215242027965000,9.86396484375,-1.577778935432434,3.2824504375457764,0.4596867263317108
1781215242038066400,9.87406640625,-1.525106430053711,2.7246015071868896,0.5746083855628967
1781215242048106800,9.884106689453125,-1.0749965906143188,1.8962076902389529,0.5171475410461426
1781215242058208000,9.8942080078125,-0.4716577231884002,0.5434837937355042,0.2753331959247589
1781215242068309200,9.904309326171877,-0.1484405100345611,-0.8930372595787048,0.1651999205350875
1781215242078380000,9.914380126953125,0.9816226959228516,-1.9560627937316897,-0.150834709405899
1781215242138866000,9.974865966796877,-0.646434485912323,-0.6536170840263367,-0.8331822156906128
1781215242189219800,10.0252197265625,-2.564189910888672,1.295263171195984,-1.3000515699386597
1781215242209453000,10.045453125,-2.231395959854126,0.9433154463768004,-1.9608511924743652
1781215242239696000,10.07569580078125,-2.477998733520508,-0.071826048195362,-2.4827871322631836
1781215242249766700,10.0857666015625,-2.1930887699127197,0.272938996553421,-2.6791117191314697
1781215242259837700,10.095837646484377,-1.944091796875,0.4716577231884002,-2.942473888397217
1781215242269908500,10.105908447265625,-2.032677173614502,0.8643068075180054,-2.980781078338623
1781215242279979300,10.115979248046877,-2.3582887649536133,1.3718775510787964,-2.889801502227783
1781215242290080500,10.12608056640625,-2.7988216876983643,2.2026655673980713,-2.7772738933563232
1781215242300151300,10.1361513671875,-3.1028854846954346,3.023876667022705,-2.6623523235321045
1781215242310222000,10.14622216796875,-3.512293815612793,3.8953661918640137,-2.734178304672241
1781215242340434400,10.176434326171876,-5.70777702331543,4.666299343109131,-2.604891538619995
1781215242350474800,10.186474853515625,-5.980715751647949,4.661510944366455,-2.276885747909546
1781215242451213300,10.28721337890625,-4.448426723480225,5.152322292327881,-4.934449672698975
1781215242481486800,10.31748681640625,-1.7836803197860718,3.8163576126098633,-7.038952827453613
1781215242491527000,10.32752685546875,-1.4724340438842771,2.892195701599121,-8.35097599029541
1781215242501598000,10.337597900390625,-1.2713210582733154,2.1763293743133545,-9.502586364746094
1781215242511699200,10.34769921875,-1.161187767982483,1.8938134908676147,-10.340557098388672
1781215242521770000,10.35777001953125,-1.1803414821624756,1.5514427423477173,-10.235212326049805
1781215242531810300,10.367810302734377,-0.8810662031173706,1.482010841369629,-10.196905136108398
1781215242541881000,10.377881103515625,-0.4596867263317108,1.1276689767837524,-10.268731117248535
1781215242551982300,10.387982421875,0.0167594123631715,0.5913678407669067,-10.043676376342772
1781215242562053000,10.39805322265625,0.828393816947937,-0.2130839526653289,-9.488221168518066
1781215242582194700,10.418194580078126,3.215412855148315,-2.1284453868865967,-8.712499618530273
1781215242592296200,10.428296142578125,3.7158010005950928,-2.6408045291900635,-8.164227485656738
1781215242602336300,10.438336181640626,3.2609026432037354,-2.33913516998291,-7.826645374298096
1781215242612437800,10.448437744140625,2.631227731704712,-1.5466543436050415,-5.5760955810546875
1781215242622508500,10.458508544921877,2.5234885215759277,-1.6184803247451782,-5.39174222946167
1781215242632579300,10.468579345703125,2.00155258178711,-1.4413094520568848,-5.875370979309082
1781215242642619600,10.47861962890625,1.747767210006714,-1.261744260787964,-6.102819919586182
1781215242652721000,10.488720947265625,1.659181833267212,-1.314416766166687,-5.750872611999512
1781215242662761200,10.49876123046875,1.723825216293335,-1.2545616626739502,-5.2049946784973145
1781215242692973600,10.5289736328125,1.9369091987609863,-1.8722656965255735,-4.76924991607666
1781215242703014000,10.539013916015625,2.2385785579681396,-2.4205379486083984,-4.809951305389404
1781215242713115100,10.549115234375,2.3295583724975586,-2.9472622871398926,-4.790797710418701
1781215242723155500,10.559155517578125,2.4157495498657227,-3.3279404640197754,-4.558559894561768
1781215242733256700,10.569256591796876,2.322375535964966,-3.9193081855773926,-4.347870349884033
1781215242743327500,10.579327392578126,2.118868589401245,-4.331110954284668,-4.077325344085693
1781215242753398300,10.589398193359376,1.9632453918457031,-4.836287498474121,-3.746925592422486
1781215242763438600,10.5994384765625,1.759738206863403,-5.154716491699219,-3.3734302520751953
1781215242773509400,10.60950927734375,1.6759412288665771,-5.449203014373779,-2.8778305053710938
1781215242783580200,10.619580078125,1.5610195398330688,-6.009446144104004,-2.535459518432617
1781215242854106400,10.6901064453125,1.400607943534851,-9.136273384094238,-0.6368576288223267
1781215242894389500,10.730389404296876,0.7661445140838623,-8.767566680908203,0.6584054827690125
1781215242904460300,10.740460205078126,0.7613561153411865,-8.966285705566406,1.1204863786697388
1781215242914561800,10.750561767578125,0.8092401623725891,-9.028534889221191,1.4221558570861816
1781215242924602000,10.76060205078125,0.7733271718025208,-8.992621421813965,1.6831238269805908
1781215242934703400,10.770703369140625,0.768538773059845,-8.765172004699707,1.889025092124939
1781215242944774100,10.780774169921877,0.8834604024887085,-8.712499618530273,2.0925323963165283
1781215242954845000,10.790844970703125,0.8978256583213806,-8.497021675109863,2.3247697353363037
1781215242964885200,10.80088525390625,1.0199298858642578,-8.497021675109863,2.5761611461639404
1781215242974956000,10.8109560546875,1.0893617868423462,-8.398859977722168,2.537853717803955
1781215243005198800,10.84119873046875,1.01753568649292,-7.285555839538574,2.695871114730835
1781215243025371100,10.86137109375,0.5291185975074768,-5.880159378051758,2.738966703414917
1781215243035472400,10.871472412109377,0.3615244626998901,-5.329493045806885,2.470816135406494
1781215243045482200,10.881482177734377,0.3782838582992553,-4.862623691558838,2.217030763626098
1781215243055583500,10.89158349609375,0.6751648783683777,-4.405331134796143,1.9584569931030271
1781215243065654300,10.901654296875,0.9409212470054626,-3.9887399673461914,1.5131354331970217
1781215243075725000,10.91172509765625,0.9289502501487732,-3.3470940589904785,1.1875240802764893
1781215243095897000,10.93189697265625,0.9265560507774352,-1.647210717201233,0.7948749661445618
1781215243105998600,10.94199853515625,0.8547300100326538,-0.6153098344802856,0.5147533416748047
1781215243116099800,10.952099853515625,0.7757213711738586,0.3591302633285522,0.3351882398128509
1781215243156444000,10.99244384765625,1.2234370708465576,0.9457096457481384,-0.5722141861915588
1781215243166545400,11.00254541015625,1.0247182846069336,1.0199298858642578,-0.9050082564353944
1781215243196849400,11.032849365234377,-0.0239420160651206,0.9481038451194764,-0.8212111592292786
1781215243206920200,11.042920166015625,-0.0430956296622753,0.8930372595787048,-0.3375824391841888
1781215243237193500,11.073193359375,1.4245500564575195,-0.8571242094039917,0.3663128614425659
1781215243247264300,11.08326416015625,2.008735179901123,-1.3551181554794312,0.0023942016996443
1781215243257365800,11.09336572265625,2.145204782485962,-1.381454348564148,-0.3471592366695404
1781215243267436500,11.1034365234375,1.9632453918457031,-1.1468225717544556,-0.7852981686592102
1781215243277537800,11.113537841796877,1.45806884765625,-0.8212111592292786,-1.321599364280701
1781215243287608600,11.123608642578125,0.7637503147125244,-0.727837324142456,-1.903390407562256
1781215243297709800,11.133709716796876,0.1723825186491012,-0.5051765441894531,-2.6384103298187256
1781215243307750100,11.143750244140625,0.0215478148311376,-0.3711012601852417,-3.335123062133789
1781215243317851400,11.153851318359376,-0.0814028605818748,-0.3280056416988373,-3.8570590019226074
1781215243327953000,11.163952880859377,-0.0263362191617488,-0.6584054827690125,-4.031835556030273
1781215243338084600,11.174084716796877,0.3256114423274994,-1.4963760375976562,-4.256890773773193
1781215243348185900,11.184185791015626,0.3064578175544739,-2.604891538619995,-4.292803764343262
1781215243358287400,11.194287353515625,-0.0574608407914638,-3.7493197917938232,-4.252102375030518
1781215243368358100,11.204358154296877,-0.2849099934101105,-4.031835556030273,-4.046200752258301
1781215243378429000,11.214428955078125,-0.6607996821403503,-3.7876269817352295,-3.8762125968933105
1781215243388530200,11.2245302734375,-1.273715257644653,-3.4596214294433594,-3.950432777404785
1781215243398631400,11.23463134765625,-1.766920804977417,-2.9496564865112305,-4.477157115936279
1781215243408733000,11.24473291015625,-2.229001760482788,-2.5953147411346436,-5.219359874725342
1781215243428935400,11.264935302734376,-3.313575267791748,-2.513911724090576,-6.0836663246154785
1781215243439037000,11.275036865234377,-3.627215623855591,-2.425326347351074,-6.368576526641846
1781215243449138200,11.28513818359375,-3.634398221969605,-2.6024973392486572,-6.567295074462891
1781215243459239400,11.295239501953125,-3.600879430770874,-2.985569477081299,-6.581660270690918
1781215243469340700,11.305340576171876,-3.354276657104492,-3.5936968326568604,-6.435614109039307
1781215243479442200,11.315442138671877,-3.3494882583618164,-3.825934410095215,-6.174646377563477
1781215243489543400,11.32554345703125,-3.3039982318878174,-3.8139634132385254,-6.119579315185547
1781215243499644700,11.335644775390625,-3.5482068061828613,-3.799597978591919,-6.361393928527832
1781215243509746000,11.345745849609376,-3.8163576126098633,-3.8355112075805664,-6.746860504150391
1781215243529948700,11.36594873046875,-4.288015365600586,-3.3063924312591553,-7.280767440795898
1781215243540050000,11.3760498046875,-4.1180267333984375,-3.155557870864868,-7.067683219909668
1781215243590556700,11.426556640625,-2.9017724990844727,-3.1459810733795166,-6.038176536560059
1781215243610759200,11.44675927734375,-2.9496564865112305,-2.7533318996429443,-6.390124320983887
1781215243671336700,11.507336669921877,-2.782062292098999,-2.8179752826690674,-5.365406036376953
1781215243681407500,11.517407470703125,-2.8874073028564453,-2.7892448902130127,-5.16429328918457
1781215243691508700,11.5275087890625,-2.7772738933563232,-2.434903144836426,-4.989516258239746
1781215243701610000,11.53760986328125,-2.940079689025879,-2.08056116104126,-4.8482584953308105
1781215243711711500,11.54771142578125,-3.155557870864868,-1.9321208000183103,-4.697423934936523
1781215243721751600,11.55775146484375,-3.3662476539611816,-1.7621324062347412,-4.568136692047119
1781215243731883500,11.567883544921877,-3.339911460876465,-0.9241618514060974,-4.503493309020996
1781215243782390000,11.61839013671875,-3.464409828186035,-1.4460978507995603,-2.250549554824829
1781215243802562300,11.638562255859377,-3.4763808250427246,-0.5650315880775452,-2.434903144836426
1781215243812663600,11.64866357421875,-3.847482204437256,0.1221042871475219,-2.5234885215759277
1781215243822795300,11.658795166015626,-4.19224739074707,0.8619126081466675,-2.499546527862549
1781215243832896800,11.668896728515625,-4.644751071929932,1.6376339197158811,-2.382230758666992
1781215243842967600,11.678967529296877,-5.195417881011963,2.0829553604125977,-2.1547815799713135
1781215243853068800,11.68906884765625,-5.60722017288208,2.0231003761291504,-2.030282974243164
1781215243863170000,11.699170166015625,-5.310339450836182,1.6543933153152466,-1.9177556037902832
1781215243873271300,11.709271240234376,-4.955997467041016,0.8858546018600464,-1.8794482946395872
1781215243883372800,11.719372802734377,-4.417302131652832,0.5985504388809204,-2.056619167327881
1781215243893443600,11.729443603515625,-4.084507942199707,0.3543418645858764,-2.049436569213867
1781215243903514400,11.739514404296877,-4.003105163574219,0.3471592366695404,-1.987187385559082
1781215243913585200,11.749585205078125,-4.108449935913086,0.6320692300796509,-2.0231003761291504
1781215243923656000,11.759656005859377,-4.32871675491333,1.0606313943862915,-2.1523873805999756
1781215243933726700,11.769726806640625,-4.9152960777282715,1.4676456451416016,-2.3511061668395996
1781215243943767000,11.77976708984375,-5.341464042663574,1.577778935432434,-2.3965959548950195
1781215243953837800,11.789837890625,-5.523423194885254,1.400607943534851,-2.3032219409942627
1781215243984050200,11.82005029296875,-4.838681697845459,0.849941611289978,-1.944091796875
1781215243994121000,11.830120849609376,-4.764461517333984,0.8690952062606812,-1.8555063009262085
1781215244004222500,11.840222412109377,-4.486733913421631,1.137245774269104,-1.7286136150360107
1781215244044505600,11.880505615234377,-3.885789394378662,1.45806884765625,0.4501099288463592
1781215244054546000,11.8905458984375,-3.162740468978882,0.2442085742950439,0.7589619159698486
1781215244115001000,11.9510009765625,0.6272808313369751,-4.790797710418701,0.4501099288463592
1781215244125041400,11.96104150390625,0.7374141216278076,-4.378994941711426,0.6368576288223267
1781215244135142700,11.971142578125,0.3423708379268646,-4.458003520965576,0.6727706789970398
1781215244145183000,11.981182861328126,0.2633621990680694,-4.917690277099609,0.730231523513794
1781215244155253800,11.991253662109376,0.7876923680305481,-5.367800235748291,0.8475474119186401
1781215244185496800,12.021496826171877,2.0254945755004883,-4.994304656982422,1.2641384601593018
1781215244195537200,12.031537109375,1.9632453918457031,-4.05817174911499,1.192312479019165
1781215244205608000,12.04160791015625,1.599326729774475,-3.3494882583618164,1.1779472827911377
1781215244215648300,12.051648193359377,0.9074024558067322,-2.85867691040039,1.558625340461731
1781215244225749500,12.06174951171875,0.1771709322929382,-2.1308395862579346,1.946485996246338
1781215244235850800,12.071850830078125,-0.5530605912208557,-1.1899182796478271,2.233790159225464
1781215244245921500,12.081921630859377,-0.5506663918495178,-0.5554547905921936,2.164358377456665
1781215244255992300,12.091992431640625,-0.7110779285430908,-0.5602431893348694,1.9105730056762695
1781215244276164600,12.11216455078125,0.3711012601852417,-0.849941611289978,1.479616641998291
1781215244286265900,12.122265869140625,0.8619126081466675,-0.9145850539207458,1.5442601442337036
1781215244296336600,12.132336669921877,1.161187767982483,-0.7948749661445618,1.4963760375976562
1781215244306438000,12.14243798828125,1.5921441316604614,-0.8427590131759644,1.4197616577148438
1781215244316508700,12.1525087890625,1.9943699836730957,-0.7805097699165344,1.1971008777618408
1781215244326610000,12.16260986328125,2.31758713722229,-0.5434837937355042,0.9624691009521484
1781215244336681000,12.172680908203125,2.7437551021575928,-0.2585737705230713,0.5817909836769104
1781215244346751700,12.182751708984377,2.650381326675415,-0.3088520169258117,0.4429273009300232
1781215244356822500,12.192822509765625,2.3726539611816406,-0.6440402865409851,0.4333505034446716
1781215244366862800,12.20286279296875,1.987187385559082,-0.8164227604866028,0.569819986820221
1781215244397105700,12.233105712890625,0.4381389021873474,0.7134721279144287,0.811634361743927
1781215244407176400,12.243176513671877,0.2106897532939911,0.912190854549408,0.8379706144332886
1781215244417216800,12.253216796875,0.2944868206977844,1.0319008827209473,0.8427590131759644
1781215244427318000,12.263318115234377,1.1180921792984009,1.05105459690094,0.8930372595787048
1781215244497783000,12.333782958984376,0.4213795065879822,1.7094600200653076,1.6759412288665771
1781215244528026000,12.364026123046877,1.170764684677124,1.965639591217041,1.944091796875
1781215244548137200,12.38413720703125,1.886630892753601,1.6065093278884888,1.6735470294952393
1781215244558208000,12.3942080078125,2.207453966140747,1.1180921792984009,1.7286136150360107
1781215244568248300,12.404248291015625,2.3965959548950195,0.5913678407669067,1.759738206863403
1781215244578349600,12.414349609375,2.3104045391082764,0.3447650372982025,1.8267759084701536
1781215244588420400,12.42442041015625,2.0422539710998535,0.2298433631658554,1.86508309841156
1781215244608562000,12.44456201171875,1.4053963422775269,0.6943184733390808,1.742978811264038
1781215244618632700,12.4546328125,1.2306196689605713,0.9217676520347596,1.7310078144073486
1781215244628673000,12.464673095703125,1.1540051698684692,1.0271124839782717,1.7908629179000854
1781215244638774300,12.474774169921876,1.158793568611145,1.0271124839782717,1.7717092037200928
1781215244648845000,12.484844970703126,1.273715257644653,1.01753568649292,1.6328455209732056
1781215244658885400,12.494885498046877,1.3862427473068235,0.9720458984375,1.403002142906189
1781215244668925700,12.50492578125,1.4915876388549805,1.01753568649292,1.295263171195984
1781215244689067300,12.5250673828125,1.7405846118927002,0.8020575642585754,0.8690952062606812
1781215244709208800,12.545208740234376,0.9361328482627868,1.237802267074585,0.7493851184844971
1781215244759624000,12.5956240234375,0.5722141861915588,1.948880195617676,1.0893617868423462
1781215244769694700,12.60569482421875,0.8331822156906128,1.7334020137786863,0.9169792532920836
1781215244779765500,12.615765625,1.170764684677124,1.3551181554794312,0.9481038451194764
1781215244789836300,12.625836181640626,1.4077905416488647,1.1180921792984009,1.0678139925003052
1781215244799907000,12.635906982421876,1.3431471586227417,1.070208191871643,1.3192051649093628
1781215244850261200,12.68626123046875,0.7110779285430908,2.477998733520508,2.631227731704712
1781215244910625000,12.746625,0.9002198576927185,2.956839084625244,1.161187767982483
1781215244920665300,12.756665283203125,0.5889736413955688,2.851494312286377,0.9002198576927185
1781215244930766600,12.7667666015625,0.2920926213264465,2.846705913543701,0.7733271718025208
1781215244940837400,12.77683740234375,0.0167594123631715,2.9017724990844727,0.5985504388809204
1781215244950908200,12.786908203125,0.0071826050989329,2.9161376953125,0.2466027736663818
1781215244960948500,12.796948486328125,0.3974374830722809,2.470816135406494,-0.2346317619085312
1781215244971049700,12.8070498046875,0.6512228846549988,1.259350061416626,-0.6607996821403503
1781215244981090000,12.817090087890625,1.000776290893555,-0.4932055473327636,-0.9241618514060974
1781215244991160800,12.827160888671877,0.7613561153411865,-1.941697597503662,-0.9145850539207458
1781215245011332900,12.847332763671876,-0.3663128614425659,-2.7892448902130127,-0.4596867263317108
1781215245021403600,12.857403564453126,-1.482010841369629,-2.2457611560821533,-0.1771709322929382
1781215245031505200,12.867505126953125,-2.43011474609375,-1.678335428237915,-0.090979665517807
1781215245041545500,12.87754541015625,-1.434126853942871,-1.821987509727478,-0.6009446382522583
1781215245051616300,12.8876162109375,-0.4165911078453064,-3.663128614425659,-1.3263877630233765
1781215245061656300,12.89765625,-0.4620809257030487,-5.995080947875977,-1.8722656965255735
1781215245071696600,12.907696533203126,-0.1244984865188598,-6.763619899749756,-1.482010841369629
1781215245081767400,12.917767333984376,-0.2944868206977844,-6.13633918762207,-0.5291185975074768
1781215245091869000,12.927868896484377,-0.8978256583213806,-4.953603267669678,0.507570743560791
1781215245112041000,12.948041015625,-2.0470423698425293,-2.913743495941162,0.6344634294509888
1781215245122111700,12.95811181640625,-2.2026655673980713,-1.6041151285171509,0.1221042871475219
1781215245132213000,12.968212890625,-1.7741034030914309,-0.2513911724090576,-0.2154781520366668
1781215245152415700,12.988415771484377,-0.4357447028160095,1.5203180313110352,-1.3311761617660522
1781215245162486500,12.998486572265625,-0.241814374923706,1.6974890232086182,-2.0231003761291504
1781215245172557300,13.008557373046877,-0.071826048195362,1.972822189331055,-2.473210334777832
1781215245192668400,13.02866845703125,-0.3303998410701751,2.8203697204589844,-3.05260705947876
1781215245202739200,13.0387392578125,-0.7948749661445618,3.375824451446533,-3.205836057662964
1781215245212810000,13.04881005859375,-1.3455413579940796,3.952826976776123,-3.3063924312591553
1781215245222880800,13.058880859375,-1.460463047027588,4.398148536682129,-3.406949043273926
1781215245232951600,13.06895166015625,-1.1516109704971311,4.778826713562012,-3.71819519996643
1781215245243022300,13.079022216796876,-0.9026140570640564,4.999093055725098,-3.998316764831543
1781215245253093000,13.089093017578126,-1.108515381813049,5.410895824432373,-4.180276393890381
1781215245273296000,13.1092958984375,-1.7693150043487549,6.102819919586182,-4.623203277587891
1781215245354014700,13.1900146484375,-5.631162166595459,7.747636795043945,0.4213795065879822
1781215245424541000,13.260541015625,-0.9672574996948242,-1.1899182796478271,-3.725377798080444
1781215245434673000,13.2706728515625,0.1244984865188598,-2.547430515289306,-4.1180267333984375
1781215245454845000,13.290844970703125,0.1436520963907241,-2.363077163696289,-3.141192674636841
1781215245464915700,13.300915771484377,-0.8547300100326538,-1.5275006294250488,-2.497152328491211
1781215245474986500,13.310986572265625,-1.525106430053711,-0.6224924325942993,-2.590526342391968
1781215245485087700,13.321087646484376,-1.9752163887023928,-0.4189853072166443,-3.423708438873291
1781215245495158500,13.331158447265626,-2.7772738933563232,-0.8403648138046265,-6.382941722869873
1781215245505198800,13.34119873046875,-2.0877439975738525,-1.6639702320098877,-8.054094314575195
1781215245515300400,13.35130029296875,-1.0606313943862915,-2.454056739807129,-9.950302124023438
1781215245575755500,13.411755615234377,6.119579315185547,-10.453084945678713,-10.575188636779783
1781215245656444000,13.49244384765625,5.631162166595459,-7.960720539093018,-2.8131868839263916
1781215245666545400,13.50254541015625,5.329493045806885,-6.967126846313477,-2.734178304672241
1781215245676646700,13.512646728515625,5.2480902671813965,-6.074089527130127,-2.535459518432617
1781215245686717400,13.522717529296877,4.888959884643555,-5.070919036865234,-2.027888774871826
1781215245696788200,13.532788330078125,4.750096321105957,-4.3191399574279785,-1.659181833267212
1781215245747203300,13.583203369140625,5.841852188110352,-7.42681360244751,0.2753331959247589
1781215245757304600,13.5933046875,5.628767967224121,-9.509769439697266,0.8451532125473022
1781215245767405800,13.60340576171875,5.521028995513916,-10.474632263183594,1.699883222579956
1781215245827983400,13.6639833984375,5.458779811859131,-9.138668060302734,1.7693150043487549
1781215245888621800,13.724621826171877,4.199429988861084,-8.999804496765137,2.2002713680267334
1781215245898723000,13.73472314453125,3.5745432376861572,-8.592789649963379,2.3535003662109375
1781215245908824300,13.74482421875,3.1052796840667725,-8.149862289428711,2.655169725418091
1781215245918925800,13.75492578125,2.9041666984558105,-7.668628215789795,2.7964274883270264
1781215245939158800,13.77515869140625,2.9951462745666504,-7.043741226196289,2.7437551021575928
1781215245949290800,13.785290771484377,3.0190882682800293,-7.117961883544922,2.6024973392486572
1781215245959392000,13.79539208984375,3.1938650608062744,-7.067683219909668,2.427720546722412
1781215245969493200,13.8054931640625,3.3901896476745605,-6.938396453857422,2.0877439975738525
1781215245979594800,13.8155947265625,3.215412855148315,-6.598419666290283,1.6519991159439087
1781215246020000000,13.856,1.6304513216018677,-4.252102375030518,-0.8643068075180054
1781215246030131700,13.866131591796876,1.237802267074585,-3.744531393051147,-1.3766659498214722
1781215246070537000,13.906536865234376,0.933738648891449,-1.7717092037200928,-3.177105665206909
1781215246110911700,13.946911865234377,0.5195417404174805,1.3503297567367554,-1.9632453918457031
1781215246120982500,13.956982421875,0.5267243981361389,1.8148049116134644,-1.8291701078414917
1781215246131114500,13.967114501953125,0.4692635238170624,2.0925323963165283,-1.742978811264038
1781215246141215700,13.9772158203125,0.507570743560791,2.185906171798706,-1.6735470294952393
1781215246151317000,13.98731689453125,0.5171475410461426,2.1499931812286377,-1.6927006244659424
1781215246161387800,13.9973876953125,0.5913678407669067,2.2385785579681396,-1.5634137392044067
1781215246171519700,14.007519775390625,0.6392518281936646,2.3127987384796143,-1.4748282432556152
1781215246181621000,14.01762109375,0.586579442024231,2.403778553009033,-1.4221558570861816
1781215246242229000,14.07822900390625,0.7709329724311829,1.8626888990402224,-2.497152328491211
1781215246323039500,14.15903955078125,2.8874073028564453,-0.4429273009300232,-0.7230489253997803
1781215246333140700,14.169140625,2.6886885166168213,-0.3543418645858764,-0.7805097699165344
1781215246363475200,14.19947509765625,0.9217676520347596,0.5099649429321289,-1.1492167711257937
1781215246383708400,14.21970849609375,0.4213795065879822,1.0295066833496094,-2.1164743900299072
1781215246393809700,14.2298095703125,0.5051765441894531,1.1180921792984009,-2.470816135406494
1781215246403911200,14.2399111328125,0.7852981686592102,1.1516109704971311,-2.6647465229034424
1781215246414012400,14.250012451171877,1.2090718746185305,1.0558429956436155,-2.87064790725708
1781215246424113700,14.26011376953125,1.2641384601593018,0.969651699066162,-3.0166940689086914
1781215246434245600,14.27024560546875,1.3479355573654177,0.9193734526634216,-2.9927520751953125
1781215246444347000,14.280346923828125,1.4676456451416016,0.7015010714530945,-2.9233202934265137
1781215246454448000,14.2904482421875,1.33357036113739,0.4477157294750213,-2.559401512145996
1781215246464549400,14.30054931640625,1.5442601442337036,0.3208230137825012,-2.073378562927246
1781215246474651000,14.31065087890625,1.5705963373184204,0.0670376494526863,-1.7070658206939695
1781215246484782600,14.320782470703126,1.7094600200653076,-0.2609679996967315,-1.4532804489135742
1781215246494884000,14.330884033203125,1.903390407562256,-0.5913678407669067,-1.134851574897766
1781215246504985300,14.3409853515625,2.0374655723571777,-0.7110779285430908,-1.0630255937576294
1781215246565471200,14.40147119140625,1.2497732639312744,-0.5171475410461426,-1.625662922859192
1781215246605784800,14.441784912109377,1.625662922859192,-1.7094600200653076,-1.237802267074585
1781215246646098700,14.4820986328125,0.8762778043746948,-0.5027823448181152,-2.473210334777832
1781215246676311000,14.51231103515625,0.241814374923706,-1.1516109704971311,-2.3702597618103027
1781215246686412300,14.522412353515625,0.7398083209991455,-0.9983820915222168,-2.5019407272338867
1781215246696513500,14.532513427734376,0.7589619159698486,-0.7398083209991455,-2.734178304672241
1781215246706615000,14.542614990234377,0.7158663272857666,-0.0861912593245506,-3.050212860107422
1781215246716655000,14.552655029296876,0.2968810200691223,0.5793967843055725,-3.1076738834381104
1781215246726695400,14.5626953125,-0.0502782352268695,1.1755530834197998,-2.9903578758239746
1781215246736766200,14.57276611328125,-0.2059013396501541,1.7262194156646729,-2.63362193107605
1781215246746837000,14.5828369140625,-0.2466027736663818,2.0829553604125977,-1.944091796875
1781215246777110500,14.613110595703125,-0.6224924325942993,2.849100112915039,-1.4844050407409668
1781215246787181300,14.623181396484377,-0.9624691009521484,3.2082302570343018,-1.824381709098816
1781215246797282600,14.633282470703126,-1.2521674633026123,3.5266590118408203,-2.1571757793426514
1781215246807323000,14.643322998046877,-1.4676456451416016,3.339911460876465,-2.3798365592956543
1781215246817424100,14.653424072265626,-1.7932571172714231,2.9161376953125,-2.3367409706115723
1781215246827525600,14.663525634765625,-1.7118542194366455,2.7772738933563232,-2.410961151123047
1781215246837627000,14.673626953125,-1.7884687185287476,2.5929205417633057,-2.343923568725586
1781215246867839200,14.703839111328126,-2.279279947280884,2.006340980529785,-3.090914487838745
1781215246888011500,14.724011474609377,-2.3942017555236816,1.8986018896102903,-4.003105163574219
1781215246898082300,14.734082275390625,-2.832340717315674,1.3838485479354858,-4.206612586975098
1781215246908153000,14.744153076171877,-2.9041666984558105,0.7086837291717529,-4.4077253341674805
1781215246918254300,14.75425439453125,-3.201047658920288,0.5889736413955688,-3.9193081855773926
1781215246928325000,14.7643251953125,-3.3925838470458984,0.8523358106613159,-3.222595453262329
1781215246998881800,14.8348818359375,-0.4932055473327636,-1.721431016921997,-2.2361843585968018
1781215247039195400,14.8751953125,-2.0231003761291504,-1.4676456451416016,-1.680729627609253
1781215247049297000,14.885296875,-1.845929503440857,-1.5610195398330688,-1.965639591217041
1781215247059398100,14.895398193359377,-1.455674648284912,-1.7884687185287476,-2.0638017654418945
1781215247139842600,14.975842529296877,-0.6703764796257019,-0.3782838582992553,-0.7541735172271729
1781215247149913300,14.985913330078125,-0.6919242739677429,-0.0095768067985773,-0.7374141216278076
1781215247180156200,15.01615625,0.6057330369949341,0.3423708379268646,0.0071826050989329
1781215247190227000,15.02622705078125,0.6057330369949341,0.102950669825077,0.2873041927814483
1781215247210338000,15.046338134765625,0.5267243981361389,-0.0167594123631715,0.849941611289978
1781215247260783600,15.09678369140625,1.900996208190918,-0.4572925269603729,0.7972691655158997
1781215247280955600,15.11695556640625,1.3670891523361206,-0.8595184087753296,1.522712230682373
1781215247311198700,15.14719873046875,0.706289529800415,-0.1651999205350875,1.7142484188079834
1781215247321269500,15.15726953125,0.8164227604866028,-0.2944868206977844,1.7956513166427612
1781215247331340300,15.16734033203125,0.790086567401886,-0.3375824391841888,1.9536685943603516
1781215247341441500,15.177441650390625,1.2665326595306396,-0.1963245421648025,1.987187385559082
1781215247351512300,15.18751220703125,1.4724340438842771,-0.2346317619085312,2.03507137298584
1781215247361552600,15.197552734375,1.7070658206939695,-0.2442085742950439,2.0661959648132324
1781215247371623400,15.20762353515625,1.807622313499451,-0.0119710080325603,1.9967641830444336
1781215247381724700,15.217724609375,1.8626888990402224,0.272938996553421,1.900996208190918
1781215247391826200,15.227826171875,1.843535304069519,0.4189853072166443,1.7764976024627686
1781215247401897000,15.23789697265625,1.869871497154236,0.569819986820221,1.6304513216018677
1781215247411937300,15.247937255859377,1.7956513166427612,0.8020575642585754,1.4676456451416016
1781215247422038500,15.25803857421875,1.678335428237915,1.0414776802062988,1.273715257644653
1781215247432109300,15.268109375,1.3910311460494995,1.434126853942871,1.237802267074585
1781215247452251000,15.2882509765625,1.414973258972168,1.556231141090393,1.048660397529602
1781215247462321700,15.29832177734375,1.3431471586227417,1.1492167711257937,0.9193734526634216
1781215247472331500,15.30833154296875,1.2258312702178955,0.7709329724311829,0.9433154463768004
1781215247482432800,15.318432861328125,1.1109095811843872,0.608127236366272,0.969651699066162
1781215247492503600,15.328503662109377,0.9983820915222168,0.5985504388809204,0.8451532125473022
1781215247512645000,15.34864501953125,0.8595184087753296,0.5889736413955688,0.7015010714530945
1781215247522716000,15.3587158203125,0.9050082564353944,0.4046200811862945,0.6009446382522583
1781215247532786700,15.36878662109375,1.0247182846069336,0.2082955539226532,0.7254431247711182
1781215247542857700,15.378857666015625,1.4269442558288574,-0.1077390760183334,0.90979665517807
1781215247573100500,15.4091005859375,1.5705963373184204,-0.3734954595565796,1.4508862495422363
1781215247583201800,15.419201904296877,1.4915876388549805,-0.0430956296622753,1.4221558570861816
1781215247593272600,15.4292724609375,1.3024457693099976,0.2944868206977844,1.4652514457702637
1781215247603313000,15.43931298828125,1.292868971824646,0.8212111592292786,1.3766659498214722
1781215247613414100,15.4494140625,1.4484920501708984,1.0271124839782717,1.3000515699386597
1781215247633525200,15.469525146484376,1.81959331035614,0.5913678407669067,1.259350061416626
1781215247714152700,15.550152587890626,1.1516109704971311,1.3694833517074585,1.534683346748352
1781215247794719200,15.63071923828125,1.3407529592514038,1.290474772453308,1.0630255937576294
1781215247804759600,15.640759521484377,1.9057846069335935,0.8738836050033569,0.8786720037460327
1781215247814860800,15.65086083984375,2.0614075660705566,0.2106897532939911,0.7709329724311829
1781215247824931600,15.660931640625,2.1068975925445557,-0.2059013396501541,0.9313444495201112
1781215247835002400,15.67100244140625,1.941697597503662,-0.4213795065879822,1.1228805780410769
1781215247845073200,15.6810732421875,1.7190368175506592,-0.1723825186491012,1.137245774269104
1781215247855174400,15.69117431640625,1.338358759880066,0.0574608407914638,1.0319008827209473
1781215247865214700,15.701214599609376,0.8092401623725891,0.3136404156684875,0.9864110946655272
1781215247875285500,15.711285400390626,0.1771709322929382,0.6105214357376099,0.9289502501487732
1781215247885356300,15.721356201171876,-0.4572925269603729,1.05105459690094,0.9289502501487732
1781215247895396600,15.731396728515625,-0.6392518281936646,1.403002142906189,0.8547300100326538
1781215247925578500,15.76157861328125,-1.3239935636520386,1.335964560508728,0.395043283700943
1781215247935618800,15.771618896484377,-1.3646949529647827,1.1803414821624756,0.3088520169258117
1781215247986034000,15.822033935546877,-1.0247182846069336,0.1556231081485748,-1.273715257644653
1781215247996104700,15.832104736328125,-1.1994950771331787,0.0837970599532127,-1.7310078144073486
1781215248046519800,15.882519775390625,-2.8227639198303223,-2.2816741466522217,-3.983951568603515
1781215248056590600,15.892590576171877,-3.4117374420166016,-2.207453966140747,-4.486733913421631
1781215248066722300,15.902722412109377,-3.9887399673461914,-1.678335428237915,-4.867412090301514
1781215248076762600,15.9127626953125,-4.189853191375732,-1.1492167711257937,-5.228936672210693
1781215248086864000,15.92286376953125,-3.746925592422486,-0.871489405632019,-5.990292549133301
1781215248096965400,15.93296533203125,-3.406949043273926,-0.8762778043746948,-6.821080684661865
1781215248107066600,15.943066650390625,-2.607285737991333,-1.012747287750244,-7.445967197418213
1781215248127208200,15.963208251953125,-1.972822189331055,-1.5705963373184204,-7.819462776184082
1781215248137279000,15.973279052734377,-2.140416383743286,-1.7525556087493896,-7.544129371643066
1781215248147349800,15.983349853515625,-2.628833532333374,-1.625662922859192,-6.921637058258057
1781215248157451000,15.993450927734376,-3.066972494125366,-1.0558429956436155,-6.172252178192139
1781215248167521800,16.003521728515626,-3.136404275894165,-0.150834709405899,-5.5545477867126465
1781215248177562000,16.01356201171875,-3.272873640060425,0.7110779285430908,-5.16429328918457
1781215248187633000,16.0236328125,-3.598485231399536,1.678335428237915,-4.764461517333984
1781215248197764900,16.033764892578127,-3.6822822093963623,2.779668092727661,-4.491522312164307
1781215248207805200,16.04380517578125,-3.665522813796997,3.811569213867187,-4.1874589920043945
1781215248217876000,16.0538759765625,-3.608062028884888,4.541800498962402,-4.230554580688477
1781215248298442200,16.134442138671876,-4.266467571258545,3.914519786834717,-5.9519853591918945
1781215248368899000,16.204899169921877,-1.0654197931289673,1.0821791887283323,-10.192116737365724
1781215248389071000,16.225071044921876,-1.0079588890075684,0.1723825186491012,-10.663774490356444
1781215248399142000,16.235141845703126,-0.950498104095459,0.1101332753896713,-10.565611839294434
1781215248409243100,16.2452431640625,-1.05105459690094,-0.0957680642604827,-10.393229484558104
1781215248419344600,16.2553447265625,-1.1516109704971311,-0.3567360639572143,-10.271124839782717
1781215248429446000,16.26544580078125,-1.0462661981582642,-0.7326257228851318,-10.06043529510498
1781215248439516700,16.2755166015625,-0.8690952062606812,-1.5394717454910278,-9.627084732055664
1781215248449618000,16.285617919921876,-0.5291185975074768,-2.2625205516815186,-8.779537200927734
1781215248459719200,16.29571923828125,0.5171475410461426,-3.0310592651367188,-8.312667846679688
1781215248469820700,16.305820556640626,1.278503656387329,-3.811569213867187,-7.615955829620361
1781215248500155100,16.336155029296876,1.9823989868164065,-4.977545261383057,-6.308721542358398
1781215248510256400,16.34625634765625,1.807622313499451,-4.8602294921875,-5.985504150390625
1781215248520357600,16.356357666015626,1.6065093278884888,-4.438849925994873,-5.714959621429443
1781215248530459100,16.366459228515627,1.4724340438842771,-3.914519786834717,-5.430049419403076
1781215248540560400,16.376560302734376,1.314416766166687,-3.507505416870117,-4.941632270812988
1781215248550661600,16.38666162109375,1.2641384601593018,-3.313575267791748,-4.405331134796143
1781215248560763000,16.396762939453126,1.417367458343506,-3.162740468978882,-3.931279182434082
1781215248570894800,16.406894775390626,1.498770236968994,-3.24414324760437,-3.428496837615967
1781215248601198800,16.43719873046875,2.3247697353363037,-4.158728122711182,-2.1499931812286377
1781215248611300000,16.447300048828126,2.389413356781006,-4.264073371887207,-1.8555063009262085
1781215248621401300,16.4574013671875,2.564189910888672,-4.266467571258545,-1.6974890232086182
1781215248631533300,16.467533203125,2.676717519760132,-4.467580318450928,-1.7118542194366455
1781215248641634600,16.477634521484376,2.7724854946136475,-4.714183330535889,-1.6328455209732056
1781215248651735800,16.48773583984375,2.892195701599121,-4.836287498474121,-1.4077905416488647
1781215248661837300,16.49783740234375,3.1531636714935303,-5.070919036865234,-1.158793568611145
1781215248682039800,16.518039794921876,3.021482467651367,-5.317522048950195,-0.1173158809542656
1781215248692141000,16.52814111328125,3.8594532012939458,-5.463568210601807,0.1843535304069519
1781215248702211800,16.5382119140625,4.323928356170654,-4.90571928024292,0.5171475410461426
1781215248712343800,16.54834375,4.501099109649658,-4.991910457611084,0.9361328482627868
1781215248722445000,16.558445068359376,4.129997730255127,-6.112396717071533,1.4317326545715332
1781215248732546300,16.56854638671875,4.364629745483398,-6.603208065032959,1.8339585065841677
1781215248752718600,16.588718505859376,4.786009311676025,-5.894524574279785,2.542642116546631
1781215248762850300,16.598850341796876,4.479551315307617,-5.535394191741943,2.669534921646118
1781215248772951800,16.608951904296877,4.079719543457031,-5.298368453979492,2.4157495498657227
1781215248783053000,16.619052978515626,3.9264907836914062,-4.999093055725098,1.9752163887023928
1781215248793154300,16.629154296875,4.010287761688232,-5.080495834350586,1.525106430053711
1781215248803255600,16.639255615234376,4.120420932769775,-5.183446884155273,1.4484920501708984
1781215248813357000,16.649357177734377,4.278438568115234,-5.324704647064209,1.5275006294250488
1781215248833529000,16.669529052734376,4.177882194519043,-5.5760955810546875,1.678335428237915
1781215248843660800,16.679660888671876,4.134786128997803,-5.595249176025391,1.6831238269805908
1781215248914400800,16.75040087890625,2.849100112915039,-4.175487995147705,1.5466543436050415
1781215248924502000,16.760501953125,2.8203697204589844,-3.8594532012939458,1.4724340438842771
1781215248934603300,16.770603271484376,2.7102363109588623,-3.608062028884888,1.4915876388549805
1781215248944704500,16.78070458984375,2.4636335372924805,-3.155557870864868,1.4484920501708984
1781215248954806000,16.790805908203126,2.075772762298584,-2.676717519760132,1.3000515699386597
1781215248964907300,16.8009072265625,1.7070658206939695,-2.2577321529388428,1.278503656387329
1781215248975008500,16.811008544921876,1.1827356815338137,-1.7405846118927002,1.2186486721038818
1781215248985110000,16.821110107421877,0.8188169598579407,-1.213860273361206,1.1875240802764893
1781215248995211300,16.831211181640626,0.4429273009300232,-0.7781155705451965,1.0534487962722778
1781215249005312500,16.8413125,0.4022258818149566,-0.6751648783683777,0.7374141216278076
1781215249076021800,16.912021728515626,-0.2250549644231796,-1.764526605606079,-3.6176388263702393
1781215249086153500,16.922153564453126,-0.1867477297782898,-1.987187385559082,-4.338293552398682
1781215249126559000,16.96255908203125,0.2753331959247589,-4.424484729766846,-4.347870349884033
1781215249146761500,16.982761474609376,-0.4572925269603729,-3.667917013168335,-4.28322696685791
1781215249156771300,16.992771240234376,-0.6033388376235962,-3.5745432376861572,-4.4532151222229
1781215249166872600,17.00287255859375,-1.460463047027588,-2.161964178085327,-5.109226226806641
1781215249197054500,17.033054443359376,-1.9967641830444336,-1.2761094570159912,-5.765237808227539
1781215249207155700,17.04315576171875,-1.9273324012756348,-2.3535003662109375,-6.347028732299805
1781215249257540400,17.093540283203126,-2.7557260990142822,-2.296039342880249,-7.967903137207031
1781215249297915100,17.1339150390625,-2.8179752826690674,-3.069366693496704,-7.347805023193359
1781215249308016400,17.144016357421876,-3.0310592651367188,-2.959233283996582,-7.161057472229004
1781215249318026200,17.154026123046876,-3.313575267791748,-2.6862943172454834,-7.010222434997559
1781215249328127500,17.16412744140625,-3.603273630142212,-2.513911724090576,-6.9024834632873535
1781215249338198300,17.1741982421875,-3.6367924213409424,-2.542642116546631,-6.8162922859191895
1781215249348238600,17.184238525390626,-3.579331636428833,-2.6623523235321045,-6.490680694580078
1781215249358309400,17.194309326171876,-3.1076738834381104,-2.5282769203186035,-6.382941722869873
1781215249368410600,17.20441064453125,-2.5306711196899414,-2.559401512145996,-6.1315507888793945
1781215249378481400,17.2144814453125,-2.118868589401245,-2.9065608978271484,-6.086060523986816
1781215249388552200,17.22455224609375,-1.659181833267212,-3.2369606494903564,-6.086060523986816
1781215249398592500,17.234592529296876,-2.123656988143921,-3.363853454589844,-6.160281181335449
1781215249408693800,17.24469384765625,-2.5067291259765625,-2.8634653091430664,-6.030993938446045
1781215249418764800,17.254764892578127,-3.2776620388031006,-2.3080103397369385,-5.837063789367676
1781215249449007600,17.285007568359376,-3.56017804145813,-1.3623007535934448,-5.236119270324707
1781215249459078400,17.295078369140626,-3.177105665206909,-1.3287819623947144,-5.058948040008545
1781215249469149200,17.305149169921876,-2.6240451335906982,-1.048660397529602,-4.9152960777282715
1781215249479250400,17.31525048828125,-2.1308395862579346,-0.768538773059845,-4.697423934936523
1781215249489321200,17.3253212890625,-2.0446481704711914,-0.586579442024231,-4.393360137939453
1781215249499422700,17.335422607421876,-2.1092917919158936,-0.5674257874488831,-4.218583583831787
1781215249509493500,17.345493408203126,-2.4588451385498047,-0.5722141861915588,-4.015076160430908
1781215249519594800,17.3555947265625,-2.920926094055176,-0.7398083209991455,-3.83072280883789
1781215249570040300,17.406040283203126,-3.6296098232269287,1.479616641998291,-3.5913026332855225
1781215249590212400,17.42621240234375,-2.9903578758239746,1.0749965906143188,-3.957615375518799
1781215249600313900,17.43631396484375,-3.205836057662964,0.7924807667732239,-4.005499362945557
1781215249610384600,17.446384521484376,-3.3854012489318848,0.6751648783683777,-4.134786128997803
1781215249620455400,17.456455322265626,-3.646369218826294,0.6775590777397156,-4.015076160430908
1781215249630526200,17.466526123046876,-3.88818359375,0.9193734526634216,-3.799597978591919
1781215249691012000,17.52701220703125,-3.026270866394043,0.5099649429321289,-4.05817174911499
1781215249701083000,17.537082763671876,-3.2776620388031006,0.4453215301036834,-3.9624037742614746
1781215249711153700,17.547153564453126,-3.5242648124694824,0.4908113479614258,-3.77565598487854
1781215249721224400,17.557224365234376,-4.043806552886963,0.5530605912208557,-3.603273630142212
1781215249731295200,17.567295166015626,-4.410119533538818,0.9840168952941896,-3.665522813796997
1781215249741366000,17.577365966796876,-4.9368438720703125,1.4413094520568848,-3.3877954483032227
1781215249751467300,17.58746728515625,-4.948814868927002,1.7932571172714231,-3.110068082809448
1781215249761538000,17.5975380859375,-4.970362663269043,1.261744260787964,-2.604891538619995
1781215249771639600,17.6076396484375,-4.3861775398254395,0.071826048195362,-1.903390407562256
1781215249781649200,17.617649169921876,-3.07415509223938,-1.4460978507995603,-1.525106430053711
1781215249791750400,17.62775048828125,-1.9321208000183103,-2.8419175148010254,-1.3239935636520386
1781215249801790700,17.637790771484376,-1.237802267074585,-3.694253206253052,-1.1994950771331787
1781215249811861500,17.647861572265626,-0.7541735172271729,-3.840299606323242,-0.9911994934082032
1781215249821932300,17.657932373046876,-0.6943184733390808,-3.600879430770874,-0.8307880163192749
1781215249831972600,17.66797265625,-0.9241618514060974,-3.28963303565979,-0.5147533416748047
1781215249862154500,17.698154541015626,-1.1252747774124146,-3.332728862762451,-0.0861912593245506
1781215249872256000,17.708256103515627,-0.4046200811862945,-4.381389141082764,-0.1340752989053726
1781215249882326800,17.718326904296877,0.6272808313369751,-4.95120906829834,0.4285621047019958
1781215249892366800,17.728366943359376,1.3646949529647827,-4.568136692047119,1.1420341730117798
1781215249902468400,17.73846826171875,1.8483237028121948,-4.2544965744018555,1.3646949529647827
1781215249912508700,17.7485087890625,2.078166961669922,-4.197035789489746,1.2425906658172607
1781215249922579500,17.758579345703126,2.6240451335906982,-4.381389141082764,1.2090718746185305
1781215249952822300,17.788822265625,2.5450363159179688,-4.443638324737549,1.9081788063049316
1781215249962923500,17.798923583984376,2.4444799423217773,-3.869029998779297,1.86508309841156
1781215249972994300,17.808994384765626,2.497152328491211,-3.313575267791748,1.6065093278884888
1781215250033449700,17.86944970703125,1.482010841369629,-1.0582371950149536,1.5155296325683594
1781215250043520500,17.8795205078125,1.501164436340332,-0.9361328482627868,1.479616641998291
1781215250053560800,17.889560791015626,1.889025092124939,-1.1540051698684692,1.3431471586227417
1781215250063631600,17.899631591796876,2.164358377456665,-1.766920804977417,1.170764684677124
1781215250073702400,17.909702392578126,2.403778553009033,-2.248155355453491,0.8930372595787048
1781215250083773200,17.919773193359376,2.4851813316345215,-2.382230758666992,0.9002198576927185
1781215250093813500,17.9298134765625,2.3798365592956543,-2.073378562927246,1.070208191871643
1781215250103884300,17.93988427734375,2.2888567447662354,-1.5155296325683594,1.0630255937576294
1781215250113955000,17.949955078125,1.867477297782898,-1.2330138683319092,1.1755530834197998
1781215250124025900,17.96002587890625,1.4748282432556152,-0.9792284965515136,1.3838485479354858
1781215250134127000,17.970127197265626,1.359906554222107,-0.849941611289978,1.5155296325683594
1781215250174410500,18.010410400390626,1.0319008827209473,-1.7094600200653076,2.547430515289306
1781215250184481300,18.020481201171876,1.3048399686813354,-1.7118542194366455,2.7246015071868896
1781215250194552000,18.03055200195313,1.8794482946395872,-1.6615760326385498,2.7317841053009033
1781215250204622800,18.040622802734376,2.315192937850952,-1.3072341680526731,2.652775526046753
1781215250214724000,18.05072412109375,2.47560453414917,-1.1468225717544556,2.5498247146606445
1781215250224795000,18.060794921875,2.52109432220459,-0.9409212470054626,2.516305923461914
1781215250234835200,18.07083520507813,2.3127987384796143,-0.7422025203704834,2.616862535476685
1781215250244936400,18.0809365234375,2.1356279850006104,-0.6536170840263367,2.7078421115875244
1781215250265078300,18.101078369140627,2.142810583114624,-0.9217676520347596,2.736572504043579
1781215250275149000,18.111149169921877,2.118868589401245,-1.015141487121582,2.782062292098999
1781215250285250300,18.121250244140622,2.118868589401245,-0.8403648138046265,2.920926094055176
1781215250295351600,18.1313515625,2.1978771686553955,-0.569819986820221,2.956839084625244
1781215250325564000,18.16156396484375,2.2912509441375732,-0.3567360639572143,2.846705913543701
1781215250335665400,18.17166552734375,2.118868589401245,-0.2298433631658554,2.760514497756958
1781215250396090000,18.232090087890622,1.3646949529647827,-1.0893617868423462,2.6839001178741455
1781215250426363600,18.26236376953125,1.4532804489135742,-0.2753331959247589,2.425326347351074
1781215250436373200,18.272373291015622,1.3886369466781616,-0.3136404156684875,2.2194249629974365
1781215250456545500,18.292545654296877,1.0223240852355957,-0.2753331959247589,2.403778553009033
1781215250496889600,18.3328896484375,1.6735470294952393,-1.0893617868423462,2.5977089405059814
1781215250506960400,18.34296044921875,2.0446481704711914,-1.295263171195984,2.389413356781006
1781215250577486600,18.413486572265622,0.9313444495201112,-0.0790086537599563,2.243366956710815
1781215250587527000,18.42352685546875,0.7230489253997803,0.1221042871475219,2.3295583724975586
1781215250627779600,18.463779541015622,0.4979939460754394,0.150834709405899,1.764526605606079
1781215250637850400,18.473850341796876,0.751779317855835,-0.1675941199064254,1.5514427423477173
1781215250647951600,18.48395166015625,1.05105459690094,-0.4213795065879822,1.482010841369629
1781215250658022400,18.4940224609375,1.09654438495636,-0.6009446382522583,1.3934253454208374
1781215250668062700,18.504062744140622,0.9720458984375,-0.6775590777397156,1.4077905416488647
1781215250678164000,18.5141640625,0.6823474764823914,-0.5434837937355042,1.460463047027588
1781215250688235000,18.524235107421877,0.1292868852615356,-0.2442085742950439,1.455674648284912
1781215250698336300,18.534336181640622,-0.2944868206977844,-0.0407014302909374,1.4245500564575195
1781215250708437500,18.5444375,-0.5602431893348694,0.2849099934101105,1.2425906658172607
1781215250718538800,18.554538818359376,-0.667982280254364,0.5315127968788147,0.9672574996948242
1781215250758761000,18.59476098632813,3.4165258407592773,-5.2049946784973145,0.2035071402788162
1781215250768831700,18.604831787109376,3.428496837615967,-6.129156112670898,0.9457096457481384
1781215250778933200,18.614933349609377,3.1675288677215576,-6.308721542358398,1.7070658206939695
1781215250829378800,18.66537890625,-0.7206547260284424,-0.7469909191131592,1.86508309841156
1781215250839449600,18.67544970703125,-1.0678139925003052,-0.1484405100345611,1.4413094520568848
1781215250849520400,18.685520263671876,-1.012747287750244,-0.0167594123631715,1.0079588890075684
1781215250859621600,18.69562158203125,-0.507570743560791,-0.0814028605818748,0.5746083855628967
1781215250879793700,18.715793701171876,0.3016694188117981,-0.8427590131759644,-0.0933738648891449
1781215250899935200,18.735935302734376,0.6703764796257019,-1.2066776752471924,-0.9217676520347596
1781215250960451600,18.79645166015625,-1.6376339197158811,0.1628057211637497,-3.1268274784088135
1781215251010866700,18.84686669921875,-5.161899089813232,2.9161376953125,-1.745373010635376
1781215251061281800,18.89728173828125,-4.819528102874756,3.576937437057495,-2.0446481704711914
1781215251111757800,18.9477578125,-2.9975404739379883,3.890577793121338,-1.9943699836730957
1781215251121859000,18.957859130859376,-3.287238836288452,3.9193081855773926,-1.941697597503662
1781215251131960600,18.967960693359377,-3.5960910320281982,4.089296340942383,-1.920149803161621
1781215251142031400,18.97803125,-4.043806552886963,4.259284973144531,-2.319981336593628
1781215251172304600,19.0083046875,-4.807557106018066,4.144362926483154,-3.1244332790374756
1781215251182406100,19.01840625,-5.073313236236572,4.316745758056641,-3.2609026432037354
1781215251192537900,19.028537841796876,-5.195417881011963,4.513070106506348,-3.4356794357299805
1781215251202639000,19.03863916015625,-5.243301868438721,4.90571928024292,-3.785232782363891
1781215251212740600,19.04874072265625,-5.178658485412598,5.240907669067383,-4.127603530883789
1781215251222841900,19.058841796875,-5.257667064666748,5.054159641265869,-4.481945514678955
1781215251303682800,19.13968286132813,-4.462791919708252,0.0430956296622753,-7.24485445022583
1781215251333986800,19.16998681640625,-4.089296340942383,-0.2250549644231796,-6.701370716094971
1781215251344088000,19.180088134765622,-3.600879430770874,-0.3591302633285522,-6.694188117980957
1781215251354189600,19.190189453125,-3.1507694721221924,-0.5841852426528931,-6.514622688293457
1781215251374392000,19.21039208984375,-1.946485996246338,-0.9026140570640564,-6.224924564361572
1781215251384493600,19.22049365234375,-1.6400281190872192,-1.1755530834197998,-6.497863292694092
1781215251394594800,19.2305947265625,-1.2090718746185305,-1.7717092037200928,-6.75883150100708
1781215251404696000,19.240696044921876,-1.0247182846069336,-2.454056739807129,-7.491456985473633
1781215251414797300,19.25079736328125,-0.9241618514060974,-2.9951462745666504,-7.3669586181640625
1781215251424898800,19.26089892578125,-0.7398083209991455,-3.134010076522827,-7.343016624450684
1781215251434939000,19.27093896484375,-0.5027823448181152,-3.3446998596191406,-7.503427982330322
1781215251445070800,19.28107080078125,-0.2633621990680694,-3.653551816940307,-7.678205013275147
1781215251455172000,19.291172119140622,0.0790086537599563,-4.141968727111816,-7.716512203216553
1781215251465273300,19.3012734375,0.2011129409074783,-4.663905143737793,-7.661445617675781
1781215251475344400,19.311344482421877,0.7326257228851318,-5.173870086669922,-7.556100368499756
1781215251485445600,19.321445556640622,0.9409212470054626,-5.509057998657227,-7.352593421936035
1781215251505678800,19.341678955078127,1.256955862045288,-6.936002254486084,-7.182605266571045
1781215251515719000,19.351718994140622,1.4077905416488647,-7.577648162841797,-7.16584587097168
1781215251525851000,19.36185083007813,1.7142484188079834,-8.015787124633789,-7.137115478515625
1781215251535952100,19.3719521484375,2.121262788772583,-8.360552787780762,-6.785167694091797
1781215251546053400,19.382053466796876,2.3726539611816406,-8.676587104797363,-6.114790916442871
1781215251556124400,19.39212451171875,2.6001031398773193,-8.777143478393555,-5.418078422546387
1781215251566256000,19.402256103515622,2.6671407222747803,-8.688557624816895,-4.680664539337158
1781215251657076500,19.493076416015622,2.408566951751709,-7.0126166343688965,-1.0199298858642578
1781215251687258400,19.52325830078125,3.066972494125366,-7.383718013763428,0.0383072271943092
1781215251697329200,19.5333291015625,2.964021682739258,-7.4555439949035645,0.4309563040733337
1781215251707400000,19.54339990234375,2.911349296569824,-7.587224960327148,0.8164227604866028
1781215251727541500,19.56354150390625,2.942473888397217,-7.60637903213501,1.5705963373184204
1781215251808169000,19.6441689453125,2.715024709701538,-6.897695064544678,2.7078421115875244
1781215251828341000,19.66434106445313,2.451662540435791,-6.696582317352295,2.537853717803955
1781215251838442500,19.6744423828125,2.473210334777832,-6.502651691436768,2.3965959548950195
1781215251848513300,19.68451318359375,2.650381326675415,-6.191405773162842,2.1739351749420166
1781215251878725600,19.7147255859375,2.6815059185028076,-5.530605792999268,1.522712230682373
1781215251908968400,19.744968505859376,2.255337953567505,-4.8051629066467285,0.7613561153411865
1781215251919039200,19.755039306640622,1.845929503440857,-4.264073371887207,0.4525041282176971
1781215251929110000,19.765110107421876,1.7908629179000854,-4.158728122711182,0.1963245421648025
1781215251939211500,19.77521142578125,1.620874524116516,-4.034229755401611,-0.0215478148311376
1781215251949312800,19.785312744140622,1.8579005002975464,-3.993528366088867,-0.3926490843296051
1781215251969484800,19.80548486328125,1.5083470344543457,-4.831499099731445,-1.273715257644653
1781215251979555600,19.8155556640625,1.2042834758758545,-4.431667327880859,-1.6184803247451782
1781215251999666700,19.835666748046876,1.3311761617660522,-3.924096584320069,-2.2026655673980713
1781215252050020900,19.88602075195313,1.192312479019165,-4.819528102874756,-2.698265314102173
1781215252070162400,19.906162353515622,0.7493851184844971,-4.333505153656006,-3.021482467651367
1781215252080233200,19.916233154296876,0.1292868852615356,-3.883395195007324,-3.3423056602478027
1781215252090334500,19.92633447265625,-0.2609679996967315,-3.3207578659057617,-3.519476413726806
1781215252100374800,19.936374755859376,-0.7924807667732239,-2.935291290283203,-3.8091750144958496
1781215252110445600,19.946445556640622,-1.1420341730117798,-2.6360161304473877,-4.137180328369141
1781215252120516400,19.956516357421876,-1.3431471586227417,-2.736572504043579,-4.6471452713012695
1781215252130587100,19.96658715820313,-1.3287819623947144,-2.7557260990142822,-5.018246650695801
1781215252140688400,19.9766884765625,-1.33357036113739,-2.8203697204589844,-5.386953830718994
1781215252150759400,19.986759521484377,-1.4628572463989258,-2.9472622871398926,-5.669469833374023
1781215252160830200,19.996830322265627,-1.3024457693099976,-2.829946517944336,-5.875370979309082
1781215252170901000,20.00690087890625,-1.3431471586227417,-2.7126305103302,-6.0836663246154785
1781215252180971800,20.0169716796875,-1.486799240112305,-2.3558945655822754,-6.332663536071777
1781215252191042600,20.02704248046875,-1.7501614093780518,-2.08056116104126,-6.655880928039551
1781215252201113300,20.03711328125,-2.1547815799713135,-1.7764976024627686,-6.801927089691162
1781215252211184000,20.04718408203125,-2.2864625453948975,-1.3646949529647827,-7.041347026824951
1781215252261599200,20.09759912109375,-1.290474772453308,-1.6735470294952393,-6.045359134674072
1781215252322115600,20.158115478515622,-2.161964178085327,0.3902548849582672,-4.661510944366455
1781215252382570800,20.21857080078125,-1.9177556037902832,0.8403648138046265,-4.683058738708496
1781215252392672300,20.22867236328125,-2.2601263523101807,1.948880195617676,-4.347870349884033
1781215252402773500,20.2387734375,-2.497152328491211,2.5713725090026855,-3.861847400665283
1781215252412874800,20.248874755859376,-2.676717519760132,2.873042106628418,-3.5745432376861572
1781215252422915000,20.2589150390625,-3.0310592651367188,2.868253707885742,-3.4141316413879395
1781215252433016300,20.269016357421876,-2.937685489654541,2.616862535476685,-3.177105665206909
1781215252493441300,20.329441162109376,-2.691082715988159,3.339911460876465,-1.8986018896102903
1781215252503481600,20.339481689453127,-2.6360161304473877,3.2130186557769775,-1.766920804977417
1781215252594179800,20.430179931640627,-0.5626373887062073,2.513911724090576,-1.5514427423477173
1781215252604281000,20.440281005859376,-0.8331822156906128,2.978386878967285,-1.2258312702178955
1781215252654635000,20.490635009765622,-1.678335428237915,1.070208191871643,-1.941697597503662
1781215252705019600,20.54101953125,-2.573766708374023,0.2322375625371933,-1.5705963373184204
1781215252725161200,20.5611611328125,-2.049436569213867,-0.7374141216278076,-0.667982280254364
1781215252745302800,20.581302734375,-1.4748282432556152,-1.2234370708465576,-0.0766144543886184
1781215252775545600,20.611545654296876,-0.1292868852615356,-1.9345149993896484,0.4764461517333984
1781215252815829000,20.6518291015625,-0.4070142805576324,-2.7126305103302,0.5195417404174805
1781215252876314600,20.712314697265622,-1.0462661981582642,-0.545877993106842,0.3591302633285522
1781215252896487000,20.73248681640625,-1.3958195447921753,-0.3447650372982025,0.5554547905921936
1781215252916628500,20.75262841796875,-1.4915876388549805,0.3902548849582672,0.8690952062606812
1781215252936770000,20.77277001953125,-0.8858546018600464,0.0622492432594299,0.454898327589035
1781215253007174100,20.843174072265622,0.0167594123631715,0.2011129409074783,0.2442085742950439
1781215253047487700,20.88348779296875,1.2521674633026123,0.0215478148311376,0.8954314589500427
1781215253087740400,20.923740478515622,1.6065093278884888,0.2442085742950439,0.828393816947937
1781215253097780700,20.93378076171875,1.7741034030914309,0.1077390760183334,1.1300631761550903
1781215253107851500,20.9438515625,1.903390407562256,0.2011129409074783,1.4221558570861816
1781215253117922300,20.95392236328125,2.027888774871826,0.3016694188117981,1.6639702320098877
1781215253127993000,20.9639931640625,2.0590133666992188,0.4884171485900879,1.7956513166427612
1781215253148135000,20.984135009765627,2.3271639347076416,0.0,1.381454348564148
1781215253178316800,21.01431689453125,1.968033790588379,-0.1699883192777633,1.2330138683319092
1781215253188418000,21.02441796875,1.7334020137786863,0.1125274822115898,1.036689281463623
1781215253198458400,21.03445825195313,1.4413094520568848,0.586579442024231,0.9552865028381348
1781215253208559600,21.0445595703125,1.2832920551300049,0.6823474764823914,0.8810662031173706
1781215253218630400,21.05463037109375,0.9600749015808104,0.524330198764801,0.7326257228851318
1781215253228701200,21.064701171875,0.8954314589500427,0.5961562395095825,0.706289529800415
1781215253238772000,21.07477197265625,0.7637503147125244,0.7422025203704834,0.7996633648872375
1781215253248842800,21.0848427734375,0.8307880163192749,0.8930372595787048,1.012747287750244
1781215253258913500,21.09491357421875,0.8403648138046265,1.2018892765045166,1.2713210582733154
1781215253268984300,21.104984375,1.0414776802062988,1.3431471586227417,1.4077905416488647
1781215253289156600,21.125156494140622,1.53707754611969,1.1875240802764893,1.3551181554794312
1781215253299227400,21.135227294921876,1.721431016921997,0.912190854549408,1.3670891523361206
1781215253309328600,21.14532861328125,1.8291701078414917,0.7661445140838623,1.259350061416626
1781215253339632600,21.175632568359376,1.965639591217041,1.158793568611145,1.5466543436050415
1781215253349703400,21.185703369140622,1.8842366933822632,0.9768342971801758,1.498770236968994
1781215253359774200,21.195774169921876,1.8962076902389529,0.7326257228851318,1.4652514457702637
1781215253379977000,21.21597705078125,2.0159177780151367,0.4716577231884002,1.1228805780410769
1781215253400149000,21.23614892578125,2.099714994430542,0.6847416758537292,0.7086837291717529
1781215253410250200,21.246250244140622,2.0159177780151367,0.8140285611152649,0.7445967197418213
1781215253420351500,21.2563515625,1.98958158493042,1.1228805780410769,0.7086837291717529
1781215253430453000,21.266452880859376,1.58256733417511,1.3479355573654177,0.689530074596405
1781215253440554200,21.27655419921875,1.2425906658172607,1.37906014919281,0.8834604024887085
1781215253450655500,21.28665551757813,0.8978256583213806,1.5418659448623655,0.8068459630012512
1781215253470858200,21.306858154296876,0.3591302633285522,1.53707754611969,0.5195417404174805
1781215253480959500,21.31695947265625,0.0814028605818748,1.5514427423477173,0.6200982332229614
1781215253491060700,21.327060791015622,-0.1173158809542656,1.903390407562256,0.7182605266571045
1781215253501131500,21.337131591796876,-0.363918662071228,2.279279947280884,0.8355764150619507
1781215253511233000,21.34723291015625,-0.6129156351089478,2.695871114730835,1.1276689767837524
1781215253521303800,21.3573037109375,-0.7829039692878723,3.268085241317749,1.2114660739898682
1781215253531374600,21.36737451171875,-0.768538773059845,3.6607344150543217,0.8930372595787048
1781215253541475800,21.37747583007813,-0.7038952708244324,3.8283286094665527,0.545877993106842
1781215253551577000,21.3875771484375,-0.9409212470054626,3.584120035171509,0.3375824391841888
1781215253571779800,21.40777978515625,-1.5203180313110352,3.332728862762451,0.0047884033992886
1781215253591921400,21.42792138671875,-1.7357962131500244,2.674323320388794,-0.237025961279869
1781215253602022700,21.43802270507813,-1.7046716213226318,2.3750481605529785,-0.0837970599532127
1781215253612093400,21.448093505859376,-1.4101848602294922,2.0901381969451904,-0.1244984865188598
1781215253622225400,21.458225341796876,-1.1875240802764893,1.486799240112305,-0.6416460275650024
1781215253632326700,21.46832666015625,-1.0414776802062988,0.5147533416748047,-1.1851298809051514
1781215253652529400,21.488529296875,-0.5746083855628967,-1.6280571222305298,-1.659181833267212
1781215253662630700,21.498630615234376,-0.2178723514080047,-2.432508945465088,-1.9345149993896484
1781215253672732000,21.50873193359375,-0.3591302633285522,-2.9233202934265137,-2.1930887699127197
1781215253682833400,21.51883349609375,-0.3423708379268646,-3.114856481552124,-2.2673089504241943
1781215253703066400,21.53906640625,-0.8571242094039917,-3.093308687210083,-2.3295583724975586
1781215253713137200,21.54913720703125,-0.9648633003234864,-2.607285737991333,-2.27209734916687
1781215253723208000,21.5592080078125,-1.0654197931289673,-2.360682964324951,-2.650381326675415
1781215253753481500,21.5894814453125,-0.7996633648872375,-5.901707172393799,-5.722142219543457
1781215253763613400,21.599613525390627,-1.000776290893555,-8.279149055480957,-6.0836663246154785
1781215253773714700,21.609714599609376,-0.8331822156906128,-10.168174743652344,-6.167463779449463
1781215253783846400,21.619846435546876,-0.6129156351089478,-10.498574256896973,-5.758055210113525
1781215253793917200,21.62991723632813,-0.4046200811862945,-8.607154846191406,-4.716577529907227
1781215253804018700,21.640018798828127,-0.1125274822115898,-6.270414352416992,-4.23773717880249
1781215253814150400,21.650150390625,-0.2298433631658554,-4.55616569519043,-4.2760443687438965
1781215253844424000,21.680423828125,-0.7733271718025208,-1.7956513166427612,-4.833893299102783
1781215253854555600,21.6905556640625,-1.3479355573654177,-1.0630255937576294,-4.67827033996582
1781215253864687600,21.7006875,-1.8267759084701536,-0.2178723514080047,-4.395754337310791
1781215253874728000,21.71072802734375,-2.094926595687866,0.7637503147125244,-4.156333923339844
1781215253884859600,21.720859619140622,-2.0446481704711914,1.580173134803772,-4.2090067863464355
1781215253894961000,21.7309609375,-2.557007312774658,2.209848165512085,-4.525041103363037
1781215253905062400,21.7410625,-2.8850131034851074,2.3343467712402344,-5.058948040008545
1781215253915194000,21.751194091796876,-2.671929121017456,2.164358377456665,-5.549759387969971
1781215253925295400,21.76129541015625,-2.1811177730560303,1.900996208190918,-5.896918773651123
1781215253935396900,21.77139697265625,-1.807622313499451,1.7405846118927002,-5.9974751472473145
1781215253945498000,21.781498046875,-1.577778935432434,1.915361404418945,-5.75326681137085
1781215253975802000,21.81180200195313,-2.853888511657715,2.760514497756958,-3.6822822093963623
1781215253985903400,21.8219033203125,-3.4141316413879395,3.1268274784088135,-2.7916390895843506
1781215253996004600,21.832004638671876,-3.5697548389434814,3.514688014984131,-1.9560627937316897
1781215254006167000,21.8421669921875,-3.584120035171509,3.890577793121338,-1.2282254695892334
1781215254016268300,21.852268310546876,-3.227383852005005,4.125209331512451,-0.7972691655158997
1781215254026369500,21.86236962890625,-2.7892448902130127,4.1874589920043945,-0.5530605912208557
1781215254036501500,21.87250146484375,-2.3726539611816406,4.034229755401611,-0.4764461517333984
1781215254056704300,21.892704345703127,-1.939303398132324,3.450044631958008,-0.9911994934082032
1781215254066836000,21.9028359375,-1.9297266006469729,3.2130186557769775,-1.4963760375976562
1781215254076967700,21.9129677734375,-2.1547815799713135,3.026270866394043,-2.0422539710998535
1781215254087099600,21.923099609375,-2.4420857429504395,3.1435868740081787,-2.609679937362671
1781215254097201000,21.933200927734376,-2.7293899059295654,3.066972494125366,-3.021482467651367
1781215254107302400,21.943302490234377,-2.7461493015289307,2.8179752826690674,-3.380612850189209
1781215254117403600,21.95340356445313,-2.6815059185028076,2.4396915435791016,-3.608062028884888
1781215254127505000,21.9635048828125,-2.391807556152344,1.802833914756775,-3.9887399673461914
1781215254137667300,21.97366723632813,-1.8148049116134644,0.9864110946655272,-4.4077253341674805
1781215254157869800,21.993869873046876,-0.7469909191131592,-0.6224924325942993,-4.9152960777282715
1781215254167971300,22.003971435546877,-0.3471592366695404,-1.33357036113739,-5.061342239379883
1781215254178072600,22.014072509765622,-0.2873041927814483,-1.9249382019042969,-5.274426460266113
1781215254188173800,22.024173828125,-0.1987187415361404,-2.3965959548950195,-5.420472621917725
1781215254198305800,22.034305908203127,-0.0981622710824012,-2.8634653091430664,-5.540182590484619
1781215254208407000,22.044406982421876,0.0670376494526863,-3.35667085647583,-5.616796970367432
1781215254218508300,22.05450830078125,0.1987187415361404,-3.845088005065918,-5.633556365966797
1781215254228609500,22.064609619140622,0.4141969084739685,-4.273650169372559,-5.4875102043151855
1781215254238741500,22.07474145507813,0.7852981686592102,-4.7189717292785645,-5.2049946784973145
1781215254248842800,22.0848427734375,1.091755986213684,-5.082890033721924,-4.800374507904053
1781215254279146800,22.115146728515622,1.9560627937316897,-5.568912982940674,-4.10366153717041
1781215254289248000,22.125248046875,2.0374655723571777,-5.492298603057861,-3.8355112075805664
1781215254299410400,22.135410400390622,2.0159177780151367,-5.544970989227295,-3.579331636428833
1781215254309511700,22.14551171875,1.9057846069335935,-5.442020416259766,-3.35667085647583
1781215254319643600,22.1556435546875,1.7884687185287476,-5.60722017288208,-3.2178070545196533
1781215254329745000,22.165744873046876,1.3551181554794312,-5.853823184967041,-2.959233283996582
1781215254339846100,22.17584619140625,1.3192051649093628,-5.985504150390625,-2.691082715988159
1781215254349947600,22.18594775390625,1.2880805730819702,-6.086060523986816,-2.63362193107605
1781215254370180600,22.2061806640625,1.678335428237915,-6.490680694580078,-2.3965959548950195
1781215254380282000,22.2162822265625,2.1140801906585693,-6.7492547035217285,-2.1523873805999756
1781215254390413800,22.226413818359376,2.561795711517334,-7.1706342697143555,-1.86508309841156
1781215254400515000,22.23651513671875,2.97359848022461,-7.627926826477051,-1.6184803247451782
1781215254410616600,22.24661645507813,3.5170822143554688,-8.015787124633789,-1.295263171195984
1781215254420748300,22.256748291015622,3.871424198150635,-8.437167167663574,-0.9552865028381348
1781215254430849500,22.266849609375,4.101267337799072,-8.707711219787598,-0.7565677165985107
1781215254440981500,22.2769814453125,4.086902141571045,-8.710105895996094,-0.1963245421648025
1781215254451082800,22.287082763671876,4.125209331512451,-8.662221908569336,0.2082955539226532
1781215254461184000,22.29718408203125,4.163516521453857,-8.40843677520752,0.6416460275650024
1781215254501650400,22.337650390625,4.522646903991699,-8.379706382751465,1.479616641998291
1781215254511751700,22.347751708984376,4.836287498474121,-8.916007041931152,1.2976573705673218
1781215254521853200,22.357853271484377,4.975151062011719,-9.030928611755373,1.3000515699386597
1781215254531954400,22.36795434570313,4.90571928024292,-8.999804496765137,1.1324573755264282
1781215254542086100,22.378086181640622,4.697423934936523,-8.698134422302246,1.1540051698684692
1781215254552157000,22.388156982421876,4.6471452713012695,-8.556877136230469,1.108515381813049
1781215254562258400,22.398258544921877,4.680664539337158,-8.494627952575684,1.137245774269104
1781215254592531700,22.42853173828125,4.5154643058776855,-8.473079681396484,1.9536685943603516
1781215254602633200,22.43863330078125,4.446032524108887,-8.451532363891602,2.1045033931732178
1781215254612704000,22.4487041015625,4.225766181945801,-8.164227485656738,2.38462495803833
1781215254622805200,22.45880517578125,4.01268196105957,-7.903259754180908,2.7102363109588623
1781215254632845600,22.468845458984376,3.754108190536499,-7.479485988616943,2.87064790725708
1781215254642946800,22.47894677734375,3.292027235031128,-7.000645637512207,2.779668092727661
1781215254653017600,22.489017578125,2.779668092727661,-6.3973069190979,2.492363929748535
1781215254663088400,22.49908837890625,2.2601263523101807,-5.693411827087402,1.948880195617676
1781215254673128700,22.509128662109376,1.86508309841156,-4.903325080871582,1.403002142906189
1781215254693300700,22.52930078125,1.2090718746185305,-3.466804027557373,0.1532289087772369
1781215254703371500,22.53937158203125,0.9864110946655272,-2.846705913543701,-0.4261679053306579
1781215254713411800,22.549411865234376,0.629675030708313,-2.319981336593628,-0.8044517636299133
1781215254723513300,22.559513427734377,0.2442085742950439,-1.8171991109848025,-1.168370485305786
1781215254733584100,22.569584228515627,-0.1053448766469955,-1.235408067703247,-1.3239935636520386
1781215254743655000,22.579655029296877,-0.4501099288463592,-0.8068459630012512,-1.3766659498214722
1781215254753725700,22.5897255859375,-0.8164227604866028,-0.5434837937355042,-1.158793568611145
1781215254763796500,22.59979638671875,-1.0558429956436155,-0.4668693244457245,-0.7158663272857666
1781215254794008800,22.6300087890625,-0.5123591423034668,-0.4213795065879822,0.2657563984394073
1781215254804110000,22.640110107421876,-0.3567360639572143,-0.5578489899635315,0.4716577231884002
1781215254814211600,22.650211669921877,-0.1843535304069519,-0.6177040338516235,0.2130839526653289
1781215254824251600,22.660251708984376,-0.2298433631658554,-0.6224924325942993,-0.035913024097681
1781215254834322400,22.670322509765622,-0.2154781520366668,-0.6823474764823914,-0.5722141861915588
1781215254844424000,22.680423828125,-0.2154781520366668,-0.790086567401886,-1.0989385843276978
1781215254854494700,22.69049462890625,-0.2777273952960968,-0.9600749015808104,-1.5538369417190552
1781215254864596000,22.700595947265622,-0.3423708379268646,-1.0989385843276978,-2.008735179901123
1781215254884768000,22.72076806640625,-0.667982280254364,-1.498770236968994,-2.6671407222747803
1781215254904879000,22.740879150390622,-1.1563993692398071,-1.742978811264038,-3.3423056602478027
1781215254914980600,22.750980712890627,-1.3503297567367554,-1.721431016921997,-3.806780815124512
1781215254925051400,22.761051513671877,-1.479616641998291,-1.747767210006714,-4.065354347229004
1781215254935152600,22.771152587890622,-1.4700398445129397,-1.7381904125213623,-4.072536945343018
1781215254945223400,22.781223388671876,-1.699883222579956,-1.766920804977417,-3.904942989349365
1781215254955324700,22.79132470703125,-1.7094600200653076,-1.8794482946395872,-3.766079187393189
1781215254965395500,22.8013955078125,-1.2521674633026123,-2.2002713680267334,-3.9193081855773926
1781215254975466200,22.81146630859375,-0.9409212470054626,-2.3319525718688965,-4.14915132522583
1781215254985567700,22.82156762695313,-0.7350199222564697,-2.406172752380371,-4.261679172515869
1781215254995608000,22.831608154296877,-0.993593692779541,-2.3702597618103027,-3.97916316986084
1781215255005709300,22.841709228515622,-1.1971008777618408,-2.056619167327881,-3.746925592422486
1781215255015780000,22.851780029296876,-1.6184803247451782,-1.8986018896102903,-3.825934410095215
1781215255025851000,22.86185083007813,-1.886630892753601,-1.759738206863403,-4.173093795776367
1781215255035921700,22.871921630859376,-1.9345149993896484,-1.6519991159439087,-4.486733913421631
1781215255045992400,22.881992431640622,-1.7884687185287476,-1.7525556087493896,-4.855441093444824
1781215255056093700,22.89209375,-1.6615760326385498,-1.7381904125213623,-5.142745018005371
1781215255066134000,22.90213403320313,-1.3048399686813354,-1.9057846069335935,-5.65031623840332
1781215255076266000,22.912265869140622,-1.316810965538025,-2.406172752380371,-5.947196960449219
1781215255086336800,22.922336669921876,-1.429338455200195,-2.650381326675415,-5.590460777282715
1781215255126650400,22.962650390625,-1.620874524116516,-1.3670891523361206,-4.659116744995117
1781215255136751600,22.972751708984376,-1.8267759084701536,-1.0462661981582642,-4.596867084503174
1781215255146822700,22.98282275390625,-1.9632453918457031,-0.811634361743927,-4.4077253341674805
1781215255156862700,22.99286279296875,-2.03507137298584,-0.5817909836769104,-4.05817174911499
1781215255166964200,23.00296411132813,-1.869871497154236,-0.5817909836769104,-3.7684733867645264
1781215255177035000,23.013034912109376,-1.821987509727478,-0.7829039692878723,-3.667917013168335
1781215255187105800,23.023105712890622,-2.0231003761291504,-0.828393816947937,-3.4835634231567383
1781215255217348600,23.0533486328125,-2.557007312774658,-0.5051765441894531,-3.8594532012939458
1781215255227449900,23.063449951171876,-2.6575639247894287,-1.2282254695892334,-4.094084739685059
1781215255237521000,23.07352099609375,-2.5522189140319824,-1.7549498081207275,-4.127603530883789
1781215255247622100,23.0836220703125,-2.382230758666992,-1.7310078144073486,-4.060565948486328
1781215255257723400,23.093723388671876,-2.5019407272338867,-1.37906014919281,-3.3039982318878174
1781215255267794200,23.10379418945313,-2.3127987384796143,-0.8547300100326538,-3.287238836288452
1781215255277834500,23.11383447265625,-2.111685991287231,-0.2801215946674347,-3.19865345954895
1781215255287905300,23.1239052734375,-2.164358377456665,0.059855043888092,-2.8826189041137695
1781215255308046800,23.144046875,-2.7030537128448486,1.115697979927063,-2.5498247146606445
1781215255318148400,23.1541484375,-3.2297780513763428,1.3766659498214722,-2.4372973442077637
1781215255328280000,23.164280029296876,-3.40216064453125,1.659181833267212,-2.5067291259765625
1781215255338320400,23.1743203125,-3.2585084438323975,2.0207061767578125,-2.3558945655822754
1781215255348391200,23.18439111328125,-2.9903578758239746,2.33913516998291,-1.987187385559082
1781215255358462000,23.1944619140625,-2.499546527862549,2.454056739807129,-1.680729627609253
1781215255368502300,23.204502197265622,-2.1595699787139893,2.4875755310058594,-1.4700398445129397
1781215255378573000,23.214572998046876,-1.9704279899597168,2.499546527862549,-1.338358759880066
1781215255388674300,23.22467431640625,-2.425326347351074,2.612074136734009,-1.3742717504501345
1781215255428988200,23.26498828125,-3.423708438873291,2.7461493015289307,-1.3239935636520386
1781215255439059000,23.275058837890622,-3.318363666534424,3.220201253890991,-1.1228805780410769
1781215255449129700,23.285129638671876,-2.935291290283203,3.5266590118408203,-1.0271124839782717
1781215255459200500,23.29520043945313,-2.3750481605529785,3.778050184249878,-1.070208191871643
1781215255469271300,23.305271240234376,-2.075772762298584,3.9671921730041504,-1.2713210582733154
1781215255479372500,23.31537255859375,-2.099714994430542,4.02465295791626,-1.58256733417511
1781215255489473800,23.32547387695313,-2.389413356781006,4.031835556030273,-1.766920804977417
1781215255499544800,23.335544921875,-2.741360902786255,3.957615375518799,-1.7094600200653076
1781215255519686400,23.355686279296876,-3.7636849880218506,3.5865142345428467,-1.6160861253738403
1781215255529757200,23.36575708007813,-3.5673606395721436,3.8498764038085938,-1.647210717201233
1781215255539858400,23.3758583984375,-3.4141316413879395,4.199429988861084,-1.316810965538025
1781215255549959700,23.385959716796876,-2.9257144927978516,4.321534156799316,-1.168370485305786
1781215255560030500,23.39603051757813,-2.6455929279327393,4.094084739685059,-0.9720458984375
1781215255570070800,23.40607080078125,-2.3942017555236816,3.6607344150543217,-0.8571242094039917
1781215255580172000,23.416172119140622,-2.185906171798706,3.090914487838745,-0.9457096457481384
1781215255590273500,23.4262734375,-2.22660756111145,2.652775526046753,-1.158793568611145
1781215255620486000,23.45648583984375,-3.0789434909820557,2.607285737991333,-1.05105459690094
1781215255630587100,23.46658715820313,-2.765302896499634,2.537853717803955,-0.3567360639572143
1781215255640658000,23.476657958984376,-2.2673089504241943,1.429338455200195,-0.2849099934101105
1781215255650698200,23.4866982421875,-1.886630892753601,-0.1077390760183334,-0.2896983921527862
1781215255660799500,23.496799560546876,-1.3527239561080933,-1.4053963422775269,-0.3758896589279175
1781215255670870300,23.50687036132813,-0.646434485912323,-1.4221558570861816,-0.241814374923706
1781215255680971800,23.5169716796875,0.6584054827690125,-0.7230489253997803,-0.1628057211637497
1781215255691042600,23.52704248046875,1.2449848651885986,-0.9361328482627868,-0.304063618183136
1781215255701113300,23.53711328125,2.2912509441375732,-1.414973258972168,-1.072602391242981
1781215255721255000,23.5572548828125,2.3511061668395996,-3.622427225112915,-0.9959878921508788
1781215255731325700,23.56732568359375,2.0207061767578125,-4.314351558685303,-0.7110779285430908
1781215255741396500,23.577396484375,1.8555063009262085,-4.062960147857666,-0.4932055473327636
1781215255751467300,23.58746728515625,1.7142484188079834,-3.576937437057495,-0.1316810995340347
1781215255761538000,23.5975380859375,1.170764684677124,-3.3901896476745605,0.1771709322929382
1781215255771608800,23.60760888671875,1.0749965906143188,-2.784456491470337,0.2394201755523681
1781215255781679600,23.6176796875,0.7541735172271729,-2.580949544906616,-0.0814028605818748
1781215255791720000,23.62771997070313,0.6919242739677429,-2.698265314102173,-0.304063618183136
1781215255801821400,23.637821533203127,0.8595184087753296,-2.920926094055176,-0.3734954595565796
1781215255811892200,23.647892333984377,0.8331822156906128,-3.071760892868042,-0.3351882398128509
1781215255832003300,23.66800341796875,0.8164227604866028,-2.6024973392486572,0.1963245421648025
1781215255842104600,23.6781044921875,0.9265560507774352,-2.319981336593628,0.2202665507793426
1781215255852175400,23.68817529296875,0.7829039692878723,-2.3702597618103027,0.1987187415361404
1781215255862246100,23.69824609375,0.706289529800415,-2.628833532333374,0.2944868206977844
1781215255872286500,23.70828637695313,0.5913678407669067,-2.8155810832977295,0.5291185975074768
1781215255882387700,23.7183876953125,0.3615244626998901,-2.652775526046753,0.7398083209991455
1781215255892458500,23.72845849609375,0.0311246216297149,-2.3271639347076416,0.7948749661445618
1781215255902529300,23.738529296875,-0.2106897532939911,-1.8171991109848025,0.8738836050033569
1781215255912539100,23.7485390625,-0.102950669825077,-1.0893617868423462,0.7948749661445618
1781215255922670800,23.7586708984375,-0.1364694982767105,-0.5841852426528931,0.6488286852836609
1781215255932741600,23.76874169921875,0.2992752194404602,-0.1412578970193863,0.5363011956214905
1781215255952822300,23.788822265625,0.912190854549408,-0.689530074596405,0.5722141861915588
1781215255962923500,23.798923583984376,1.0247182846069336,-0.9816226959228516,0.7757213711738586
1781215255972994300,23.808994384765622,0.8762778043746948,-1.05105459690094,1.072602391242981
1781215255983095800,23.819095703125,0.42377370595932,-1.0438719987869265,1.3000515699386597
