time,seconds_elapsed,z,y,x
1781033859698085000,2.301085205078125,-2.361837387084961,1.1034375429153442,-0.8867374658584595
1781033859717597200,2.32059716796875,-2.056999921798706,0.8848124742507935,-0.7128000259399414
1781033859737110500,2.340110595703125,-2.056999921798706,0.8848124742507935,-0.7128000259399414
1781033859756625000,2.359625,-1.356850028038025,0.5640249848365784,-0.3205125033855438
1781033859776140500,2.379140625,-1.356850028038025,0.5640249848365784,-0.3205125033855438
1781033859795653600,2.398653564453125,-0.6547750234603882,0.4094749987125397,-0.0742499977350235
1781033859815161900,2.418161865234375,-0.6547750234603882,0.4094749987125397,-0.0742499977350235
1781033859834668000,2.43766796875,0.0614624992012977,0.2600125074386596,0.0936374962329864
1781033859854175700,2.45717578125,0.0614624992012977,0.2600125074386596,0.0936374962329864
1781033859873686300,2.476686279296875,0.4989874958992004,0.4471499919891357,0.0076999999582767
1781033859893198600,2.496198486328125,0.4989874958992004,0.4471499919891357,0.0076999999582767
1781033859912707600,2.51570751953125,-0.0301124993711709,1.8365875482559204,-0.8084999918937683
1781033859932218400,2.53521826171875,-0.0301124993711709,1.8365875482559204,-0.8084999918937683
1781033859951734500,2.554734619140625,-1.1224124431610107,4.084987640380859,-1.676949977874756
1781033859971254500,2.574254638671875,-1.1224124431610107,4.084987640380859,-1.676949977874756
1781033859990765000,2.59376513671875,-1.3239874839782717,5.118162631988525,-1.4649250507354736
1781033860010274000,2.613274169921875,-1.3239874839782717,5.118162631988525,-1.4649250507354736
1781033860029784800,2.632784912109375,-0.7808625102043152,4.417462348937988,-0.729574978351593
1781033860049290800,2.652290771484375,-0.7808625102043152,4.417462348937988,-0.729574978351593
1781033860068800300,2.67180029296875,-0.5065500140190125,3.970312595367432,-0.2246749997138977
1781033860088312000,2.69131201171875,-0.5065500140190125,3.970312595367432,-0.2246749997138977
1781033860107828200,2.710828125,-0.2199999988079071,3.953399896621704,0.167337492108345
1781033860127346200,2.73034619140625,-0.2199999988079071,3.953399896621704,0.167337492108345
1781033860146862800,2.74986279296875,-0.2199999988079071,3.953399896621704,0.167337492108345
1781033860166377000,2.769376953125,0.0698499977588653,3.028437376022339,0.4041124880313873
1781033860185888800,2.788888671875,0.1687124967575073,0.9746000170707704,0.3790875077247619
1781033860205401000,2.808401123046875,0.1687124967575073,0.9746000170707704,0.3790875077247619
1781033860224913200,2.8279130859375,0.2022625058889389,-0.6766374707221985,0.2997500002384186
1781033860244429600,2.8474296875,0.2022625058889389,-0.6766374707221985,0.2997500002384186
1781033860263945200,2.8669453125,0.1520749926567077,-0.9829875230789183,0.220550000667572
1781033860283455000,2.886455078125,0.0591249987483024,-1.096287488937378,0.0778250023722648
1781033860302967800,2.9059677734375,0.0591249987483024,-1.096287488937378,0.0778250023722648
1781033860322484000,2.92548388671875,-0.073974996805191,-1.4548875093460083,-0.3097875118255615
1781033860341999900,2.944999755859375,-0.073974996805191,-1.4548875093460083,-0.3097875118255615
1781033860361513500,2.964513427734375,0.1706375032663345,-2.185287475585937,-0.5387250185012817
1781033860381024300,2.984024169921875,0.1706375032663345,-2.185287475585937,-0.5387250185012817
1781033860400536000,3.0035361328125,1.466575026512146,-3.61680006980896,-0.1904374957084655
1781033860420049400,3.02304931640625,1.466575026512146,-3.61680006980896,-0.1904374957084655
1781033860439565800,3.04256591796875,3.6359124183654794,-6.053850173950195,0.6729249954223633
1781033860459084500,3.06208447265625,3.6359124183654794,-6.053850173950195,0.6729249954223633
1781033860478596400,3.081596435546875,4.575312614440918,-6.801300048828125,1.3583624362945557
1781033860498104000,3.10110400390625,4.575312614440918,-6.801300048828125,1.3583624362945557
1781033860517617400,3.120617431640625,3.924387454986572,-5.793562412261963,1.3296250104904177
1781033860537130800,3.140130859375,3.924387454986572,-5.793562412261963,1.3296250104904177
1781033860556638700,3.159638671875,2.8183374404907227,-4.108087539672852,0.9047499895095824
1781033860576152800,3.17915283203125,2.8183374404907227,-4.108087539672852,0.9047499895095824
1781033860595672000,3.198672119140625,1.89282500743866,-2.9078500270843506,0.4219875037670135
1781033860615188700,3.218188720703125,1.89282500743866,-2.9078500270843506,0.4219875037670135
1781033860634705700,3.23770556640625,0.914650022983551,-1.621399998664856,-0.0219999998807907
1781033860654222000,3.25722216796875,0.914650022983551,-1.621399998664856,-0.0219999998807907
1781033860673734100,3.276734130859375,0.073974996805191,-1.0726374387741089,-0.1626625061035156
1781033860693246000,3.296245849609375,0.073974996805191,-1.0726374387741089,-0.1626625061035156
1781033860712758800,3.3157587890625,-0.405349999666214,-1.3667500019073486,-0.1982749998569488
1781033860732268300,3.335268310546875,-0.405349999666214,-1.3667500019073486,-0.1982749998569488
1781033860751779800,3.35477978515625,-0.5806624889373779,-1.0879000425338743,-0.480287492275238
1781033860771296500,3.374296630859375,-0.5806624889373779,-1.0879000425338743,-0.480287492275238
1781033860790815500,3.3938154296875,-0.5857499837875366,0.3486999869346618,-0.9933000206947328
1781033860810334500,3.41333447265625,-0.5857499837875366,0.3486999869346618,-0.9933000206947328
1781033860829852200,3.43285205078125,-0.9198749661445618,0.2514874935150146,-0.5257999897003174
1781033860849366000,3.452365966796875,-0.9198749661445618,0.2514874935150146,-0.5257999897003174
1781033860868876800,3.471876708984375,-0.7129374742507935,-1.0803375244140625,0.5601750016212463
1781033860888392000,3.491391845703125,-0.7129374742507935,-1.0803375244140625,0.5601750016212463
1781033860907905300,3.5109052734375,-0.7786625027656555,-0.1747625023126602,0.1430000066757202
1781033860927415300,3.530415283203125,-0.7786625027656555,-0.1747625023126602,0.1430000066757202
1781033860946926300,3.54992626953125,-0.4604874849319458,0.215049996972084,-0.0769999995827674
1781033860966434800,3.569434814453125,-0.4604874849319458,0.215049996972084,-0.0769999995827674
1781033860985940200,3.588940185546875,0.6744375228881836,-1.1493624448776243,0.7873250246047974
1781033861005451300,3.608451171875,0.6744375228881836,-1.1493624448776243,0.7873250246047974
1781033861024966100,3.627966064453125,0.6744375228881836,-1.1493624448776243,0.7873250246047974
1781033861044479200,3.647479248046875,0.7942000031471252,0.0015124999918043,0.2689499855041504
1781033861063990500,3.666990478515625,0.3368749916553497,1.522262454032898,-0.5291000008583069
1781033861083504400,3.68650439453125,-0.1533125042915344,2.913212537765503,-1.255924940109253
1781033861103020300,3.706020263671875,-0.1533125042915344,2.913212537765503,-1.255924940109253
1781033861122536700,3.72553662109375,-1.1621500253677368,5.272299766540527,-2.100450038909912
1781033861142049800,3.7450498046875,-1.1621500253677368,5.272299766540527,-2.100450038909912
1781033861161565700,3.764565673828125,-2.240562438964844,7.70852518081665,-1.814725041389465
1781033861181085700,3.784085693359375,-2.240562438964844,7.70852518081665,-1.814725041389465
1781033861200605000,3.80360498046875,-1.892687439918518,8.310500144958496,-0.4166249930858612
1781033861220122000,3.8231220703125,-1.892687439918518,8.310500144958496,-0.4166249930858612
1781033861239638300,3.84263818359375,-1.134374976158142,6.8892998695373535,0.4266625046730041
1781033861259153200,3.862153076171875,-1.134374976158142,6.8892998695373535,0.4266625046730041
1781033861278670000,3.881670166015625,-0.8925125002861023,4.941337585449219,0.6732000112533569
1781033861298188300,3.901188232421875,-0.8925125002861023,4.941337585449219,0.6732000112533569
1781033861317700600,3.92070068359375,-0.7771499752998352,2.991174936294556,0.6219124794006348
1781033861337211400,3.94021142578125,-0.7771499752998352,2.991174936294556,0.6219124794006348
1781033861356724200,3.95972412109375,-0.6668750047683716,1.6174124479293823,0.5341874957084656
1781033861376238800,3.97923876953125,-0.6668750047683716,1.6174124479293823,0.5341874957084656
1781033861395751200,3.998751220703125,-0.697950005531311,0.2580874860286712,0.358599990606308
1781033861415266300,4.018266357421875,-0.697950005531311,0.2580874860286712,0.358599990606308
1781033861434782500,4.037782470703125,-0.9802374839782716,-0.6399250030517578,0.0211750008165836
1781033861454295600,4.057295654296875,-0.9802374839782716,-0.6399250030517578,0.0211750008165836
1781033861473805600,4.0768056640625,-1.081025004386902,-0.8460375070571899,-0.1439625024795532
1781033861493314600,4.096314453125,-1.081025004386902,-0.8460375070571899,-0.1439625024795532
1781033861512821200,4.1158212890625,-0.8227999806404114,-1.071674942970276,-0.1614249944686889
1781033861532326100,4.135326171875,-0.8227999806404114,-1.071674942970276,-0.1614249944686889
1781033861551830800,4.154830810546875,-0.5765374898910522,-1.8651875257492063,-0.3382500112056732
1781033861571338000,4.174337890625,-0.5765374898910522,-1.8651875257492063,-0.3382500112056732
1781033861590846200,4.19384619140625,-0.0687500014901161,-3.666987419128418,-0.3592875003814697
1781033861610352600,4.2133525390625,-0.0687500014901161,-3.666987419128418,-0.3592875003814697
1781033861629861000,4.232861083984375,2.082025051116944,-6.456037521362305,0.5798375010490417
1781033861649373000,4.252373046875,2.082025051116944,-6.456037521362305,0.5798375010490417
1781033861668885500,4.271885498046875,4.0002875328063965,-7.743037223815918,1.823799967765808
1781033861688394800,4.291394775390625,4.0002875328063965,-7.743037223815918,1.823799967765808
1781033861707907300,4.3109072265625,3.763512372970581,-6.882975101470947,2.111037492752075
1781033861727422700,4.330422607421875,3.763512372970581,-6.882975101470947,2.111037492752075
1781033861746936600,4.3499365234375,3.763512372970581,-6.882975101470947,2.111037492752075
1781033861766456300,4.369456298828125,2.5767500400543213,-4.808099746704102,1.69207501411438
1781033861785973800,4.388973876953125,1.803862452507019,-3.207737445831299,1.0822625160217283
1781033861805487000,4.408487060546875,1.803862452507019,-3.207737445831299,1.0822625160217283
1781033861825001500,4.42800146484375,1.284387469291687,-2.280025005340576,0.4921124875545501
1781033861844520200,4.447520263671875,1.284387469291687,-2.280025005340576,0.4921124875545501
1781033861864036900,4.467036865234375,1.284387469291687,-2.280025005340576,0.4921124875545501
1781033861883545300,4.48654541015625,0.4791874885559082,-1.0485750436782837,0.1273249983787536
1781033861903050800,4.50605078125,0.0087999999523162,-0.5024250149726868,0.0591249987483024
1781033861922560000,4.52556005859375,-0.4233624935150146,-0.1623875051736831,0.0500499978661537
1781033861942073000,4.545072998046875,-0.4233624935150146,-0.1623875051736831,0.0500499978661537
1781033861961583400,4.564583251953125,-1.0392249822616575,0.1174250021576881,0.017875000834465
1781033861981090300,4.58409033203125,-1.0392249822616575,0.1174250021576881,0.017875000834465
1781033862000602000,4.60360205078125,-1.3657875061035156,0.3294500112533569,-0.2635875046253204
1781033862020117500,4.623117431640625,-1.3657875061035156,0.3294500112533569,-0.2635875046253204
1781033862039628300,4.642628173828125,-1.841125011444092,1.0087000131607056,-0.8100125193595886
1781033862059140000,4.66214013671875,-1.841125011444092,1.0087000131607056,-0.8100125193595886
1781033862078655000,4.681655029296875,-2.2244749069213867,1.3982374668121338,-1.1845624446868896
1781033862098165800,4.701165771484375,-2.2244749069213867,1.3982374668121338,-1.1845624446868896
1781033862117675300,4.72067529296875,-1.9569000005722048,0.9120374917984008,-1.041287541389465
1781033862137186300,4.740186279296875,-1.9569000005722048,0.9120374917984008,-1.041287541389465
1781033862156698600,4.75969873046875,-1.5012249946594238,0.5953750014305115,-0.7556999921798706
1781033862176210200,4.779210205078125,-1.5012249946594238,0.5953750014305115,-0.7556999921798706
1781033862195723000,4.798722900390625,-0.7709624767303467,0.2891624867916107,-0.1736624985933303
1781033862215235000,4.818235107421875,-0.7709624767303467,0.2891624867916107,-0.1736624985933303
1781033862234745000,4.8377451171875,0.0921249985694885,-0.0511500015854835,0.3280749917030334
1781033862254253300,4.85725341796875,0.0921249985694885,-0.0511500015854835,0.3280749917030334
1781033862273758700,4.8767587890625,0.3859624862670898,0.5670499801635742,-0.209549993276596
1781033862293267200,4.89626708984375,0.3859624862670898,0.5670499801635742,-0.209549993276596
1781033862312781300,4.91578125,-0.4761624932289123,3.0079500675201416,-2.034587383270264
1781033862332298500,4.935298583984375,-0.4761624932289123,3.0079500675201416,-2.034587383270264
1781033862351813000,4.954813232421875,-2.1444499492645264,6.809962272644043,-3.7582874298095694
1781033862371326700,4.97432666015625,-2.1444499492645264,6.809962272644043,-3.7582874298095694
1781033862390847000,4.993846923828125,-1.720674991607666,7.7712249755859375,-2.910599946975708
1781033862410363600,5.01336376953125,-1.720674991607666,7.7712249755859375,-2.910599946975708
1781033862429877500,5.03287744140625,-0.4047999978065491,6.373950004577637,-1.3604249954223633
1781033862449395500,5.0523955078125,-0.4047999978065491,6.373950004577637,-1.3604249954223633
1781033862468909600,5.07190966796875,0.1929125040769577,4.37607479095459,-0.371937483549118
1781033862488421600,5.091421630859375,0.1929125040769577,4.37607479095459,-0.371937483549118
1781033862507935200,5.110935302734375,0.3020874857902527,3.0028624534606934,0.1783374994993209
1781033862527447300,5.130447265625,0.3020874857902527,3.0028624534606934,0.1783374994993209
1781033862546957000,5.14995703125,0.3565374910831451,1.9065749645233157,0.5112249851226807
1781033862566465800,5.1694658203125,0.3565374910831451,1.9065749645233157,0.5112249851226807
1781033862585975600,5.1889755859375,0.1867250055074691,0.8926500082015991,0.5131499767303467
1781033862605487900,5.20848779296875,0.1867250055074691,0.8926500082015991,0.5131499767303467
1781033862624996900,5.227996826171875,-0.3899500072002411,-0.0016499999910593,0.1886499971151352
1781033862644507400,5.24750732421875,-0.3899500072002411,-0.0016499999910593,0.1886499971151352
1781033862664020700,5.267020751953125,-0.6619250178337097,-0.3834874927997589,0.0089375004172325
1781033862683532500,5.286532470703125,-0.819225013256073,-0.7095000147819519,-0.1292500048875808
1781033862703041300,5.306041259765625,-0.819225013256073,-0.7095000147819519,-0.1292500048875808
1781033862722546700,5.325546630859375,-0.8009374737739563,-1.3375999927520752,-0.2580874860286712
1781033862742054400,5.345054443359375,-0.8009374737739563,-1.3375999927520752,-0.2580874860286712
1781033862761562600,5.364562744140625,-0.3261500000953674,-2.5595624446868896,-0.2197249978780746
1781033862781069600,5.384069580078125,-0.3261500000953674,-2.5595624446868896,-0.2197249978780746
1781033862800583400,5.40358349609375,1.1754875183105469,-4.620137691497803,0.2539624869823456
1781033862820098800,5.423098876953125,1.1754875183105469,-4.620137691497803,0.2539624869823456
1781033862839610600,5.442610595703125,3.550800085067749,-6.691162586212158,1.381737470626831
1781033862859122000,5.462121826171875,3.550800085067749,-6.691162586212158,1.381737470626831
1781033862878631700,5.481631591796875,4.88730001449585,-7.417025089263916,2.1041624546051025
1781033862898141700,5.5011416015625,4.88730001449585,-7.417025089263916,2.1041624546051025
1781033862917658000,5.520658203125,4.6710124015808105,-6.644000053405762,2.0182249546051025
1781033862937175600,5.540175537109375,4.6710124015808105,-6.644000053405762,2.0182249546051025
1781033862956689200,5.559689208984375,3.6539249420166016,-5.254012584686279,1.5233625173568726
1781033862976204300,5.579204345703125,3.6539249420166016,-5.254012584686279,1.5233625173568726
1781033862995717000,5.598717041015625,2.419862508773804,-3.28336238861084,0.7908999919891357
1781033863015227400,5.618227294921875,2.419862508773804,-3.28336238861084,0.7908999919891357
1781033863034739700,5.63773974609375,1.4836249351501465,-1.6823124885559082,0.1057374998927116
1781033863054250800,5.657250732421875,1.4836249351501465,-1.6823124885559082,0.1057374998927116
1781033863073762000,5.676761962890625,0.7566624879837036,-0.633187472820282,-0.2598749995231628
1781033863093276200,5.696276123046875,0.7566624879837036,-0.633187472820282,-0.2598749995231628
1781033863112792800,5.715792724609375,-0.0360249988734722,-0.0239249989390373,-0.3167999982833862
1781033863132306000,5.735305908203125,-0.0360249988734722,-0.0239249989390373,-0.3167999982833862
1781033863151815000,5.75481494140625,-0.7732999920845032,0.1157749965786933,-0.2913624942302704
1781033863171325400,5.774325439453125,-0.7732999920845032,0.1157749965786933,-0.2913624942302704
1781033863190840000,5.793840087890625,-1.128462553024292,-0.0031624999828636,-0.3503499925136566
1781033863210354400,5.8133544921875,-1.128462553024292,-0.0031624999828636,-0.3503499925136566
1781033863229863700,5.83286376953125,-1.4916000366210938,0.2844874858856201,-0.517549991607666
1781033863249373000,5.852373046875,-1.4916000366210938,0.2844874858856201,-0.517549991607666
1781033863268884000,5.871884033203125,-1.7514749765396118,0.4628250002861023,-0.5442249774932861
1781033863288397800,5.891397705078125,-1.7514749765396118,0.4628250002861023,-0.5442249774932861
1781033863307913700,5.910913818359375,-1.7105000019073486,0.2134000062942505,-0.4046624898910522
1781033863327429000,5.93042919921875,-1.7105000019073486,0.2134000062942505,-0.4046624898910522
1781033863346942000,5.94994189453125,-1.5589749813079834,0.0470249988138675,-0.2609750032424927
1781033863366455300,5.969455322265625,-1.5589749813079834,0.0470249988138675,-0.2609750032424927
1781033863385965000,5.988965087890625,-1.3870999813079834,0.2780250012874603,-0.3225750029087066
1781033863405475600,6.0084755859375,-1.3870999813079834,0.2780250012874603,-0.3225750029087066
1781033863424989400,6.027989501953125,-1.0025124549865725,0.4116750061511993,-0.2700499892234802
1781033863444502300,6.047502197265625,-1.0025124549865725,0.4116750061511993,-0.2700499892234802
1781033863464012800,6.0670126953125,-1.0025124549865725,0.4116750061511993,-0.2700499892234802
1781033863483523000,6.086523193359375,-0.8090500235557556,1.0689250230789185,-0.6193000078201294
1781033863503031800,6.10603173828125,-1.3784375190734863,2.645912408828736,-1.854874968528748
1781033863522540500,6.12554052734375,-2.6490750312805176,5.499037265777588,-3.9345624446868896
1781033863542046700,6.145046630859375,-2.6490750312805176,5.499037265777588,-3.9345624446868896
1781033863561552600,6.164552734375,-4.198287487030029,9.76208782196045,-5.966400146484375
1781033863581063000,6.18406298828125,-4.198287487030029,9.76208782196045,-5.966400146484375
1781033863600573200,6.2035732421875,-2.1103498935699463,8.931037902832031,-3.8821749687194815
1781033863620082400,6.22308251953125,-2.1103498935699463,8.931037902832031,-3.8821749687194815
1781033863639592000,6.242592041015625,-0.0570624992251396,6.344799995422363,-1.5950000286102295
1781033863659105800,6.262105712890625,-0.0570624992251396,6.344799995422363,-1.5950000286102295
1781033863678617600,6.28161767578125,0.5449125170707703,3.697925090789795,-0.453062504529953
1781033863698125300,6.301125244140625,0.5449125170707703,3.697925090789795,-0.453062504529953
1781033863717630200,6.320630126953125,0.3847250044345855,2.224062442779541,-0.1396999955177307
1781033863737139000,6.340138916015625,0.3847250044345855,2.224062442779541,-0.1396999955177307
1781033863756651500,6.359651611328125,0.0889625027775764,1.3908125162124634,-0.0272249989211559
1781033863776161000,6.3791611328125,0.0889625027775764,1.3908125162124634,-0.0272249989211559
1781033863795672600,6.398672607421875,-0.3238124847412109,0.9960500001907348,-0.0644875019788742
1781033863815189000,6.41818896484375,-0.3238124847412109,0.9960500001907348,-0.0644875019788742
1781033863834700500,6.437700439453125,-0.6465250253677368,0.720912516117096,-0.1989624947309494
1781033863854209000,6.457208984375,-0.6465250253677368,0.720912516117096,-0.1989624947309494
1781033863873719600,6.476719482421875,-0.8839874863624573,0.0991374999284744,-0.221512496471405
1781033863893234700,6.496234619140625,-0.8839874863624573,0.0991374999284744,-0.221512496471405
1781033863912750800,6.515750732421875,-1.0582000017166138,-0.8445249795913696,-0.0791999995708465
1781033863932262700,6.5352626953125,-1.0582000017166138,-0.8445249795913696,-0.0791999995708465
1781033863951778000,6.554778076171875,-0.868862509727478,-1.8060624599456787,0.166374996304512
1781033863971292000,6.5742919921875,-0.868862509727478,-1.8060624599456787,0.166374996304512
1781033863990798000,6.593798095703125,-0.3445749878883362,-2.885437488555908,0.4171749949455261
1781033864010304000,6.613303955078125,-0.3445749878883362,-2.885437488555908,0.4171749949455261
1781033864029817900,6.63281787109375,0.731499969959259,-5.118987560272217,0.9428374767303468
1781033864049333500,6.65233349609375,0.731499969959259,-5.118987560272217,0.9428374767303468
1781033864068845600,6.671845458984375,5.029062271118164,-10.842562675476074,4.432312488555908
1781033864088356600,6.691356689453125,5.029062271118164,-10.842562675476074,4.432312488555908
1781033864107867400,6.710867431640625,6.789337635040283,-12.274624824523926,6.288424968719482
1781033864127381800,6.7303818359375,6.789337635040283,-12.274624824523926,6.288424968719482
1781033864146895600,6.7498955078125,6.789337635040283,-12.274624824523926,6.288424968719482
1781033864166410200,6.76941015625,3.943637371063232,-6.460299968719482,3.535675048828125
1781033864185924600,6.788924560546875,2.257887601852417,-3.094024896621704,1.8702750205993648
1781033864205438500,6.8084384765625,2.257887601852417,-3.094024896621704,1.8702750205993648
1781033864224956700,6.827956787109375,1.5846874713897705,-1.8011125326156616,1.0843249559402466
1781033864244474000,6.84747412109375,1.5846874713897705,-1.8011125326156616,1.0843249559402466
1781033864263986700,6.866986572265625,1.5846874713897705,-1.8011125326156616,1.0843249559402466
1781033864283502000,6.886502197265625,1.1826374530792236,-1.0857000350952148,0.6344249844551086
1781033864303019800,6.906019775390625,0.9865624904632568,-0.7921375036239624,0.4555374979972839
1781033864322538000,6.9255380859375,0.7779750227928162,-0.5292375087738037,0.2891624867916107
1781033864342056200,6.94505615234375,0.7779750227928162,-0.5292375087738037,0.2891624867916107
1781033864361570300,6.9645703125,0.3089624941349029,-0.081675000488758,0.0290124993771314
1781033864381083100,6.984083251953125,0.3089624941349029,-0.081675000488758,0.0290124993771314
1781033864400593000,7.003593017578125,-0.3233999907970428,0.1989624947309494,0.0791999995708465
1781033864420102100,7.02310205078125,-0.3233999907970428,0.1989624947309494,0.0791999995708465
1781033864439613400,7.042613525390625,-0.9963250160217284,0.3513124883174896,0.2123000025749206
1781033864459121200,7.06212109375,-0.9963250160217284,0.3513124883174896,0.2123000025749206
1781033864478631200,7.081631103515625,-1.4209250211715698,0.600600004196167,0.0522499978542327
1781033864498147000,7.10114697265625,-1.4209250211715698,0.600600004196167,0.0522499978542327
1781033864517664000,7.1206640625,-1.4981999397277832,0.6579374670982361,-0.1919499933719635
1781033864537176600,7.140176513671875,-1.4981999397277832,0.6579374670982361,-0.1919499933719635
1781033864556693500,7.159693603515625,-1.476062536239624,0.5691124796867371,-0.4081000089645386
1781033864576207600,7.17920751953125,-1.476062536239624,0.5691124796867371,-0.4081000089645386
1781033864595716600,7.198716552734375,-1.5540249347686768,0.8758749961853027,-0.7394750118255615
1781033864615229400,7.2182294921875,-1.5540249347686768,0.8758749961853027,-0.7394750118255615
1781033864634737700,7.237737548828125,-1.8437374830245967,1.9952625036239624,-1.4169374704360962
1781033864654245400,7.257245361328125,-1.8437374830245967,1.9952625036239624,-1.4169374704360962
1781033864673754600,7.276754638671875,-2.533987522125244,4.117437362670898,-2.5190000534057617
1781033864693262600,7.2962626953125,-2.533987522125244,4.117437362670898,-2.5190000534057617
1781033864712769800,7.315769775390625,-3.827862501144409,7.283100128173828,-3.861412525177002
1781033864732280800,7.33528076171875,-3.827862501144409,7.283100128173828,-3.861412525177002
1781033864751797500,7.354797607421875,-3.313750028610229,9.121337890625,-3.2621874809265137
1781033864771315500,7.3743154296875,-3.313750028610229,9.121337890625,-3.2621874809265137
1781033864790833000,7.3938330078125,-0.7827875018119812,7.775487422943115,-1.2446500062942505
1781033864810350000,7.41335009765625,-0.7827875018119812,7.775487422943115,-1.2446500062942505
1781033864829861600,7.432861572265625,0.9025499820709229,5.792737483978272,0.2333374917507171
1781033864849369900,7.452369873046875,0.9025499820709229,5.792737483978272,0.2333374917507171
1781033864868881000,7.471880859375,1.583862543106079,4.0569376945495605,1.035099983215332
1781033864888393200,7.491393310546875,1.583862543106079,4.0569376945495605,1.035099983215332
1781033864907905800,7.51090576171875,1.5406874418258667,2.9078500270843506,1.208899974822998
1781033864927419400,7.53041943359375,1.5406874418258667,2.9078500270843506,1.208899974822998
1781033864946934300,7.549934326171875,0.6850249767303467,1.4294500350952148,0.7655999660491943
1781033864966447900,7.56944775390625,0.6850249767303467,1.4294500350952148,0.7655999660491943
1781033864985955800,7.588955810546875,0.2937000095844269,-0.1317249983549118,0.5861625075340271
1781033865005463800,7.6084638671875,0.2937000095844269,-0.1317249983549118,0.5861625075340271
1781033865024972500,7.62797265625,-0.3528249859809875,-0.8190875053405762,0.0314874984323978
1781033865044481800,7.647481689453125,-0.3528249859809875,-0.8190875053405762,0.0314874984323978
1781033865063990800,7.66699072265625,-0.3528249859809875,-0.8190875053405762,0.0314874984323978
1781033865083500300,7.686500244140625,-0.6997374892234802,-1.227874994277954,-0.332749992609024
1781033865103011300,7.70601123046875,-0.9048874974250792,-1.5560874938964844,-0.5022875070571899
1781033865122522600,7.725522705078125,-1.123924970626831,-1.9555250406265257,-0.7126625180244446
1781033865142031600,7.745031494140625,-1.123924970626831,-1.9555250406265257,-0.7126625180244446
1781033865161538300,7.764538330078125,-1.1809874773025513,-2.992412567138672,-1.1177375316619873
1781033865181048000,7.784048095703125,-1.1809874773025513,-2.992412567138672,-1.1177375316619873
1781033865200558300,7.803558349609375,-0.6050000190734863,-4.461050033569336,-0.3876124918460846
1781033865220069600,7.823069580078125,-0.6050000190734863,-4.461050033569336,-0.3876124918460846
1781033865239582200,7.842582275390625,2.834699869155884,-9.244400024414062,1.1404249668121338
1781033865259096800,7.862096923828125,2.834699869155884,-9.244400024414062,1.1404249668121338
1781033865278610200,7.881610107421875,7.619699954986572,-15.81827449798584,5.3015875816345215
1781033865298122200,7.901122314453125,7.619699954986572,-15.81827449798584,5.3015875816345215
1781033865317638000,7.920637939453125,4.12348747253418,-8.882087707519531,3.0156500339508057
1781033865337153300,7.9401533203125,4.12348747253418,-8.882087707519531,3.0156500339508057
1781033865356670000,7.959669921875,1.8583124876022337,-3.946525096893311,1.358775019645691
1781033865376189200,7.979189208984375,1.8583124876022337,-3.946525096893311,1.358775019645691
1781033865395709400,7.99870947265625,1.1046749353408811,-1.9973249435424805,0.6380000114440918
1781033865415226000,8.01822607421875,1.1046749353408811,-1.9973249435424805,0.6380000114440918
1781033865434742000,8.037741943359375,0.7583125233650208,-1.1578874588012695,0.0906125009059906
1781033865454263000,8.057262939453125,0.7583125233650208,-1.1578874588012695,0.0906125009059906
1781033865473783800,8.07678369140625,0.3812874853610992,-0.3887124955654144,-0.378537505865097
1781033865493301800,8.0963017578125,0.3812874853610992,-0.3887124955654144,-0.378537505865097
1781033865512818700,8.115818603515624,-0.0450999997556209,0.0738374963402748,-0.5725499987602234
1781033865532333600,8.13533349609375,-0.0450999997556209,0.0738374963402748,-0.5725499987602234
1781033865551847200,8.15484716796875,-0.5429875254631042,0.3173500001430511,-0.5126000046730042
1781033865571363300,8.17436328125,-0.5429875254631042,0.3173500001430511,-0.5126000046730042
1781033865590884000,8.193884033203124,-1.0891374349594116,0.4791874885559082,-0.269225001335144
1781033865610402300,8.21340234375,-1.0891374349594116,0.4791874885559082,-0.269225001335144
1781033865629918500,8.23291845703125,-1.3562999963760376,0.3540624976158142,-0.0976250022649765
1781033865649436200,8.252436279296875,-1.3562999963760376,0.3540624976158142,-0.0976250022649765
1781033865668953300,8.271953369140626,-1.2456125020980835,0.2744500041007995,-0.2211000025272369
1781033865688471600,8.291471435546875,-1.2456125020980835,0.2744500041007995,-0.2211000025272369
1781033865707983600,8.310983642578124,-1.0081499814987185,0.2211000025272369,-0.2998875081539154
1781033865727493600,8.33049365234375,-1.0081499814987185,0.2211000025272369,-0.2998875081539154
1781033865747007700,8.3500078125,-1.0081499814987185,0.2211000025272369,-0.2998875081539154
1781033865766524200,8.369524169921876,-1.2526249885559082,1.0634249448776243,-0.6675624847412109
1781033865786036500,8.389036376953126,-1.7437750101089478,2.4030873775482178,-1.2423125505447388
1781033865805547000,8.408547119140625,-1.7437750101089478,2.4030873775482178,-1.2423125505447388
1781033865825058800,8.428058837890624,-1.37871253490448,2.4217875003814697,-0.824999988079071
1781033865844572700,8.44757275390625,-1.37871253490448,2.4217875003814697,-0.824999988079071
1781033865864084200,8.467084228515626,-1.37871253490448,2.4217875003814697,-0.824999988079071
1781033865883595300,8.48659521484375,-1.08308744430542,3.952849864959717,-1.0439000129699707
1781033865903107600,8.506107666015625,-0.6182000041007996,6.288149833679199,-0.8903124928474426
1781033865922617600,8.52561767578125,-1.2527624368667605,8.30568790435791,-1.5772625207901
1781033865942128400,8.54512841796875,-1.2527624368667605,8.30568790435791,-1.5772625207901
1781033865961638700,8.564638671875,-1.7582124471664429,9.042550086975098,-1.9368250370025637
1781033865981153500,8.584153564453125,-1.7582124471664429,9.042550086975098,-1.9368250370025637
1781033866000673300,8.60367333984375,0.206662505865097,6.4290876388549805,-0.1913999915122985
1781033866020191500,8.62319140625,0.206662505865097,6.4290876388549805,-0.1913999915122985
1781033866039708400,8.64270849609375,1.4019500017166138,4.723949909210205,0.976937472820282
1781033866059227100,8.66222705078125,1.4019500017166138,4.723949909210205,0.976937472820282
1781033866078747100,8.6817470703125,1.6102625131607056,3.347712516784668,1.3234374523162842
1781033866098266000,8.70126611328125,1.6102625131607056,3.347712516784668,1.3234374523162842
1781033866117786400,8.720786376953125,1.092437505722046,1.8244874477386477,0.9956374764442444
1781033866137304300,8.74030419921875,1.092437505722046,1.8244874477386477,0.9956374764442444
1781033866156816000,8.75981591796875,0.2032250016927719,0.6840624809265137,0.370012491941452
1781033866176327000,8.779326904296875,0.2032250016927719,0.6840624809265137,0.370012491941452
1781033866195841000,8.798841064453125,-0.4471499919891357,0.1113749966025352,-0.0591249987483024
1781033866215356200,8.818356201171875,-0.4471499919891357,0.1113749966025352,-0.0591249987483024
1781033866234873300,8.837873291015624,-0.7319124937057495,-0.3283500075340271,-0.165412500500679
1781033866254388000,8.857387939453124,-0.7319124937057495,-0.3283500075340271,-0.165412500500679
1781033866273903400,8.8769033203125,-0.8017625212669373,-1.0345499515533447,-0.1284250020980835
1781033866293419500,8.89641943359375,-0.8017625212669373,-1.0345499515533447,-0.1284250020980835
1781033866312934400,8.915934326171875,-0.7299875020980835,-1.9241750240325928,-0.129112496972084
1781033866332452000,8.9354521484375,-0.7299875020980835,-1.9241750240325928,-0.129112496972084
1781033866351966500,8.954966552734374,-0.3906374871730804,-2.880625009536743,-0.1891999989748001
1781033866371479600,8.9744794921875,-0.3906374871730804,-2.880625009536743,-0.1891999989748001
1781033866390994200,8.993994140625,0.676087498664856,-4.086362361907959,0.0318999998271465
1781033866410506000,9.013506103515626,0.676087498664856,-4.086362361907959,0.0318999998271465
1781033866430012400,9.033012451171874,2.396899938583374,-5.551424980163574,0.6380000114440918
1781033866449522000,9.05252197265625,2.396899938583374,-5.551424980163574,0.6380000114440918
1781033866469036500,9.07203662109375,4.2638750076293945,-6.969187259674072,1.6040749549865725
1781033866488547800,9.0915478515625,4.2638750076293945,-6.969187259674072,1.6040749549865725
1781033866508058600,9.11105859375,4.980662345886231,-7.544899940490723,2.3754498958587646
1781033866527569200,9.130569091796875,4.980662345886231,-7.544899940490723,2.3754498958587646
1781033866547075000,9.150074951171876,3.485212564468384,-5.28879976272583,1.7562874555587769
1781033866566587600,9.169587646484375,3.485212564468384,-5.28879976272583,1.7562874555587769
1781033866586104600,9.1891044921875,1.9505749940872192,-2.541412591934204,0.9820249676704408
1781033866605619000,9.208618896484374,1.9505749940872192,-2.541412591934204,0.9820249676704408
1781033866625132300,9.22813232421875,1.324125051498413,-1.3191750049591064,0.4514124989509582
1781033866644648700,9.247648681640625,1.324125051498413,-1.3191750049591064,0.4514124989509582
1781033866664164400,9.267164306640623,1.324125051498413,-1.3191750049591064,0.4514124989509582
1781033866683682300,9.286682373046874,0.920562505722046,-0.7053750157356262,-0.0499125011265277
1781033866703201000,9.306200927734375,0.6168249845504761,-0.44302499294281,-0.2237125039100647
1781033866722717400,9.325717529296876,0.6168249845504761,-0.44302499294281,-0.2237125039100647
1781033866742233600,9.345233642578124,-0.1417624950408935,-0.1678874939680099,-0.3345375061035156
1781033866761747700,9.364747802734374,-0.1417624950408935,-0.1678874939680099,-0.3345375061035156
1781033866781262300,9.384262451171876,-0.7892500162124634,-0.2283875048160553,-0.2510749995708465
1781033866800778200,9.4037783203125,-0.7892500162124634,-0.2283875048160553,-0.2510749995708465
1781033866820297700,9.423297607421874,-1.1743874549865725,-0.0823625028133392,-0.2134000062942505
1781033866839818000,9.44281787109375,-1.1743874549865725,-0.0823625028133392,-0.2134000062942505
1781033866859330800,9.462330810546876,-1.3623499870300293,0.7155500054359436,-0.5732374787330627
1781033866878835000,9.4818349609375,-1.3623499870300293,0.7155500054359436,-0.5732374787330627
1781033866898340600,9.501340576171875,-1.5015000104904177,1.252900004386902,-0.854562520980835
1781033866917850400,9.520850341796876,-1.5015000104904177,1.252900004386902,-0.854562520980835
1781033866937357300,9.540357421875,-1.2641749382019043,0.5905625224113464,-0.3401750028133392
1781033866956867600,9.55986767578125,-1.2641749382019043,0.5905625224113464,-0.3401750028133392
1781033866976379400,9.57937939453125,-0.757349967956543,-0.2582249939441681,0.4252874851226806
1781033866995890700,9.598890625,-0.757349967956543,-0.2582249939441681,0.4252874851226806
1781033867015407600,9.61840771484375,-0.2155999988317489,-0.6252124905586243,0.9442124962806702
1781033867034923000,9.637923095703124,-0.2155999988317489,-0.6252124905586243,0.9442124962806702
1781033867054431700,9.657431640625,-0.1105500012636184,0.1847999989986419,0.4039750099182129
1781033867073940200,9.676940185546876,-0.1105500012636184,0.1847999989986419,0.4039750099182129
1781033867093452500,9.69645263671875,-0.8813750147819519,2.430999994277954,-1.4331624507904053
1781033867112963800,9.7159638671875,-0.8813750147819519,2.430999994277954,-1.4331624507904053
1781033867132472600,9.73547265625,-1.8675249814987185,4.935699939727783,-3.096637487411499
1781033867151981800,9.75498193359375,-1.8675249814987185,4.935699939727783,-3.096637487411499
1781033867171489500,9.774489501953123,-2.467437505722046,6.90098762512207,-3.4286999702453613
1781033867190995200,9.7939951171875,-2.467437505722046,6.90098762512207,-3.4286999702453613
1781033867210500900,9.8135009765625,-1.814175009727478,7.719249725341797,-2.3320000171661377
1781033867230007300,9.83300732421875,-1.814175009727478,7.719249725341797,-2.3320000171661377
1781033867249516800,9.852516845703123,-0.6305750012397766,6.830999851226807,-1.0471999645233154
1781033867269024300,9.872024169921875,-0.6305750012397766,6.830999851226807,-1.0471999645233154
1781033867288530700,9.89153076171875,0.0961124971508979,5.125999927520752,-0.2538250088691711
1781033867308039400,9.911039306640625,0.0961124971508979,5.125999927520752,-0.2538250088691711
1781033867327548200,9.930548095703124,0.3330250084400177,3.3543124198913574,0.145062506198883
1781033867347056600,9.950056640625,0.3330250084400177,3.3543124198913574,0.145062506198883
1781033867366565400,9.9695654296875,0.2887499928474426,2.1689250469207764,0.2917749881744385
1781033867386078500,9.989078369140625,0.2887499928474426,2.1689250469207764,0.2917749881744385
1781033867405592300,10.00859228515625,-0.0790624991059303,1.0562750101089478,0.2938374876976013
1781033867425103400,10.028103271484374,-0.0790624991059303,1.0562750101089478,0.2938374876976013
1781033867444616200,10.0476162109375,-0.6045874953269958,0.0116875004023313,0.2161500006914138
1781033867464129500,10.067129638671876,-0.6045874953269958,0.0116875004023313,0.2161500006914138
1781033867483642000,10.08664208984375,-0.8232125043869019,-0.3324750065803528,0.1585374921560287
1781033867503153200,10.106153076171877,-0.981612503528595,-0.551925003528595,0.1011999994516372
1781033867522667300,10.125667236328123,-1.0814374685287476,-0.7273749709129333,0.0558249987661838
1781033867542179600,10.1451796875,-1.0814374685287476,-0.7273749709129333,0.0558249987661838
1781033867561693200,10.164693115234376,-1.1748000383377075,-1.3255000114440918,-0.0004124999977648
1781033867581208600,10.18420849609375,-1.154175043106079,-1.7617875337600708,-0.0312124993652105
1781033867600723000,10.203722900390623,-1.0279500484466553,-2.2188374996185303,-0.053762499243021
1781033867620238800,10.22323876953125,-0.772475004196167,-2.705862522125244,-0.0369874984025955
1781033867639752400,10.24275244140625,-0.772475004196167,-2.705862522125244,-0.0369874984025955
1781033867659266800,10.262266845703126,0.2803624868392944,-4.04428768157959,0.2986499965190887
1781033867678783700,10.28178369140625,0.2803624868392944,-4.04428768157959,0.2986499965190887
1781033867698302500,10.301302490234375,2.597787380218506,-6.59945011138916,1.547700047492981
1781033867717814500,10.320814453125,2.597787380218506,-6.59945011138916,1.547700047492981
1781033867737319400,10.3403193359375,4.628387451171875,-8.038524627685547,3.0329749584198
1781033867756826600,10.35982666015625,4.628387451171875,-8.038524627685547,3.0329749584198
1781033867776340000,10.379340087890624,4.433000087738037,-7.081524848937988,3.200312376022339
1781033867795857200,10.398857177734374,4.433000087738037,-7.081524848937988,3.200312376022339
1781033867815374600,10.41837451171875,3.246924877166748,-5.039787292480469,2.47513747215271
1781033867834898200,10.437898193359375,3.246924877166748,-5.039787292480469,2.47513747215271
1781033867854416600,10.457416748046874,2.228187561035156,-3.2059500217437744,1.5769875049591064
1781033867873928400,10.476928466796876,2.228187561035156,-3.2059500217437744,1.5769875049591064
1781033867893446400,10.4964462890625,1.5519624948501587,-2.0407750606536865,0.8266500234603882
1781033867912964900,10.51596484375,1.5519624948501587,-2.0407750606536865,0.8266500234603882
1781033867932481000,10.53548095703125,0.9572749733924866,-1.0394999980926514,0.1960749924182891
1781033867951992000,10.554991943359376,0.9572749733924866,-1.0394999980926514,0.1960749924182891
1781033867971502600,10.574502685546875,0.4593875110149383,-0.3257375061511993,-0.2426874935626983
1781033867991012600,10.5940126953125,0.4593875110149383,-0.3257375061511993,-0.2426874935626983
1781033868010521000,10.61352099609375,-0.0679249987006187,-0.1033999994397163,-0.3951750099658966
1781033868030032100,10.6330322265625,-0.0679249987006187,-0.1033999994397163,-0.3951750099658966
1781033868049543200,10.652543212890626,-0.6326375007629395,-0.1372250020503997,-0.2836624979972839
1781033868069051100,10.672051025390624,-0.6326375007629395,-0.1372250020503997,-0.2836624979972839
1781033868088555300,10.69155517578125,-1.0405999422073364,-0.0677874982357025,-0.176825001835823
1781033868108059600,10.7110595703125,-1.0405999422073364,-0.0677874982357025,-0.176825001835823
1781033868127568400,10.730568359375,-1.565850019454956,0.6335999965667725,-0.5325375199317932
1781033868147076400,10.750076416015624,-1.565850019454956,0.6335999965667725,-0.5325375199317932
1781033868166585300,10.76958544921875,-2.16548752784729,1.4394874572753906,-1.043487548828125
1781033868186093600,10.789093505859377,-2.16548752784729,1.4394874572753906,-1.043487548828125
1781033868205600000,10.80860009765625,-2.16548752784729,1.4394874572753906,-1.043487548828125
1781033868225110500,10.828110595703125,-2.325399875640869,1.524187445640564,-1.1635249853134155
1781033868244622600,10.84762255859375,-2.325399875640869,1.524187445640564,-1.1635249853134155
1781033868264132900,10.8671328125,-2.128225088119507,1.4594249725341797,-1.204912543296814
1781033868283641600,10.8866416015625,-2.010387420654297,1.5457749366760254,-1.3188999891281128
1781033868303148500,10.9061484375,-1.7906625270843506,1.555400013923645,-1.3439249992370603
1781033868322656800,10.92565673828125,-1.4540624618530271,1.483762502670288,-1.2428624629974363
1781033868342163500,10.94516357421875,-1.4540624618530271,1.483762502670288,-1.2428624629974363
1781033868361670700,10.964670654296874,-1.0584750175476074,2.022212505340576,-1.473449945449829
1781033868381181400,10.984181396484376,-1.0584750175476074,2.022212505340576,-1.473449945449829
1781033868400693800,11.00369384765625,-2.2232375144958496,5.388487339019775,-3.709749937057495
1781033868420205300,11.023205322265625,-2.2232375144958496,5.388487339019775,-3.709749937057495
1781033868439718100,11.04271826171875,-2.374350070953369,8.244224548339844,-4.458712577819824
1781033868459233500,11.062233642578123,-2.374350070953369,8.244224548339844,-4.458712577819824
1781033868478745900,11.081745849609376,0.1029874980449676,7.160587310791016,-2.406524896621704
1781033868498252000,11.101251953125,0.1029874980449676,7.160587310791016,-2.406524896621704
1781033868517755400,11.12075537109375,1.466575026512146,4.67609977722168,-0.7090874910354614
1781033868537259800,11.140259765625,1.466575026512146,4.67609977722168,-0.7090874910354614
1781033868556765400,11.159765380859374,1.278749942779541,2.7440874576568604,-0.1178374961018562
1781033868576269600,11.17926953125,1.278749942779541,2.7440874576568604,-0.1178374961018562
1781033868595771400,11.198771484375,0.7672500014305115,1.997874975204468,-0.0097624994814395
1781033868615274200,11.218274169921877,0.7672500014305115,1.997874975204468,-0.0097624994814395
1781033868634776300,11.2377763671875,0.3723500072956085,1.6820374727249146,-0.032999999821186
1781033868654282500,11.257282470703124,0.3723500072956085,1.6820374727249146,-0.032999999821186
1781033868673794600,11.276794677734374,-0.1233374997973442,0.9735000133514404,-0.0598125010728836
1781033868693304600,11.2963046875,-0.1233374997973442,0.9735000133514404,-0.0598125010728836
1781033868712818200,11.315818115234377,-0.5486249923706055,0.1685750037431717,-0.0327249988913536
1781033868732334300,11.335334228515626,-0.5486249923706055,0.1685750037431717,-0.0327249988913536
1781033868751845400,11.354845458984377,-0.6551874876022339,-0.3654749989509582,0.002199999988079
1781033868771356200,11.374356201171874,-0.6551874876022339,-0.3654749989509582,0.002199999988079
1781033868790868000,11.393867919921876,-0.8694124817848206,-0.8828874826431274,0.0039874999783933
1781033868810377700,11.413377685546877,-0.8694124817848206,-0.8828874826431274,0.0039874999783933
1781033868829883400,11.43288330078125,-0.9180874824523926,-1.6823124885559082,0.0235124994069337
1781033868849391600,11.4523916015625,-0.9180874824523926,-1.6823124885559082,0.0235124994069337
1781033868868903000,11.47190283203125,-0.4527874886989593,-2.7343249320983887,0.2296250015497207
1781033868888413200,11.4914130859375,-0.4527874886989593,-2.7343249320983887,0.2296250015497207
1781033868907921200,11.510921142578123,0.3614875078201294,-4.283262252807617,0.5992249846458435
1781033868927432200,11.53043212890625,0.3614875078201294,-4.283262252807617,0.5992249846458435
1781033868946949600,11.54994970703125,1.0162625312805176,-6.577724933624268,1.0203875303268433
1781033868966466800,11.569466796875,1.0162625312805176,-6.577724933624268,1.0203875303268433
1781033868985980200,11.588980224609376,3.893174886703491,-8.601587295532227,2.5931124687194824
1781033869005489400,11.608489501953123,3.893174886703491,-8.601587295532227,2.5931124687194824
1781033869024998100,11.627998046875,4.327537536621094,-7.734375,3.1538374423980717
1781033869044508200,11.647508056640625,4.327537536621094,-7.734375,3.1538374423980717
1781033869064015000,11.66701513671875,4.327537536621094,-7.734375,3.1538374423980717
1781033869083522600,11.6865224609375,2.830162525177002,-4.633749961853027,2.2918500900268555
1781033869103030000,11.706030029296874,2.217737436294556,-3.3567874431610107,1.8614749908447263
1781033869122536000,11.725535888671876,1.7730624675750732,-2.42549991607666,1.5020500421524048
1781033869142037000,11.745037109375,1.7730624675750732,-2.42549991607666,1.5020500421524048
1781033869161538800,11.764538818359377,1.1547249555587769,-1.185937523841858,0.9176750183105468
1781033869181048800,11.784048828125,1.1547249555587769,-1.185937523841858,0.9176750183105468
1781033869200557000,11.80355712890625,0.650237500667572,-0.4244624972343445,0.415800005197525
1781033869220060000,11.823059814453124,0.650237500667572,-0.4244624972343445,0.415800005197525
1781033869239566800,11.84256689453125,0.1625249981880188,0.0017874999903142,0.0558249987661838
1781033869259079200,11.8620791015625,0.1625249981880188,0.0017874999903142,0.0558249987661838
1781033869278589200,11.881589111328124,-0.3782624900341034,0.254925012588501,-0.1233374997973442
1781033869298096000,11.90109619140625,-0.3782624900341034,0.254925012588501,-0.1233374997973442
1781033869317607700,11.920607666015623,-0.806850016117096,0.1747625023126602,-0.2099625021219253
1781033869337115100,11.940115234375,-0.806850016117096,0.1747625023126602,-0.2099625021219253
1781033869356619300,11.959619384765626,-1.1995500326156616,0.3089624941349029,-0.4641999900341034
1781033869376125400,11.97912548828125,-1.1995500326156616,0.3089624941349029,-0.4641999900341034
1781033869395638800,11.998638671875,-2.0832624435424805,1.4301375150680542,-1.1017874479293823
1781033869415150800,12.01815087890625,-2.0832624435424805,1.4301375150680542,-1.1017874479293823
1781033869434657800,12.03765771484375,-2.8437750339508057,2.304224967956543,-1.544950008392334
1781033869454164500,12.05716455078125,-2.8437750339508057,2.304224967956543,-1.544950008392334
1781033869473670400,12.07667041015625,-2.8084375858306885,2.0150625705718994,-1.3952125310897827
1781033869493180000,12.096179931640624,-2.8084375858306885,2.0150625705718994,-1.3952125310897827
1781033869512691700,12.115691650390623,-2.097012519836426,1.121037483215332,-0.7669749855995178
1781033869532205300,12.135205322265625,-2.097012519836426,1.121037483215332,-0.7669749855995178
1781033869551720000,12.154719970703123,-1.1387749910354614,0.454987496137619,-0.1581249982118606
1781033869571228700,12.174228759765626,-1.1387749910354614,0.454987496137619,-0.1581249982118606
1781033869590734000,12.193734130859376,-0.7760499715805054,0.9274374842643738,-0.5546749830245972
1781033869610245600,12.21324560546875,-0.7760499715805054,0.9274374842643738,-0.5546749830245972
1781033869629760300,12.23276025390625,-1.5533374547958374,3.1447625160217285,-2.404462575912476
1781033869649275400,12.252275390625,-1.5533374547958374,3.1447625160217285,-2.404462575912476
1781033869668786000,12.271785888671875,-2.1328999996185303,5.726462364196777,-3.63302493095398
1781033869688294400,12.29129443359375,-2.1328999996185303,5.726462364196777,-3.63302493095398
1781033869707799800,12.3107998046875,-1.1397374868392944,6.490137577056885,-2.876224994659424
1781033869727304400,12.330304443359376,-1.1397374868392944,6.490137577056885,-2.876224994659424
1781033869746811400,12.349811279296874,0.426800012588501,5.384637355804443,-1.3261874914169312
1781033869766318000,12.369318115234377,0.426800012588501,5.384637355804443,-1.3261874914169312
1781033869785827300,12.388827392578126,1.270912528038025,3.7515499591827393,-0.1649999916553497
1781033869805341200,12.408341064453126,1.270912528038025,3.7515499591827393,-0.1649999916553497
1781033869824852000,12.42785205078125,1.2123374938964844,2.778599977493286,0.2996124923229217
1781033869844364800,12.44736474609375,1.2123374938964844,2.778599977493286,0.2996124923229217
1781033869863882500,12.466882568359376,1.060675024986267,2.4565749168396,0.3662999868392944
1781033869883399200,12.486399169921874,0.8962249755859375,2.0883500576019287,0.3764750063419342
1781033869902913300,12.505913330078124,0.6785625219345093,1.5816625356674194,0.3548874855041504
1781033869922421800,12.525421875,0.6785625219345093,1.5816625356674194,0.3548874855041504
1781033869941923600,12.544923583984374,-0.0240624994039535,0.2622124850749969,0.2529999911785126
1781033869961427500,12.564427490234374,-0.0240624994039535,0.2622124850749969,0.2529999911785126
1781033869980936000,12.58393603515625,-0.7184374928474426,-0.7489625215530396,0.0712250024080276
1781033870000439800,12.603439697265625,-0.7184374928474426,-0.7489625215530396,0.0712250024080276
1781033870019941400,12.62294140625,-0.8780750036239624,-1.3870999813079834,0.0857999995350837
1781033870039447600,12.642447509765624,-0.8780750036239624,-1.3870999813079834,0.0857999995350837
1781033870058959000,12.661958984375,-0.8412249684333801,-1.868899941444397,0.129112496972084
1781033870078466800,12.681466796875,-0.8412249684333801,-1.868899941444397,0.129112496972084
1781033870097970000,12.700969970703126,-1.0951875448226929,-2.256512403488159,-0.1835625022649765
1781033870117475600,12.7204755859375,-1.0951875448226929,-2.256512403488159,-0.1835625022649765
1781033870136983800,12.73998388671875,-0.7796249985694885,-3.19673752784729,-0.1236125007271766
1781033870156491800,12.75949169921875,-0.7796249985694885,-3.19673752784729,-0.1236125007271766
1781033870175998200,12.778998291015624,1.524049997329712,-6.047387599945068,1.7597249746322632
1781033870195501800,12.798501708984375,1.524049997329712,-6.047387599945068,1.7597249746322632
1781033870215007500,12.818007568359375,4.909162521362305,-8.943550109863281,4.994962692260742
1781033870234512100,12.83751220703125,4.909162521362305,-8.943550109863281,4.994962692260742
1781033870254014200,12.85701416015625,5.032362461090088,-7.873525142669678,5.339950084686279
1781033870273516800,12.876516845703126,5.032362461090088,-7.873525142669678,5.339950084686279
1781033870293019000,12.896018798828123,3.454274892807007,-4.670462608337402,3.461562395095825
1781033870312524500,12.915524658203124,3.454274892807007,-4.670462608337402,3.461562395095825
1781033870332032300,12.9350322265625,2.203437566757202,-1.9695500135421755,1.6620999574661257
1781033870351535000,12.95453515625,2.203437566757202,-1.9695500135421755,1.6620999574661257
1781033870371031800,12.97403173828125,1.387512445449829,-0.5432624816894531,0.6514750123023987
1781033870390532000,12.993531982421874,1.387512445449829,-0.5432624816894531,0.6514750123023987
1781033870410043000,13.01304296875,0.7556999921798706,0.15344999730587,0.1372250020503997
1781033870429555200,13.03255517578125,0.7556999921798706,0.15344999730587,0.1372250020503997
1781033870449060600,13.052060546875,0.3020874857902527,0.356124997138977,-0.1072499975562095
1781033870468562000,13.07156201171875,0.3020874857902527,0.356124997138977,-0.1072499975562095
1781033870488066000,13.091066162109374,-0.1425874978303909,0.3212000131607055,-0.1575749963521957
1781033870507571500,13.110571533203125,-0.1425874978303909,0.3212000131607055,-0.1575749963521957
1781033870527072300,13.130072265625,-1.0015499591827393,0.6187499761581421,-0.3991625010967254
1781033870546574600,13.14957470703125,-1.0015499591827393,0.6187499761581421,-0.3991625010967254
1781033870566081300,13.169081298828123,-1.9535999298095703,1.0767624378204346,-0.815512478351593
1781033870585584400,13.18858447265625,-1.9535999298095703,1.0767624378204346,-0.815512478351593
1781033870605090300,13.20809033203125,-1.9535999298095703,1.0767624378204346,-0.815512478351593
1781033870624598000,13.227597900390624,-2.8286499977111816,1.6472499370574951,-1.3738999366760254
1781033870644103200,13.247103271484375,-2.8286499977111816,1.6472499370574951,-1.3738999366760254
1781033870663611000,13.26661083984375,-3.1965999603271484,1.6917999982833862,-1.680799961090088
1781033870683124000,13.2861240234375,-3.028712511062622,1.350387454032898,-1.5807000398635864
1781033870702635800,13.3056357421875,-2.706825017929077,0.9021375179290771,-1.3517625331878662
1781033870722144000,13.32514404296875,-2.706825017929077,0.9021375179290771,-1.3517625331878662
1781033870741653500,13.344653564453123,-1.741575002670288,-0.0034374999813735,-0.5533000230789185
1781033870761162200,13.364162353515624,-1.741575002670288,-0.0034374999813735,-0.5533000230789185
1781033870780666600,13.38366650390625,-0.4992625117301941,-0.6609625220298767,0.5779125094413757
1781033870800174600,13.403174560546876,-0.4992625117301941,-0.6609625220298767,0.5779125094413757
1781033870819687400,13.4226875,0.0956999957561492,-0.2183499932289123,0.3544749915599823
1781033870839194600,13.442194580078125,0.0956999957561492,-0.2183499932289123,0.3544749915599823
1781033870858698500,13.461698486328125,-0.0312124993652105,1.928712487220764,-1.1013749837875366
1781033870878202600,13.48120263671875,-0.0312124993652105,1.928712487220764,-1.1013749837875366
1781033870897706500,13.50070654296875,0.0199375003576278,5.677649974822998,-1.366612434387207
1781033870917209900,13.5202099609375,0.0199375003576278,5.677649974822998,-1.366612434387207
1781033870936716000,13.539716064453126,-0.3946250081062317,6.948975086212158,-2.103749990463257
1781033870956225300,13.559225341796877,-0.3946250081062317,6.948975086212158,-2.103749990463257
1781033870975733800,13.578733642578126,0.346637487411499,6.661187648773193,-1.338837504386902
1781033870995244000,13.598244140625,0.346637487411499,6.661187648773193,-1.338837504386902
1781033871014751500,13.61775146484375,0.8497499823570251,5.273812294006348,-0.5077875256538391
1781033871034261000,13.637260986328124,0.8497499823570251,5.273812294006348,-0.5077875256538391
1781033871053774300,13.6567744140625,1.1376750469207764,3.8515124320983887,0.0673749968409538
1781033871073284900,13.676284912109375,1.1376750469207764,3.8515124320983887,0.0673749968409538
1781033871092791800,13.695791748046876,1.0202499628067017,2.3348875045776367,0.2506625056266784
1781033871112294100,13.715294189453124,1.0202499628067017,2.3348875045776367,0.2506625056266784
1781033871131798300,13.73479833984375,0.3305499851703644,0.6964374780654907,0.1424500048160553
1781033871151305000,13.754304931640624,0.3305499851703644,0.6964374780654907,0.1424500048160553
1781033871170813400,13.7738134765625,-0.4284499883651733,-0.4083749949932098,-0.020075000822544
1781033871190322700,13.79332275390625,-0.4284499883651733,-0.4083749949932098,-0.020075000822544
1781033871209830700,13.81283056640625,-0.6994624733924866,-0.7319124937057495,-0.0684750005602836
1781033871229336600,13.832336669921874,-0.6994624733924866,-0.7319124937057495,-0.0684750005602836
1781033871248845800,13.851845703125,-0.7173374891281128,-1.207800030708313,0.0291499998420476
1781033871268355600,13.87135546875,-0.7173374891281128,-1.207800030708313,0.0291499998420476
1781033871287859200,13.890859130859376,-0.8595125079154968,-2.000075101852417,0.053762499243021
1781033871307362800,13.91036279296875,-0.8595125079154968,-2.000075101852417,0.053762499243021
1781033871326873300,13.929873291015625,-0.7601000070571899,-2.8734750747680664,0.0279124993830919
1781033871346386000,13.949385986328124,-0.7601000070571899,-2.8734750747680664,0.0279124993830919
1781033871365896000,13.96889599609375,-0.7601000070571899,-2.8734750747680664,0.0279124993830919
1781033871385400000,13.988400146484375,0.2087250053882599,-4.247237682342529,0.4362874925136566
1781033871404898300,14.007898193359376,0.2087250053882599,-4.247237682342529,0.4362874925136566
1781033871424403200,14.0274033203125,2.3028500080108643,-6.640012264251709,1.5142874717712402
1781033871443915500,14.04691552734375,3.754162549972534,-7.708937644958496,2.514324903488159
1781033871482932000,14.085931884765625,5.323174953460693,-8.580962181091309,3.965637445449829
1781033871502439700,14.105439697265624,4.842474937438965,-7.348275184631348,3.6503500938415527
1781033871521948200,14.1249482421875,4.138612270355225,-5.909887313842773,3.040950059890747
1781033871541459000,14.144458984375,4.138612270355225,-5.909887313842773,3.040950059890747
1781033871560967200,14.16396728515625,2.749037504196167,-3.083162546157837,1.9109749794006348
1781033871580473900,14.183473876953125,2.749037504196167,-3.083162546157837,1.9109749794006348
1781033871599984400,14.202984375,1.9962249994277956,-2.142937421798706,1.3366374969482422
1781033871619495000,14.222494873046877,1.9962249994277956,-2.142937421798706,1.3366374969482422
1781033871639002400,14.24200244140625,1.4199625253677368,-1.944387435913086,0.9922000169754028
1781033871658510800,14.2615107421875,1.4199625253677368,-1.944387435913086,0.9922000169754028
1781033871678022000,14.28102197265625,0.6403374671936035,-1.194737434387207,0.5026999711990356
1781033871697536000,14.300535888671876,0.6403374671936035,-1.194737434387207,0.5026999711990356
1781033871717048000,14.320048095703124,-0.1295250058174133,-0.4094749987125397,-0.0248875003308057
1781033871736555300,14.33955517578125,-0.1295250058174133,-0.4094749987125397,-0.0248875003308057
1781033871756064300,14.359064208984377,-0.6565625071525574,-0.1153625026345253,-0.2952125072479248
1781033871775570700,14.37857080078125,-0.6565625071525574,-0.1153625026345253,-0.2952125072479248
1781033871795077600,14.39807763671875,-1.106600046157837,0.172837495803833,-0.3460874855518341
1781033871814587600,14.417587646484376,-1.106600046157837,0.172837495803833,-0.3460874855518341
1781033871834098000,14.437097900390626,-1.6457375288009644,0.7543249726295471,-0.2653749883174896
1781033871853609000,14.45660888671875,-1.6457375288009644,0.7543249726295471,-0.2653749883174896
1781033871873124000,14.4761240234375,-2.266824960708618,1.5115374326705933,-0.9714375138282776
1781033871892641500,14.4956416015625,-2.266824960708618,1.5115374326705933,-0.9714375138282776
1781033871912158200,14.515158203125,-2.798949956893921,2.0047500133514404,-1.7870874404907229
1781033871931670300,14.534670166015625,-2.798949956893921,2.0047500133514404,-1.7870874404907229
1781033871951173000,14.554173095703124,-2.6749250888824463,1.6200250387191772,-1.7851624488830566
1781033871970683600,14.57368359375,-2.6749250888824463,1.6200250387191772,-1.7851624488830566
1781033871990198800,14.59319873046875,-1.9839874505996704,0.8709250092506409,-1.0770374536514282
1781033872009708000,14.6127080078125,-1.9839874505996704,0.8709250092506409,-1.0770374536514282
1781033872029216000,14.632216064453123,-1.3602875471115112,0.7908999919891357,-0.7147250175476074
1781033872048727300,14.651727294921876,-1.3602875471115112,0.7908999919891357,-0.7147250175476074
1781033872068237000,14.671237060546876,-1.2421749830245972,1.9467250108718872,-1.721637487411499
1781033872087752000,14.690751953125,-1.2421749830245972,1.9467250108718872,-1.721637487411499
1781033872107272700,14.710272705078124,-1.6592124700546265,4.27102518081665,-3.503499984741211
1781033872126790700,14.729790771484376,-1.6592124700546265,4.27102518081665,-3.503499984741211
1781033872146302700,14.749302734375,-1.713112473487854,6.446137428283691,-4.031225204467773
1781033872165816600,14.768816650390624,-1.713112473487854,6.446137428283691,-4.031225204467773
1781033872185335600,14.78833544921875,-0.5387250185012817,6.6501874923706055,-2.520787477493286
1781033872204851500,14.8078515625,-0.5387250185012817,6.6501874923706055,-2.520787477493286
1781033872224364500,14.827364501953124,-0.5387250185012817,6.6501874923706055,-2.520787477493286
1781033872243878000,14.8468779296875,0.6028000116348267,5.726325035095215,-1.272837519645691
1781033872263390200,14.86639013671875,1.0514625310897827,5.10881233215332,-0.7596874833106995
1781033872282903300,14.8859033203125,1.4374250173568726,4.597449779510498,-0.3496625125408172
1781033872302419700,14.905419677734375,1.4374250173568726,4.597449779510498,-0.3496625125408172
1781033872321941000,14.92494091796875,1.6878124475479126,3.3642125129699707,0.1315875053405761
1781033872341460200,14.944460205078125,1.6878124475479126,3.3642125129699707,0.1315875053405761
1781033872360973800,14.963973876953125,0.950262486934662,1.446637511253357,0.2501125037670135
1781033872380482600,14.983482666015624,0.950262486934662,1.446637511253357,0.2501125037670135
1781033872399994400,15.002994384765625,0.1570249944925308,0.090887501835823,0.1978625059127807
1781033872419507200,15.022507080078125,0.1570249944925308,0.090887501835823,0.1978625059127807
1781033872439022800,15.04202294921875,-0.2827000021934509,-0.2047374993562698,0.0464750006794929
1781033872458540000,15.0615400390625,-0.2827000021934509,-0.2047374993562698,0.0464750006794929
1781033872478049500,15.081049560546877,-0.6258999705314636,-0.6626124978065491,0.0358874984085559
1781033872497558300,15.100558349609376,-0.6258999705314636,-0.6626124978065491,0.0358874984085559
1781033872517072000,15.12007177734375,-0.9200124740600586,-1.4977874755859375,0.1667875051498413
1781033872536586500,15.13958642578125,-0.9200124740600586,-1.4977874755859375,0.1667875051498413
1781033872556099800,15.159099853515626,-1.127225041389465,-1.9445250034332275,0.0544499978423118
1781033872575610000,15.178610107421877,-1.127225041389465,-1.9445250034332275,0.0544499978423118
1781033872595115800,15.19811572265625,-0.9948124885559082,-2.32773756980896,-0.147537499666214
1781033872614630000,15.2176298828125,-0.9948124885559082,-2.32773756980896,-0.147537499666214
1781033872634148000,15.237148193359374,0.2417249977588653,-4.144112586975098,0.3550249934196472
1781033872653665500,15.25666552734375,0.2417249977588653,-4.144112586975098,0.3550249934196472
1781033872673183200,15.276183349609376,4.215199947357178,-8.144537925720215,2.860962390899658
1781033872692696600,15.295696533203126,4.215199947357178,-8.144537925720215,2.860962390899658
1781033872712206600,15.31520654296875,6.404337406158447,-9.3524751663208,4.392162322998047
1781033872731716900,15.334716796875,6.404337406158447,-9.3524751663208,4.392162322998047
1781033872751231700,15.354231689453124,5.028375148773193,-6.528362274169922,3.3257124423980717
1781033872770748400,15.37374853515625,5.028375148773193,-6.528362274169922,3.3257124423980717
1781033872790260500,15.393260498046876,3.0556623935699463,-3.433924913406372,2.2065999507904053
1781033872809770500,15.4127705078125,3.0556623935699463,-3.433924913406372,2.2065999507904053
1781033872829278000,15.43227783203125,1.923349976539612,-1.7626124620437622,1.5342249870300293
1781033872848784000,15.451783935546874,1.923349976539612,-1.7626124620437622,1.5342249870300293
1781033872868292000,15.4712919921875,1.4987499713897705,-1.1149874925613403,0.8542875051498413
1781033872887803400,15.490803466796876,1.4987499713897705,-1.1149874925613403,0.8542875051498413
1781033872907317200,15.510317138671876,1.1338249444961548,-0.2998875081539154,0.2135374993085861
1781033872926836000,15.5298359375,1.1338249444961548,-0.2998875081539154,0.2135374993085861
1781033872946350800,15.549350830078126,1.1338249444961548,-0.2998875081539154,0.2135374993085861
1781033872965859600,15.568859619140625,0.6432250142097473,0.5523374676704407,-0.2514874935150146
1781033872985363500,15.588363525390625,0.0067374999634921,0.594962477684021,-0.3543374836444855
1781033873004865800,15.60786572265625,0.0067374999634921,0.594962477684021,-0.3543374836444855
1781033873024375000,15.627375,0.0067374999634921,0.594962477684021,-0.3543374836444855
1781033873043882000,15.646882080078123,-0.6678375005722046,0.1722874939441681,-0.2447499930858612
1781033873063386600,15.66638671875,-0.9649749994277954,-0.0318999998271465,-0.2003374993801117
1781033873082895000,15.68589501953125,-0.9649749994277954,-0.0318999998271465,-0.2003374993801117
1781033873102400800,15.70540087890625,-1.387374997138977,-0.3727625012397766,-0.170912504196167
1781033873121906700,15.72490673828125,-1.387374997138977,-0.3727625012397766,-0.170912504196167
1781033873141413400,15.744413330078125,-1.878387451171875,0.2327875047922134,-0.5392749905586243
1781033873160924200,15.763924072265626,-1.878387451171875,0.2327875047922134,-0.5392749905586243
1781033873180437000,15.78343701171875,-2.546637535095215,1.2161874771118164,-1.1555500030517578
1781033873199947500,15.802947509765623,-2.546637535095215,1.2161874771118164,-1.1555500030517578
1781033873219459800,15.8224599609375,-2.797987461090088,1.3814624547958374,-1.4311000108718872
1781033873238971000,15.841970947265626,-2.797987461090088,1.3814624547958374,-1.4311000108718872
1781033873258478000,15.86147802734375,-2.598749876022339,1.202987551689148,-1.4367375373840332
1781033873277985300,15.8809853515625,-2.598749876022339,1.202987551689148,-1.4367375373840332
1781033873297496000,15.90049609375,-2.11584997177124,1.2475374937057495,-1.2838374376296997
1781033873317007000,15.920007080078124,-2.11584997177124,1.2475374937057495,-1.2838374376296997
1781033873336519400,15.93951953125,-1.986050009727478,2.4932875633239746,-1.805649995803833
1781033873356037600,15.95903759765625,-1.986050009727478,2.4932875633239746,-1.805649995803833
1781033873375553300,15.97855322265625,-2.340937376022339,4.711162567138672,-2.915137529373169
1781033873395065300,15.9980654296875,-2.340937376022339,4.711162567138672,-2.915137529373169
1781033873414579200,16.0175791015625,-2.299000024795532,6.432387351989746,-3.140224933624268
1781033873434095900,16.037095947265627,-2.299000024795532,6.432387351989746,-3.140224933624268
1781033873453608700,16.056608642578126,-0.8809624910354614,6.598074913024902,-1.8013875484466553
1781033873473114400,16.0761142578125,-0.8809624910354614,6.598074913024902,-1.8013875484466553
1781033873492622600,16.09562255859375,0.5685625076293945,5.084199905395508,-0.330825001001358
1781033873512136400,16.115136474609375,0.5685625076293945,5.084199905395508,-0.330825001001358
1781033873531652400,16.13465234375,1.200649976730347,3.8262124061584473,0.4589749872684479
1781033873551167000,16.1541669921875,1.200649976730347,3.8262124061584473,0.4589749872684479
1781033873570678000,16.173677978515624,1.2436875104904177,2.5673999786376958,0.7101874947547913
1781033873590188300,16.193188232421875,1.2436875104904177,2.5673999786376958,0.7101874947547913
1781033873609701400,16.212701416015626,0.9715750217437744,1.2025749683380127,0.6815875172615051
1781033873629217300,16.23221728515625,0.9715750217437744,1.2025749683380127,0.6815875172615051
1781033873648732000,16.25173193359375,0.5534374713897705,0.1348875015974044,0.4886749982833862
1781033873668240400,16.271240478515626,0.5534374713897705,0.1348875015974044,0.4886749982833862
1781033873687746800,16.290746826171876,0.0369874984025955,-0.3163875043392181,0.208587497472763
1781033873707255800,16.310255859375,0.0369874984025955,-0.3163875043392181,0.208587497472763
1781033873726766000,16.32976611328125,-0.3240875005722046,-0.622737467288971,-0.0159499999135732
1781033873746277000,16.349277099609374,-0.3240875005722046,-0.622737467288971,-0.0159499999135732
1781033873765788200,16.3687880859375,-0.5779125094413757,-1.1807124614715576,-0.1783374994993209
1781033873785297400,16.38829736328125,-0.5779125094413757,-1.1807124614715576,-0.1783374994993209
1781033873804804600,16.4078046875,-0.5779125094413757,-1.1807124614715576,-0.1783374994993209
1781033873824312600,16.4273125,-0.6257625222206116,-1.85652494430542,-0.3371500074863434
1781033873843826000,16.446825927734373,-0.6257625222206116,-1.85652494430542,-0.3371500074863434
1781033873863336700,16.466336669921876,-0.2099625021219253,-2.620887517929077,-0.3858250081539154
1781033873882846700,16.4858466796875,0.2333374917507171,-3.1180875301361084,-0.2877874970436096
1781033873902360800,16.50536083984375,0.9350000023841858,-3.7771248817443848,-0.0455125011503696
1781033873921872600,16.52487255859375,0.9350000023841858,-3.7771248817443848,-0.0455125011503696
1781033873941384200,16.54438427734375,3.2153000831604004,-5.594325065612793,0.9356874823570251
1781033873960899300,16.5638994140625,3.2153000831604004,-5.594325065612793,0.9356874823570251
1781033873980414700,16.583414794921875,5.3157501220703125,-6.598074913024902,1.963637471199036
1781033873999930000,16.60293017578125,5.3157501220703125,-6.598074913024902,1.963637471199036
1781033874019443000,16.62244287109375,5.498075008392334,-5.680399894714356,2.06841254234314
1781033874038951200,16.641951171875,5.498075008392334,-5.680399894714356,2.06841254234314
1781033874058460200,16.661460205078125,3.838725090026856,-2.9400250911712646,1.4878875017166138
1781033874077978000,16.68097802734375,3.838725090026856,-2.9400250911712646,1.4878875017166138
1781033874097500200,16.700500244140624,2.6078250408172607,-1.314637541770935,1.0053999423980713
1781033874117012200,16.72001220703125,2.6078250408172607,-1.314637541770935,1.0053999423980713
1781033874136518100,16.73951806640625,2.1456875801086426,-1.1405625343322754,0.6183375120162964
1781033874156028200,16.759028076171877,2.1456875801086426,-1.1405625343322754,0.6183375120162964
1781033874175536600,16.77853662109375,1.5233625173568726,-0.9215250015258788,0.2351250052452087
1781033874195041300,16.798041259765625,1.5233625173568726,-0.9215250015258788,0.2351250052452087
1781033874214548700,16.817548828125,0.606374979019165,-0.2175250053405761,-0.0354750007390975
1781033874234058000,16.83705810546875,0.606374979019165,-0.2175250053405761,-0.0354750007390975
1781033874253569300,16.8565693359375,-0.2187625020742416,0.1233374997973442,-0.169400006532669
1781033874273078300,16.876078369140625,-0.2187625020742416,0.1233374997973442,-0.169400006532669
1781033874292584700,16.895584716796876,-1.0078749656677246,0.103812500834465,-0.118937499821186
1781033874312093400,16.915093505859375,-1.0078749656677246,0.103812500834465,-0.118937499821186
1781033874331602200,16.934602294921874,-1.707337498664856,-0.0570624992251396,-0.0742499977350235
1781033874351110700,16.954110595703124,-1.707337498664856,-0.0570624992251396,-0.0742499977350235
1781033874370620000,16.973619873046875,-2.190237522125244,-0.2615250051021576,-0.2079000025987625
1781033874390126000,16.9931259765625,-2.190237522125244,-0.2615250051021576,-0.2079000025987625
1781033874409631500,17.012631591796875,-2.704349994659424,0.2609750032424927,-0.8196374773979187
1781033874429138400,17.032138427734374,-2.704349994659424,0.2609750032424927,-0.8196374773979187
1781033874448647200,17.051647216796876,-3.0864624977111816,0.9933000206947328,-1.4337124824523926
1781033874468160300,17.07116015625,-3.0864624977111816,0.9933000206947328,-1.4337124824523926
1781033874487673000,17.090673095703124,-2.613324880599976,0.693274974822998,-1.2607375383377075
1781033874507179300,17.11017919921875,-2.613324880599976,0.693274974822998,-1.2607375383377075
1781033874526683100,17.12968310546875,-1.6714500188827517,0.0721874982118606,-0.7193999886512756
1781033874546187800,17.149187744140626,-1.6714500188827517,0.0721874982118606,-0.7193999886512756
1781033874565696300,17.1686962890625,-1.465749979019165,0.870787501335144,-1.1525249481201172
1781033874585212200,17.188212158203125,-1.465749979019165,0.870787501335144,-1.1525249481201172
1781033874604729600,17.2077294921875,-2.308762550354004,3.444237470626831,-2.760999917984009
1781033874624244500,17.227244384765626,-2.308762550354004,3.444237470626831,-2.760999917984009
1781033874643756300,17.24675634765625,-2.736525058746338,4.86956262588501,-3.334650039672852
1781033874663266300,17.266266357421873,-2.7552249431610107,5.811712265014648,-3.3221375942230225
1781033874682773200,17.285773193359375,-2.3340625762939453,6.131124973297119,-2.825350046157837
1781033874702278100,17.305278076171874,-2.3340625762939453,6.131124973297119,-2.825350046157837
1781033874721787600,17.32478759765625,-0.9464125037193298,5.873449802398682,-1.461899995803833
1781033874741297200,17.344297119140624,-0.9464125037193298,5.873449802398682,-1.461899995803833
1781033874760798000,17.3637978515625,0.4313375055789947,5.126687526702881,-0.392425000667572
1781033874780298000,17.383298095703125,0.4313375055789947,5.126687526702881,-0.392425000667572
1781033874799798000,17.402798095703126,1.1639374494552612,3.4579875469207764,0.1956624984741211
1781033874819300000,17.422300048828124,1.1639374494552612,3.4579875469207764,0.1956624984741211
1781033874838808300,17.441808349609374,1.1354750394821167,1.5786374807357788,0.3741374909877777
1781033874858317300,17.4613173828125,1.1354750394821167,1.5786374807357788,0.3741374909877777
1781033874877826000,17.480825927734376,0.6232874989509583,0.4991250038146972,0.1958000063896179
1781033874897334300,17.500334228515626,0.6232874989509583,0.4991250038146972,0.1958000063896179
1781033874916846000,17.51984619140625,0.0155375003814697,0.2318249940872192,-0.0780999958515167
1781033874936359400,17.539359375,0.0155375003814697,0.2318249940872192,-0.0780999958515167
1781033874955866600,17.55886669921875,-0.380462497472763,0.1013374999165535,-0.1942874938249588
1781033874975375400,17.578375244140624,-0.380462497472763,0.1013374999165535,-0.1942874938249588
1781033874994889500,17.597889404296875,-0.548212468624115,-0.7053750157356262,-0.2114749997854232
1781033875014398500,17.6173984375,-0.548212468624115,-0.7053750157356262,-0.2114749997854232
1781033875033901000,17.636901123046876,-0.4552625119686126,-1.9654250144958496,-0.2182125002145767
1781033875053407500,17.656407470703126,-0.4552625119686126,-1.9654250144958496,-0.2182125002145767
1781033875072917000,17.6759169921875,-0.0566499978303909,-3.050849914550781,-0.2773374915122986
1781033875092423200,17.695423095703124,-0.0566499978303909,-3.050849914550781,-0.2773374915122986
1781033875111931400,17.714931396484374,0.8009374737739563,-4.117300033569336,-0.2780250012874603
1781033875131441200,17.734441162109373,0.8009374737739563,-4.117300033569336,-0.2780250012874603
1781033875150949400,17.753949462890624,2.682349920272827,-5.871524810791016,0.1575749963521957
1781033875170458000,17.7734580078125,2.682349920272827,-5.871524810791016,0.1575749963521957
1781033875189969000,17.792968994140626,5.941237449645996,-9.07761287689209,1.8363125324249268
1781033875209478100,17.81247802734375,5.941237449645996,-9.07761287689209,1.8363125324249268
1781033875228981800,17.831981689453126,6.294337272644043,-9.452025413513184,2.573587417602539
1781033875248487200,17.851487060546877,6.294337272644043,-9.452025413513184,2.573587417602539
1781033875267999500,17.87099951171875,3.5747249126434326,-5.313137531280518,1.422987461090088
1781033875287513900,17.890513916015625,3.5747249126434326,-5.313137531280518,1.422987461090088
1781033875307025700,17.910025634765624,3.5747249126434326,-5.313137531280518,1.422987461090088
1781033875326537700,17.929537841796876,1.7230124473571775,-1.7582124471664429,0.6567000150680542
1781033875346055000,17.949054931640624,1.7230124473571775,-1.7582124471664429,0.6567000150680542
1781033875385085700,17.988085693359373,0.7836124897003174,-0.4323000013828277,0.061049997806549
1781033875404595500,18.007595458984376,0.7836124897003174,-0.4323000013828277,0.061049997806549
1781033875424109000,18.027109130859376,0.7836124897003174,-0.4323000013828277,0.061049997806549
1781033875443625700,18.04662573242188,0.3158375024795532,-0.0285999998450279,-0.1370874941349029
1781033875463141600,18.0661416015625,0.0391874983906745,0.1252624988555908,-0.1977249979972839
1781033875482658300,18.085658203125,-0.2595999836921692,0.1794375032186508,-0.2322375029325485
1781033875502166800,18.10516674804688,-0.2595999836921692,0.1794375032186508,-0.2322375029325485
1781033875521672400,18.12467236328125,-0.8468624949455261,0.134612500667572,-0.2762374877929687
1781033875541181000,18.14418090820313,-0.8468624949455261,0.134612500667572,-0.2762374877929687
1781033875560691200,18.163691162109377,-1.3353999853134155,0.2201374918222427,-0.3046999871730804
1781033875580204000,18.1832041015625,-1.3353999853134155,0.2201374918222427,-0.3046999871730804
1781033875599720700,18.202720703125,-1.7239749431610107,0.637862503528595,-0.4068624973297119
1781033875619234600,18.222234619140625,-1.7239749431610107,0.637862503528595,-0.4068624973297119
1781033875638743000,18.24174291992188,-1.783650040626526,0.4716250002384186,-0.3067624866962433
1781033875658253600,18.26125366210937,-1.783650040626526,0.4716250002384186,-0.3067624866962433
1781033875677760500,18.280760498046877,-1.2779250144958496,-0.8758749961853027,0.4746499955654144
1781033875697267500,18.300267333984376,-1.2779250144958496,-0.8758749961853027,0.4746499955654144
1781033875716777500,18.319777587890623,-0.8633624911308289,-1.2608749866485596,0.8377875089645386
1781033875736285200,18.33928515625,-0.8633624911308289,-1.2608749866485596,0.8377875089645386
1781033875755789000,18.3587890625,-1.0253374576568604,0.2528625130653381,-0.0453750006854534
1781033875775296800,18.378296875,-1.0253374576568604,0.2528625130653381,-0.0453750006854534
1781033875794804700,18.3978046875,-1.5168999433517456,2.418487548828125,-1.3283874988555908
1781033875814311200,18.417311279296875,-1.5168999433517456,2.418487548828125,-1.3283874988555908
1781033875833816800,18.43681689453125,-2.348224878311157,4.9720001220703125,-2.794687509536743
1781033875853319700,18.456319580078127,-2.348224878311157,4.9720001220703125,-2.794687509536743
1781033875872827100,18.4758271484375,-3.694074869155884,8.151962280273438,-3.8068249225616455
1781033875892338400,18.49533837890625,-3.694074869155884,8.151962280273438,-3.8068249225616455
1781033875911847200,18.51484716796875,-2.734050035476685,9.03223705291748,-2.395662546157837
1781033875931354400,18.534354248046878,-2.734050035476685,9.03223705291748,-2.395662546157837
1781033875950866400,18.55386645507813,-0.3517250120639801,7.278287410736084,-0.3478749990463257
1781033875970380000,18.57338012695313,-0.3517250120639801,7.278287410736084,-0.3478749990463257
1781033875989892400,18.592892333984373,1.2271875143051147,5.224862575531006,0.9602999687194824
1781033876009403400,18.6124033203125,1.2271875143051147,5.224862575531006,0.9602999687194824
1781033876028908800,18.63190869140625,1.5930750370025637,3.445474863052368,1.3993375301361084
1781033876048410000,18.65141015625,1.5930750370025637,3.445474863052368,1.3993375301361084
1781033876067914800,18.670914794921877,1.0040249824523926,2.060575008392334,1.0505000352859497
1781033876087421700,18.690421630859376,1.0040249824523926,2.060575008392334,1.0505000352859497
1781033876106929400,18.70992944335937,1.0040249824523926,2.060575008392334,1.0505000352859497
1781033876126440200,18.729440185546878,0.0037124999798834,0.8256874680519104,0.3614875078201294
1781033876145946600,18.748946533203124,0.0037124999798834,0.8256874680519104,0.3614875078201294
1781033876165451300,18.768451171875,-0.6503750085830688,0.0393249988555908,-0.1622499972581863
1781033876184960300,18.787960205078125,-1.0282249450683594,-0.2938374876976013,-0.4138749837875366
1781033876204473000,18.80747314453125,-1.0282249450683594,-0.2938374876976013,-0.4138749837875366
1781033876223981000,18.82698095703125,-1.1970750093460083,-0.4459125101566314,-0.5134249925613403
1781033876243488500,18.846488525390622,-1.3297624588012695,-0.6813125014305115,-0.637862503528595
1781033876263001000,18.8660009765625,-1.3297624588012695,-0.6813125014305115,-0.637862503528595
1781033876282518300,18.885518310546875,-1.4729000329971311,-1.6263500452041626,-0.9531499743461608
1781033876302037200,18.905037353515624,-1.4729000329971311,-1.6263500452041626,-0.9531499743461608
1781033876321550600,18.924550537109376,-1.2721500396728516,-3.132112503051758,-1.1838749647140503
1781033876341060900,18.944060791015627,-1.2721500396728516,-3.132112503051758,-1.1838749647140503
1781033876360573700,18.96357373046875,-0.2245374917984008,-6.231087684631348,-0.9912375211715698
1781033876380088300,18.98308837890625,-0.2245374917984008,-6.231087684631348,-0.9912375211715698
1781033876399595500,19.002595458984374,4.524849891662598,-12.21041202545166,2.0825750827789307
1781033876419102200,19.02210229492188,4.524849891662598,-12.21041202545166,2.0825750827789307
1781033876438613800,19.04161376953125,5.246037483215332,-12.113887786865234,3.634262561798096
1781033876458126000,19.0611259765625,5.246037483215332,-12.113887786865234,3.634262561798096
1781033876477642500,19.080642578125,3.106262445449829,-7.515200138092041,2.279749870300293
1781033876497159400,19.100159423828124,3.106262445449829,-7.515200138092041,2.279749870300293
1781033876516671200,19.119671142578124,1.9336625337600708,-4.466274738311768,1.1121000051498413
1781033876536179000,19.13917895507813,1.9336625337600708,-4.466274738311768,1.1121000051498413
1781033876555684400,19.15868432617188,1.3179374933242798,-2.4608376026153564,0.3976500034332275
1781033876575195600,19.178195556640624,1.3179374933242798,-2.4608376026153564,0.3976500034332275
1781033876594709000,19.197708984375,0.890999972820282,-0.809737503528595,-0.1526249945163726
1781033876614220800,19.217220703125,0.890999972820282,-0.809737503528595,-0.1526249945163726
1781033876633737000,19.23673706054688,0.482212483882904,0.4489375054836273,-0.4962374866008758
1781033876653246500,19.25624658203125,0.482212483882904,0.4489375054836273,-0.4962374866008758
1781033876672749300,19.275749267578124,-0.0335500016808509,0.690387487411499,-0.4365625083446502
1781033876692253400,19.29525341796875,-0.0335500016808509,0.690387487411499,-0.4365625083446502
1781033876711761700,19.31476171875,-0.4595249891281128,0.489362508058548,-0.1937374919652938
1781033876731271700,19.334271728515624,-0.4595249891281128,0.489362508058548,-0.1937374919652938
1781033876750780000,19.35377978515625,-0.6256250143051147,0.6908000111579895,-0.0741124972701072
1781033876770290700,19.37329077148437,-0.6256250143051147,0.6908000111579895,-0.0741124972701072
1781033876789801000,19.392801025390625,-0.8529124855995178,0.9813374876976012,-0.1677500009536743
1781033876809311000,19.41231103515625,-0.8529124855995178,0.9813374876976012,-0.1677500009536743
1781033876828821800,19.43182177734375,-0.9516375064849854,0.4076874852180481,-0.048675000667572
1781033876848332800,19.451332763671875,-0.9516375064849854,0.4076874852180481,-0.048675000667572
1781033876867844900,19.470844970703126,-0.6601374745368958,-0.9663500189781188,0.772475004196167
1781033876887359000,19.49035888671875,-0.6601374745368958,-0.9663500189781188,0.772475004196167
1781033876906873600,19.50987353515625,-0.6601374745368958,-0.9663500189781188,0.772475004196167
1781033876926386400,19.52938647460937,-0.3367374837398529,-1.9210125207901,1.8235249519348145
1781033876945893600,19.5488935546875,-0.5992249846458435,-0.6028000116348267,1.1933624744415283
1781033876965398800,19.568398681640623,-0.5992249846458435,-0.6028000116348267,1.1933624744415283
1781033876984908800,19.58790869140625,-1.5094749927520752,2.130424976348877,-0.8029999732971191
1781033877004422700,19.607422607421874,-1.5094749927520752,2.130424976348877,-0.8029999732971191
1781033877023937500,19.6269375,-2.1526999473571777,3.622162580490112,-1.8874624967575075
1781033877043451100,19.646451171875,-3.152324914932251,5.563937664031982,-3.1887624263763428
1781033877062962700,19.66596264648437,-3.152324914932251,5.563937664031982,-3.1887624263763428
1781033877082478300,19.68547827148437,-2.076662540435791,9.708462715148926,-2.5484249591827397
1781033877101998000,19.704998046875,-2.076662540435791,9.708462715148926,-2.5484249591827397
1781033877121513700,19.724513671875,-1.5976125001907349,10.369699478149414,-1.450899958610535
1781033877141026000,19.74402612304688,-1.5976125001907349,10.369699478149414,-1.450899958610535
1781033877160545800,19.7635458984375,0.3110249936580658,8.239962577819824,0.3898124992847442
1781033877180065800,19.783065673828126,0.3110249936580658,8.239962577819824,0.3898124992847442
1781033877199581200,19.802581298828127,1.4518624544143677,6.42234992980957,1.3860000371932983
1781033877219100400,19.82210034179688,1.4518624544143677,6.42234992980957,1.3860000371932983
1781033877238613800,19.84161376953125,1.3804999589920044,4.421999931335449,1.4085500240325928
1781033877258120000,19.861119873046874,1.3804999589920044,4.421999931335449,1.4085500240325928
1781033877277624800,19.880624755859376,0.1691250056028366,2.1972498893737797,0.5618249773979187
1781033877297132800,19.9001328125,0.1691250056028366,2.1972498893737797,0.5618249773979187
1781033877316645400,19.919645263671875,-1.2772375345230105,0.3789499998092651,-0.381424993276596
1781033877336157200,19.9391572265625,-1.2772375345230105,0.3789499998092651,-0.381424993276596
1781033877355668200,19.958668212890625,-1.5461875200271606,-0.2582249939441681,-0.558525025844574
1781033877375178800,19.9781787109375,-1.5461875200271606,-0.2582249939441681,-0.558525025844574
1781033877394687500,19.9976875,-1.0020999908447266,-0.705512523651123,-0.2398000061511993
1781033877414196200,20.0171962890625,-1.0020999908447266,-0.705512523651123,-0.2398000061511993
1781033877433711900,20.0367119140625,-0.7074375152587891,-1.4885749816894531,-0.0625625029206276
1781033877453224400,20.05622436523437,-0.7074375152587891,-1.4885749816894531,-0.0625625029206276
1781033877472729900,20.075729736328125,-0.677049994468689,-2.239462375640869,-0.191674992442131
1781033877492240000,20.095239990234376,-0.677049994468689,-2.239462375640869,-0.191674992442131
1781033877511753000,20.1147529296875,-0.3856875002384186,-2.815999984741211,-0.4724499881267547
1781033877531268000,20.13426806640625,-0.3856875002384186,-2.815999984741211,-0.4724499881267547
1781033877550787300,20.153787353515625,0.4879874885082245,-4.446612358093262,-0.6308500170707703
1781033877570305300,20.17330517578125,0.4879874885082245,-4.446612358093262,-0.6308500170707703
1781033877589818400,20.192818359375,1.0155750513076782,-8.406612396240234,-0.2861374914646148
1781033877609326800,20.21232690429688,1.0155750513076782,-8.406612396240234,-0.2861374914646148
1781033877628837400,20.23183740234375,4.222899913787842,-11.20666217803955,2.7035250663757324
1781033877648349400,20.251349365234372,4.222899913787842,-11.20666217803955,2.7035250663757324
1781033877667856600,20.27085668945313,3.648837566375733,-7.990812301635742,2.780799865722656
1781033877687360000,20.29036010742188,3.648837566375733,-7.990812301635742,2.780799865722656
1781033877706864000,20.309864013671877,2.443924903869629,-4.305950164794922,1.42243754863739
1781033877726373600,20.32937353515625,2.443924903869629,-4.305950164794922,1.42243754863739
1781033877745881000,20.348881103515627,1.796574950218201,-1.5850999355316162,0.3297249972820282
1781033877765389000,20.36838916015625,1.796574950218201,-1.5850999355316162,0.3297249972820282
1781033877784897800,20.387897705078124,1.3068000078201294,-0.0367125011980533,-0.1208624988794326
1781033877804406300,20.40740625,1.3068000078201294,-0.0367125011980533,-0.1208624988794326
1781033877823914200,20.426914306640622,1.0867999792099,0.2520374953746795,-0.1786125004291534
1781033877843422000,20.446421875,0.892787516117096,0.2759625017642975,-0.1966249942779541
1781033877862930700,20.4659306640625,0.892787516117096,0.2759625017642975,-0.1966249942779541
1781033877882439200,20.48543920898437,0.4533374905586242,0.2869625091552734,-0.2743124961853027
1781033877901949400,20.504949462890625,0.4533374905586242,0.2869625091552734,-0.2743124961853027
1781033877921462800,20.524462890625,-0.1185249984264373,0.6819999814033508,-0.3939374983310699
1781033877940977000,20.543976806640625,-0.1185249984264373,0.6819999814033508,-0.3939374983310699
1781033877960486400,20.563486328125,-0.7888374924659729,0.9686874747276306,-0.1898874938488006
1781033877979992300,20.582992431640623,-0.7888374924659729,0.9686874747276306,-0.1898874938488006
1781033877999501600,20.60250146484375,-1.325087547302246,0.4299624860286712,-0.0866250023245811
1781033878019012600,20.6220126953125,-1.325087547302246,0.4299624860286712,-0.0866250023245811
1781033878038522400,20.6415224609375,-1.3391125202178955,-0.8054749965667725,0.1292500048875808
1781033878058034200,20.6610341796875,-1.3391125202178955,-0.8054749965667725,0.1292500048875808
1781033878077543700,20.680543701171874,-1.3316874504089355,-0.7911750078201294,-0.0405624993145465
1781033878097051600,20.7000517578125,-1.3316874504089355,-0.7911750078201294,-0.0405624993145465
1781033878116567000,20.719567138671877,-2.067037582397461,0.8020374774932861,-0.8879749774932861
1781033878136083500,20.73908349609375,-2.067037582397461,0.8020374774932861,-0.8879749774932861
1781033878155594000,20.758593994140625,-2.1975250244140625,1.1103124618530271,-0.9240000247955322
1781033878175104300,20.77810424804688,-2.1975250244140625,1.1103124618530271,-0.9240000247955322
1781033878194613200,20.79761328125,-1.8101874589920044,1.1052249670028689,-0.8753250241279602
1781033878214120400,20.81712036132813,-1.8101874589920044,1.1052249670028689,-0.8753250241279602
1781033878233626600,20.836626708984376,-2.40844988822937,3.0420498847961426,-2.322375059127808
1781033878253133300,20.85613330078125,-2.40844988822937,3.0420498847961426,-2.322375059127808
1781033878272637400,20.87563745117188,-4.222350120544434,6.991600036621094,-5.109912395477295
1781033878292144000,20.89514404296875,-4.222350120544434,6.991600036621094,-5.109912395477295
1781033878311659500,20.914659423828127,-4.071787357330322,9.166025161743164,-5.451737403869629
1781033878331174700,20.934174560546875,-4.071787357330322,9.166025161743164,-5.451737403869629
1781033878350685000,20.953684814453126,-1.3615249395370483,7.436137676239014,-3.1946749687194824
1781033878370188800,20.973188720703124,-1.3615249395370483,7.436137676239014,-3.1946749687194824
1781033878389694000,20.99269384765625,0.5553625226020813,5.024387359619141,-1.2600499391555786
1781033878409204500,21.01220458984375,0.5553625226020813,5.024387359619141,-1.2600499391555786
1781033878428713200,21.031713134765624,1.1976250410079956,3.0304999351501465,-0.2349874973297119
1781033878448220400,21.05122045898437,1.1976250410079956,3.0304999351501465,-0.2349874973297119
1781033878467731500,21.0707314453125,1.2659624814987185,1.975600004196167,0.2092749923467636
1781033878487242000,21.090241943359374,1.2659624814987185,1.975600004196167,0.2092749923467636
1781033878506753800,21.10975390625,1.2659624814987185,1.975600004196167,0.2092749923467636
1781033878526266400,21.12926635742188,1.1042624711990356,1.4481500387191772,0.3849999904632568
1781033878545780000,21.14878002929688,1.1042624711990356,1.4481500387191772,0.3849999904632568
1781033878565294800,21.168294921875,0.506137490272522,0.9279875159263612,0.3642374873161316
1781033878584804000,21.18780419921875,-0.0717749968171119,0.5196124911308289,0.2609750032424927
1781033878604310800,21.207310791015622,-0.0717749968171119,0.5196124911308289,0.2609750032424927
1781033878623816400,21.22681640625,-0.0717749968171119,0.5196124911308289,0.2609750032424927
1781033878643330300,21.246330322265624,-0.0658624991774559,0.1036750003695488,0.282150000333786
1781033878662849800,21.265849853515626,-0.0658624991774559,-0.3279374837875366,0.3150124847888946
1781033878682367700,21.28536767578125,-0.1857624948024749,-0.9120374917984008,0.317487508058548
1781033878701882400,21.30488232421875,-0.1857624948024749,-0.9120374917984008,0.317487508058548
1781033878721395000,21.32439501953125,-0.5120499730110168,-1.95951247215271,0.1911250054836273
1781033878740907500,21.34390747070313,-0.5120499730110168,-1.95951247215271,0.1911250054836273
1781033878760418300,21.363418212890625,-0.5961999893188477,-2.475825071334839,-0.1439625024795532
1781033878779921200,21.382921142578127,-0.5961999893188477,-2.475825071334839,-0.1439625024795532
1781033878799425000,21.402425048828125,-0.4736874997615814,-3.5986499786376958,-0.2761000096797943
1781033878818934800,21.421934814453124,-0.4736874997615814,-3.5986499786376958,-0.2761000096797943
1781033878838442800,21.44144287109375,0.6525750160217285,-6.452049732208252,0.5533000230789185
1781033878857947600,21.46094775390625,0.6525750160217285,-6.452049732208252,0.5533000230789185
1781033878877453600,21.48045361328125,5.670774936676025,-11.37551212310791,4.177112579345703
1781033878896963800,21.4999638671875,5.670774936676025,-11.37551212310791,4.177112579345703
1781033878916475100,21.51947509765625,5.0051374435424805,-8.968987464904785,4.174775123596191
1781033878935984600,21.538984619140624,5.0051374435424805,-8.968987464904785,4.174775123596191
1781033878955496000,21.558495849609372,3.3159499168396,-5.760562419891357,2.90262508392334
1781033878975013000,21.57801318359375,3.3159499168396,-5.760562419891357,2.90262508392334
1781033878994527200,21.59752734375,2.188999891281128,-3.2439000606536865,1.724387526512146
1781033879014035200,21.61703515625,2.188999891281128,-3.2439000606536865,1.724387526512146
1781033879033542100,21.636542236328125,1.4851374626159668,-1.4889874458312988,0.7984625101089478
1781033879053048600,21.656048583984376,1.4851374626159668,-1.4889874458312988,0.7984625101089478
1781033879072560600,21.675560546875,0.8852249979972839,-0.259737491607666,0.1889249980449676
1781033879092073200,21.6950732421875,0.8852249979972839,-0.259737491607666,0.1889249980449676
1781033879111581000,21.714580810546877,0.2371875047683715,0.4769875109195709,-0.1373624950647354
1781033879131086800,21.7340869140625,0.2371875047683715,0.4769875109195709,-0.1373624950647354
1781033879150594300,21.75359423828125,-0.3546124994754791,0.5898749828338623,-0.1556500047445297
1781033879170103000,21.77310302734375,-0.3546124994754791,0.5898749828338623,-0.1556500047445297
1781033879189609700,21.792609619140624,-0.7987374663352966,0.4657124876976013,-0.0952875018119812
1781033879209121500,21.81212158203125,-0.7987374663352966,0.4657124876976013,-0.0952875018119812
1781033879228629200,21.831629150390626,-0.9974250197410583,0.4853749871253967,-0.234437495470047
1781033879248133400,21.85113330078125,-0.9974250197410583,0.4853749871253967,-0.234437495470047
1781033879267642400,21.87064233398437,-1.3183499574661257,1.1492249965667725,-0.6406124830245972
1781033879306665000,21.9096650390625,-1.6714500188827517,1.709262490272522,-0.8940249681472778
1781033879326167800,21.92916772460937,-2.269712448120117,2.272325038909912,-1.079237461090088
1781033879345672000,21.948671875,-2.269712448120117,2.272325038909912,-1.079237461090088
1781033879365183500,21.96818359375,-2.051224946975708,1.5215749740600586,-0.5928999781608582
1781033879384695800,21.98769580078125,-2.051224946975708,1.5215749740600586,-0.5928999781608582
1781033879404209700,22.00720971679688,-2.051224946975708,1.5215749740600586,-0.5928999781608582
1781033879423722000,22.026721923828124,-1.497099995613098,0.9763875007629396,-0.1677500009536743
1781033879443231700,22.046231689453126,-1.436324954032898,1.2981375455856323,-0.4310624897480011
1781033879462740700,22.06574072265625,-1.550037503242493,1.9133124351501465,-1.0049874782562256
1781033879482250500,22.08525048828125,-1.550037503242493,1.9133124351501465,-1.0049874782562256
1781033879501761300,22.10476123046875,-2.0114874839782715,3.425950050354004,-2.0385749340057373
1781033879521269800,22.124269775390623,-2.0114874839782715,3.425950050354004,-2.0385749340057373
1781033879540777500,22.143777587890625,-1.9592374563217163,4.585625171661377,-1.617687463760376
1781033879560286000,22.16328588867188,-1.9592374563217163,4.585625171661377,-1.617687463760376
1781033879579796700,22.18279663085937,-2.077349901199341,6.440637588500977,-1.263350009918213
1781033879599306800,22.202306640625,-2.077349901199341,6.440637588500977,-1.263350009918213
1781033879618811000,22.221810791015624,-1.390125036239624,6.815737247467041,-0.7976375222206116
1781033879638316300,22.24131640625,-1.390125036239624,6.815737247467041,-0.7976375222206116
1781033879657824300,22.26082421875,-0.3089624941349029,5.512650012969971,-0.1783374994993209
1781033879677334500,22.28033447265625,-0.3089624941349029,5.512650012969971,-0.1783374994993209
1781033879696845800,22.299845703125,0.1997874975204467,3.2558624744415283,0.172837495803833
1781033879716353800,22.319353759765622,0.1997874975204467,3.2558624744415283,0.172837495803833
1781033879735862500,22.338862548828125,0.4215750098228454,1.7703125476837158,0.3250499963760376
1781033879755375000,22.358375,0.4215750098228454,1.7703125476837158,0.3250499963760376
1781033879774888400,22.377888427734376,0.3999874889850616,0.7166500091552734,0.3372874855995178
1781033879794398200,22.397398193359376,0.3999874889850616,0.7166500091552734,0.3372874855995178
1781033879813906200,22.41690625,0.0903374999761581,-0.2883374989032745,0.2737624943256378
1781033879833415400,22.43641552734375,0.0903374999761581,-0.2883374989032745,0.2737624943256378
1781033879852927700,22.455927734375,-0.3121249973773956,-0.8951249718666077,0.1537249982357025
1781033879872440000,22.47544018554688,-0.3121249973773956,-0.8951249718666077,0.1537249982357025
1781033879891951600,22.49495166015625,-0.6567000150680542,-0.9975624680519104,-0.0796125009655952
1781033879911460900,22.5144609375,-0.6567000150680542,-0.9975624680519104,-0.0796125009655952
1781033879930971400,22.533971435546874,-0.9256500005722046,-1.1939125061035156,-0.3231250047683716
1781033879950482400,22.553482421875,-0.9256500005722046,-1.1939125061035156,-0.3231250047683716
1781033879969991000,22.57299096679688,-0.9431124925613404,-1.7334624528884888,-0.4379374980926513
1781033879989494500,22.59249462890625,-0.9431124925613404,-1.7334624528884888,-0.4379374980926513
1781033880008996400,22.611996337890623,-0.4226749837398529,-2.5009875297546387,-0.3984749913215637
1781033880028503000,22.6315029296875,-0.4226749837398529,-2.5009875297546387,-0.3984749913215637
1781033880048010000,22.651010009765624,0.1596374958753585,-3.6613500118255615,-0.2714250087738037
1781033880067519200,22.67051928710937,0.1596374958753585,-3.6613500118255615,-0.2714250087738037
1781033880087029200,22.690029296875,0.1596374958753585,-3.6613500118255615,-0.2714250087738037
1781033880106535200,22.70953515625,2.9042749404907227,-6.632312297821045,1.0012749433517456
1781033880126043000,22.72904296875,5.674624919891357,-8.43163776397705,2.709437370300293
1781033880145555000,22.748554931640623,5.674624919891357,-8.43163776397705,2.709437370300293
1781033880165067300,22.7680673828125,5.307912349700928,-7.304275035858154,2.5904998779296875
1781033880184578300,22.787578369140626,5.307912349700928,-7.304275035858154,2.5904998779296875
1781033880204088000,22.807088134765625,5.307912349700928,-7.304275035858154,2.5904998779296875
1781033880223597600,22.82659765625,3.9498250484466553,-5.401412487030029,1.6869875192642212
1781033880243108000,22.846108154296875,3.175149917602539,-4.206399917602539,1.214674949645996
1781033880262619600,22.86561962890625,2.49438738822937,-3.087012529373169,0.784850001335144
1781033880282132200,22.88513232421875,2.49438738822937,-3.087012529373169,0.784850001335144
1781033880301643000,22.90464306640625,1.4370124340057373,-1.1614625453948977,0.0944624990224838
1781033880321155800,22.92415576171875,1.4370124340057373,-1.1614625453948977,0.0944624990224838
1781033880340664800,22.94366479492188,0.735212504863739,-0.2585000097751617,-0.1922249943017959
1781033880360172500,22.963172607421875,0.735212504863739,-0.2585000097751617,-0.1922249943017959
1781033880379682300,22.982682373046877,0.1157749965786933,-0.2655124962329864,-0.2364999949932098
1781033880399189500,23.002189453125,0.1157749965786933,-0.2655124962329864,-0.2364999949932098
1781033880418698200,23.0216982421875,-0.4988499879837036,-0.5402374863624573,-0.2040500044822693
1781033880438208300,23.04120825195313,-0.4988499879837036,-0.5402374863624573,-0.2040500044822693
1781033880457716200,23.06071630859375,-0.9693750143051147,-0.7301250100135803,-0.1413500010967254
1781033880477225700,23.080225830078124,-0.9693750143051147,-0.7301250100135803,-0.1413500010967254
1781033880496733700,23.099733642578126,-1.2799874544143677,-0.5141124725341797,-0.3014000058174133
1781033880516237300,23.1192373046875,-1.2799874544143677,-0.5141124725341797,-0.3014000058174133
1781033880535740400,23.138740478515626,-1.6396875381469729,0.4098874926567077,-0.7451124787330627
1781033880555247400,23.158247314453124,-1.6396875381469729,0.4098874926567077,-0.7451124787330627
1781033880574754600,23.177754638671875,-2.279474973678589,1.6321250200271606,-1.3965874910354614
1781033880594262800,23.1972626953125,-2.279474973678589,1.6321250200271606,-1.3965874910354614
1781033880613773800,23.21677392578125,-2.4630374908447266,1.7463874816894531,-1.5152499675750732
1781033880633282600,23.236282470703124,-2.4630374908447266,1.7463874816894531,-1.5152499675750732
1781033880652791300,23.255791259765623,-2.076662540435791,1.1501874923706057,-1.0433499813079834
1781033880672296000,23.2752958984375,-2.076662540435791,1.1501874923706057,-1.0433499813079834
1781033880691799600,23.294799560546878,-1.720812439918518,1.2560625076293943,-0.9231749773025512
1781033880711305700,23.3143056640625,-1.720812439918518,1.2560625076293943,-0.9231749773025512
1781033880730813000,23.33381298828125,-1.8643624782562256,2.7649874687194824,-1.9205999374389648
1781033880750323700,23.35332373046875,-1.8643624782562256,2.7649874687194824,-1.9205999374389648
1781033880769837800,23.372837890625,-2.8583500385284424,5.704050064086914,-3.9037625789642334
1781033880789350100,23.39235009765625,-2.8583500385284424,5.704050064086914,-3.9037625789642334
1781033880808860400,23.4118603515625,-1.97504997253418,7.478212356567383,-3.1836750507354736
1781033880828368000,23.431367919921875,-1.97504997253418,7.478212356567383,-3.1836750507354736
1781033880847880200,23.450880126953123,-0.7601000070571899,7.343874931335449,-2.106362581253052
1781033880867396400,23.470396240234376,-0.7601000070571899,7.343874931335449,-2.106362581253052
1781033880886905600,23.489905517578126,0.9516375064849854,6.429637432098389,-0.6043124794960022
1781033880906414600,23.50941455078125,0.9516375064849854,6.429637432098389,-0.6043124794960022
1781033880925925600,23.528925537109377,1.619612455368042,4.490887641906738,0.292600005865097
1781033880945436000,23.548435791015624,1.619612455368042,4.490887641906738,0.292600005865097
1781033880964946000,23.56794580078125,1.442787528038025,2.701324939727783,0.6650875210762024
1781033880984455400,23.587455322265622,1.442787528038025,2.701324939727783,0.6650875210762024
1781033881003959600,23.60695947265625,1.232550024986267,2.022624969482422,0.7264124751091003
1781033881023463400,23.62646337890625,0.9827125072479248,1.4471875429153442,0.7149999737739563
1781033881042979800,23.64597973632813,0.9827125072479248,1.4471875429153442,0.7149999737739563
1781033881062498300,23.665498291015624,0.2773374915122986,0.4485250115394592,0.4437125027179718
1781033881082012000,23.685011962890623,0.2773374915122986,0.4485250115394592,0.4437125027179718
1781033881101525000,23.70452490234375,-0.5297874808311462,-0.2516250014305115,0.0307999998331069
1781033881121041000,23.724041015625,-0.5297874808311462,-0.2516250014305115,0.0307999998331069
1781033881140550100,23.743550048828126,-0.88714998960495,-0.6792500019073486,-0.1194875016808509
1781033881160056300,23.763056396484377,-0.88714998960495,-0.6792500019073486,-0.1194875016808509
1781033881179567400,23.7825673828125,-1.04830002784729,-1.3737624883651731,-0.1849374920129776
1781033881199078700,23.80207861328125,-1.04830002784729,-1.3737624883651731,-0.1849374920129776
1781033881218590200,23.821590087890623,-1.2237499952316284,-2.4012999534606934,-0.3431999981403351
1781033881257611000,23.860611083984374,-1.051187515258789,-3.5448875427246094,-0.4757499992847442
1781033881277120300,23.880120361328125,-1.051187515258789,-3.5448875427246094,-0.4757499992847442
1781033881296633600,23.89963354492188,-0.5691124796867371,-4.638562679290772,-0.5237374901771545
1781033881316149200,23.91914916992188,-0.5691124796867371,-4.638562679290772,-0.5237374901771545
1781033881335663000,23.9386630859375,1.474137544631958,-8.595125198364258,1.7136625051498413
1781033881355172400,23.95817236328125,1.474137544631958,-8.595125198364258,1.7136625051498413
1781033881374681900,23.977681884765627,5.991425037384033,-13.738724708557127,6.716737270355225
1781033881394193200,23.99719311523437,5.991425037384033,-13.738724708557127,6.716737270355225
1781033881413706800,24.01670678710937,3.962612390518189,-9.171936988830566,4.65836238861084
1781033881433216800,24.036216796875,3.962612390518189,-9.171936988830566,4.65836238861084
1781033881452728600,24.055728515625,2.100862503051758,-4.71982479095459,2.190512418746948
1781033881472241000,24.07524096679688,2.100862503051758,-4.71982479095459,2.190512418746948
1781033881491752000,24.094751953125,1.169987440109253,-1.6839624643325806,0.6048625111579895
1781033881511266800,24.114266845703124,1.169987440109253,-1.6839624643325806,0.6048625111579895
1781033881530778000,24.133778076171875,0.7555624842643738,-0.2428250014781952,-0.022962499409914
1781033881550285600,24.15328564453125,0.7555624842643738,-0.2428250014781952,-0.022962499409914
1781033881569792000,24.1727919921875,0.4725874960422516,-0.0455125011503696,-0.0962499976158142
1781033881589303000,24.192302978515624,0.4725874960422516,-0.0455125011503696,-0.0962499976158142
1781033881608818000,24.21181787109375,0.1508374959230423,-0.2125750035047531,-0.115225002169609
1781033881628327200,24.2313271484375,0.1508374959230423,-0.2125750035047531,-0.115225002169609
1781033881647839200,24.250839111328126,-0.2477750033140182,-0.2869625091552734,-0.0952875018119812
1781033881667351800,24.270351806640623,-0.2477750033140182,-0.2869625091552734,-0.0952875018119812
1781033881686864600,24.28986474609375,-0.2477750033140182,-0.2869625091552734,-0.0952875018119812
1781033881706381600,24.309381591796875,-0.6140750050544739,-0.1908500045537948,-0.0317624993622303
1781033881725894700,24.328894775390623,-0.6909375190734863,-0.2194499969482422,0.0501874983310699
1781033881745401600,24.348401611328125,-0.6909375190734863,-0.2194499969482422,0.0501874983310699
1781033881764904700,24.36790478515625,-0.5823125243186951,-0.3425124883651733,0.1453374922275543
1781033881784405000,24.387405029296875,-0.5823125243186951,-0.3425124883651733,0.1453374922275543
1781033881803906800,24.40690673828125,-0.5348749756813049,-0.3647874891757965,0.1904374957084655
1781033881823409400,24.42640942382813,-0.4683249890804291,-0.4360125064849853,0.296999990940094
1781033881842914300,24.445914306640624,-0.4683249890804291,-0.4360125064849853,0.296999990940094
1781033881862424300,24.46542431640625,-0.5068249702453613,-0.1274625062942505,0.2421374917030334
1781033881881938400,24.4849384765625,-0.5068249702453613,-0.1274625062942505,0.2421374917030334
1781033881901454000,24.5044541015625,-1.2347500324249268,1.6589374542236328,-1.0020999908447266
1781033881920969200,24.52396923828125,-1.2347500324249268,1.6589374542236328,-1.0020999908447266
1781033881940479700,24.543479736328123,-1.8798999786376955,3.5523123741149902,-2.302162408828736
1781033881959987200,24.5629873046875,-1.8798999786376955,3.5523123741149902,-2.302162408828736
1781033881979489500,24.582489501953123,-2.5110249519348145,5.64588737487793,-3.677712440490722
1781033881998992100,24.6019921875,-2.5110249519348145,5.64588737487793,-3.677712440490722
1781033882018499000,24.6214990234375,-1.2343374490737915,8.114012718200684,-2.577437400817871
1781033882038008300,24.64100830078125,-1.2343374490737915,8.114012718200684,-2.577437400817871
1781033882057517600,24.660517578125,-0.0482624992728233,8.832175254821777,-1.3074874877929688
1781033882077020000,24.68002001953125,-0.0482624992728233,8.832175254821777,-1.3074874877929688
1781033882096521000,24.69952099609375,0.819225013256073,7.043849945068359,-0.3558500111103058
1781033882116029400,24.719029541015622,0.819225013256073,7.043849945068359,-0.3558500111103058
1781033882135543600,24.73854345703125,1.3255000114440918,5.411312580108643,0.2693625092506408
1781033882155055600,24.7580556640625,1.3255000114440918,5.411312580108643,0.2693625092506408
1781033882174566400,24.77756640625,1.453374981880188,4.20419979095459,0.6048625111579895
1781033882194077000,24.79707690429688,1.453374981880188,4.20419979095459,0.6048625111579895
1781033882213585000,24.8165849609375,1.2696750164031982,3.34193754196167,0.8313249945640564
1781033882233090800,24.8360908203125,1.2696750164031982,3.34193754196167,0.8313249945640564
1781033882252598000,24.855597900390624,0.5436750054359436,2.056862592697144,0.7721999883651733
1781033882272110600,24.875110595703124,0.5436750054359436,2.056862592697144,0.7721999883651733
1781033882291625200,24.894625244140624,-0.3375625014305115,0.6767749786376953,0.4501749873161316
1781033882311138300,24.91413818359375,-0.3375625014305115,0.6767749786376953,0.4501749873161316
1781033882330650600,24.933650634765623,-0.9453125,-0.0405624993145465,0.1630750000476837
1781033882350157600,24.953157470703125,-0.9453125,-0.0405624993145465,0.1630750000476837
1781033882369666800,24.97266674804688,-1.069200038909912,-0.6562874913215637,0.1020250022411346
1781033882389180000,24.992179931640624,-1.069200038909912,-0.6562874913215637,0.1020250022411346
1781033882408693200,25.011693359375,-1.022724986076355,-1.6879500150680542,0.1864500045776367
1781033882428201500,25.031201416015627,-1.022724986076355,-1.6879500150680542,0.1864500045776367
1781033882447707600,25.050707763671877,-1.034412503242493,-2.7504124641418457,0.0841500014066696
1781033882467221200,25.07022119140625,-1.034412503242493,-2.7504124641418457,0.0841500014066696
1781033882486736100,25.089736083984373,-1.034412503242493,-2.7504124641418457,0.0841500014066696
1781033882506252300,25.109252197265626,-0.7900750041007996,-3.722399950027466,-0.1592250019311905
1781033882525771500,25.128771484375,-0.0771375000476837,-6.118750095367432,0.1021625027060508
1781033882545288000,25.14828784179688,-0.0771375000476837,-6.118750095367432,0.1021625027060508
1781033882564797400,25.16779736328125,4.506700038909912,-11.150287628173828,3.861687421798706
1781033882584305700,25.1873056640625,4.506700038909912,-11.150287628173828,3.861687421798706
1781033882603812900,25.206812744140624,5.856537342071533,-12.032625198364258,5.167524814605713
1781033882623320000,25.22632006835937,5.38670015335083,-10.578974723815918,4.803562641143799
1781033882642826800,25.24582666015625,4.216437339782715,-8.090912818908691,3.6539249420166016
1781033882662331000,25.265330810546875,4.216437339782715,-8.090912818908691,3.6539249420166016
1781033882681836800,25.2848369140625,2.1691999435424805,-3.67083740234375,1.59431254863739
1781033882701343500,25.30434350585937,2.1691999435424805,-3.67083740234375,1.59431254863739
1781033882720850200,25.32385009765625,1.030424952507019,-1.1805750131607056,0.6796625256538391
1781033882740357600,25.343357666015624,1.030424952507019,-1.1805750131607056,0.6796625256538391
1781033882759865900,25.362865966796875,0.5357000231742859,-0.2377374917268753,0.3519999980926513
1781033882779374000,25.3823740234375,0.5357000231742859,-0.2377374917268753,0.3519999980926513
1781033882798880000,25.4018798828125,0.3106124997138977,0.0291499998420476,0.0481249988079071
1781033882818388000,25.42138793945313,0.3106124997138977,0.0291499998420476,0.0481249988079071
1781033882837900300,25.440900390625,-0.0368499979376792,0.2700499892234802,-0.2206874936819076
1781033882857414700,25.46041455078125,-0.0368499979376792,0.2700499892234802,-0.2206874936819076
1781033882876926000,25.479926025390625,-0.5956500172615051,0.6472125053405762,-0.2774749994277954
1781033882896433400,25.499433349609376,-0.5956500172615051,0.6472125053405762,-0.2774749994277954
1781033882915937300,25.51893725585937,-1.1534874439239502,0.8559374809265137,-0.2875125110149383
1781033882935440400,25.5384404296875,-1.1534874439239502,0.8559374809265137,-0.2875125110149383
1781033882954956300,25.557956298828124,-1.4943499565124512,0.6613749861717224,-0.3834874927997589
1781033882974473000,25.577472900390624,-1.4943499565124512,0.6613749861717224,-0.3834874927997589
1781033882993983500,25.5969833984375,-1.8348000049591064,0.7697250247001648,-0.7594124674797058
1781033883013490000,25.61648999023437,-1.8348000049591064,0.7697250247001648,-0.7594124674797058
1781033883032998400,25.635998291015625,-2.0356874465942383,1.0192874670028689,-1.1023374795913696
1781033883052507400,25.65550732421875,-2.0356874465942383,1.0192874670028689,-1.1023374795913696
1781033883072012300,25.67501220703125,-1.71875,0.7118374705314636,-0.7684875130653381
1781033883091519500,25.69451953125,-1.71875,0.7118374705314636,-0.7684875130653381
1781033883111029800,25.71402978515625,-0.987387478351593,0.0595375001430511,0.1109625026583671
1781033883130540300,25.733540283203126,-0.987387478351593,0.0595375001430511,0.1109625026583671
1781033883150050600,25.75305053710937,-0.2983750104904175,-0.295487493276596,0.7398874759674072
1781033883169562600,25.772562744140625,-0.2983750104904175,-0.295487493276596,0.7398874759674072
1781033883208585700,25.811585693359376,-0.2435124963521957,0.7320500016212463,-0.1086250022053718
1781033883228094700,25.8310947265625,-1.530650019645691,3.8524749279022217,-2.8692123889923096
1781033883247607800,25.85060791015625,-1.530650019645691,3.8524749279022217,-2.8692123889923096
1781033883267122400,25.870122314453123,-3.668225049972534,8.18028736114502,-5.357550144195557
1781033883286632200,25.88963208007813,-3.668225049972534,8.18028736114502,-5.357550144195557
1781033883306139400,25.90913940429688,-3.668225049972534,8.18028736114502,-5.357550144195557
1781033883325649700,25.928649658203124,-2.4579498767852783,8.60351276397705,-4.029162406921387
1781033883345161200,25.9481611328125,-0.3287625014781952,6.541150093078613,-1.8910374641418457
1781033883364671200,25.967671142578126,-0.3287625014781952,6.541150093078613,-1.8910374641418457
1781033883384182300,25.987182373046878,-0.3287625014781952,6.541150093078613,-1.8910374641418457
1781033883403692500,26.006692626953125,0.9018625020980836,4.413062572479248,-0.3852750062942505
1781033883423203300,26.026203369140624,1.1716375350952148,3.4263625144958496,0.0783749967813491
1781033883442719200,26.04571923828125,1.2417625188827517,2.6805624961853027,0.3664374947547912
1781033883462232000,26.065232177734377,1.2417625188827517,2.6805624961853027,0.3664374947547912
1781033883481741600,26.084741455078124,0.9451749920845032,1.730299949645996,0.5302000045776367
1781033883501255200,26.104255126953124,0.9451749920845032,1.730299949645996,0.5302000045776367
1781033883520763100,26.12376318359375,0.1979999989271164,0.8430125117301941,0.2809124886989593
1781033883540267300,26.143267333984376,0.1979999989271164,0.8430125117301941,0.2809124886989593
1781033883559773400,26.1627734375,-0.5889124870300293,0.0956999957561492,-0.015812499448657
1781033883579280000,26.18227978515625,-0.5889124870300293,0.0956999957561492,-0.015812499448657
1781033883598786000,26.2017861328125,-0.8427374958992004,-0.4776749908924103,-0.0122375003993511
1781033883618292000,26.2212919921875,-0.8427374958992004,-0.4776749908924103,-0.0122375003993511
1781033883637801000,26.240801025390624,-0.9142374992370604,-1.013237476348877,-0.004537499975413
1781033883657309200,26.26030908203125,-0.9142374992370604,-1.013237476348877,-0.004537499975413
1781033883676816000,26.27981591796875,-1.0938124656677246,-1.5976125001907349,-0.2747249901294708
1781033883696323300,26.2993232421875,-1.0938124656677246,-1.5976125001907349,-0.2747249901294708
1781033883715828200,26.318828125,-0.8186749815940857,-2.7179625034332275,-0.3062124848365783
1781033883735332600,26.33833251953125,-0.8186749815940857,-2.7179625034332275,-0.3062124848365783
1781033883754842400,26.35784228515625,1.1763124465942385,-5.216062545776367,0.7185750007629395
1781033883774353000,26.37735278320313,1.1763124465942385,-5.216062545776367,0.7185750007629395
1781033883793862700,26.396862548828125,4.846324920654297,-8.296062469482422,3.0820624828338623
1781033883813373200,26.416373291015624,4.846324920654297,-8.296062469482422,3.0820624828338623
1781033883832881700,26.435881591796875,5.7190375328063965,-8.088162422180176,3.950512409210205
1781033883852390400,26.45539038085937,5.7190375328063965,-8.088162422180176,3.950512409210205
1781033883871895000,26.47489501953125,4.17683744430542,-5.166562557220459,2.87814998626709
1781033883891394800,26.494394775390624,4.17683744430542,-5.166562557220459,2.87814998626709
1781033883910897200,26.513897216796877,2.8483123779296875,-2.654987573623657,1.7436374425888062
1781033883930401800,26.53340185546875,2.8483123779296875,-2.654987573623657,1.7436374425888062
1781033883949911300,26.552911376953126,2.211549997329712,-1.615625023841858,1.066312551498413
1781033883969423600,26.57242358398437,2.211549997329712,-1.615625023841858,1.066312551498413
1781033883988935200,26.59193505859375,1.5367000102996826,-0.8417750000953674,0.5879499912261963
1781033884008449000,26.61144897460937,1.5367000102996826,-0.8417750000953674,0.5879499912261963
1781033884027958500,26.63095849609375,0.7394750118255615,-0.0196624994277954,0.2333374917507171
1781033884047466500,26.650466552734372,0.7394750118255615,-0.0196624994277954,0.2333374917507171
1781033884066976000,26.66997607421875,0.7394750118255615,-0.0196624994277954,0.2333374917507171
1781033884086484200,26.689484130859373,0.0291499998420476,0.4362874925136566,0.0387750007212162
1781033884105992400,26.708992431640624,-0.7761874794960022,0.4379374980926513,0.0746624991297721
1781033884125501000,26.7285009765625,-0.7761874794960022,0.4379374980926513,0.0746624991297721
1781033884145011700,26.74801171875,-1.5192375183105469,0.4098874926567077,0.0976250022649765
1781033884164525300,26.767525390625,-1.5192375183105469,0.4098874926567077,0.0976250022649765
1781033884184036400,26.787036376953125,-1.5192375183105469,0.4098874926567077,0.0976250022649765
1781033884203545000,26.806545166015624,-1.9914125204086304,0.3458124995231628,-0.1889249980449676
1781033884223057400,26.82605737304688,-2.1531124114990234,0.3375625014305115,-0.4257000088691711
1781033884242570800,26.84557080078125,-2.343412399291992,0.4743750095367431,-0.7288874983787537
1781033884262083000,26.8650830078125,-2.343412399291992,0.4743750095367431,-0.7288874983787537
1781033884281601500,26.8846015625,-2.9082624912261963,1.179337501525879,-1.3934249877929688
1781033884301119000,26.904118896484373,-2.9082624912261963,1.179337501525879,-1.3934249877929688
1781033884320631300,26.92363134765625,-3.029949903488159,1.6068249940872192,-1.4455374479293823
1781033884340145200,26.94314526367188,-3.029949903488159,1.6068249940872192,-1.4455374479293823
1781033884359657500,26.962657470703125,-1.9625375270843504,0.8740875124931335,-0.7455250024795532
1781033884379169300,26.982169189453124,-1.9625375270843504,0.8740875124931335,-0.7455250024795532
