time,seconds_elapsed,z,y,x
1780563632791672600,0.079672607421875,-0.01127300038933754,-0.1491290032863617,0.253369003534317
1780563633181300200,0.46930029296875,-1.6303240060806274,-7.29537296295166,1.4635260105133057
1780563633191066600,0.479066650390625,-1.6370010375976562,-6.978516101837158,1.2675470113754272
1780563633210596900,0.498596923828125,-1.604377031326294,-6.562121868133545,1.0971330404281616
1780563633230122500,0.51812255859375,-1.583137035369873,-6.1943278312683105,1.0227479934692383
1780563633249645600,0.5376455078125,-1.6250460147857666,-5.869464874267578,0.9263169765472412
1780563633269165000,0.5571650390625,-1.768196940422058,-5.577764987945557,0.778315007686615
1780563633288685800,0.576685791015625,-1.8978229761123657,-5.313042163848877,0.679872989654541
1780563633308215800,0.5962158203125,-1.9661940336227417,-5.046482086181641,0.6414279937744141
1780563633327747000,0.6157470703125,-2.0404269695281982,-4.8089189529418945,0.6830639839172363
1780563633347271700,0.635271728515625,-1.9783580303192139,-4.623775959014893,0.8131200075149536
1780563633366799600,0.654799560546875,-1.8086340427398682,-4.405930042266846,0.971979022026062
1780563633386332200,0.674332275390625,-1.6119170188903809,-4.129182815551758,0.9873859882354736
1780563633405865000,0.693864990234375,-1.4541000127792358,-3.818061113357544,0.7834799885749817
1780563633425395700,0.713395751953125,-1.346382975578308,-3.416508913040161,0.47747498750686646
1780563633444929300,0.73292919921875,-1.3831919431686401,-3.049422025680542,0.26631399989128113
1780563633464466200,0.752466064453125,-1.4759379625320435,-2.806802988052368,0.2659839987754822
1780563633483999000,0.7719990234375,-1.5128719806671143,-2.6148018836975098,0.4314410090446472
1780563633503527000,0.79152685546875,-1.5101120471954346,-2.3884329795837402,0.5606499910354614
1780563633523053300,0.81105322265625,-1.3507200479507446,-2.102679967880249,0.557479977607727
1780563633542580700,0.830580810546875,-1.1157710552215576,-1.7706619501113892,0.5138559937477112
1780563633562109400,0.850109375,-0.9105709791183472,-1.4579520225524902,0.47768300771713257
1780563633581640700,0.869640625,-0.7777959704399109,-1.1856499910354614,0.43881499767303467
1780563633601170700,0.889170654296875,-0.7103649973869324,-0.9708539843559265,0.36692801117897034
1780563633620700000,0.908699951171875,-0.6501060128211975,-0.7469879984855652,0.2269199937582016
1780563633640228600,0.928228515625,-0.5865449905395508,-0.5069329738616943,0.0006590000120922923
1780563633659754000,0.94775390625,-0.5476440191268921,-0.33155199885368347,-0.24545100331306458
1780563633679279600,0.967279541015625,-0.5651440024375916,-0.15162600576877594,-0.46328699588775635
1780563633698810600,0.986810546875,-0.6183689832687378,-0.007823999971151352,-0.682424008846283
1780563633718341400,1.00634130859375,-0.557873010635376,0.12358599901199341,-0.8378419876098633
1780563633737870000,1.0258701171875,-0.3391270041465759,0.27793800830841064,-0.938821017742157
1780563633757398800,1.045398681640625,-0.06433200091123581,0.38082200288772583,-1.0296080112457275
1780563633776925700,1.06492578125,0.1679610013961792,0.40746501088142395,-1.0875710248947144
1780563633796452400,1.084452392578125,0.2968730032444,0.3081510066986084,-1.1178319454193115
1780563633815978800,1.103978759765625,0.23284199833869934,0.22609999775886536,-1.1358850002288818
1780563633835505000,1.1235048828125,-0.020593000575900078,0.22004899382591248,-1.2232619524002075
1780563633855029800,1.14302978515625,-0.30568501353263855,0.2031790018081665,-1.3463859558105469
1780563633874553300,1.16255322265625,-0.30568501353263855,0.2031790018081665,-1.3463859558105469
1780563633894077400,1.182077392578125,-0.42531999945640564,0.34564000368118286,-1.4674190282821655
1780563633913602300,1.201602294921875,-0.36329200863838196,0.43052199482917786,-1.452260971069336
1780563633933127400,1.22112744140625,-0.2542620003223419,0.4224010109901428,-1.4959540367126465
1780563633952650000,1.24064990234375,-0.2542620003223419,0.4224010109901428,-1.4959540367126465
1780563633972173300,1.26017333984375,-0.1841689944267273,0.3260760009288788,-1.5450619459152222
1780563633991700000,1.279699951171875,-0.1841689944267273,0.3260760009288788,-1.5450619459152222
1780563634011223300,1.299223388671875,-0.07666700333356857,0.41311898827552795,-1.6468960046768188
1780563634030747000,1.318746826171875,-0.13798600435256958,0.5449749827384949,-1.6648420095443726
1780563634050271200,1.338271240234375,-0.34166499972343445,0.6211569905281067,-1.6430020332336426
1780563634069795800,1.3577958984375,-0.6372259855270386,0.6362159848213196,-1.498039960861206
1780563634089318100,1.377318115234375,-0.929544985294342,0.5752210021018982,-1.354261040687561
1780563634108840000,1.39683984375,-1.051833987236023,0.5298590064048767,-1.2650209665298462
1780563634128363500,1.416363525390625,-0.8139489889144897,0.45442500710487366,-1.2676290273666382
1780563634147886000,1.435885986328125,-0.39685800671577454,0.3149870038032532,-1.2665799856185913
1780563634167411000,1.455410888671875,0.10025300085544586,0.18910199403762817,-1.1314829587936401
1780563634186936600,1.4749365234375,0.4995949864387512,-0.06701099872589111,-0.9508190155029297
1780563634206462500,1.49446240234375,0.556505024433136,-0.3388400077819824,-0.6778929829597473
1780563634225988400,1.51398828125,0.5539190173149109,-0.37943801283836365,-0.4771760106086731
1780563634245512700,1.5335126953125,0.49043500423431396,-0.23332099616527557,-0.4056519865989685
1780563634265037000,1.553037109375,0.3737429976463318,0.17041000723838806,-0.4106549918651581
1780563634284563700,1.572563720703125,0.2314389944076538,0.7074040174484253,-0.5746240019798279
1780563634304093400,1.592093505859375,0.05040200054645538,1.0487359762191772,-0.6949769854545593
1780563634323624000,1.6116240234375,-0.012930000200867653,1.0734790563583374,-0.5636029839515686
1780563634343151000,1.631151123046875,-0.08975899964570999,0.862280011177063,-0.21939000487327576
1780563634362678000,1.650677978515625,-0.08494800329208374,0.5835670232772827,0.20304599404335022
1780563634382207700,1.670207763671875,-0.019109999760985374,0.42022600769996643,0.4389069974422455
1780563634401734100,1.689734130859375,0.02546199969947338,0.594726026058197,0.2518729865550995
1780563634421259000,1.709259033203125,0.0915369987487793,0.9264299869537354,-0.18959100544452667
1780563634440786200,1.7287861328125,0.14144599437713623,1.11073899269104,-0.5398659706115723
1780563634460312300,1.748312255859375,0.21592600643634796,1.1019890308380127,-0.5545499920845032
1780563634479835400,1.76783544921875,0.2806810140609741,0.8724259734153748,-0.3520109951496124
1780563634499357400,1.787357421875,0.36702200770378113,0.587643027305603,-0.0647059977054596
1780563634518880000,1.8068798828125,0.4763669967651367,0.511722981929779,0.07961399853229523
1780563634538403300,1.8264033203125,0.5413510203361511,0.651311993598938,-0.05606599897146225
1780563634557924400,1.84592431640625,0.39205700159072876,0.9358019828796387,-0.25960901379585266
1780563634577444900,1.86544482421875,-0.028017999604344368,1.1209499835968018,-0.32248198986053467
1780563634596968400,1.884968505859375,-0.4866650104522705,1.1011420488357544,-0.15617799758911133
1780563634616497400,1.904497314453125,-0.845874011516571,1.0102670192718506,-0.018823999911546707
1780563634636026000,1.924026123046875,-0.9894260168075562,0.9755709767341614,-0.14624300599098206
1780563634655552500,1.943552490234375,-0.9255669713020325,1.1171610355377197,-0.4866040050983429
1780563634675082800,1.963082763671875,-0.9003030061721802,1.2575080394744873,-0.910631000995636
1780563634694615000,1.982614990234375,-0.8736680150032043,1.1824489831924438,-1.0570670366287231
1780563634714144800,2.002144775390625,-0.7249029874801636,0.8914740085601807,-0.7842119932174683
1780563634733681400,2.021681396484375,-0.7249029874801636,0.8914740085601807,-0.7842119932174683
1780563634753217000,2.041217041015625,-0.7249029874801636,0.8914740085601807,-0.7842119932174683
1780563634772745500,2.060745361328125,-0.08511099964380264,0.22565199434757233,-0.3164139986038208
1780563634792274000,2.08027392578125,-0.3984529972076416,0.1600169986486435,-0.330128014087677
1780563634811806500,2.099806396484375,-0.3984529972076416,0.1600169986486435,-0.330128014087677
1780563634831337500,2.11933740234375,-1.087785005569458,-0.021602999418973923,-0.27805399894714355
1780563634850861600,2.138861572265625,-0.8166919946670532,-0.03623000159859657,-0.15395499765872955
1780563634870385400,2.158385498046875,-0.4682709872722626,-0.05474400147795677,-0.15136000514030457
1780563634889911600,2.17791162109375,-0.276095986366272,-0.08547499775886536,-0.1494089961051941
1780563634909442000,2.197442138671875,-0.3159109950065613,-0.08803100138902664,-0.18040600419044495
1780563634928968200,2.21696826171875,-0.5539500117301941,-0.15917299687862396,-0.12828199565410614
1780563634948491000,2.236490966796875,-0.8129770159721375,-0.3573009967803955,0.22187399864196777
1780563634968016400,2.256016357421875,-0.8878129720687866,-0.6260690093040466,0.6894999742507935
1780563634987543300,2.275543212890625,-0.655879020690918,-0.8164860010147095,0.9986000061035156
1780563635007070500,2.295070556640625,-0.3188689947128296,-0.7654020190238953,0.9306740164756775
1780563635026603000,2.31460302734375,-0.1500750035047531,-0.565559983253479,0.5957880020141602
1780563635046137300,2.334137451171875,-0.25476399064064026,-0.40014299750328064,0.4444119930267334
1780563635065667600,2.35366748046875,-0.7066659927368164,-0.33857598900794983,0.47956401109695435
1780563635085195800,2.37319580078125,-1.2914940118789673,-0.3187809884548187,0.5158820152282715
1780563635104719400,2.39271923828125,-1.7169419527053833,-0.3486050069332123,0.6898959875106812
1780563635124240100,2.412240234375,-2.0742690563201904,-0.48348701000213623,1.001729965209961
1780563635143766000,2.43176611328125,-1.9531680345535278,-0.5505489706993103,1.158195972442627
1780563635163295500,2.45129541015625,-1.5002739429473877,-0.6949869990348816,1.1555769443511963
1780563635182825000,2.470824951171875,-0.9769260287284851,-0.8148660063743591,0.9528859853744507
1780563635202354200,2.490354248046875,0.45992499589920044,-0.7549939751625061,0.49424800276756287
1780563635221881600,2.509881591796875,0.3103039860725403,-0.9394260048866272,0.4288029968738556
1780563635241407500,2.529407470703125,-0.06568700075149536,-1.2851619720458984,2.504441976547241
1780563635260938200,2.548938232421875,-0.45949500799179077,-1.396041989326477,2.8611550331115723
1780563635280470500,2.568470458984375,-0.7962409853935242,-1.1556769609451294,3.0671370029449463
1780563635300000300,2.588000244140625,-0.8905680179595947,-0.5924280285835266,2.808912992477417
1780563635319526400,2.6075263671875,-0.9390040040016174,-0.1457120031118393,2.2652809619903564
1780563635339053300,2.62705322265625,-1.1061409711837769,-0.20430199801921844,1.926334023475647
1780563635358582500,2.64658251953125,-1.2051609754562378,-0.5407770276069641,2.0065689086914062
1780563635378110200,2.666110107421875,-1.2137140035629272,-0.8625950217247009,2.1708641052246094
1780563635397637600,2.6856376953125,-0.9939380288124084,-1.014096975326538,2.0182580947875977
1780563635417165300,2.705165283203125,-0.5242109894752502,-1.1566239595413208,1.4911199808120728
1780563635436693500,2.724693603515625,-0.12444300204515457,-1.5688890218734741,1.038182020187378
1780563635456220400,2.744220458984375,0.11568599939346313,-2.0164101123809814,1.2559759616851807
1780563635475742500,2.763742431640625,0.20259800553321838,-2.0807909965515137,3.121474027633667
1780563635495264800,2.7832646484375,0.18189199268817902,-1.5902949571609497,3.5655319690704346
1780563635514789000,2.8027890625,0.17653200030326843,-0.9081329703330994,3.586669921875
1780563635534314500,2.822314453125,0.17653200030326843,-0.9081329703330994,3.586669921875
1780563635553840000,2.841840087890625,0.3401010036468506,-0.7512350082397461,1.0440080165863037
1780563635573363200,2.86136328125,0.3538289964199066,-1.0494379997253418,0.8181530237197876
1780563635592887800,2.8808876953125,0.3538289964199066,-1.0494379997253418,0.8181530237197876
1780563635612414500,2.90041455078125,0.0036359999794512987,0.5489109754562378,2.5828258991241455
1780563635631940000,2.919940185546875,0.0036359999794512987,0.5489109754562378,2.5828258991241455
1780563635651463200,2.939463134765625,-0.10259100049734116,0.6922309994697571,2.7307589054107666
1780563635670983700,2.958983642578125,0.03147299960255623,0.25485000014305115,2.1658830642700195
1780563635690505500,2.97850537109375,0.12212900072336197,-0.30245399475097656,1.5782270431518555
1780563635710026200,2.998026123046875,0.1138719990849495,-0.5951730012893677,1.5208940505981445
1780563635729546500,3.01754638671875,-0.05051000043749809,-0.34250399470329285,1.8389389514923096
1780563635749071600,3.037071533203125,-0.07499200105667114,0.05102499946951866,2.146806001663208
1780563635768600000,3.05660009765625,-0.04697199910879135,0.12661699950695038,2.151808023452759
1780563635788128000,3.0761279296875,-0.19734300673007965,-0.018725000321865082,1.670030951499939
1780563635807649300,3.095649169921875,-0.23354700207710266,-0.31402501463890076,0.9504939913749695
1780563635827171300,3.11517138671875,-0.28206101059913635,-0.418832004070282,0.3898490071296692
1780563635846696700,3.13469677734375,-0.2919290065765381,-0.22958999872207642,0.1000170037150383
1780563635866219800,3.1542197265625,-0.1930440068244934,-0.01658499985933304,-0.11484699696302414
1780563635885742800,3.173742919921875,-0.20690999925136566,0.07651100307703018,-0.45586198568344116
1780563635905269800,3.193269775390625,-0.3227759897708893,0.03268500044941902,-0.948714017868042
1780563635924795000,3.212794921875,-0.3494409918785095,0.003984000068157911,-1.5041520595550537
1780563635944319700,3.23231982421875,-0.25234800577163696,0.059810999780893326,-1.9837230443954468
1780563635963846700,3.2518466796875,-0.1461780071258545,0.17744100093841553,-2.307349920272827
1780563635983375000,3.271375,-0.1501370072364807,0.24961499869823456,-2.5067179203033447
1780563636002908400,3.290908447265625,-0.3958350121974945,0.19487400352954865,-2.6856799125671387
1780563636022445600,3.310445556640625,-0.7169479727745056,0.1250859946012497,-2.9434549808502197
1780563636041977900,3.329977783203125,-0.9403510093688965,0.14225000143051147,-3.2914528846740723
1780563636061503200,3.349503173828125,-1.0495860576629639,0.2842499911785126,-3.6837658882141113
1780563636081026000,3.369026123046875,-1.0745220184326172,0.4895850121974945,-4.029527187347412
1780563636100551400,3.388551513671875,-1.1018129587173462,0.6768720149993896,-4.3071770668029785
1780563636120078300,3.408078369140625,-1.2208889722824097,0.8793280124664307,-4.612738132476807
1780563636139606800,3.427606689453125,-1.34033203125,1.1985679864883423,-4.994359016418457
1780563636159134700,3.447134765625,-1.29019296169281,1.6070599555969238,-5.306013107299805
1780563636178661600,3.46666162109375,-1.219146966934204,1.9216639995574951,-5.216590881347656
1780563636198187800,3.486187744140625,-1.220141053199768,1.9723739624023438,-4.606704235076904
1780563636217714200,3.505714111328125,-1.170976996421814,1.7118690013885498,-2.844686985015869
1780563636237240800,3.52524072265625,-0.9666489958763123,1.2873769998550415,-2.3326449394226074
1780563636256765200,3.54476513671875,-0.4594799876213074,0.9503909945487976,-2.17500901222229
1780563636276287200,3.564287353515625,1.0401660203933716,0.822642982006073,-2.4459640979766846
1780563636295805000,3.583804931640625,1.2828539609909058,0.8559650182723999,-2.7083539962768555
1780563636315326200,3.603326171875,1.280661940574646,0.9043269753456116,-2.5751850605010986
1780563636334852400,3.622852294921875,0.8038700222969055,0.8280019760131836,-1.9380700588226318
1780563636354378000,3.6423779296875,0.8038700222969055,0.8280019760131836,-1.9380700588226318
1780563636373910000,3.661909912109375,-1.0971460342407227,0.6579210162162781,0.11503800004720688
1780563636393443300,3.681443359375,-1.4510459899902344,0.7453230023384094,0.3410539925098419
1780563636412967000,3.700966796875,-1.6347880363464355,0.9972919821739197,0.36963599920272827
1780563636432486700,3.720486572265625,-1.5909160375595093,1.2445420026779175,0.37131500244140625
1780563636452004000,3.740004150390625,-1.4927500486373901,1.363389015197754,0.5767189860343933
1780563636471525000,3.759525146484375,-1.4927500486373901,1.363389015197754,0.5767189860343933
1780563636491047200,3.779047119140625,-1.497586965560913,1.1442229747772217,0.8234760165214539
1780563636510569700,3.79856982421875,-1.5507179498672485,0.8780609965324402,1.0328340530395508
1780563636530093800,3.81809375,-1.4168590307235718,0.5521519780158997,1.3403420448303223
1780563636549617200,3.8376171875,-1.0319050550460815,0.19993500411510468,1.7331609725952148
1780563636569138200,3.85713818359375,-0.5447750091552734,-0.19953499734401703,2.177902936935425
1780563636588655600,3.876655517578125,-0.18310600519180298,-0.6297119855880737,2.539159059524536
1780563636608177200,3.89617724609375,-0.057691000401973724,-0.9564520120620728,2.69771409034729
1780563636627702800,3.915702880859375,0.009801000356674194,-1.0833220481872559,2.6312179565429688
1780563636647226600,3.9352265625,0.170756995677948,-1.0246399641036987,2.3643879890441895
1780563636666753000,3.9547529296875,0.4597960114479065,-0.9047489762306213,1.9410539865493774
1780563636686283000,3.974282958984375,0.5226579904556274,-1.028898000717163,1.6829789876937866
1780563636705809400,3.993809326171875,0.34873300790786743,-1.3924720287322998,1.8604789972305298
1780563636725330200,4.013330078125,0.2863210141658783,-1.6836040019989014,2.154452085494995
1780563636744848000,4.032847900390625,0.4165860116481781,-1.674901008605957,2.241684913635254
1780563636764363500,4.052363525390625,0.8445900082588196,-1.4367460012435913,1.9868320226669312
1780563636783881700,4.0718818359375,1.1466439962387085,-1.2557090520858765,1.488895058631897
1780563636803402200,4.09140234375,1.0121430158615112,-1.2728630304336548,1.116001009941101
1780563636822923000,4.110923095703125,0.5224390029907227,-1.3695909976959229,1.0583239793777466
1780563636842442500,4.1304423828125,-0.03784700110554695,-1.2747299671173096,1.053887963294983
1780563636861963800,4.1499638671875,-0.3717249929904938,-0.9369570016860962,0.8486819863319397
1780563636881482000,4.16948193359375,-0.4283269941806793,-0.77046799659729,0.5024849772453308
1780563636900999200,4.188999267578125,-0.2588439881801605,-1.0044660568237305,0.29580000042915344
1780563636920521200,4.208521240234375,0.04339800029993057,-1.4958679676055908,0.2984890043735504
1780563636940043300,4.228043212890625,0.42649099230766296,-1.8444089889526367,0.3964189887046814
1780563636959571000,4.247571044921875,0.7554709911346436,-1.7176799774169922,0.42966198921203613
1780563636979100000,4.267099853515625,0.9924049973487854,-1.2879680395126343,0.42221400141716003
1780563636998628600,4.286628662109375,1.0210089683532715,-0.8783419728279114,0.5848489999771118
1780563637018155000,4.306155029296875,0.840686023235321,-0.6791759729385376,0.9185810089111328
1780563637037678000,4.325677978515625,0.484732985496521,-0.7019299864768982,1.4187309741973877
1780563637057203500,4.345203369140625,0.04094700142741203,-0.7035199999809265,2.004117965698242
1780563637076725800,4.364725830078125,-0.2973819971084595,-0.5313460230827332,2.403007984161377
1780563637096246000,4.38424609375,-0.4382990002632141,-0.29455599188804626,2.4753129482269287
1780563637115768300,4.403768310546875,-0.3842729926109314,-0.09473499655723572,2.2955679893493652
1780563637135291600,4.423291748046875,-0.2656869888305664,-0.031115999445319176,1.928508996963501
1780563637154818600,4.442818603515625,-0.10970599949359894,-0.010466000065207481,1.5195540189743042
1780563637174345700,4.462345703125,-0.10970599949359894,-0.010466000065207481,1.5195540189743042
1780563637193872600,4.48187255859375,0.0040870001539587975,0.2560440003871918,1.3256909847259521
1780563637213400600,4.501400634765625,-0.08922400325536728,0.4559839963912964,1.306678056716919
1780563637232926500,4.520926513671875,-0.22967800498008728,0.5528119802474976,1.0219930410385132
1780563637252452000,4.5404521484375,-0.22967800498008728,0.5528119802474976,1.0219930410385132
1780563637271975200,4.55997509765625,-0.5713310241699219,0.5316050052642822,-1.1243720054626465
1780563637291492900,4.579492919921875,-0.5713310241699219,0.5316050052642822,-1.1243720054626465
1780563637311014100,4.59901416015625,-0.6575980186462402,0.6412690281867981,-2.157607078552246
1780563637330542600,4.61854248046875,-0.7726500034332275,0.5463610291481018,-2.334012031555176
1780563637350070800,4.63807080078125,-0.9562900066375732,0.36046698689460754,-2.2502028942108154
1780563637369593600,4.657593505859375,-1.077862024307251,0.21962299942970276,-2.1347970962524414
1780563637389114400,4.6771142578125,-0.9708110094070435,0.17902599275112152,-2.099848985671997
1780563637408636700,4.69663671875,-0.7470139861106873,0.2925719916820526,-2.1465840339660645
1780563637428162800,4.716162841796875,-0.5107929706573486,0.4747590124607086,-2.31552791595459
1780563637447691500,4.73569140625,-0.5650359988212585,0.6414039731025696,-2.6386311054229736
1780563637467219500,4.755219482421875,-0.910178005695343,0.9870070219039917,-3.1578800678253174
1780563637486743600,4.77474365234375,-1.1843370199203491,2.824038028717041,-4.831447124481201
1780563637506267600,4.794267578125,-1.3559670448303223,3.206562042236328,-5.2441630363464355
1780563637525791700,4.813791748046875,-1.458116054534912,3.7325921058654785,-5.273873805999756
1780563637545311000,4.83331103515625,-1.6780329942703247,3.8452069759368896,-3.6521880626678467
1780563637564833800,4.852833740234375,-1.9560760259628296,2.122765064239502,-2.9823110103607178
1780563637584361500,4.872361572265625,-1.9681129455566406,1.5724469423294067,-2.3894519805908203
1780563637603884500,4.891884521484375,-1.4741230010986328,0.998753011226654,-2.5375680923461914
1780563637623408400,4.911408447265625,0.33828499913215637,0.9138810038566589,-4.246310234069824
1780563637642934500,4.9309345703125,0.6922199726104736,1.2484279870986938,-4.5630340576171875
1780563637662463000,4.950462890625,0.8060070276260376,1.4124289751052856,-2.696873903274536
1780563637681993000,4.969992919921875,0.3279300034046173,0.9259960055351257,-0.5805019736289978
1780563637701520600,4.989520751953125,-1.1267110109329224,-0.7204310297966003,1.4763840436935425
1780563637721046500,5.009046630859375,-1.3042060136795044,-0.9094780087471008,1.5058759450912476
1780563637740569300,5.0285693359375,-1.268267035484314,-0.5515440106391907,-0.011239999905228615
1780563637760090600,5.048090576171875,-0.8831520080566406,1.260159969329834,-1.7898750305175781
1780563637779611400,5.067611328125,-0.5025690197944641,1.531298041343689,-1.298153042793274
1780563637799136000,5.087135986328125,-0.6028349995613098,1.2810230255126953,2.609081983566284
1780563637818665500,5.10666552734375,-1.1110819578170776,-0.351936012506485,3.2338809967041016
1780563637838195700,5.12619580078125,-1.6873480081558228,-0.5874699950218201,3.631524085998535
1780563637857717200,5.14571728515625,-1.891672968864441,-0.6873670220375061,3.3047258853912354
1780563637877240300,5.165240234375,-1.4591219425201416,-0.44901201128959656,1.4830189943313599
1780563637896768500,5.1847685546875,0.02849699929356575,-0.2785150110721588,1.673630952835083
1780563637916294100,5.204294189453125,0.20964300632476807,-0.3525809943675995,3.4900550842285156
1780563637935819300,5.2238193359375,-0.007973000407218933,-0.5953490138053894,4.073766231536865
1780563637955345400,5.243345458984375,-0.3631629943847656,-0.8277230262756348,4.277249813079834
1780563637974874600,5.26287451171875,-0.4722279906272888,-0.930167019367218,3.7490830421447754
1780563637994402000,5.282402099609375,-0.2559419870376587,-0.9402070045471191,1.703565001487732
1780563638013927200,5.30192724609375,0.11878599971532822,-1.0202000141143799,1.3036309480667114
1780563638033453300,5.321453369140625,0.11878599971532822,-1.0202000141143799,1.3036309480667114
1780563638052977000,5.340976806640625,-0.03410299867391586,-1.6020740270614624,1.4063260555267334
1780563638072497200,5.3604970703125,-0.03410299867391586,-1.6020740270614624,1.4063260555267334
1780563638092017000,5.380016845703125,-0.03410299867391586,-1.6020740270614624,1.4063260555267334
1780563638111537000,5.399536865234375,-0.2772339880466461,-1.1935640573501587,1.6974940299987793
1780563638131061200,5.419061279296875,0.0862559974193573,-0.6960790157318115,1.4070550203323364
1780563638150588400,5.43858837890625,0.3624710142612457,-0.4344260096549988,1.2045470476150513
1780563638170112000,5.458112060546875,0.37149500846862793,-0.5241690278053284,1.2116090059280396
1780563638189635000,5.477635009765625,0.21122699975967407,-0.7818549871444702,1.318621039390564
1780563638209158000,5.497157958984375,0.08891600370407104,-0.9310929775238037,1.2449430227279663
1780563638228678700,5.5166787109375,0.16254399716854095,-0.9112629890441895,0.863647997379303
1780563638248201700,5.53620166015625,0.3844130039215088,-0.9491919875144958,0.41803500056266785
1780563638267729000,5.55572900390625,0.7164959907531738,-1.1701890230178833,0.060559000819921494
1780563638287255300,5.57525537109375,1.0702409744262695,-1.5293910503387451,-0.0732249990105629
1780563638306778000,5.594778076171875,1.2618379592895508,-1.8048659563064575,0.07137200236320496
1780563638326296000,5.614296142578125,1.290078043937683,-1.6073689460754395,0.4377659857273102
1780563638345814500,5.633814453125,1.1397830247879028,-1.0143790245056152,0.9495059847831726
1780563638365337000,5.653337158203125,0.8950319886207581,-0.49013200402259827,1.5403980016708374
1780563638384859400,5.672859375,0.6248769760131836,-0.4027169942855835,2.0536201000213623
1780563638404380200,5.692380126953125,0.5785989761352539,-0.6205559968948364,2.1072309017181396
1780563638423901000,5.71190087890625,0.5705819725990295,-0.7436100244522095,1.6537870168685913
1780563638443423000,5.731423095703125,0.4624499976634979,-0.578357994556427,1.051738977432251
1780563638462946800,5.75094677734375,0.4095039963722229,-0.09804300218820572,0.9317770004272461
1780563638482467600,5.770467529296875,0.2016720026731491,0.3230780065059662,1.3680939674377441
1780563638501988000,5.789988037109375,-0.01115300040692091,0.4621709883213043,1.8790760040283203
1780563638521511400,5.809511474609375,-0.11828099936246872,0.37925800681114197,2.008207082748413
1780563638541038600,5.82903857421875,-0.12485799938440323,0.3555090129375458,-0.02940100058913231
1780563638560563200,5.848563232421875,-0.044888999313116074,0.4850260019302368,-0.5998989939689636
1780563638580086800,5.868086669921875,0.128043994307518,0.5568169951438904,-1.0862360000610352
1780563638599608600,5.887608642578125,0.29364100098609924,0.6259499788284302,-1.095973014831543
1780563638619129000,5.907129150390625,0.2716520130634308,0.6816239953041077,-0.8572109937667847
1780563638638649300,5.9266494140625,0.05856100097298622,0.7963129878044128,-0.6728789806365967
1780563638658167300,5.946167236328125,-0.39881500601768494,1.0104800462722778,-0.749239981174469
1780563638677689600,5.965689697265625,-1.0035439729690552,1.153681993484497,-1.231660008430481
1780563638697211600,5.985211669921875,-1.4897040128707886,1.1066579818725586,-1.7838319540023804
1780563638716732200,6.004732177734375,-1.6913479566574097,0.8270090222358704,-2.1465659141540527
1780563638736257500,6.024257568359375,-1.5497889518737793,0.5283070206642151,-2.2571640014648438
1780563638755783700,6.04378369140625,-1.1642849445343018,0.48749300837516785,-2.179932117462158
1780563638775308800,6.063308837890625,-0.7590199708938599,0.7450050115585327,-2.2099149227142334
1780563638794835700,6.082835693359375,-0.43850699067115784,1.1989370584487915,-2.5098040103912354
1780563638814365200,6.102365234375,-0.43850699067115784,1.1989370584487915,-2.5098040103912354
1780563638833894400,6.121894287109375,-0.10112299770116806,2.3297529220581055,-4.4061360359191895
1780563638853419300,6.141419189453125,-0.12520399689674377,2.9474759101867676,-4.537522792816162
1780563638872943900,6.16094384765625,-0.46669700741767883,3.4303019046783447,-4.3102850914001465
1780563638892469800,6.1804697265625,-0.46669700741767883,3.4303019046783447,-4.3102850914001465
1780563638911991300,6.1999912109375,-1.591143012046814,3.702666997909546,-3.663503885269165
1780563638931514600,6.2195146484375,-1.591143012046814,3.702666997909546,-3.663503885269165
1780563638951044600,6.239044677734375,-1.478996992111206,2.9820120334625244,-3.5387508869171143
1780563638970571500,6.258571533203125,-0.002644999884068966,2.4535679817199707,-3.1627960205078125
1780563638990099700,6.278099609375,0.35684099793434143,1.8349330425262451,-1.2220790386199951
1780563639009629000,6.29762890625,0.5898489952087402,1.1446119546890259,-0.7065550088882446
1780563639029157600,6.31715771484375,0.6391549706459045,0.6057069897651672,-0.27165600657463074
1780563639048684500,6.3366845703125,0.5023220181465149,0.3987540006637573,-0.32188698649406433
1780563639068206800,6.356206787109375,0.34343600273132324,0.5290570259094238,-0.7043930292129517
1780563639087731700,6.375731689453125,0.15961000323295593,0.7718440294265747,-0.8792849779129028
1780563639107256300,6.39525634765625,-0.17265300452709198,0.7652559876441956,-0.43668898940086365
1780563639126779400,6.414779296875,-0.7308070063591003,0.3776229918003082,1.3555690050125122
1780563639146299400,6.43429931640625,-1.328415036201477,-0.16541199386119843,1.9324079751968384
1780563639165823000,6.453822998046875,-1.7238149642944336,-0.5579609870910645,2.188760995864868
1780563639185348400,6.473348388671875,-1.7112410068511963,-0.6525850296020508,2.058311939239502
1780563639204870100,6.4928701171875,-1.3761169910430908,-0.5755429863929749,1.847735047340393
1780563639224391700,6.5123916015625,-1.0118509531021118,-0.5431259870529175,1.8814849853515625
1780563639243915500,6.53191552734375,-0.8851220011711121,-0.6370750069618225,2.1743550300598145
1780563639263442000,6.55144189453125,-1.0060770511627197,-0.9275869727134705,2.527113914489746
1780563639282962400,6.57096240234375,-1.0716769695281982,-1.2256159782409668,2.6942849159240723
1780563639302482200,6.590482177734375,-0.8445500135421753,-1.4443949460983276,2.5224668979644775
1780563639322004000,6.61000390625,-0.31012099981307983,-1.6357330083847046,2.1795670986175537
1780563639341523200,6.629523193359375,0.21008999645709991,-1.738656997680664,1.8556309938430786
1780563639361040400,6.649040283203125,0.5256919860839844,-1.8081640005111694,1.6404789686203003
1780563639380559000,6.66855908203125,0.5096290111541748,-1.7717499732971191,1.595283031463623
1780563639400077800,6.688077880859375,0.18761000037193298,-1.4866089820861816,1.5598269701004028
1780563639419600400,6.707600341796875,-0.16491299867630005,-1.015509009361267,1.3809939622879028
1780563639439119000,6.727119140625,-0.4590660035610199,-0.5419679880142212,1.0946199893951416
1780563639458634000,6.746634033203125,-0.6574419736862183,-0.32825401425361633,0.846875011920929
1780563639478154000,6.766154052734375,-0.6484330296516418,-0.4932990074157715,0.7633910179138184
1780563639497678600,6.7856787109375,-0.4820060133934021,-0.8617669939994812,0.8156710267066956
1780563639517202400,6.805202392578125,-0.2221589982509613,-1.115272045135498,0.8314669728279114
1780563639536718600,6.824718505859375,0.14527100324630737,-1.1516779661178589,0.6097620129585266
1780563639556236000,6.844236083984375,0.46216699481010437,-1.059960961341858,0.19607700407505035
1780563639575758800,6.8637587890625,0.7174819707870483,-1.1132580041885376,-0.1719380021095276
1780563639595278800,6.88327880859375,0.9884819984436035,-1.403717041015625,-0.28351500630378723
1780563639614801000,6.90280078125,1.205670952796936,-1.7500430345535278,-0.0925619974732399
1780563639634328300,6.922328369140625,1.3443249464035034,-1.9025570154190063,0.3541409969329834
1780563639653856300,6.941856201171875,1.204045057296753,-1.8042030334472656,1.9547979831695557
1780563639673384200,6.96138427734375,0.9579640030860901,-1.471351981163025,2.1645679473876953
1780563639692907300,6.9809072265625,0.9579640030860901,-1.471351981163025,2.1645679473876953
1780563639712426000,7.000426025390625,0.6496070027351379,-0.7898439764976501,2.391634941101074
1780563639731947500,7.019947509765625,0.6496070027351379,-0.7898439764976501,2.391634941101074
1780563639751470300,7.03947021484375,0.6553699970245361,-0.7074009776115417,1.8403029441833496
1780563639770988500,7.058988525390625,0.5315359830856323,-0.5650420188903809,1.5835139751434326
1780563639790507500,7.078507568359375,0.287447988986969,-0.1702210009098053,1.589840054512024
1780563639810027800,7.09802783203125,0.06667099893093109,0.3941270112991333,1.687474012374878
1780563639829547300,7.11754736328125,-0.1584240049123764,0.8569319844245911,1.7169749736785889
1780563639849067000,7.13706689453125,-0.3631420135498047,0.9535170197486877,1.5572869777679443
1780563639868589000,7.156589111328125,-0.4062660038471222,0.75627601146698,1.1839369535446167
1780563639888113700,7.17611376953125,-0.34780099987983704,0.5346540212631226,0.6834040284156799
1780563639907632000,7.195632080078125,-0.17693500220775604,0.47306400537490845,0.16390299797058105
1780563639927150300,7.215150390625,-0.03703499957919121,0.5836600065231323,-0.2559570074081421
1780563639946669000,7.2346689453125,-0.028113000094890594,0.7685880064964294,-0.5159389972686768
1780563639966184000,7.254183837890625,-0.10485100001096725,0.8499029874801636,-0.6731420159339905
1780563639985705500,7.27370556640625,-0.24033699929714203,0.8622419834136963,-0.8540830016136169
1780563640005229600,7.2932294921875,-0.3087640106678009,0.8472959995269775,-1.1311999559402466
1780563640024748800,7.312748779296875,-0.34132200479507446,0.841044008731842,-1.464514970779419
1780563640044268800,7.332268798828125,-0.36072400212287903,0.9199489951133728,-1.7333940267562866
1780563640063791400,7.351791259765625,-0.3268109858036041,1.0552539825439453,-1.9735360145568848
1780563640083316500,7.37131640625,-0.26138800382614136,1.245136022567749,-2.2788119316101074
1780563640102840800,7.3908408203125,-0.30930599570274353,1.5006519556045532,-2.707113027572632
1780563640122363600,7.41036376953125,-0.43848899006843567,1.8826099634170532,-4.388579845428467
1780563640141884200,7.42988427734375,-0.717710018157959,2.4205169677734375,-4.672553062438965
1780563640161407500,7.449407470703125,-1.1182969808578491,3.0112640857696533,-4.974078178405762
1780563640180933000,7.46893310546875,-1.4651390314102173,3.503941059112549,-4.957314968109131
1780563640200456400,7.48845654296875,-1.8101669549942017,3.7295169830322266,-4.522206783294678
1780563640219979500,7.5079794921875,-1.9807720184326172,3.6601040363311768,-2.7607600688934326
1780563640239499300,7.527499267578125,-1.9208940267562866,3.4631009101867676,-2.6218719482421875
1780563640259015400,7.547015380859375,-1.5294170379638672,3.2389400005340576,-2.8464701175689697
1780563640278533400,7.566533447265625,-0.10366000235080719,3.0059099197387695,-3.3206419944763184
1780563640298056200,7.58605615234375,0.1467220038175583,2.595782995223999,-3.5309948921203613
1780563640317580300,7.605580322265625,0.3578389883041382,0.8250659704208374,-3.0581068992614746
1780563640337102000,7.62510205078125,0.3485510051250458,0.36735999584198,-0.9630249738693237
1780563640356614700,7.64461474609375,0.22364099323749542,-0.23555999994277954,-0.22105899453163147
1780563640376128300,7.664128173828125,0.1688919961452484,-0.5451269745826721,0.09767500311136246
1780563640395648300,7.683648193359375,0.12653599679470062,-0.36977699398994446,-0.16197699308395386
1780563640415167200,7.703167236328125,-0.03470899909734726,0.07521100342273712,-0.56141197681427
1780563640434686200,7.722686279296875,-0.24268099665641785,0.47615399956703186,-0.49876201152801514
1780563640454208800,7.742208740234375,-0.582040011882782,0.5769760012626648,1.2498979568481445
1780563640473734700,7.761734619140625,-1.0519880056381226,0.3666270077228546,1.726652979850769
1780563640493259500,7.781259521484375,-1.4388920068740845,0.003392999991774559,2.1886088848114014
1780563640512786000,7.800785888671875,-1.4388920068740845,0.003392999991774559,2.1886088848114014
1780563640532313000,7.82031298828125,-1.5319360494613647,-0.5914120078086853,2.221604108810425
1780563640551834600,7.839834716796875,-1.5319360494613647,-0.5914120078086853,2.221604108810425
1780563640571356700,7.859356689453125,-0.4372740089893341,-0.8875830173492432,2.382949113845825
1780563640590879200,7.878879150390625,-0.055153001099824905,-1.039320945739746,2.7148818969726562
1780563640610402000,7.898402099609375,-0.05890500172972679,-1.1805340051651,2.9058799743652344
1780563640629928200,7.91792822265625,-0.303057998418808,-1.2872259616851807,2.8252439498901367
1780563640649453800,7.937453857421875,-0.6865320205688477,-1.3067879676818848,2.527190923690796
1780563640668980000,7.95697998046875,-1.055317997932434,-1.3095569610595703,2.190908908843994
1780563640688503600,7.976503662109375,-1.2017560005187988,-1.4041999578475952,1.9872900247573853
1780563640708023000,7.99602294921875,-1.073011040687561,-1.6363439559936523,1.9187300205230713
1780563640727543800,8.015543701171875,-0.7528370022773743,-1.9200880527496338,1.838107943534851
1780563640747063000,8.03506298828125,-0.2657549977302551,-2.0836849212646484,1.6100250482559204
1780563640766582300,8.054582275390626,0.1717119961977005,-1.967170000076294,1.1001880168914795
1780563640786104000,8.07410400390625,0.48937100172042847,-1.5743260383605957,0.37276598811149597
1780563640805622300,8.093622314453125,0.6953570246696472,-1.137173056602478,-0.3189370036125183
1780563640825140500,8.113140380859376,0.7705259919166565,-0.9418489933013916,-0.759253978729248
1780563640844660200,8.13266015625,0.7811170220375061,-1.1128489971160889,-0.774573028087616
1780563640864179200,8.15217919921875,0.6874039769172668,-1.4762940406799316,-0.49351000785827637
1780563640883693600,8.171693603515624,0.5721560120582581,-1.6411410570144653,-0.23831699788570404
1780563640903206700,8.19120654296875,0.5484369993209839,-1.5555939674377441,-0.2634879946708679
1780563640922721500,8.210721435546875,0.5652499794960022,-1.3983689546585083,-0.47257399559020996
1780563640942238200,8.23023828125,0.629738986492157,-1.4001070261001587,-0.6049169898033142
1780563640961758200,8.24975830078125,0.7517629861831665,-1.6552070379257202,-0.5074740052223206
1780563640981277000,8.26927685546875,0.8966619968414307,-1.944566011428833,-0.09362400323152542
1780563641000796400,8.28879638671875,1.1113090515136719,-1.9807109832763672,0.35826000571250916
1780563641020320000,8.308320068359375,1.2211079597473145,-1.7616959810256958,0.6414639949798584
1780563641039840300,8.32784033203125,1.2391259670257568,-1.48225998878479,0.8875939846038818
1780563641059358500,8.3473583984375,1.1771769523620605,-1.1705670356750488,1.1721229553222656
1780563641078878200,8.366878173828125,1.0480220317840576,-0.7591189742088318,1.5050400495529175
1780563641098396400,8.386396484375,0.8730790019035339,-0.21296200156211853,1.7435929775238037
1780563641117913600,8.40591357421875,0.6197739839553833,0.281019002199173,1.7487610578536987
1780563641137431600,8.425431640625,0.3717449903488159,0.5506719946861267,1.6213070154190063
1780563641156948700,8.44494873046875,0.1558299958705902,0.6323950290679932,1.5117650032043457
1780563641176468200,8.46446826171875,0.14056900143623352,0.5959200263023376,1.6738799810409546
1780563641195991000,8.483990966796876,0.26139700412750244,0.585910975933075,2.001760959625244
1780563641215510000,8.503510009765625,0.35232698917388916,0.7734889984130859,2.0751140117645264
1780563641235029200,8.523029296875,0.30406099557876587,1.0085179805755615,1.7319819927215576
1780563641254550000,8.542550048828126,0.12620499730110168,1.31672203540802,-0.09442300349473953
1780563641274070500,8.562070556640625,0.12620499730110168,1.31672203540802,-0.09442300349473953
1780563641293592000,8.581592041015625,-0.32742899656295776,1.9367289543151855,-0.6832559704780579
1780563641313109500,8.601109619140624,-0.32742899656295776,1.9367289543151855,-0.6832559704780579
1780563641332630300,8.62063037109375,-0.6562830209732056,1.936318039894104,-0.9094030261039734
1780563641352155400,8.6401552734375,-0.6562830209732056,1.936318039894104,-0.9094030261039734
1780563641371676200,8.65967626953125,-0.645700991153717,1.5592060089111328,-1.3615829944610596
1780563641391196700,8.67919677734375,-0.645700991153717,1.5592060089111328,-1.3615829944610596
1780563641410715100,8.698715087890625,-0.24153800308704376,1.3232330083847046,-1.7360869646072388
1780563641430234000,8.718234130859376,-0.08788199722766876,1.2073860168457031,-1.8689420223236084
1780563641449757000,8.7377568359375,-0.0032079999800771475,1.2979899644851685,-2.1970438957214355
1780563641469280300,8.7572802734375,0.025769000872969627,1.763713002204895,-4.2683281898498535
1780563641488805000,8.77680517578125,-0.11213900148868561,3.4545319080352783,-4.670297145843506
1780563641508333000,8.7963330078125,-0.4942989945411682,4.009817123413086,-5.045581817626953
1780563641527857000,8.81585693359375,-1.124366044998169,4.422467231750488,-4.959321975708008
1780563641547378200,8.835378173828126,-2.7295219898223877,4.346735000610352,-3.1463840007781982
1780563641566897400,8.8548974609375,-2.8879289627075195,3.8138298988342285,-2.5458929538726807
1780563641586414000,8.8744140625,-2.7088708877563477,3.158034086227417,-2.0684170722961426
1780563641605928200,8.89392822265625,-0.7392230033874512,2.7790420055389404,-2.2520699501037598
1780563641625444600,8.913444580078124,0.7689840197563171,2.7651031017303467,-3.927743911743164
1780563641644965400,8.93296533203125,0.8911610245704651,2.93402099609375,-4.333920001983643
1780563641664485600,8.952485595703125,0.794031023979187,2.8865599632263184,-4.2332072257995605
1780563641684007400,8.97200732421875,0.20993900299072266,2.2717630863189697,-1.867319941520691
1780563641703530000,8.991530029296875,-1.4501709938049316,0.13195599615573883,0.473471999168396
1780563641723051800,9.0110517578125,-1.5892399549484253,-0.3851040005683899,0.8977000117301941
1780563641742573300,9.0305732421875,-1.3712379932403564,-0.5381649732589722,0.8349289894104004
1780563641762094000,9.050093994140624,-0.7724019885063171,-0.12166900187730789,-0.7674990296363831
1780563641781616600,9.06961669921875,-0.23016400635242462,1.4577959775924683,-0.7390909790992737
1780563641801134300,9.08913427734375,-0.1685519963502884,1.3052029609680176,-0.18927699327468872
1780563641820649500,9.1086494140625,-1.8178540468215942,-0.6739689707756042,2.502645969390869
1780563641840166400,9.12816650390625,-2.1277379989624023,-1.1291580200195312,4.5646209716796875
1780563641859689700,9.147689697265625,-2.389430046081543,-1.5353189706802368,4.657483100891113
1780563641879217700,9.1672177734375,-2.3574330806732178,-1.48341703414917,3.1541330814361572
1780563641898742500,9.186742431640624,-1.9318809509277344,-1.092952013015747,2.9623730182647705
1780563641918264300,9.206264404296874,-1.515207052230835,-0.8089680075645447,3.061410903930664
1780563641937787100,9.225787109375,-1.5201319456100464,-0.9301149845123291,4.782200813293457
1780563641957310700,9.245310791015624,-1.7969919443130493,-1.3688600063323975,4.963799953460693
1780563641976829200,9.2648291015625,-1.9113210439682007,-1.8753950595855713,4.83460807800293
1780563641996351700,9.284351806640625,-1.607653021812439,-2.306546926498413,4.224032878875732
1780563642015875600,9.30387548828125,-0.09671200066804886,-2.7199389934539795,2.5569300651550293
1780563642035398700,9.323398681640626,0.4506849944591522,-3.125375986099243,2.2734220027923584
1780563642054924500,9.342924560546875,0.8828459978103638,-3.4201390743255615,2.2247140407562256
1780563642074447400,9.362447265625,0.8828459978103638,-3.4201390743255615,2.2247140407562256
1780563642093971200,9.38197119140625,0.6090480089187622,-3.011568069458008,2.3356781005859375
1780563642113491000,9.401490966796874,0.3034060001373291,-1.1806529760360718,1.9259320497512817
1780563642133012700,9.4210126953125,0.09596200287342072,-0.9681230187416077,1.1981290578842163
1780563642152538600,9.44053857421875,0.09596200287342072,-0.9681230187416077,1.1981290578842163
1780563642172060700,9.460060791015625,0.09596200287342072,-0.9681230187416077,1.1981290578842163
1780563642191585300,9.479585205078125,0.36789900064468384,-2.726428985595703,0.37189701199531555
1780563642211111200,9.499111083984374,0.33631399273872375,-2.731663942337036,0.7497169971466064
1780563642230636500,9.518636474609375,0.419856995344162,-2.4222450256347656,0.9726700186729431
1780563642250163200,9.5381630859375,0.7145280241966248,-1.8391250371932983,0.9329460263252258
1780563642269688000,9.55768798828125,1.266116976737976,-1.2542530298233032,0.6409209966659546
1780563642289213200,9.577213134765625,1.9095779657363892,-0.9966840147972107,0.2079620063304901
1780563642308743000,9.596742919921875,2.206523895263672,-1.2050880193710327,0.002937000012025237
1780563642328269800,9.616269775390625,2.1914660930633545,-1.5183500051498413,0.1777310073375702
1780563642347789800,9.635789794921875,1.973781943321228,-1.512434959411621,0.5767920017242432
1780563642367314200,9.655314208984375,1.7589919567108154,-1.0163450241088867,0.9528899788856506
1780563642386844400,9.674844482421875,1.5864759683609009,0.8285290002822876,1.2910900115966797
1780563642406372400,9.694372314453124,1.4674530029296875,1.1032910346984863,1.598971962928772
1780563642425903900,9.71390380859375,1.3385800123214722,1.0006020069122314,1.8015680313110352
1780563642445434600,9.7334345703125,1.1789000034332275,0.7184910178184509,1.7865769863128662
1780563642464962300,9.75296240234375,1.0192339420318604,0.5832899808883667,1.3721710443496704
1780563642484490000,9.772489990234375,0.7375689744949341,0.7926570177078247,0.9173579812049866
1780563642504019000,9.79201904296875,0.38019201159477234,1.2032690048217773,1.0603679418563843
1780563642523548700,9.811548583984376,0.012148999609053135,1.4813120365142822,1.5555670261383057
1780563642543078000,9.831077880859375,-0.1660269945859909,1.5113120079040527,1.9390829801559448
1780563642562605000,9.85060498046875,-0.19479599595069885,1.4224439859390259,1.767467975616455
1780563642582134300,9.87013427734375,-0.12090200185775757,1.406859040260315,-0.13109000027179718
1780563642601661700,9.88966162109375,-0.020618999376893044,1.4645990133285522,-1.5595370531082153
1780563642621189400,9.909189453125,-0.02003300003707409,1.3985960483551025,-1.531054973602295
1780563642640717000,9.928717041015625,-0.05039900168776512,1.2830020189285278,-1.16497004032135
1780563642660242700,9.94824267578125,-0.16356700658798218,1.153573989868164,-0.7524769902229309
1780563642679771400,9.967771484375,-0.3389039933681488,1.070341944694519,-0.6325399875640869
1780563642699300000,9.987300048828125,-0.5620589852333069,1.139057993888855,-0.932686984539032
1780563642718828500,10.00682861328125,-0.7936390042304993,1.1804840564727783,-2.612333059310913
1780563642738360000,10.026360107421874,-0.9776039719581604,1.1043859720230103,-2.7793691158294678
1780563642757894000,10.045893798828125,-1.0241960287094116,0.9530540108680725,-2.925858974456787
1780563642777427000,10.065427001953125,-0.999646008014679,0.839493989944458,-3.0209779739379883
1780563642796956400,10.084956298828125,-0.8993070125579834,0.9498940110206604,-3.1894218921661377
1780563642816486700,10.104486572265625,-0.7782350182533264,1.3938000202178955,-3.628793954849243
1780563642836016000,10.12401611328125,-0.7127829790115356,2.9283320903778076,-5.181899070739746
1780563642855546000,10.143546142578124,-0.7692070007324219,3.2986369132995605,-5.451935768127441
1780563642875080000,10.163079833984375,-1.0327800512313843,3.525691032409668,-5.402155876159668
1780563642894613200,10.18261328125,-1.0327800512313843,3.525691032409668,-5.402155876159668
1780563642914141200,10.20214111328125,-1.694424033164978,2.642224073410034,-2.5560340881347656
1780563642933666800,10.221666748046875,-1.694424033164978,2.642224073410034,-2.5560340881347656
1780563642953194000,10.241194091796874,-1.36879301071167,1.0883569717407227,-3.504551887512207
1780563642972719000,10.260718994140625,-0.8559679985046387,1.3081649541854858,-5.773229122161865
1780563642992244500,10.280244384765625,-0.8559679985046387,1.3081649541854858,-5.773229122161865
1780563643011771000,10.29977099609375,-0.08617500215768814,1.9813460111618042,-5.60145378112793
1780563643031297300,10.31929736328125,-0.11614000052213669,1.548477053642273,-0.6668109893798828
1780563643050828800,10.338828857421875,-0.5961740016937256,-0.39411500096321106,1.5269039869308472
1780563643070361000,10.358361083984375,-1.14227294921875,-0.9487680196762085,2.214550018310547
1780563643089891300,10.377891357421875,-1.5825680494308472,-1.2001490592956543,2.095750093460083
1780563643109420300,10.397420166015625,-1.9531899690628052,-0.8186489939689636,-0.04865400120615959
1780563643128949000,10.416948974609374,-2.0666608810424805,0.716746985912323,-0.31603899598121643
1780563643148476000,10.436475830078125,-1.9582339525222778,0.7519350051879883,2.266024112701416
1780563643168001300,10.456001220703126,-1.9512239694595337,0.4905160069465637,4.095078945159912
1780563643187531500,10.475531494140625,-1.9895659685134888,0.0568230003118515,5.6085028648376465
1780563643207061200,10.495061279296875,-1.837854027748108,-0.39125099778175354,5.385499954223633
1780563643226590200,10.514590087890625,-1.6192090511322021,-0.6396650075912476,3.809109926223755
1780563643246120200,10.5341201171875,-1.307468056678772,-0.8436509966850281,3.554842948913574
1780563643265646800,10.553646728515625,-0.9736930131912231,-1.198673963546753,3.893678903579712
1780563643285172200,10.573172119140626,-0.9277179837226868,-1.5560940504074097,5.298088073730469
1780563643304701400,10.592701416015625,-1.0509129762649536,-1.743006944656372,5.2495341300964355
1780563643324235000,10.612235107421874,-1.096662998199463,-1.6595460176467896,4.648233890533447
1780563643343767300,10.631767333984374,-0.8103880286216736,-1.4538389444351196,2.735637903213501
1780563643363292400,10.65129248046875,-0.23638899624347687,-1.4329789876937866,2.327233076095581
1780563643382817800,10.67081787109375,0.2465679943561554,-1.7852749824523926,2.17195200920105
1780563643402341000,10.690341064453126,0.3986409902572632,-2.343122959136963,2.283350944519043
1780563643421863200,10.70986328125,0.30901798605918884,-2.764094114303589,2.41452693939209
1780563643441385000,10.729385009765625,0.22944100201129913,-2.611138105392456,2.3776750564575195
1780563643460911600,10.74891162109375,0.41214901208877563,-0.8219770193099976,1.993109941482544
1780563643480443100,10.768443115234374,0.905239999294281,-0.5621140003204346,1.3636510372161865
1780563643499972400,10.787972412109376,1.299291968345642,-0.48343199491500854,0.806302011013031
1780563643519500000,10.8075,1.35063898563385,-0.7686709761619568,0.4078649878501892
1780563643539027700,10.82702783203125,0.9713820219039917,-1.203855037689209,0.24146200716495514
1780563643558550500,10.846550537109374,0.36343899369239807,-1.2918740510940552,0.1710049957036972
1780563643578070800,10.86607080078125,0.011359999887645245,-0.883787989616394,-0.020123999565839767
1780563643597595000,10.885594970703124,0.12391100078821182,-0.3880999982357025,-0.32392600178718567
1780563643617116700,10.90511669921875,0.672747015953064,-0.17729699611663818,-0.6184099912643433
1780563643636635100,10.92463525390625,1.3025100231170654,-0.4290980100631714,-0.7610419988632202
1780563643656159000,10.944158935546875,1.6285059452056885,-0.9836270213127136,-0.6343449950218201
1780563643675684900,10.963684814453124,1.757789969444275,-1.3686929941177368,-0.3153719902038574
1780563643695208400,10.98320849609375,1.7774460315704346,-1.262302041053772,-0.05297600105404854
1780563643714738200,11.00273828125,1.7724430561065674,-0.7452960014343262,0.02868800051510334
1780563643734269700,11.022269775390624,1.7724430561065674,-0.7452960014343262,0.02868800051510334
1780563643753795300,11.04179541015625,1.713323950767517,-0.0821869969367981,0.24949699640274048
1780563643773318000,11.06131787109375,1.713323950767517,-0.0821869969367981,0.24949699640274048
1780563643792843000,11.080843017578125,0.8574309945106506,-0.8374890089035034,2.2829461097717285
1780563643812369400,11.100369384765624,0.5045070052146912,-0.8813040256500244,2.26253604888916
1780563643831894000,11.11989404296875,0.5045070052146912,-0.8813040256500244,2.26253604888916
1780563643851416000,11.139416015625,0.333636999130249,0.10598699748516083,1.2568429708480835
1780563643870938400,11.1589384765625,0.3125860095024109,0.4967299997806549,1.0301719903945923
1780563643890463700,11.178463623046875,0.17211699485778809,0.7310450077056885,1.1952170133590698
1780563643909990700,11.19799072265625,-0.10419999808073044,0.9770050048828125,1.4390150308609009
1780563643929520000,11.21752001953125,-0.34376201033592224,1.359786033630371,1.448632001876831
1780563643949050600,11.237050537109376,-0.48054400086402893,1.8234859704971313,1.0318729877471924
1780563643968578000,11.256578125,-0.5538910031318665,2.0568621158599854,0.4705730080604553
1780563643988101600,11.2761015625,-0.7320050001144409,1.9057379961013794,0.1580680012702942
1780563644007624400,11.29562451171875,-1.0390290021896362,1.5152440071105957,0.017590999603271484
1780563644027152100,11.315152099609374,-1.291558027267456,1.1017240285873413,-0.21347899734973907
1780563644046680600,11.3346806640625,-1.3381550312042236,0.8063520193099976,-0.7282059788703918
1780563644066205400,11.354205322265624,-1.1265560388565063,0.7335219979286194,-2.278503894805908
1780563644085729000,11.37372900390625,-0.8395479917526245,0.7966750264167786,-2.7535910606384277
1780563644105254400,11.39325439453125,-0.671097993850708,0.7839490175247192,-3.239285945892334
1780563644124779300,11.412779296875,-0.7675870060920715,0.7284770011901855,-3.5442090034484863
1780563644144304400,11.432304443359374,-0.9255279898643494,0.8105779886245728,-3.7142229080200195
1780563644163831600,11.45183154296875,-0.9933040142059326,1.0721310377120972,-3.84859299659729
1780563644183356400,11.4713564453125,-1.0192370414733887,1.5028940439224243,-3.8684160709381104
1780563644202879500,11.49087939453125,-1.0107699632644653,1.9746719598770142,-3.7457170486450195
1780563644222404000,11.510404052734375,-1.0133490562438965,2.2024030685424805,-3.504945993423462
1780563644241933000,11.52993310546875,-0.9323220252990723,2.2444229125976562,-3.277712106704712
1780563644261463300,11.54946337890625,-0.78336501121521,2.2771239280700684,-3.394866943359375
1780563644280988700,11.56898876953125,-0.6556239724159241,2.331573009490967,-5.121300220489502
1780563644300511200,11.58851123046875,-0.6981340050697327,2.362687110900879,-5.3478522300720215
1780563644320030000,11.608030029296875,-0.8101040124893188,2.298219919204712,-5.538564205169678
1780563644339549700,11.6275498046875,-0.9809420108795166,2.040424108505249,-5.237289905548096
1780563644359075800,11.647075927734376,-1.0392169952392578,1.673117995262146,-3.0440940856933594
1780563644378599400,11.666599365234376,-1.0028339624404907,1.1785860061645508,-2.3485119342803955
1780563644398122200,11.686122314453126,-1.0346759557724,0.6400660276412964,-0.6796560287475586
1780563644417648400,11.7056484375,-0.9590680003166199,0.2821989953517914,-0.4053199887275696
1780563644437173000,11.725173095703125,-0.9187189936637878,0.1885720044374466,-0.33052098751068115
1780563644456699000,11.744698974609374,-0.9165740013122559,0.3357590138912201,-0.20555299520492554
1780563644476221000,11.764220947265626,-1.0170990228652954,0.4347879886627197,0.27239999175071716
1780563644495735300,11.7837353515625,-1.3201260566711426,0.33908700942993164,2.020024061203003
1780563644515247600,11.80324755859375,-1.6416879892349243,0.08338099718093872,2.6868319511413574
1780563644534761000,11.822760986328126,-1.7918939590454102,-0.09025699645280838,3.208487033843994
1780563644554278100,11.842278076171874,-1.7371289730072021,-0.06097700074315071,3.2912960052490234
1780563644573796900,11.861796875,-1.538530945777893,0.07350099831819534,3.1306560039520264
1780563644593313800,11.881313720703124,-1.3803030252456665,0.09704899787902832,3.1118240356445312
1780563644612829700,11.90082958984375,-1.3803030252456665,0.09704899787902832,3.1118240356445312
1780563644632344000,11.920343994140625,-1.3803030252456665,0.09704899787902832,3.1118240356445312
1780563644651856000,11.93985595703125,-0.7643839716911316,-1.0122950077056885,4.4060959815979
1780563644671366100,11.9593662109375,-0.17516900599002838,-1.1693120002746582,4.4190850257873535
1780563644690881800,11.9788818359375,0.4675779938697815,-1.2178699970245361,4.094929218292236
1780563644710399700,11.998399658203125,0.8575559854507446,-1.292404055595398,3.626668930053711
1780563644729911800,12.017911865234375,1.033310055732727,-1.4706649780273438,3.14831805229187
1780563644749422600,12.037422607421876,1.039415955543518,-1.624526023864746,2.5959389209747314
1780563644768934100,12.05693408203125,0.911549985408783,-1.6438250541687012,1.89923095703125
1780563644788445700,12.07644580078125,0.7795929908752441,-1.5283950567245483,0.2934280037879944
1780563644807960300,12.095960205078125,0.6879270076751709,-1.4806400537490845,-0.15449699759483337
1780563644827475200,12.11547509765625,0.6333289742469788,-1.565587043762207,-0.4068650007247925
1780563644846989600,12.134989501953125,0.6159960031509399,-1.6360360383987427,-0.44037699699401855
1780563644866510300,12.15451025390625,0.6114699840545654,-1.602781057357788,-0.3148939907550812
1780563644886030000,12.174030029296874,0.5844669938087463,-1.4307290315628052,-0.03361799940466881
1780563644905547500,12.193547607421875,0.607250988483429,-1.1264790296554565,0.19769799709320068
1780563644925064400,12.213064453125,0.7148870229721069,-0.8946959972381592,0.2754270136356354
1780563644944577800,12.232577880859376,0.8609139919281006,-0.8976029753684998,0.1800059974193573
1780563644964090000,12.252090087890625,0.8900290131568909,-1.188377022743225,0.02197599969804287
1780563644983601000,12.271600830078125,0.9031820297241211,-1.695152997970581,-0.026917999610304832
1780563645003111200,12.291111083984376,0.9890859723091125,-2.077204942703247,0.06330300122499466
1780563645022625500,12.31062548828125,1.2067489624023438,-2.091525077819824,0.23362800478935242
1780563645042140700,12.330140625,1.54312002658844,-1.7753759622573853,0.3604559898376465
1780563645061654300,12.349654296875,1.7340400218963623,-1.36034095287323,0.4992240071296692
1780563645081171200,12.369171142578125,1.672948956489563,-1.1916749477386475,0.8522120118141174
1780563645100682500,12.3886826171875,1.330757975578308,-1.278609037399292,2.49172306060791
1780563645120194600,12.408194580078124,0.8532180190086365,-1.415747046470642,2.7066140174865723
1780563645139708000,12.4277080078125,0.4031369984149933,-1.369737982749939,2.8857970237731934
1780563645159215600,12.447215576171875,0.08867599815130234,-1.0477269887924194,2.744115114212036
1780563645178723600,12.4667236328125,-0.11053399741649628,-0.6115739941596985,2.3451011180877686
1780563645198236000,12.48623583984375,-0.28581300377845764,-0.2692829966545105,1.880607008934021
1780563645217751000,12.5057509765625,-0.5008530020713806,-0.041843999177217484,1.5358469486236572
1780563645237261600,12.525261474609374,-0.8186489939689636,0.19285699725151062,1.2880289554595947
1780563645256770000,12.54477001953125,-1.100746989250183,0.46459901332855225,1.0022170543670654
1780563645276279800,12.56427978515625,-1.3164360523223877,0.8052899837493896,0.6868230104446411
1780563645295790600,12.58379052734375,-1.4095029830932617,1.085953950881958,0.475398987531662
1780563645315303700,12.6033037109375,-1.4894219636917114,1.085716962814331,0.37817201018333435
1780563645334819000,12.622819091796876,-1.5423580408096313,0.9045439958572388,0.26380398869514465
1780563645354329600,12.64232958984375,-1.4958570003509521,0.6525800228118896,0.016116999089717865
1780563645373838800,12.6618388671875,-1.2818410396575928,0.47880399227142334,-0.5244879722595215
1780563645393350100,12.68135009765625,-0.8136699795722961,0.5403569936752319,-1.9801130294799805
1780563645412859600,12.700859619140624,-0.25346601009368896,0.684902012348175,-2.2260570526123047
1780563645432366000,12.720365966796875,-0.25346601009368896,0.684902012348175,-2.2260570526123047
1780563645451876600,12.739876708984376,-0.25346601009368896,0.684902012348175,-2.2260570526123047
1780563645471388400,12.759388427734375,0.18574100732803345,0.9983999729156494,-2.6044039726257324
1780563645490898200,12.778898193359375,0.016258999705314636,1.5080009698867798,-3.099436044692993
1780563645510408000,12.798407958984376,-0.10687100142240524,3.3248889446258545,-5.031624794006348
1780563645529914400,12.817914306640626,-0.2030470073223114,3.869929075241089,-5.519839763641357
1780563645549422800,12.8374228515625,-0.516739010810852,4.257190227508545,-5.478868007659912
1780563645568928000,12.856927978515625,-0.9756739735603333,4.179543972015381,-3.36136794090271
1780563645588429300,12.87642919921875,-1.3644119501113892,3.7303380966186523,-2.841614007949829
1780563645607935200,12.895935302734374,-1.4847769737243652,3.2408180236816406,-2.6407670974731445
1780563645627443500,12.915443359375,-1.1114590167999268,3.077367067337036,-5.291182994842529
1780563645646952200,12.9349521484375,0.29693400859832764,3.2515130043029785,-6.762110233306885
1780563645666461400,12.95446142578125,0.5405430197715759,3.427316904067993,-6.898684024810791
1780563645685963800,12.9739638671875,0.5960659980773926,3.12880802154541,-3.8830299377441406
1780563645705460000,12.9934599609375,0.18808400630950928,1.349787950515747,-0.18877600133419037
1780563645724960800,13.012960693359375,-0.3812899887561798,-0.38812199234962463,0.5927129983901978
1780563645744470800,13.032470703125,-0.7866100072860718,-0.4602999985218048,1.0051000118255615
1780563645763979800,13.051979736328125,-0.8370710015296936,-0.11647900193929672,-0.5510920286178589
1780563645783482000,13.071482177734374,-0.6555320024490356,1.3860290050506592,-0.7052909731864929
1780563645802984400,13.090984375,-0.6221190094947815,1.3702809810638428,-0.1909320056438446
1780563645822490400,13.110490478515626,-1.0838749408721924,0.8426859974861145,2.5784249305725098
1780563645841998000,13.129998046875,-1.6746569871902466,-0.9298080205917358,4.2558112144470215
1780563645861507600,13.149507568359375,-1.904662013053894,-1.3254719972610474,4.183827877044678
1780563645881016300,13.169016357421874,-1.6533559560775757,-1.3949459791183472,2.015613079071045
1780563645900525300,13.188525390625,0.12593600153923035,-1.247771978378296,1.5940799713134766
1780563645920035000,13.20803515625,0.17988599836826324,-1.2978960275650024,1.6473380327224731
1780563645939548000,13.2275478515625,-0.07020299881696701,-1.6256309747695923,3.1848320960998535
1780563645959061800,13.247061767578124,-0.4223800003528595,-1.9880859851837158,3.6831300258636475
1780563645978569500,13.266569580078125,-0.680042028427124,-2.1018660068511963,3.855288028717041
1780563645998077200,13.2860771484375,-0.7840579748153687,-1.8506250381469727,3.4212629795074463
1780563646017585400,13.30558544921875,-0.7193120121955872,-1.538843035697937,1.978943943977356
1780563646037090800,13.3250908203125,-0.7549819946289062,-1.555528998374939,2.07438588142395
1780563646056597800,13.34459765625,-0.8518990278244019,-1.7531909942626953,2.4834980964660645
1780563646076105700,13.364105712890625,-0.9630560278892517,-1.8635289669036865,2.8473570346832275
1780563646095613700,13.38361376953125,-0.9416229724884033,-1.7506040334701538,2.8665339946746826
1780563646115126500,13.40312646484375,-0.7629709839820862,-1.5167829990386963,2.3897900581359863
1780563646134639600,13.4226396484375,-0.5895400047302246,-1.3561160564422607,1.676285982131958
1780563646154148600,13.442148681640624,-0.47117799520492554,-1.3284339904785156,1.1205979585647583
1780563646173658600,13.46165869140625,-0.4147529900074005,-1.4000580310821533,0.8071920275688171
1780563646193168400,13.48116845703125,-0.31040799617767334,-1.4319759607315063,0.6742169857025146
1780563646212681200,13.50068115234375,-0.31040799617767334,-1.4319759607315063,0.6742169857025146
1780563646232199700,13.52019970703125,-0.31040799617767334,-1.4319759607315063,0.6742169857025146
1780563646251718100,13.53971826171875,0.6050199866294861,-2.078131914138794,-0.4349460005760193
1780563646271235600,13.559235595703125,0.8229609727859497,-2.347040891647339,-0.8719379901885986
1780563646290754000,13.578754150390624,0.8947589993476868,-2.5355100631713867,-0.9198809862136841
1780563646310274800,13.59827490234375,0.8346750140190125,-2.5798439979553223,0.5363770127296448
1780563646329798400,13.61779833984375,0.8609560132026672,-2.437436103820801,0.8186749815940857
1780563646349318000,13.63731787109375,0.9834690093994141,-2.200216054916382,1.2976679801940918
1780563646368831500,13.65683154296875,1.242622971534729,-1.9886959791183472,1.7445189952850342
1780563646388347100,13.67634716796875,1.5132230520248413,-1.8060400485992432,1.9975630044937134
1780563646407867100,13.6958671875,1.694133996963501,-1.6065260171890259,1.8265479803085327
1780563646427389400,13.715389404296875,1.7616560459136963,-1.3932509422302246,1.3467040061950684
1780563646446911700,13.734911865234375,1.6063189506530762,-1.0548930168151855,0.825115978717804
1780563646466431000,13.754430908203124,1.307134985923767,-0.46674999594688416,0.5001800060272217
1780563646485947100,13.773947021484375,0.8311840295791626,0.10853999853134155,0.44287899136543274
1780563646505463600,13.793463623046875,0.28185901045799255,0.4813610017299652,0.6885910034179688
1780563646524978200,13.812978271484376,-0.19018800556659698,0.6437770128250122,1.137341022491455
1780563646544490000,13.832489990234375,-0.46720799803733826,0.6382089853286743,1.4329960346221924
1780563646563997700,13.851997802734376,-0.5522170066833496,0.675819993019104,1.5300170183181763
1780563646583501800,13.871501708984376,-0.47803300619125366,0.9739999771118164,1.3068770170211792
1780563646603010600,13.891010498046874,-0.3846539855003357,1.5247069597244263,-0.3074040114879608
1780563646622528000,13.910528076171875,-0.36221200227737427,2.05806303024292,-0.6275140047073364
1780563646642044200,13.930044189453126,-0.3791249990463257,2.438390016555786,-0.999459981918335
1780563646661557200,13.94955712890625,-0.3526419997215271,2.5178699493408203,-1.2045680284500122
1780563646681068300,13.969068359375,-0.23498700559139252,2.366460084915161,-1.2666599750518799
1780563646700577500,13.98857763671875,-0.011237000115215778,2.121077060699463,-1.3080470561981201
1780563646720088600,14.008088623046875,0.34793901443481445,1.8479479551315308,-1.4978070259094238
1780563646739603700,14.027603759765626,0.7265830039978027,1.6619410514831543,-1.8377840518951416
1780563646759119000,14.047119140625,0.9387959837913513,1.55771005153656,-2.261909008026123
1780563646778635300,14.06663525390625,0.8846259713172913,1.519968032836914,-2.748764991760254
1780563646798157300,14.0861572265625,0.4504989981651306,1.6549780368804932,-4.33882999420166
1780563646817675000,14.105675048828125,-0.18482699990272522,2.124253988265991,-4.611835956573486
1780563646837186800,14.125186767578125,-0.7349990010261536,3.807873010635376,-6.207819938659668
1780563646856698400,14.144698486328124,-1.2070080041885376,5.378582954406738,-6.215814113616943
1780563646876206300,14.164206298828125,-1.5789899826049805,5.415616989135742,-5.884645938873291
1780563646895717400,14.18371728515625,-1.794442057609558,5.10966682434082,-4.201282024383545
1780563646915232000,14.20323193359375,-1.7599940299987793,4.473703861236572,-3.436081886291504
1780563646934745600,14.22274560546875,-0.08830399811267853,3.820004940032959,-3.079916000366211
1780563646954256600,14.242256591796876,0.2605209946632385,3.510802984237671,-4.857900142669678
1780563646973771800,14.261771728515624,0.5403259992599487,3.496206045150757,-6.521028995513916
1780563646993292000,14.2812919921875,0.39548400044441223,3.27490496635437,-6.377145767211914
1780563647012810200,14.300810302734375,0.10314299911260605,1.4393140077590942,-2.993117094039917
1780563647032330800,14.320330810546874,0.10314299911260605,1.4393140077590942,-2.993117094039917
1780563647051853300,14.339853271484374,0.10314299911260605,1.4393140077590942,-2.993117094039917
1780563647071377200,14.359377197265625,1.7919440269470215,-0.03943299874663353,3.1322009563446045
1780563647090901200,14.3789013671875,1.613906979560852,1.5158790349960327,1.4242260456085205
1780563647110425000,14.398425048828125,-0.09883099794387817,1.6616849899291992,1.06072199344635
1780563647129948700,14.41794873046875,-0.3609040081501007,1.6655189990997314,1.2431329488754272
1780563647149472300,14.43747216796875,-0.810820996761322,1.2832449674606323,3.376681089401245
1780563647168995800,14.456995849609376,-0.8794609904289246,0.6342269778251648,5.0639519691467285
1780563647188519200,14.476519287109374,-0.4267210066318512,0.11206600069999695,5.149081230163574
1780563647208042200,14.496042236328124,0.9594320058822632,0.050255000591278076,3.135883092880249
1780563647227565300,14.5155654296875,1.0523120164871216,0.265175998210907,1.4988529682159424
1780563647266608400,14.5546083984375,0.7140949964523315,0.566519021987915,3.206362009048462
1780563647286125300,14.574125244140625,0.39541301131248474,0.5225170254707336,3.481271982192993
1780563647305648000,14.593648193359375,0.22835999727249146,0.40463998913764954,3.6818408966064453
1780563647325169000,14.6131689453125,0.3304649889469147,0.36185500025749207,3.4003241062164307
1780563647344691500,14.63269140625,0.5840399861335754,0.44187799096107483,2.717566967010498
1780563647364213000,14.652212890625,0.7282609939575195,0.48378801345825195,2.0900609493255615
1780563647383730400,14.67173046875,0.8798360228538513,0.6790580153465271,1.7096400260925293
1780563647403247400,14.691247314453125,0.7267670035362244,0.8231419920921326,1.5078049898147583
1780563647422768000,14.71076806640625,0.39396101236343384,0.8249409794807434,1.3967820405960083
1780563647442290200,14.730290283203125,0.1644430011510849,0.9594780206680298,1.2571489810943604
1780563647461813000,14.74981298828125,0.00419900007545948,1.1342509984970093,1.0461980104446411
1780563647481334800,14.769334716796875,0.0437219999730587,1.4022279977798462,0.8445249795913696
1780563647500853500,14.788853515625,0.12378399819135666,1.770035982131958,0.6944800019264221
1780563647520373200,14.808373291015625,0.16805699467658997,2.084460973739624,0.5366290211677551
1780563647539893000,14.82789306640625,0.1664779931306839,2.2435050010681152,0.37287500500679016
1780563647559414300,14.847414306640625,0.1501920074224472,2.373538017272949,0.1547590047121048
1780563647578933500,14.86693359375,0.05540100112557411,2.4186699390411377,-0.16867099702358246
1780563647598456300,14.886456298828126,-0.10821700096130371,2.3951239585876465,-0.45830899477005005
1780563647617981700,14.905981689453125,-0.2730970084667206,2.383236885070801,-0.6915810108184814
1780563647637503000,14.9255029296875,-0.40047699213027954,2.388598918914795,-0.896282970905304
1780563647657023500,14.9450234375,-0.46490800380706787,2.356890916824341,-1.0378609895706177
1780563647676547000,14.964547119140626,-0.4407700002193451,2.33319091796875,-1.1858500242233276
1780563647696073200,14.9840732421875,-0.39454901218414307,2.24872088432312,-1.3975069522857666
1780563647715596300,15.00359619140625,-0.3692930042743683,2.091284990310669,-1.5459189414978027
1780563647735118300,15.023118408203125,-0.24286800622940063,1.9840600490570068,-1.575124979019165
1780563647754637300,15.04263720703125,-0.24286800622940063,1.9840600490570068,-1.575124979019165
1780563647774156000,15.062156005859375,0.22275300323963165,1.9021910429000854,-1.532127022743225
1780563647793674800,15.0816748046875,0.31254199147224426,1.8205879926681519,-1.5597549676895142
1780563647813194200,15.1011943359375,0.2617020010948181,1.7392770051956177,-1.628337025642395
1780563647832718300,15.12071826171875,0.04029000177979469,1.6581939458847046,-1.6653579473495483
1780563647852239600,15.140239501953126,0.04029000177979469,1.6581939458847046,-1.6653579473495483
1780563647871757600,15.159757568359375,-0.22953100502490997,1.458920955657959,-1.1161099672317505
1780563647891281200,15.17928125,-0.1600549966096878,1.3243969678878784,-0.7957559823989868
1780563647910808800,15.198808837890626,-0.01603800058364868,1.1572020053863525,-0.6234650015830994
1780563647930333700,15.218333740234375,0.04315200075507164,1.0545909404754639,-0.6990659832954407
1780563647949856300,15.237856201171875,0.012407000176608562,1.0483880043029785,-0.8552089929580688
1780563647969374500,15.25737451171875,-0.02732199989259243,1.0583089590072632,-0.8702520132064819
1780563647988893000,15.276892822265625,-0.097291000187397,0.9998810291290283,-0.7344110012054443
1780563648008410400,15.296410400390625,-0.09973099827766418,0.8415430188179016,-0.4389899969100952
1780563648027927800,15.315927734375,-0.06597600132226944,0.582643985748291,-0.13029199838638306
1780563648047446500,15.335446533203125,-0.08530700206756592,0.35601499676704407,-0.04025699943304062
1780563648066966000,15.354966064453125,-0.11790800094604492,0.28166699409484863,-0.12353499978780746
1780563648086490400,15.374490478515625,-0.08288799971342087,0.3287909924983978,-0.2002280056476593
1780563648106010600,15.3940107421875,0.026652999222278595,0.3291189968585968,-0.2358980029821396
1780563648125526800,15.41352685546875,0.12862500548362732,0.25221601128578186,-0.19263799488544464
1780563648145043200,15.433043212890626,0.17491500079631805,0.12125200033187866,-0.0624609999358654
1780563648164558000,15.45255810546875,0.09236399829387665,-0.06996399909257889,0.029357999563217163
1780563648184078300,15.472078369140625,-0.10618799924850464,-0.16389299929141998,-0.0039820000529289246
1780563648203602000,15.491601806640626,-0.31782200932502747,-0.1278260052204132,-0.14761799573898315
1780563648223126500,15.51112646484375,-0.4535369873046875,-0.028033999726176262,-0.31536999344825745
1780563648242655200,15.5306552734375,-0.47431400418281555,0.04443100094795227,-0.3920919895172119
1780563648262183200,15.55018310546875,-0.39313000440597534,0.07121499627828598,-0.34759101271629333
1780563648281707300,15.569707275390625,-0.2879819869995117,0.0053170002065598965,-0.2699649930000305
1780563648301229600,15.5892294921875,-0.2159069925546646,-0.08053500205278397,-0.26261699199676514
1780563648320752400,15.60875244140625,-0.19296100735664368,-0.019801000133156776,-0.3480969965457916
1780563648340277000,15.628277099609376,-0.2981629967689514,0.06334800273180008,-0.4685649871826172
1780563648359800300,15.64780029296875,-0.4785119891166687,0.15739600360393524,-0.4239870011806488
1780563648379320600,15.667320556640625,-0.6441100239753723,0.22287200391292572,-0.21043099462985992
1780563648398836500,15.68683642578125,-0.7170659899711609,0.1515370011329651,-0.015946999192237854
1780563648418357000,15.70635693359375,-0.6654289960861206,0.08735699951648712,0.08006499707698822
1780563648437880600,15.725880615234376,-0.5189800262451172,0.0812309980392456,0.01211399957537651
1780563648457402600,15.745402587890625,-0.4147140085697174,0.08065199851989746,-0.12059800326824188
1780563648476925400,15.764925537109375,-0.382515013217926,0.09789899736642838,-0.12479899823665619
1780563648496449500,15.784449462890626,-0.3882710039615631,0.08002900332212448,0.0636570006608963
1780563648515973400,15.803973388671874,-0.3380509912967682,0.01091499999165535,0.38504400849342346
1780563648535491800,15.823491943359375,-0.18799899518489838,-0.048082999885082245,0.612043023109436
1780563648555007000,15.843007080078126,-0.0334479995071888,-0.08834200352430344,0.6684120297431946
1780563648574526500,15.8625263671875,-0.0334479995071888,-0.08834200352430344,0.6684120297431946
1780563648594047000,15.882046875,0.08021499961614609,-0.0916529968380928,0.512935996055603
1780563648613566500,15.90156640625,-0.005462000146508217,-0.13619300723075867,0.5037940144538879
1780563648633087700,15.921087646484375,-0.005462000146508217,-0.13619300723075867,0.5037940144538879
1780563648652610600,15.940610595703125,-0.0011879999656230211,-0.2605549991130829,0.6131449937820435
1780563648672132400,15.96013232421875,0.07884500175714493,-0.22295500338077545,0.6062150001525879
1780563648691649800,15.97964990234375,0.07884500175714493,-0.22295500338077545,0.6062150001525879
1780563648711168300,15.999168212890625,0.08650500327348709,-0.06605800241231918,0.6506929993629456
1780563648730688000,16.01868798828125,0.0020940001122653484,-0.007170000113546848,0.6878420114517212
1780563648750208300,16.038208251953126,-0.024484999477863312,-0.04588500037789345,0.7205410003662109
1780563648769730000,16.05772998046875,0.05283699929714203,-0.12457100301980972,0.7214249968528748
1780563648789251000,16.0772509765625,0.18810899555683136,-0.18314699828624725,0.6819649934768677
1780563648808773000,16.096773193359375,0.25830599665641785,-0.22073699533939362,0.6507310271263123
1780563648828297700,16.116297607421874,0.20839299261569977,-0.20527100563049316,0.601410984992981
1780563648847820000,16.135820068359376,0.049359001219272614,-0.17998500168323517,0.5448279976844788
1780563648867338200,16.155338134765625,-0.05478600040078163,-0.1585649996995926,0.503957986831665
1780563648886854400,16.1748544921875,-0.025004999712109566,-0.12314800173044205,0.47498100996017456
1780563648906366000,16.194365966796877,0.0757490023970604,-0.10129299759864807,0.44318199157714844
1780563648925880800,16.213880859375,0.15052999556064606,-0.08226899802684784,0.4010069966316223
1780563648945401300,16.2334013671875,0.11837799847126007,-0.053279001265764236,0.3308190107345581
1780563648964919800,16.252919921875,-0.011656999588012695,-0.04808099940419197,0.23445700109004974
1780563648984436500,16.2724365234375,-0.13551899790763855,-0.036382000893354416,0.144118994474411
1780563649003955000,16.291954833984374,-0.1591780036687851,-0.015116999857127666,0.07871600240468979
1780563649023475200,16.31147509765625,-0.0886320024728775,-0.03292899951338768,0.05582299828529358
1780563649042995500,16.330995361328124,0.007098999805748463,-0.046998001635074615,0.06342700123786926
1780563649062516000,16.350515869140626,0.19098900258541107,-0.05854399874806404,0.05923900008201599
1780563649082037000,16.370037109375,0.3020060062408447,-0.08281099796295166,0.04766099900007248
1780563649101554400,16.389554443359376,0.07913900166749954,0.004298000130802393,0.014417000114917755
