time,seconds_elapsed,z,y,x
1780563633181300200,0.46930029296875,0.28984999656677246,-0.2727999985218048,-1.2208625078201294
1780563633191066600,0.479066650390625,0.3679499924182892,-0.41071251034736633,-2.00103759765625
1780563633210596900,0.498596923828125,0.38225001096725464,-0.5163124799728394,-2.577850103378296
1780563633230122500,0.51812255859375,0.3049750030040741,-0.559624969959259,-2.8682498931884766
1780563633249645600,0.5376455078125,0.15468749403953552,-0.5414749979972839,-2.9484124183654785
1780563633269165000,0.5571650390625,-0.007012499962002039,-0.478362500667572,-2.8759500980377197
1780563633288685800,0.576685791015625,-0.1190750002861023,-0.39820000529289246,-2.705587387084961
1780563633308215800,0.5962158203125,-0.17586250603199005,-0.318450003862381,-2.4865500926971436
1780563633327747000,0.6157470703125,-0.20845000445842743,-0.2410375028848648,-2.2567875385284424
1780563633347271700,0.635271728515625,-0.23388749361038208,-0.17063750326633453,-2.03582501411438
1780563633366799600,0.654799560546875,-0.24186250567436218,-0.12251249700784683,-1.8299875259399414
1780563633386332200,0.674332275390625,-0.20652499794960022,-0.11742500215768814,-1.6377625465393066
1780563633405865000,0.693864990234375,-0.10051249712705612,-0.1685750037431717,-1.4521374702453613
1780563633425395700,0.713395751953125,0.06159999966621399,-0.2576749920845032,-1.267199993133545
1780563633444929300,0.73292919921875,0.20281249284744263,-0.3278000056743622,-1.0870749950408936
1780563633464466200,0.752466064453125,0.23319999873638153,-0.31817498803138733,-0.9242749810218811
1780563633483999000,0.7719990234375,0.14066250622272491,-0.22343750298023224,-0.7886999845504761
1780563633503527000,0.79152685546875,0.028599999845027924,-0.1153625026345253,-0.6766374707221985
1780563633523053300,0.81105322265625,0.04235000163316727,-0.09391249716281891,-0.5747500061988831
1780563633542580700,0.830580810546875,0.2283875048160553,-0.196212500333786,-0.4727250039577484
1780563633562109400,0.850109375,0.47946250438690186,-0.35694998502731323,-0.3726249933242798
1780563633581640700,0.869640625,0.6377249956130981,-0.4723125100135803,-0.28380000591278076
1780563633601170700,0.889170654296875,0.6476249694824219,-0.4977499842643738,-0.21078750491142273
1780563633620700000,0.908699951171875,0.6003249883651733,-0.47987499833106995,-0.14602500200271606
1780563633640228600,0.928228515625,0.6164125204086304,-0.48537498712539673,-0.08057499676942825
1780563633659754000,0.94775390625,0.7048249840736389,-0.5168625116348267,-0.01952499896287918
1780563633679279600,0.967279541015625,0.7855374813079834,-0.5248374938964844,0.023375000804662704
1780563633698810600,0.986810546875,0.8002499938011169,-0.4750624895095825,0.03973750025033951
1780563633718341400,1.00634130859375,0.775362491607666,-0.38554999232292175,0.03437500074505806
1780563633737870000,1.0258701171875,0.7566624879837036,-0.2905375063419342,0.01759999990463257
1780563633757398800,1.045398681640625,0.7272375226020813,-0.18947499990463257,-0.004124999977648258
1780563633776925700,1.06492578125,0.6319500207901001,-0.05843750014901161,-0.02433750033378601
1780563633796452400,1.084452392578125,0.4511374831199646,0.1097249984741211,-0.03437500074505806
1780563633815978800,1.103978759765625,0.23801249265670776,0.28338751196861267,-0.028875000774860382
1780563633835505000,1.1235048828125,0.06132499873638153,0.42198750376701355,-0.013062499463558197
1780563633855029800,1.14302978515625,-0.06943749636411667,0.5207124948501587,-0.0015124999918043613
1780563633874553300,1.16255322265625,-0.06943749636411667,0.5207124948501587,-0.0015124999918043613
1780563633894077400,1.182077392578125,-0.19538749754428864,0.607200026512146,-0.007562499959021807
1780563633913602300,1.201602294921875,-0.5183749794960022,0.8208749890327454,-0.0541750006377697
1780563633933127400,1.22112744140625,-0.6729249954223633,0.9266124963760376,-0.06379999965429306
1780563633952650000,1.24064990234375,-0.6729249954223633,0.9266124963760376,-0.06379999965429306
1780563633972173300,1.26017333984375,-0.9383000135421753,1.0907875299453735,-0.038224998861551285
1780563633991700000,1.279699951171875,-0.9383000135421753,1.0907875299453735,-0.038224998861551285
1780563634011223300,1.299223388671875,-1.0698875188827515,1.1632499694824219,-0.018837500363588333
1780563634030747000,1.318746826171875,-1.1495000123977661,1.2053250074386597,0.0017874999903142452
1780563634050271200,1.338271240234375,-1.1457874774932861,1.202162504196167,0.02681249938905239
1780563634069795800,1.3577958984375,-1.0833624601364136,1.1653125286102295,0.05857500061392784
1780563634089318100,1.377318115234375,-1.0051250457763672,1.1155375242233276,0.09088750183582306
1780563634108840000,1.39683984375,-0.8912749886512756,1.0364749431610107,0.10793749988079071
1780563634128363500,1.416363525390625,-0.6723750233650208,0.8863250017166138,0.09569999575614929
1780563634147886000,1.435885986328125,-0.3394874930381775,0.6661875247955322,0.057475000619888306
1780563634167411000,1.455410888671875,0.01718750037252903,0.4328500032424927,0.01223750039935112
1780563634186936600,1.4749365234375,0.27912500500679016,0.2535499930381775,-0.01746249943971634
1780563634206462500,1.49446240234375,0.41635000705718994,0.14038750529289246,-0.023787500336766243
1780563634225988400,1.51398828125,0.5186499953269958,0.03506249934434891,-0.02241249941289425
1780563634245512700,1.5335126953125,0.7004249691963196,-0.1303499937057495,-0.037950001657009125
1780563634265037000,1.553037109375,0.989175021648407,-0.3643749952316284,-0.07590000331401825
1780563634284563700,1.572563720703125,1.282462477684021,-0.5952374935150146,-0.1116499975323677
1780563634304093400,1.592093505859375,1.4060750007629395,-0.7084000110626221,-0.1060125008225441
1780563634323624000,1.6116240234375,1.262524962425232,-0.6396499872207642,-0.03904999792575836
1780563634343151000,1.631151123046875,0.9202874898910522,-0.43188750743865967,0.07342500239610672
1780563634362678000,1.650677978515625,0.5618249773979187,-0.20817500352859497,0.18603749573230743
1780563634382207700,1.670207763671875,0.3686375021934509,-0.09707500040531158,0.25066250562667847
1780563634401734100,1.689734130859375,0.4124999940395355,-0.15097500383853912,0.24860000610351562
1780563634421259000,1.709259033203125,0.6287875175476074,-0.3205125033855438,0.2012999951839447
1780563634440786200,1.7287861328125,0.8505749702453613,-0.4824874997138977,0.15496249496936798
1780563634460312300,1.748312255859375,0.902412474155426,-0.510949969291687,0.15070000290870667
1780563634479835400,1.76783544921875,0.7320500016212463,-0.3735874891281128,0.196212500333786
1780563634499357400,1.787357421875,0.454987496137619,-0.15757499635219574,0.2624875009059906
1780563634518880000,1.8068798828125,0.25671249628067017,0.0010999999940395355,0.30483749508857727
1780563634538403300,1.8264033203125,0.22605000436306,0.03437500074505806,0.29906249046325684
1780563634557924400,1.84592431640625,0.2985124886035919,-0.0170499999076128,0.2611125111579895
1780563634577444900,1.86544482421875,0.3404499888420105,-0.0625625029206276,0.22948749363422394
1780563634596968400,1.884968505859375,0.2579500079154968,-0.035750001668930054,0.2320999950170517
1780563634616497400,1.904497314453125,0.0644875019788742,0.05843750014901161,0.2626250088214874
1780563634636026000,1.924026123046875,-0.142037495970726,0.16376249492168427,0.2890250086784363
1780563634655552500,1.943552490234375,-0.2677125036716461,0.2287999987602234,0.2844874858856201
1780563634675082800,1.963082763671875,-0.3143250048160553,0.2591874897480011,0.25478750467300415
1780563634694615000,1.982614990234375,-0.39160001277923584,0.32120001316070557,0.23485000431537628
1780563634714144800,2.002144775390625,-0.6258999705314636,0.4786374866962433,0.255887508392334
1780563634733681400,2.021681396484375,-0.6258999705314636,0.4786374866962433,0.255887508392334
1780563634753217000,2.041217041015625,-0.6258999705314636,0.4786374866962433,0.255887508392334
1780563634772745500,2.060745361328125,-1.4669874906539917,0.9459999799728394,0.3760625123977661
1780563634792274000,2.08027392578125,-1.826550006866455,1.0133750438690186,0.3484250009059906
1780563634811806500,2.099806396484375,-1.826550006866455,1.0133750438690186,0.3484250009059906
1780563634831337500,2.11933740234375,-1.8174749612808228,0.9354124665260315,0.28943750262260437
1780563634850861600,2.138861572265625,-1.789562463760376,0.869825005531311,0.23375000059604645
1780563634870385400,2.158385498046875,-1.7279624938964844,0.8122124671936035,0.17613749206066132
1780563634889911600,2.17791162109375,-1.5860625505447388,0.7298499941825867,0.1106875017285347
1780563634909442000,2.197442138671875,-1.4078625440597534,0.6333249807357788,0.05472499877214432
1780563634928968200,2.21696826171875,-1.288237452507019,0.562375009059906,0.03135000169277191
1780563634948491000,2.236490966796875,-1.2645875215530396,0.5377625226974487,0.03918749839067459
1780563634968016400,2.256016357421875,-1.301574945449829,0.5421624779701233,0.05087500065565109
1780563634987543300,2.275543212890625,-1.3261874914169312,0.5257999897003174,0.035750001668930054
1780563635007070500,2.295070556640625,-1.2597750425338745,0.4347749948501587,-0.022549999877810478
1780563635026603000,2.31460302734375,-1.056962490081787,0.24997499585151672,-0.11316250264644623
1780563635046137300,2.334137451171875,-0.7717875242233276,0.028737500309944153,-0.19676250219345093
1780563635065667600,2.35366748046875,-0.5784624814987183,-0.1073874980211258,-0.22783750295639038
1780563635085195800,2.37319580078125,-0.6104999780654907,-0.08153750002384186,-0.196212500333786
1780563635104719400,2.39271923828125,-0.815512478351593,0.06366249918937683,-0.13859999179840088
1780563635124240100,2.412240234375,-1.0249249935150146,0.2176624983549118,-0.10422500222921371
1780563635143766000,2.43176611328125,-1.0957374572753906,0.2866874933242798,-0.12196250259876251
1780563635163295500,2.45129541015625,-0.9776250123977661,0.23017500340938568,-0.19016249477863312
1780563635182825000,2.470824951171875,-0.6953374743461609,0.057887498289346695,-0.28476250171661377
1780563635202354200,2.490354248046875,-0.30277499556541443,-0.18603749573230743,-0.37400001287460327
1780563635221881600,2.509881591796875,0.12292499840259552,-0.4291374981403351,-0.42198750376701355
1780563635241407500,2.529407470703125,0.503250002861023,-0.6067875027656555,-0.4100250005722046
1780563635260938200,2.548938232421875,0.9074999690055847,-0.8017625212669373,-0.3718000054359436
1780563635280470500,2.568470458984375,1.5219874382019043,-1.0813000202178955,-0.27252501249313354
1780563635300000300,2.588000244140625,2.3867249488830566,-1.6660875082015991,-0.24695000052452087
1780563635319526400,2.6075263671875,3.244450092315674,-2.464824914932251,-0.3258749842643738
1780563635339053300,2.62705322265625,3.717449903488159,-2.977837562561035,-0.32903748750686646
1780563635358582500,2.64658251953125,3.678537368774414,-3.0775249004364014,-0.2686749994754791
1780563635378110200,2.666110107421875,3.2777249813079834,-2.8637125492095947,-0.19552500545978546
1780563635397637600,2.6856376953125,2.7436749935150146,-2.5132250785827637,-0.1588124930858612
1780563635417165300,2.705165283203125,2.254312515258789,-2.177725076675415,-0.1732500046491623
1780563635436693500,2.724693603515625,1.8433250188827515,-1.8855375051498413,-0.2194499969482422
1780563635456220400,2.744220458984375,1.449662446975708,-1.576300024986267,-0.2741749882698059
1780563635475742500,2.763742431640625,1.0443124771118164,-1.2200374603271484,-0.3312374949455261
1780563635495264800,2.7832646484375,0.7001500129699707,-0.9182249903678894,-0.38417500257492065
1780563635514789000,2.8027890625,0.5297874808311462,-0.8427374958992004,-0.4057624936103821
1780563635534314500,2.822314453125,0.5297874808311462,-0.8427374958992004,-0.4057624936103821
1780563635553840000,2.841840087890625,0.5288249850273132,-1.2071125507354736,-0.27114999294281006
1780563635573363200,2.86136328125,0.3445749878883362,-1.1155375242233276,-0.19318750500679016
1780563635592887800,2.8808876953125,0.3445749878883362,-1.1155375242233276,-0.19318750500679016
1780563635612414500,2.90041455078125,-0.512737512588501,-0.17476250231266022,-0.14162500202655792
1780563635631940000,2.919940185546875,-0.512737512588501,-0.17476250231266022,-0.14162500202655792
1780563635651463200,2.939463134765625,-0.7942000031471252,0.08662500232458115,-0.13282500207424164
1780563635670983700,2.958983642578125,-0.8032749891281128,0.005362499970942736,-0.03217500075697899
1780563635690505500,2.97850537109375,-0.651199996471405,-0.23732499778270721,0.10422500222921371
1780563635710026200,2.998026123046875,-0.48124998807907104,-0.4292750060558319,0.19373749196529388
1780563635729546500,3.01754638671875,-0.35612499713897705,-0.4945875108242035,0.20102499425411224
1780563635749071600,3.037071533203125,-0.23498749732971191,-0.5013250112533569,0.15991249680519104
1780563635768600000,3.05660009765625,-0.03437500074505806,-0.5684249997138977,0.13942499458789825
1780563635788128000,3.0761279296875,0.24969999492168427,-0.7442874908447266,0.18136249482631683
1780563635807649300,3.095649169921875,0.49431249499320984,-0.932937502861023,0.24969999492168427
1780563635827171300,3.11517138671875,0.5682874917984009,-0.9886249899864197,0.2685374915599823
1780563635846696700,3.13469677734375,0.4786374866962433,-0.8652874827384949,0.2046000063419342
1780563635866219800,3.1542197265625,0.3244999945163727,-0.6245250105857849,0.0882750004529953
1780563635885742800,3.173742919921875,0.1704999953508377,-0.34540000557899475,-0.030799999833106995
1780563635905269800,3.193269775390625,0.035612501204013824,-0.08236250281333923,-0.1200374960899353
1780563635924795000,3.212794921875,-0.07837499678134918,0.14918750524520874,-0.1765500009059906
1780563635944319700,3.23231982421875,-0.16830000281333923,0.36258751153945923,-0.21546250581741333
1780563635963846700,3.2518466796875,-0.22123749554157257,0.5698000192642212,-0.24488750100135803
1780563635983375000,3.271375,-0.2457125037908554,0.7797625064849854,-0.2653749883174896
1780563636002908400,3.290908447265625,-0.2817375063896179,1.0030624866485596,-0.2784374952316284
1780563636022445600,3.310445556640625,-0.34636250138282776,1.2253999710083008,-0.2854500114917755
1780563636041977900,3.329977783203125,-0.39943748712539673,1.4030499458312988,-0.28751251101493835
1780563636061503200,3.349503173828125,-0.38321250677108765,1.4999874830245972,-0.28847500681877136
1780563636081026000,3.369026123046875,-0.3091000020503998,1.5443999767303467,-0.2946625053882599
1780563636100551400,3.388551513671875,-0.29548749327659607,1.6398249864578247,-0.30855000019073486
1780563636120078300,3.408078369140625,-0.4791874885559082,1.891724944114685,-0.3185875117778778
1780563636139606800,3.427606689453125,-0.9013124704360962,2.3273251056671143,-0.30098751187324524
1780563636159134700,3.447134765625,-1.5379375219345093,2.925724983215332,-0.23333749175071716
1780563636178661600,3.46666162109375,-2.4003374576568604,3.6949000358581543,-0.09116250276565552
1780563636198187800,3.486187744140625,-3.453587532043457,4.594287395477295,0.15358750522136688
1780563636217714200,3.505714111328125,-4.399587631225586,5.357137680053711,0.48399999737739563
1780563636237240800,3.52524072265625,-4.746775150299072,5.543862342834473,0.785812497138977
1780563636256765200,3.54476513671875,-4.311450004577637,4.972962379455566,0.9245499968528748
1780563636276287200,3.564287353515625,-3.3874499797821045,3.9088499546051025,0.8706499934196472
1780563636295805000,3.583804931640625,-2.3655500411987305,2.756462574005127,0.7154124975204468
1780563636315326200,3.603326171875,-1.5160750150680542,1.8240749835968018,0.5850625038146973
1780563636334852400,3.622852294921875,-0.9754250049591064,1.2395625114440918,0.5450500249862671
1780563636354378000,3.6423779296875,-0.9754250049591064,1.2395625114440918,0.5450500249862671
1780563636373910000,3.661909912109375,-0.7548750042915344,0.9612625241279602,0.5739250183105469
1780563636393443300,3.681443359375,-0.7325999736785889,0.8167499899864197,0.5860249996185303
1780563636412967000,3.700966796875,-0.7261375188827515,0.6136624813079834,0.5035250186920166
1780563636432486700,3.720486572265625,-0.643637478351593,0.3053874969482422,0.329862505197525
1780563636452004000,3.740004150390625,-0.5406500101089478,-0.14891250431537628,0.040699999779462814
1780563636471525000,3.759525146484375,-0.5406500101089478,-0.14891250431537628,0.040699999779462814
1780563636491047200,3.779047119140625,-0.6411625146865845,-0.14492499828338623,0.02502499893307686
1780563636510569700,3.79856982421875,-0.7471749782562256,-0.0859375,0.04839999973773956
1780563636530093800,3.81809375,-0.7730249762535095,-0.06159999966621399,0.05871250107884407
1780563636549617200,3.8376171875,-0.6825500130653381,-0.11701250076293945,0.02694999985396862
1780563636569138200,3.85713818359375,-0.4347749948501587,-0.29260000586509705,-0.0518375001847744
1780563636588655600,3.876655517578125,0.04592499881982803,-0.6476249694824219,-0.16568750143051147
1780563636608177200,3.89617724609375,0.8188124895095825,-1.226775050163269,-0.29163751006126404
1780563636627702800,3.915702880859375,1.8508875370025635,-2.002549886703491,-0.403425008058548
1780563636647226600,3.9352265625,2.9657375812530518,-2.8353874683380127,-0.47561249136924744
1780563636666753000,3.9547529296875,3.8950998783111572,-3.515737533569336,-0.49211248755455017
1780563636686283000,3.974282958984375,4.402887344360352,-3.8581125736236572,-0.4529249966144562
1780563636705809400,3.993809326171875,4.462975025177002,-3.8351500034332275,-0.37619999051094055
1780563636725330200,4.013330078125,4.249849796295166,-3.5853123664855957,-0.29260000586509705
1780563636744848000,4.032847900390625,3.95381236076355,-3.2841875553131104,-0.23319999873638153
1780563636764363500,4.052363525390625,3.6781249046325684,-3.0420498847961426,-0.20803749561309814
1780563636783881700,4.0718818359375,3.4200375080108643,-2.858212471008301,-0.19593749940395355
1780563636803402200,4.09140234375,3.1286749839782715,-2.6610374450683594,-0.164450004696846
1780563636822923000,4.110923095703125,2.7768125534057617,-2.3900249004364014,-0.10573749989271164
1780563636842442500,4.1304423828125,2.403637409210205,-2.0630500316619873,-0.04386249929666519
1780563636861963800,4.1499638671875,2.0876624584198,-1.7606874704360962,-0.010724999941885471
1780563636881482000,4.16948193359375,1.8720624446868896,-1.5442625284194946,-0.01732499897480011
1780563636900999200,4.188999267578125,1.7268625497817993,-1.3994749784469604,-0.04922499880194664
1780563636920521200,4.208521240234375,1.5757499933242798,-1.2561999559402466,-0.08662500232458115
1780563636940043300,4.228043212890625,1.3668874502182007,-1.0642499923706055,-0.12443749606609344
1780563636959571000,4.247571044921875,1.1054999828338623,-0.83160001039505,-0.1691250056028366
1780563636979100000,4.267099853515625,0.8108375072479248,-0.5880874991416931,-0.21793749928474426
1780563636998628600,4.286628662109375,0.47107499837875366,-0.3310999870300293,-0.25203749537467957
1780563637018155000,4.306155029296875,0.06902500241994858,-0.04372499883174896,-0.25148749351501465
1780563637037678000,4.325677978515625,-0.3669874966144562,0.2502500116825104,-0.21518750488758087
1780563637057203500,4.345203369140625,-0.7385125160217285,0.46035000681877136,-0.1639000028371811
1780563637076725800,4.364725830078125,-0.9220749735832214,0.47341248393058777,-0.12168750166893005
1780563637096246000,4.38424609375,-0.8823375105857849,0.259737491607666,-0.09955000132322311
1780563637115768300,4.403768310546875,-0.7115625143051147,-0.08538749814033508,-0.0919874981045723
1780563637135291600,4.423291748046875,-0.5428500175476074,-0.414837509393692,-0.0873124971985817
1780563637154818600,4.442818603515625,-0.4402749836444855,-0.6326375007629395,-0.07590000331401825
1780563637174345700,4.462345703125,-0.4402749836444855,-0.6326375007629395,-0.07590000331401825
1780563637193872600,4.48187255859375,-0.40053749084472656,-0.7114250063896179,-0.057475000619888306
1780563637213400600,4.501400634765625,-0.42432498931884766,-0.6506500244140625,-0.04235000163316727
1780563637232926500,4.520926513671875,-0.6393749713897705,-0.2569875121116638,-0.03698749840259552
1780563637252452000,4.5404521484375,-0.6393749713897705,-0.2569875121116638,-0.03698749840259552
1780563637271975200,4.55997509765625,-0.9037874937057495,0.20253749191761017,-0.06572499871253967
1780563637291492900,4.579492919921875,-0.9037874937057495,0.20253749191761017,-0.06572499871253967
1780563637311014100,4.59901416015625,-1.088724970817566,0.5656750202178955,-0.13942499458789825
1780563637330542600,4.61854248046875,-1.3424124717712402,1.0803375244140625,-0.2583625018596649
1780563637350070800,4.63807080078125,-1.6253875494003296,1.6740624904632568,-0.3852750062942505
1780563637369593600,4.657593505859375,-1.3491499423980713,2.1804749965667725,-0.31349998712539673
1780563637389114400,4.6771142578125,-1.0441750288009644,2.4733500480651855,-0.2367749959230423
1780563637408636700,4.69663671875,-1.0942250490188599,2.4894375801086426,-0.30992498993873596
1780563637428162800,4.716162841796875,-0.8652874827384949,2.243037462234497,-0.3240875005722046
1780563637447691500,4.73569140625,-0.49912500381469727,1.8693125247955322,-0.296037495136261
1780563637467219500,4.755219482421875,-0.16321249306201935,1.531612515449524,-0.23883749544620514
1780563637486743600,4.77474365234375,0.007974999956786633,1.3667500019073486,-0.1667875051498413
1780563637506267600,4.794267578125,-0.19263750314712524,1.5877125263214111,-0.06971249729394913
1780563637525791700,4.813791748046875,-1.0110374689102173,2.4366374015808105,0.113987497985363
1780563637545311000,4.83331103515625,-2.3768250942230225,3.8262124061584473,0.45938751101493835
1780563637564833800,4.852833740234375,-3.6323375701904297,5.082825183868408,0.9242749810218811
1780563637584361500,4.872361572265625,-4.0430498123168945,5.449399948120117,1.286312460899353
1780563637603884500,4.891884521484375,-3.656125068664551,4.938175201416016,1.366337537765503
1780563637623408400,4.911408447265625,-3.031325101852417,4.093237400054932,1.1966625452041626
1780563637642934500,4.9309345703125,-2.590637445449829,3.3941874504089355,0.9662125110626221
1780563637662463000,4.950462890625,-2.4132626056671143,3.0230748653411865,0.8629499673843384
1780563637681993000,4.969992919921875,-2.272737503051758,2.796750068664551,0.8922374844551086
1780563637701520600,4.989520751953125,-1.9273375272750854,2.3909873962402344,0.903237521648407
1780563637721046500,5.009046630859375,-1.3923250436782837,1.6594874858856201,0.7448375225067139
1780563637740569300,5.0285693359375,-0.858412504196167,0.7317749857902527,0.39118748903274536
1780563637760090600,5.048090576171875,-0.5054500102996826,-0.09102500230073929,-0.03203750029206276
1780563637779611400,5.067611328125,-0.47107499837875366,-0.46158748865127563,-0.3148750066757202
1780563637799136000,5.087135986328125,-0.7405750155448914,-0.2513499855995178,-0.3162499964237213
1780563637818665500,5.10666552734375,-0.9319750070571899,0.089649997651577,-0.14066250622272491
1780563637838195700,5.12619580078125,-0.6385499835014343,-0.07699999958276749,-0.04207500070333481
1780563637857717200,5.14571728515625,-0.10188750177621841,-0.8474124670028687,0.015675000846385956
1780563637877240300,5.165240234375,0.5710374712944031,-1.8393374681472778,-0.12086249887943268
1780563637896768500,5.1847685546875,1.196387529373169,-2.5396249294281006,-0.44343748688697815
1780563637916294100,5.204294189453125,1.4042874574661255,-2.6958250999450684,-0.6032124757766724
1780563637935819300,5.2238193359375,1.4518624544143677,-2.5738625526428223,-0.5983999967575073
1780563637955345400,5.243345458984375,1.798087477684021,-2.7251124382019043,-0.4965125024318695
1780563637974874600,5.26287451171875,2.654025077819824,-3.4434125423431396,-0.3636874854564667
1780563637994402000,5.282402099609375,3.675100088119507,-4.398624897003174,-0.23127499222755432
1780563638013927200,5.30192724609375,4.287112712860107,-4.946424961090088,-0.11990000307559967
1780563638033453300,5.321453369140625,4.287112712860107,-4.946424961090088,-0.11990000307559967
1780563638052977000,5.340976806640625,3.9815874099731445,-4.225100040435791,-0.018149999901652336
1780563638072497200,5.3604970703125,3.9815874099731445,-4.225100040435791,-0.018149999901652336
1780563638092017000,5.380016845703125,3.9815874099731445,-4.225100040435791,-0.018149999901652336
1780563638111537000,5.399536865234375,3.226024866104126,-2.9921374320983887,-0.050599999725818634
1780563638131061200,5.419061279296875,2.9214625358581543,-2.6116750240325928,-0.07741250097751617
1780563638150588400,5.43858837890625,2.6394500732421875,-2.339287519454956,-0.08098749816417694
1780563638170112000,5.458112060546875,2.330899953842163,-2.079824924468994,-0.04977500066161156
1780563638189635000,5.477635009765625,1.9787625074386597,-1.7788374423980713,0.007699999958276749
1780563638209158000,5.497157958984375,1.6303374767303467,-1.4782625436782837,0.06778749823570251
1780563638228678700,5.5166787109375,1.3536875247955322,-1.2553750276565552,0.10023749619722366
1780563638248201700,5.53620166015625,1.1533499956130981,-1.110450029373169,0.09157499670982361
1780563638267729000,5.55572900390625,0.9746000170707703,-0.9692375063896179,0.05376249924302101
1780563638287255300,5.57525537109375,0.7771499752998352,-0.7698624730110168,0.009349999949336052
1780563638306778000,5.594778076171875,0.5689749717712402,-0.5181000232696533,-0.028187500312924385
1780563638326296000,5.614296142578125,0.3768875002861023,-0.26743748784065247,-0.057887498289346695
1780563638345814500,5.633814453125,0.20157499611377716,-0.0635249987244606,-0.08249999582767487
1780563638365337000,5.653337158203125,0.020075000822544098,0.07631249725818634,-0.09844999760389328
1780563638384859400,5.672859375,-0.17434999346733093,0.14079999923706055,-0.09377499669790268
1780563638404380200,5.692380126953125,-0.3455374836921692,0.1046374961733818,-0.0648999959230423
1780563638423901000,5.71190087890625,-0.4339500069618225,-0.05004999786615372,-0.023375000804662704
1780563638443423000,5.731423095703125,-0.4118124842643738,-0.28517499566078186,0.01347499992698431
1780563638462946800,5.75094677734375,-0.33192500472068787,-0.4871625006198883,0.03189999982714653
1780563638482467600,5.770467529296875,-0.31418749690055847,-0.5224999785423279,0.023649999871850014
1780563638501988000,5.789988037109375,-0.45100000500679016,-0.3493874967098236,-0.008799999952316284
1780563638521511400,5.809511474609375,-0.6945124864578247,-0.08937499672174454,-0.045237500220537186
1780563638541038600,5.82903857421875,-0.8926500082015991,0.07081250101327896,-0.060224998742341995
1780563638560563200,5.848563232421875,-0.992062509059906,0.13144999742507935,-0.06393750011920929
1780563638580086800,5.868086669921875,-1.1129250526428223,0.30951249599456787,-0.1023000031709671
1780563638599608600,5.887608642578125,-1.381600022315979,0.7680749893188477,-0.19868749380111694
1780563638619129000,5.907129150390625,-1.7679749727249146,1.4231250286102295,-0.31597501039505005
1780563638638649300,5.9266494140625,-2.054800033569336,1.9716124534606934,-0.3768875002861023
1780563638658167300,5.946167236328125,-2.0198750495910645,2.1495375633239746,-0.3381125032901764
1780563638677689600,5.965689697265625,-1.6543999910354614,1.9423249959945679,-0.22714999318122864
1780563638697211600,5.985211669921875,-1.153212547302246,1.5520999431610107,-0.1106875017285347
1780563638716732200,6.004732177734375,-0.7046874761581421,1.199275016784668,-0.04166249930858612
1780563638736257500,6.024257568359375,-0.3558500111103058,0.9739124774932861,-0.03478749841451645
1780563638755783700,6.04378369140625,-0.08676250278949738,0.8684499859809875,-0.07947500050067902
1780563638775308800,6.063308837890625,0.10779999941587448,0.8442500233650208,-0.14932499825954437
1780563638794835700,6.082835693359375,0.21353749930858612,0.8676249980926514,-0.20446249842643738
1780563638814365200,6.102365234375,0.21353749930858612,0.8676249980926514,-0.20446249842643738
1780563638833894400,6.121894287109375,0.22123749554157257,0.9314249753952026,-0.20363749563694
1780563638853419300,6.141419189453125,-0.011687500402331352,1.210824966430664,-0.1163249984383583
1780563638872943900,6.16094384765625,-1.9252749681472778,3.239224910736084,0.42239999771118164
1780563638892469800,6.1804697265625,-1.9252749681472778,3.239224910736084,0.42239999771118164
1780563638911991300,6.1999912109375,-4.0020751953125,5.233250141143799,1.284387469291687
1780563638931514600,6.2195146484375,-4.0020751953125,5.233250141143799,1.284387469291687
1780563638951044600,6.239044677734375,-4.184262275695801,5.299112319946289,1.568737506866455
1780563638970571500,6.258571533203125,-3.9484500885009766,4.945462703704834,1.6926250457763672
1780563638990099700,6.278099609375,-3.4894750118255615,4.384049892425537,1.681762456893921
1780563639009629000,6.29762890625,-2.8492748737335205,3.6320624351501465,1.547700047492981
1780563639029157600,6.31715771484375,-2.0506749153137207,2.6608998775482178,1.2897499799728394
1780563639048684500,6.3366845703125,-1.2273249626159668,1.5907374620437622,0.944350004196167
1780563639068206800,6.356206787109375,-0.5515124797821045,0.6391000151634216,0.5850625038146973
1780563639087731700,6.375731689453125,-0.14011250436306,-0.00989999994635582,0.29356250166893005
1780563639107256300,6.39525634765625,0.010449999943375587,-0.32147499918937683,0.11233749985694885
1780563639126779400,6.414779296875,-0.028049999848008156,-0.3760625123977661,0.032999999821186066
1780563639146299400,6.43429931640625,-0.13942499458789825,-0.3330250084400177,-0.0004124999977648258
1780563639165823000,6.453822998046875,-0.17613749206066132,-0.39160001277923584,-0.0719124972820282
1780563639185348400,6.473348388671875,-0.06572499871253967,-0.6335999965667725,-0.23003749549388885
1780563639204870100,6.4928701171875,0.1691250056028366,-0.9916499853134155,-0.4525125026702881
1780563639224391700,6.5123916015625,0.47244998812675476,-1.3451625108718872,-0.6663249731063843
1780563639243915500,6.53191552734375,0.8570374846458435,-1.6667749881744385,-0.8091874718666077
1780563639263442000,6.55144189453125,1.388200044631958,-2.0330750942230225,-0.8650124669075012
1780563639282962400,6.57096240234375,2.084087371826172,-2.5119874477386475,-0.8582749962806702
1780563639302482200,6.590482177734375,2.9059250354766846,-3.1190500259399414,-0.8251374959945679
1780563639322004000,6.61000390625,3.7665374279022217,-3.7958250045776367,-0.7837499976158142
1780563639341523200,6.629523193359375,4.476312637329102,-4.367412567138672,-0.7268249988555908
1780563639361040400,6.649040283203125,4.808237552642822,-4.614912509918213,-0.6425374746322632
1780563639380559000,6.66855908203125,4.723537445068359,-4.480575084686279,-0.5315750241279602
1780563639400077800,6.688077880859375,4.390787601470947,-4.104512691497803,-0.40700000524520874
1780563639419600400,6.707600341796875,3.984062433242798,-3.4743499755859375,-0.28833749890327454
1780563639439119000,6.727119140625,3.553962469100952,-2.9023499488830566,-0.19126249849796295
1780563639458634000,6.746634033203125,3.0852248668670654,-2.5400373935699463,-0.11687500029802322
1780563639478154000,6.766154052734375,2.5998499393463135,-2.141974925994873,-0.05912499874830246
1780563639497678600,6.7856787109375,2.15806245803833,-1.7579374313354492,-0.0170499999076128
1780563639517202400,6.805202392578125,1.797950029373169,-1.4337124824523926,0.002612499985843897
1780563639536718600,6.824718505859375,1.5096124410629272,-1.1820875406265259,-0.005499999970197678
1780563639556236000,6.844236083984375,1.2556500434875488,-0.9800999760627747,-0.03382499888539314
1780563639575758800,6.8637587890625,1.006500005722046,-0.7885624766349792,-0.06228749826550484
1780563639595278800,6.88327880859375,0.7471749782562256,-0.5667750239372253,-0.07369999587535858
1780563639614801000,6.90280078125,0.4713499844074249,-0.29686251282691956,-0.06792499870061874
1780563639634328300,6.922328369140625,0.1942874938249588,-0.010724999941885471,-0.06173750013113022
1780563639653856300,6.941856201171875,-0.05197500064969063,0.2217874974012375,-0.07012499868869781
1780563639673384200,6.96138427734375,-0.22343750298023224,0.3044250011444092,-0.09308750182390213
1780563639692907300,6.9809072265625,-0.22343750298023224,0.3044250011444092,-0.09308750182390213
1780563639712426000,7.000426025390625,-0.3068999946117401,-0.10009999573230743,-0.13048750162124634
1780563639731947500,7.019947509765625,-0.3068999946117401,-0.10009999573230743,-0.13048750162124634
1780563639751470300,7.03947021484375,-0.306487500667572,-0.4017750024795532,-0.12058749794960022
1780563639770988500,7.058988525390625,-0.3396250009536743,-0.5988125205039978,-0.09748750180006027
1780563639790507500,7.078507568359375,-0.39682498574256897,-0.6580749750137329,-0.0752125009894371
1780563639810027800,7.09802783203125,-0.45416250824928284,-0.6107749938964844,-0.0611874982714653
1780563639829547300,7.11754736328125,-0.5229125022888184,-0.49720001220703125,-0.052662499248981476
1780563639849067000,7.13706689453125,-0.6285125017166138,-0.34952500462532043,-0.04097500070929527
1780563639868589000,7.156589111328125,-0.7808625102043152,-0.1798499971628189,-0.02708750031888485
1780563639888113700,7.17611376953125,-0.9767999649047852,0.020899999886751175,-0.027775000780820847
1780563639907632000,7.195632080078125,-1.21274995803833,0.2817375063896179,-0.06572499871253967
1780563639927150300,7.215150390625,-1.4584624767303467,0.6065124869346619,-0.14162500202655792
1780563639946669000,7.2346689453125,-1.6640249490737915,0.9618124961853027,-0.227012500166893
1780563639966184000,7.254183837890625,-1.789562463760376,1.2935999631881714,-0.2862749993801117
1780563639985705500,7.27370556640625,-1.8314999341964722,1.56021249294281,-0.30277499556541443
1780563640005229600,7.2932294921875,-1.796025037765503,1.733049988746643,-0.2817375063896179
1780563640024748800,7.312748779296875,-1.649037480354309,1.773474931716919,-0.23251250386238098
1780563640044268800,7.332268798828125,-1.3585000038146973,1.6691124439239502,-0.16458749771118164
1780563640063791400,7.351791259765625,-0.957687497138977,1.4671249389648438,-0.08992499858140945
1780563640083316500,7.37131640625,-0.5570124983787537,1.2658250331878662,-0.021724998950958252
1780563640102840800,7.3908408203125,-0.2628999948501587,1.1489499807357788,0.03519999980926514
1780563640122363600,7.41036376953125,-0.1284250020980835,1.1571999788284302,0.08689999580383301
1780563640141884200,7.42988427734375,-0.2576749920845032,1.404425024986267,0.13832500576972961
1780563640161407500,7.449407470703125,-0.8265125155448914,2.06992506980896,0.20679999887943268
1780563640180933000,7.46893310546875,-1.9431500434875488,3.2230000495910645,0.345674991607666
1780563640200456400,7.48845654296875,-3.4203124046325684,4.637599945068359,0.6137999892234802
1780563640219979500,7.5079794921875,-4.678987503051758,5.771562576293945,0.9846374988555908
1780563640239499300,7.527499267578125,-5.111424922943115,6.104175090789795,1.3164249658584595
1780563640259015400,7.547015380859375,-4.619037628173828,5.559124946594238,1.468500018119812
1780563640278533400,7.566533447265625,-3.658874988555908,4.541074752807617,1.435225009918213
1780563640298056200,7.58605615234375,-2.755087375640869,3.5483250617980957,1.3369125127792358
1780563640317580300,7.605580322265625,-2.1225874423980713,2.8250749111175537,1.277649998664856
1780563640337102000,7.62510205078125,-1.7113250494003296,2.3310375213623047,1.2330999374389648
1780563640356614700,7.64461474609375,-1.4011249542236328,1.89433753490448,1.0957374572753906
1780563640376128300,7.664128173828125,-1.1013749837875366,1.3699125051498413,0.8035500049591064
1780563640395648300,7.683648193359375,-0.7577624917030334,0.7293000221252441,0.40507498383522034
1780563640415167200,7.703167236328125,-0.38926249742507935,0.08511249721050262,0.020075000822544098
1780563640434686200,7.722686279296875,-0.1344749927520752,-0.3581874966621399,-0.23993749916553497
1780563640454208800,7.742208740234375,-0.09171249717473984,-0.49486249685287476,-0.3328875005245209
1780563640473734700,7.761734619140625,-0.16197499632835388,-0.45787498354911804,-0.3110249936580658
1780563640493259500,7.781259521484375,-0.1447875052690506,-0.4936249852180481,-0.27816250920295715
1780563640512786000,7.800785888671875,-0.1447875052690506,-0.4936249852180481,-0.27816250920295715
1780563640532313000,7.82031298828125,0.4278999865055084,-1.1354750394821167,-0.42253750562667847
1780563640551834600,7.839834716796875,0.4278999865055084,-1.1354750394821167,-0.42253750562667847
1780563640571356700,7.859356689453125,0.8168874979019165,-1.5328500270843506,-0.5739250183105469
1780563640590879200,7.878879150390625,1.2302124500274658,-1.8957124948501587,-0.7159624695777893
1780563640610402000,7.898402099609375,1.7650874853134155,-2.3112375736236572,-0.8072624802589417
1780563640629928200,7.91792822265625,2.4718375205993652,-2.839787483215332,-0.8255500197410583
1780563640649453800,7.937453857421875,3.329425096511841,-3.4776499271392822,-0.7873250246047974
1780563640668980000,7.95697998046875,4.234449863433838,-4.135312557220459,-0.7246249914169312
1780563640688503600,7.976503662109375,4.959624767303467,-4.623162269592285,-0.6590374708175659
1780563640708023000,7.99602294921875,5.274087429046631,-4.769599914550781,-0.6048625111579895
1780563640727543800,8.015543701171875,5.222662448883057,-4.624125003814697,-0.5691124796867371
1780563640747063000,8.03506298828125,5.030300140380859,-4.379787445068359,-0.5473874807357788
1780563640766582300,8.054582275390626,4.727112293243408,-4.074812412261963,-0.5300624966621399
1780563640786104000,8.07410400390625,4.202000141143799,-3.6052498817443848,-0.5047624707221985
1780563640805622300,8.093622314453125,3.459637403488159,-2.9313623905181885,-0.45567500591278076
1780563640825140500,8.113140380859376,2.6461875438690186,-2.1357874870300293,-0.3694624900817871
1780563640844660200,8.13266015625,1.9017624855041504,-1.338012456893921,-0.25066250562667847
1780563640864179200,8.15217919921875,1.2854875326156616,-0.630299985408783,-0.12443749606609344
1780563640883693600,8.171693603515624,0.8227999806404114,-0.09322500228881836,-0.025987500324845314
1780563640903206700,8.19120654296875,0.5369374752044678,0.20803749561309814,0.016224998980760574
1780563640922721500,8.210721435546875,0.4118124842643738,0.2824249863624573,0.0005499999970197678
1780563640942238200,8.23023828125,0.37193748354911804,0.2297624945640564,-0.0471624992787838
1780563640961758200,8.24975830078125,0.3310999870300293,0.170912504196167,-0.09308750182390213
1780563640981277000,8.26927685546875,0.25808748602867126,0.1574375033378601,-0.12251249700784683
1780563641000796400,8.28879638671875,0.18507499992847443,0.15097500383853912,-0.14533749222755432
1780563641020320000,8.308320068359375,0.14959999918937683,0.08758749812841415,-0.17256249487400055
1780563641039840300,8.32784033203125,0.15633749961853027,-0.05555000156164169,-0.19868749380111694
1780563641059358500,8.3473583984375,0.1714625060558319,-0.24021250009536743,-0.2063875049352646
1780563641078878200,8.366878173828125,0.15015000104904175,-0.4006749987602234,-0.18466250598430634
1780563641098396400,8.386396484375,0.08277499675750732,-0.5095750093460083,-0.1381874978542328
1780563641117913600,8.40591357421875,-0.016637500375509262,-0.5765374898910522,-0.07548750191926956
1780563641137431600,8.425431640625,-0.15344999730587006,-0.5948249697685242,-0.002749999985098839
1780563641156948700,8.44494873046875,-0.3489750027656555,-0.533637523651123,0.07095000147819519
1780563641176468200,8.46446826171875,-0.5872625112533569,-0.3937999904155731,0.13048750162124634
1780563641195991000,8.483990966796876,-0.7987374663352966,-0.23718750476837158,0.16458749771118164
1780563641215510000,8.503510009765625,-0.9002124667167664,-0.15399999916553497,0.17820000648498535
1780563641235029200,8.523029296875,-0.8578624725341797,-0.19263750314712524,0.19030000269412994
1780563641254550000,8.542550048828126,-0.734250009059906,-0.29919999837875366,0.2143625020980835
1780563641274070500,8.562070556640625,-0.734250009059906,-0.29919999837875366,0.2143625020980835
1780563641293592000,8.581592041015625,-0.8907250165939331,0.03203750029206276,0.2283875048160553
1780563641313109500,8.601109619140624,-0.8907250165939331,0.03203750029206276,0.2283875048160553
1780563641332630300,8.62063037109375,-1.4196875095367432,0.7317749857902527,0.17489999532699585
1780563641352155400,8.6401552734375,-1.4196875095367432,0.7317749857902527,0.17489999532699585
1780563641371676200,8.65967626953125,-3.006850004196167,2.775987386703491,0.03959999978542328
1780563641391196700,8.67919677734375,-3.006850004196167,2.775987386703491,0.03959999978542328
1780563641410715100,8.698715087890625,-2.944012403488159,2.9046874046325684,0.045375000685453415
1780563641430234000,8.718234130859376,-2.717550039291382,2.8643999099731445,0.06366249918937683
1780563641449757000,8.7377568359375,-2.4015750885009766,2.720025062561035,0.09542500227689743
1780563641469280300,8.7572802734375,-2.0127248764038086,2.505662441253662,0.13887499272823334
1780563641488805000,8.77680517578125,-1.7901124954223633,2.4457125663757324,0.2012999951839447
1780563641508333000,8.7963330078125,-2.103749990463257,2.855875015258789,0.34375
1780563641527857000,8.81585693359375,-1.7917624711990356,3.734637498855591,0.40287500619888306
1780563641547378200,8.835378173828126,-0.14492499828338623,4.621237277984619,0.2730749845504761
1780563641566897400,8.8548974609375,0.8727124929428101,4.970487594604492,0.0835999995470047
1780563641586414000,8.8744140625,0.8833000063896179,4.676512241363525,-0.08951249718666077
1780563641605928200,8.89392822265625,0.6619250178337097,3.989837408065796,-0.19552500545978546
1780563641625444600,8.913444580078124,0.38513749837875366,3.1679999828338623,-0.10518749803304672
1780563641644965400,8.93296533203125,0.3092375099658966,2.4263250827789307,0.11329999566078186
1780563641664485600,8.952485595703125,0.2465374916791916,1.9109749794006348,0.3236750066280365
1780563641684007400,8.97200732421875,0.1358499974012375,1.6410624980926514,0.5785999894142151
1780563641703530000,8.991530029296875,0.015537500381469727,1.4832124710083008,0.7964000105857849
1780563641723051800,9.0110517578125,-0.07039999961853027,1.2309000492095947,0.8349000215530396
1780563641742573300,9.0305732421875,-0.15578749775886536,0.8072624802589417,0.6242499947547913
1780563641762094000,9.050093994140624,-0.28036248683929443,0.306487500667572,0.2358125001192093
1780563641781616600,9.06961669921875,-0.46309998631477356,-0.08057499676942825,-0.14451250433921814
1780563641801134300,9.08913427734375,-0.6852999925613403,-0.2110625058412552,-0.3217499852180481
1780563641820649500,9.1086494140625,-0.852774977684021,-0.1405249983072281,-0.25616249442100525
1780563641840166400,9.12816650390625,-0.8765624761581421,-0.08030000329017639,-0.10958749800920486
1780563641859689700,9.147689697265625,-0.7272375226020813,-0.2628999948501587,-0.11687500029802322
1780563641879217700,9.1672177734375,-0.4090625047683716,-0.777287483215332,-0.38472500443458557
1780563641898742500,9.186742431640624,0.0728750005364418,-1.4973750114440918,-0.8039624691009521
1780563641918264300,9.206264404296874,0.6172375082969666,-2.1385374069213867,-1.1547249555587769
1780563641937787100,9.225787109375,1.057787537574768,-2.4820125102996826,-1.309962511062622
1780563641957310700,9.245310791015624,1.5882624387741089,-2.7597625255584717,-1.3105125427246094
1780563641976829200,9.2648291015625,2.720437526702881,-3.5106499195098877,-1.2546875476837158
1780563641996351700,9.284351806640625,4.577925205230713,-3.6749625205993652,-1.0978000164031982
1780563642015875600,9.30387548828125,6.486149787902832,-2.853262424468994,-0.9128624796867371
1780563642035398700,9.323398681640626,6.961762428283691,-3.077387571334839,-0.7889750003814697
1780563642054924500,9.342924560546875,6.600275039672852,-3.7732748985290527,-0.6745749711990356
1780563642074447400,9.362447265625,6.600275039672852,-3.7732748985290527,-0.6745749711990356
1780563642093971200,9.38197119140625,4.869012355804443,-3.108875036239624,-0.4923875033855438
1780563642113491000,9.401490966796874,4.019674777984619,-2.6435749530792236,-0.41538751125335693
1780563642133012700,9.4210126953125,3.288724899291992,-2.2452375888824463,-0.3392125070095062
1780563642152538600,9.44053857421875,3.288724899291992,-2.2452375888824463,-0.3392125070095062
1780563642172060700,9.460060791015625,3.288724899291992,-2.2452375888824463,-0.3392125070095062
1780563642191585300,9.479585205078125,2.082712411880493,-1.462862491607666,-0.1293874979019165
1780563642211111200,9.499111083984374,1.7503750324249268,-1.1558250188827515,-0.0742499977350235
1780563642230636500,9.518636474609375,1.6003625392913818,-0.9624999761581421,-0.10216250270605087
1780563642250163200,9.5381630859375,1.5273499488830566,-0.8760125041007996,-0.1732500046491623
1780563642269688000,9.55768798828125,1.4180375337600708,-0.8394374847412109,-0.22055000066757202
1780563642289213200,9.577213134765625,1.2225124835968018,-0.7793499827384949,-0.21051250398159027
1780563642308743000,9.596742919921875,0.9407749772071838,-0.6342874765396118,-0.13901250064373016
1780563642328269800,9.616269775390625,0.6077499985694885,-0.3987500071525574,-0.02419999986886978
1780563642347789800,9.635789794921875,0.29081249237060547,-0.14079999923706055,0.09047500044107437
1780563642367314200,9.655314208984375,0.06764999777078629,0.03464999794960022,0.16499999165534973
1780563642386844400,9.674844482421875,-0.02474999986588955,0.05829999968409538,0.19222499430179596
1780563642406372400,9.694372314453124,-0.059812501072883606,-0.023787500336766243,0.2079000025987625
1780563642425903900,9.71390380859375,-0.19002500176429749,-0.07603749632835388,0.25478750467300415
1780563642445434600,9.7334345703125,-0.47987499833106995,-0.026537500321865082,0.33329999446868896
1780563642464962300,9.75296240234375,-0.8009374737739563,0.04688749834895134,0.4057624936103821
1780563642484490000,9.772489990234375,-0.9744625091552734,0.03987500071525574,0.43738749623298645
1780563642504019000,9.79201904296875,-0.9728124737739563,-0.0340999998152256,0.4254249930381775
1780563642523548700,9.811548583984376,-0.9039250016212463,-0.0882750004529953,0.3856875002384186
1780563642543078000,9.831077880859375,-0.8750500082969666,-0.07961250096559525,0.3343999981880188
1780563642562605000,9.85060498046875,-0.8959500193595886,-0.05458749830722809,0.2872374951839447
1780563642582134300,9.87013427734375,-0.8868749737739563,-0.0929500013589859,0.25808748602867126
1780563642601661700,9.88966162109375,-0.8655624985694885,-0.12925000488758087,0.23182499408721924
1780563642621189400,9.909189453125,-1.053112506866455,0.1013374999165535,0.14904999732971191
1780563642640717000,9.928717041015625,-1.6775000095367432,0.804099977016449,-0.035887498408555984
1780563642660242700,9.94824267578125,-2.694037437438965,1.859412431716919,-0.28228750824928284
1780563642679771400,9.967771484375,-3.6526875495910645,2.8081624507904053,-0.4731374979019165
1780563642699300000,9.987300048828125,-3.989150047302246,3.192199945449829,-0.5246999859809875
1780563642718828500,10.00682861328125,-3.525362491607666,2.9320499897003174,-0.4515500068664551
1780563642738360000,10.026360107421874,-2.6738250255584717,2.4001998901367188,-0.33660000562667847
1780563642757894000,10.045893798828125,-2.0350000858306885,2.084637403488159,-0.2620750069618225
1780563642777427000,10.065427001953125,-1.8823750019073486,2.1807498931884766,-0.2457125037908554
1780563642796956400,10.084956298828125,-2.095362424850464,2.5473248958587646,-0.24901250004768372
1780563642816486700,10.104486572265625,-2.3953874111175537,2.9265499114990234,-0.22852499783039093
1780563642836016000,10.12401611328125,-2.6796000003814697,3.2377123832702637,-0.15936249494552612
1780563642855546000,10.143546142578124,-3.05153751373291,3.606762409210205,0.002474999986588955
1780563642875080000,10.163079833984375,-3.5286624431610107,4.104099750518799,0.30992498993873596
1780563642894613200,10.18261328125,-3.5286624431610107,4.104099750518799,0.30992498993873596
1780563642914141200,10.20214111328125,-3.746875047683716,4.631137371063232,1.1169124841690063
1780563642933666800,10.221666748046875,-3.746875047683716,4.631137371063232,1.1169124841690063
1780563642953194000,10.241194091796874,-3.124687433242798,4.155112266540527,1.280537486076355
1780563642972719000,10.260718994140625,-2.3124749660491943,3.3587124347686768,1.2075250148773193
1780563642992244500,10.280244384765625,-2.3124749660491943,3.3587124347686768,1.2075250148773193
1780563643011771000,10.29977099609375,-1.6673250198364258,2.553925037384033,1.0109000205993652
1780563643031297300,10.31929736328125,-1.7832374572753906,2.6976125240325928,1.1060500144958496
1780563643050828800,10.338828857421875,-1.6680124998092651,2.661449909210205,1.1796125173568726
1780563643070361000,10.358361083984375,-1.2656874656677246,2.136887550354004,1.0517375469207764
1780563643089891300,10.377891357421875,-0.8387500047683716,1.2231999635696411,0.6875
1780563643109420300,10.397420166015625,-0.5758500099182129,0.23003749549388885,0.34168750047683716
1780563643128949000,10.416948974609374,-0.5747500061988831,-0.4657124876976013,0.1414874941110611
1780563643148476000,10.436475830078125,-0.8256874680519104,-0.6450124979019165,-0.06421250104904175
1780563643168001300,10.456001220703126,-1.1002750396728516,-0.4996750056743622,-0.20583750307559967
1780563643187531500,10.475531494140625,-1.0940874814987183,-0.47616249322891235,-0.24598750472068787
1780563643207061200,10.495061279296875,-0.6621999740600586,-0.9223499894142151,-0.3251875042915344
1780563643226590200,10.514590087890625,0.14217500388622284,-1.8414000272750854,-0.4846875071525574
1780563643246120200,10.5341201171875,1.1561000347137451,-2.92930006980896,-0.6498249769210815
1780563643265646800,10.553646728515625,2.107187509536743,-3.784137487411499,-0.7299875020980835
1780563643285172200,10.573172119140626,2.38177490234375,-4.1966376304626465,-0.6117374897003174
1780563643304701400,10.592701416015625,2.3735249042510986,-4.429012298583984,-0.40700000524520874
1780563643324235000,10.612235107421874,3.2313873767852783,-4.085262298583984,-0.2732124924659729
1780563643343767300,10.631767333984374,4.660974979400635,-3.2628750801086426,-0.113987497985363
1780563643363292400,10.65129248046875,5.662525177001953,-2.7176873683929443,0.06751249730587006
1780563643382817800,10.67081787109375,5.785449981689453,-2.409412384033203,0.19607499241828918
1780563643402341000,10.690341064453126,5.246037483215332,-2.2207624912261963,0.2531374990940094
1780563643421863200,10.70986328125,4.578062534332275,-1.9912749528884888,0.26785001158714294
1780563643441385000,10.729385009765625,4.1148247718811035,-1.893649935722351,0.27390000224113464
1780563643460911600,10.74891162109375,3.8478000164031982,-2.0105249881744385,0.26124998927116394
1780563643480443100,10.768443115234374,3.5600125789642334,-2.0652499198913574,0.23319999873638153
1780563643499972400,10.787972412109376,3.0887999534606934,-1.9145499467849731,0.22824999690055847
1780563643519500000,10.8075,2.4836626052856445,-1.565850019454956,0.27541249990463257
1780563643539027700,10.82702783203125,1.8965375423431396,-1.1335500478744507,0.3543374836444855
1780563643558550500,10.846550537109374,1.453237533569336,-0.7463499903678894,0.4081000089645386
1780563643578070800,10.86607080078125,1.2086249589920044,-0.4984374940395355,0.39861249923706055
1780563643597595000,10.885594970703124,1.1433124542236328,-0.4152500033378601,0.3312374949455261
1780563643617116700,10.90511669921875,1.1626999378204346,-0.4328500032424927,0.24034999310970306
1780563643636635100,10.92463525390625,1.1231000423431396,-0.42239999771118164,0.164450004696846
1780563643656159000,10.944158935546875,0.9330750107765198,-0.2903999984264374,0.12333749979734421
1780563643675684900,10.963684814453124,0.6168249845504761,-0.05335000157356262,0.1106875017285347
1780563643695208400,10.98320849609375,0.27101248502731323,0.19167499244213104,0.1013374999165535
1780563643714738200,11.00273828125,-0.02722499892115593,0.35983750224113464,0.07562500238418579
1780563643734269700,11.022269775390624,-0.02722499892115593,0.35983750224113464,0.07562500238418579
1780563643753795300,11.04179541015625,-0.524150013923645,0.5079249739646912,0.016362499445676804
1780563643773318000,11.06131787109375,-0.524150013923645,0.5079249739646912,0.016362499445676804
1780563643792843000,11.080843017578125,-0.7970874905586243,0.5849249958992004,0.027912499383091927
1780563643812369400,11.100369384765624,-1.0564124584197998,0.421162486076355,0.058024998754262924
1780563643831894000,11.11989404296875,-1.0564124584197998,0.421162486076355,0.058024998754262924
1780563643851416000,11.139416015625,-0.8984249830245972,0.04358749836683273,0.022549999877810478
1780563643870938400,11.1589384765625,-0.6876375079154968,-0.3409999907016754,-0.028875000774860382
1780563643890463700,11.178463623046875,-0.639787495136261,-0.47987499833106995,-0.07369999587535858
1780563643909990700,11.19799072265625,-0.830637514591217,-0.31033748388290405,-0.11123749613761902
1780563643929520000,11.21752001953125,-1.1574749946594238,0.014299999922513962,-0.14327499270439148
1780563643949050600,11.237050537109376,-1.42683744430542,0.28008750081062317,-0.15358750522136688
1780563643968578000,11.256578125,-1.5406874418258667,0.4006749987602234,-0.12870000302791595
1780563643988101600,11.2761015625,-1.552512526512146,0.45003750920295715,-0.07727500051259995
1780563644007624400,11.29562451171875,-1.5313374996185303,0.5174124836921692,-0.021312499418854713
1780563644027152100,11.315152099609374,-1.485687494277954,0.6166874766349792,0.016637500375509262
1780563644046680600,11.3346806640625,-1.3738999366760254,0.6945124864578247,0.02199999988079071
1780563644066205400,11.354205322265624,-1.1657249927520752,0.7111499905586243,-0.007974999956786633
1780563644085729000,11.37372900390625,-0.9559000134468079,0.7594124674797058,-0.08304999768733978
1780563644105254400,11.39325439453125,-0.9646999835968018,1.0419750213623047,-0.21889999508857727
1780563644124779300,11.412779296875,-1.312712550163269,1.6486250162124634,-0.3900874853134155
1780563644144304400,11.432304443359374,-1.0786875486373901,2.4344375133514404,-0.42157500982284546
1780563644163831600,11.45183154296875,-1.0060875415802002,3.126612424850464,-0.392425000667572
1780563644183356400,11.4713564453125,-1.0118625164031982,3.605799913406372,-0.31033748388290405
1780563644202879500,11.49087939453125,-0.40700000524520874,3.9459750652313232,-0.17847499251365662
1780563644222404000,11.510404052734375,-0.7383750081062317,4.1930623054504395,-0.08511249721050262
1780563644241933000,11.52993310546875,-1.5666749477386475,4.277212619781494,0.08855000138282776
1780563644261463300,11.54946337890625,-1.9677624702453613,4.126100063323975,0.2993375062942505
1780563644280988700,11.56898876953125,-2.0468249320983887,3.7974748611450195,0.49802500009536743
1780563644300511200,11.58851123046875,-2.0912375450134277,3.524125099182129,0.682687520980835
1780563644320030000,11.608030029296875,-2.351525068283081,3.5300374031066895,0.8922374844551086
1780563644339549700,11.6275498046875,-2.75219988822937,3.762274980545044,1.1331374645233154
1780563644359075800,11.647075927734376,-3.0298125743865967,3.9734749794006348,1.3491499423980713
1780563644378599400,11.666599365234376,-3.0102875232696533,3.9203999042510986,1.4526875019073486
1780563644398122200,11.686122314453126,-2.726900100708008,3.5220625400543213,1.3937000036239624
1780563644417648400,11.7056484375,-2.32251238822937,2.8528499603271484,1.1844249963760376
1780563644437173000,11.725173095703125,-1.9217000007629395,2.0539751052856445,0.880549967288971
1780563644456699000,11.744698974609374,-1.622499942779541,1.3121625185012817,0.5698000192642212
1780563644476221000,11.764220947265626,-1.4414124488830566,0.7459374666213989,0.3195500075817108
1780563644495735300,11.7837353515625,-1.3131250143051147,0.3606624901294708,0.1480875015258789
1780563644515247600,11.80324755859375,-1.1510125398635864,0.05252499878406525,0.026262499392032623
1780563644534761000,11.822760986328126,-0.9218000173568726,-0.30566251277923584,-0.09129999577999115
1780563644554278100,11.842278076171874,-0.6589000225067139,-0.7458000183105469,-0.22550000250339508
1780563644573796900,11.861796875,-0.38087499141693115,-1.2208625078201294,-0.36726251244544983
1780563644593313800,11.881313720703124,-0.04001250118017197,-1.6753000020980835,-0.4881249964237213
1780563644612829700,11.90082958984375,-0.04001250118017197,-1.6753000020980835,-0.4881249964237213
1780563644632344000,11.920343994140625,-0.04001250118017197,-1.6753000020980835,-0.4881249964237213
1780563644651856000,11.93985595703125,1.1712249517440796,-2.624187469482422,-0.5741999745368958
1780563644671366100,11.9593662109375,2.236025094985962,-3.3636624813079834,-0.5513749718666077
1780563644690881800,11.9788818359375,3.855225086212158,-4.513575077056885,-0.4614500105381012
1780563644710399700,11.998399658203125,6.018374919891357,-6.027450084686279,-0.23787499964237213
1780563644729911800,12.017911865234375,7.434625148773193,-6.875687599182129,0.09735000133514404
1780563644749422600,12.037422607421876,8.009512901306152,-5.92294979095459,0.1891999989748001
1780563644768934100,12.05693408203125,7.5642876625061035,-3.657362461090088,0.031075000762939453
1780563644788445700,12.07644580078125,6.606874942779541,-2.6982998847961426,0.04839999973773956
1780563644807960300,12.095960205078125,5.75629997253418,-2.52697491645813,0.15798750519752502
1780563644827475200,12.11547509765625,4.701537609100342,-2.082162380218506,0.17311249673366547
1780563644846989600,12.134989501953125,3.8583874702453613,-1.5577374696731567,0.14231249690055847
1780563644866510300,12.15451025390625,3.2091124057769775,-1.0763499736785889,0.09184999763965607
1780563644886030000,12.174030029296874,2.7031126022338867,-0.7099124789237976,0.03478749841451645
1780563644905547500,12.193547607421875,2.298449993133545,-0.47561249136924744,-0.018287500366568565
1780563644925064400,12.213064453125,1.9721624851226807,-0.3614875078201294,-0.055137500166893005
1780563644944577800,12.232577880859376,1.6821750402450562,-0.32532501220703125,-0.06710000336170197
1780563644964090000,12.252090087890625,1.3699125051498413,-0.29493749141693115,-0.05596249923110008
1780563644983601000,12.271600830078125,1.036062479019165,-0.23512500524520874,-0.035337500274181366
1780563645003111200,12.291111083984376,0.7493749856948853,-0.1751749962568283,-0.02928750030696392
1780563645022625500,12.31062548828125,0.5680124759674072,-0.1597750037908554,-0.057887498289346695
1780563645042140700,12.330140625,0.4760249853134155,-0.19456249475479126,-0.11866249889135361
1780563645061654300,12.349654296875,0.3951750099658966,-0.23801249265670776,-0.18053749203681946
1780563645081171200,12.369171142578125,0.2529999911785126,-0.2391124963760376,-0.2063875049352646
1780563645100682500,12.3886826171875,0.01484999991953373,-0.16830000281333923,-0.1849374920129776
1780563645120194600,12.408194580078124,-0.3049750030040741,-0.06063750013709068,-0.14038750529289246
1780563645139708000,12.4277080078125,-0.6338750123977661,-0.010862499475479126,-0.11082500219345093
1780563645159215600,12.447215576171875,-0.865975022315979,-0.09239999949932098,-0.11756250262260437
1780563645178723600,12.4667236328125,-0.9242749810218811,-0.30098751187324524,-0.14959999918937683
1780563645198236000,12.48623583984375,-0.8428750038146973,-0.5391374826431274,-0.1798499971628189
1780563645217751000,12.5057509765625,-0.7444249987602234,-0.6832374930381775,-0.19470000267028809
1780563645237261600,12.525261474609374,-0.7357624769210815,-0.6558749675750732,-0.2040500044822693
1780563645256770000,12.54477001953125,-0.825962483882904,-0.4716250002384186,-0.22261250019073486
1780563645276279800,12.56427978515625,-0.9259250164031982,-0.23691250383853912,-0.24543750286102295
1780563645295790600,12.58379052734375,-0.9666249752044678,-0.036024998873472214,-0.25891250371932983
1780563645315303700,12.6033037109375,-0.9732249975204468,0.13859999179840088,-0.2630375027656555
1780563645334819000,12.622819091796876,-1.0187374353408813,0.3405874967575073,-0.2712875008583069
1780563645354329600,12.64232958984375,-1.0918874740600586,0.5542625188827515,-0.28558748960494995
1780563645373838800,12.6618388671875,-1.058750033378601,0.6692125201225281,-0.28366249799728394
1780563645393350100,12.68135009765625,-0.8430125117301941,0.6382749676704407,-0.255887508392334
1780563645412859600,12.700859619140624,-0.6487249732017517,0.6744375228881836,-0.25052499771118164
1780563645432366000,12.720365966796875,-0.6487249732017517,0.6744375228881836,-0.25052499771118164
1780563645451876600,12.739876708984376,-0.6487249732017517,0.6744375228881836,-0.25052499771118164
1780563645471388400,12.759388427734375,-1.5199249982833862,2.047650098800659,-0.4503124952316284
1780563645490898200,12.778898193359375,-2.3236124515533447,3.062812566757202,-0.4973374903202057
1780563645510408000,12.798407958984376,-2.7846500873565674,3.701087474822998,-0.4039750099182129
1780563645529914400,12.817914306640626,-3.021012544631958,4.078525066375732,-0.21353749930858612
1780563645549422800,12.8374228515625,-3.5619375705718994,4.711437702178955,0.05197500064969063
1780563645568928000,12.856927978515625,-4.453762531280518,5.64739990234375,0.4399999976158142
1780563645588429300,12.87642919921875,-4.994275093078613,6.218850135803223,0.9079124927520752
1780563645607935200,12.895935302734374,-4.6272873878479,5.876200199127197,1.2676124572753906
1780563645627443500,12.915443359375,-3.662862539291382,4.872725009918213,1.3928749561309814
1780563645646952200,12.9349521484375,-2.7997748851776123,3.889324903488159,1.3601499795913696
1780563645666461400,12.95446142578125,-2.507037401199341,3.4595000743865967,1.359874963760376
1780563645685963800,12.9739638671875,-2.6512749195098877,3.5679874420166016,1.5006749629974365
1780563645705460000,12.9934599609375,-2.663787603378296,3.6900875568389893,1.6765375137329102
1780563645724960800,13.012960693359375,-2.2037124633789062,3.303025007247925,1.6495875120162964
1780563645744470800,13.032470703125,-1.4526875019073486,2.347675085067749,1.2886500358581543
1780563645763979800,13.051979736328125,-0.7396125197410583,1.1470249891281128,0.6793875098228455
1780563645783482000,13.071482177734374,-0.2690874934196472,0.11027500033378601,0.04743750020861626
1780563645802984400,13.090984375,-0.08951249718666077,-0.48688748478889465,-0.37619999051094055
1780563645822490400,13.110490478515626,-0.0812624990940094,-0.6737499833106995,-0.5069624781608582
1780563645841998000,13.129998046875,-0.0518375001847744,-0.7303999662399292,-0.4542999863624573
1780563645861507600,13.149507568359375,0.1639000028371811,-0.9887624979019165,-0.4324375092983246
1780563645881016300,13.169016357421874,0.6186124682426453,-1.5846874713897705,-0.5839625000953674
1780563645900525300,13.188525390625,1.1901999711990356,-2.320037603378296,-0.8523625135421753
1780563645920035000,13.20803515625,1.5642000436782837,-2.7563250064849854,-1.0573749542236328
1780563645939548000,13.2275478515625,1.5483875274658203,-2.651824951171875,-1.087762475013733
1780563645959061800,13.247061767578124,1.4484249353408813,-2.3387374877929688,-0.982574999332428
1780563645978569500,13.266569580078125,1.794374942779541,-2.399787425994873,-0.8461750149726868
1780563645998077200,13.2860771484375,2.776124954223633,-3.060612440109253,-0.7346624732017517
1780563646017585400,13.30558544921875,4.130087375640869,-4.084162712097168,-0.6226000189781189
1780563646037090800,13.3250908203125,5.270512580871582,-4.262912273406982,-0.4811125099658966
1780563646056597800,13.34459765625,5.721787452697754,-4.04194974899292,-0.3357749879360199
1780563646076105700,13.364105712890625,5.579062461853027,-4.122799873352051,-0.21972499787807465
1780563646095613700,13.38361376953125,5.215099811553955,-3.9536750316619873,-0.13956250250339508
1780563646115126500,13.40312646484375,4.811399936676025,-3.7736873626708984,-0.09116250276565552
1780563646134639600,13.4226396484375,4.322037696838379,-3.552725076675415,-0.06806249916553497
1780563646154148600,13.442148681640624,3.7141499519348145,-3.194124937057495,-0.05829999968409538
1780563646173658600,13.46165869140625,3.0621249675750732,-2.6992623805999756,-0.05142499879002571
1780563646193168400,13.48116845703125,2.4644124507904053,-2.1469249725341797,-0.04688749834895134
1780563646212681200,13.50068115234375,2.4644124507904053,-2.1469249725341797,-0.04688749834895134
1780563646232199700,13.52019970703125,2.4644124507904053,-2.1469249725341797,-0.04688749834895134
1780563646251718100,13.53971826171875,1.617550015449524,-1.1970750093460083,-0.06558749824762344
1780563646271235600,13.559235595703125,1.3414499759674072,-0.822112500667572,-0.09350000321865082
1780563646290754000,13.578754150390624,1.0984874963760376,-0.4675000011920929,-0.13007499277591705
1780563646310274800,13.59827490234375,0.857450008392334,-0.1293874979019165,-0.17256249487400055
1780563646329798400,13.61779833984375,0.6258999705314636,0.1266375035047531,-0.2176624983549118
1780563646349318000,13.63731787109375,0.42858749628067017,0.22151249647140503,-0.26001250743865967
1780563646368831500,13.65683154296875,0.26317501068115234,0.15207499265670776,-0.2899875044822693
1780563646388347100,13.67634716796875,0.09638749808073044,-0.0019249999895691872,-0.29534998536109924
1780563646407867100,13.6958671875,-0.08868750184774399,-0.1457500010728836,-0.2708750069141388
1780563646427389400,13.715389404296875,-0.2820124924182892,-0.23608750104904175,-0.22027499973773956
1780563646446911700,13.734911865234375,-0.47148749232292175,-0.25066250562667847,-0.15661250054836273
1780563646466431000,13.754430908203124,-0.6536750197410583,-0.16279999911785126,-0.09790000319480896
1780563646485947100,13.773947021484375,-0.8203250169754028,0.01924999989569187,-0.05362499877810478
1780563646505463600,13.793463623046875,-0.9583749771118164,0.24639999866485596,-0.020487500354647636
1780563646524978200,13.812978271484376,-1.0693374872207642,0.45925000309944153,0.005362499970942736
1780563646544490000,13.832489990234375,-1.1518374681472778,0.6000499725341797,0.021724998950958252
1780563646563997700,13.851997802734376,-1.1644874811172485,0.6047250032424927,0.028462499380111694
1780563646583501800,13.871501708984376,-1.0363374948501587,0.4244624972343445,0.03891250118613243
1780563646603010600,13.891010498046874,-0.7444249987602234,0.08249999582767487,0.07452499866485596
1780563646622528000,13.910528076171875,-0.3951750099658966,-0.25905001163482666,0.13695000112056732
1780563646642044200,13.930044189453126,-0.16926249861717224,-0.3777124881744385,0.20184999704360962
1780563646661557200,13.94955712890625,-0.1896124929189682,-0.16458749771118164,0.24433749914169312
1780563646681068300,13.969068359375,-0.43931248784065247,0.3022249937057495,0.26179999113082886
1780563646700577500,13.98857763671875,-0.7632625102996826,0.81826251745224,0.19085000455379486
1780563646720088600,14.008088623046875,-1.0070500373840332,1.222237467765808,0.15207499265670776
1780563646739603700,14.027603759765626,-1.1254374980926514,1.463962435722351,0.14464999735355377
1780563646759119000,14.047119140625,-1.1610499620437622,1.594862461090088,0.14643749594688416
1780563646778635300,14.06663525390625,-1.2017500400543213,1.7228749990463257,0.22013749182224274
1780563646798157300,14.0861572265625,-1.301574945449829,1.906712532043457,0.26647499203681946
1780563646817675000,14.105675048828125,-1.4788124561309814,2.1845998764038086,0.29493749141693115
1780563646837186800,14.125186767578125,-1.7947875261306763,2.6207499504089355,0.31638750433921814
1780563646856698400,14.144698486328124,-2.482837438583374,3.3728749752044678,0.3856875002384186
1780563646876206300,14.164206298828125,-3.812462568283081,4.580399990081787,0.6367624998092651
1780563646895717400,14.18371728515625,-5.443075180053711,5.920750141143799,1.1563750505447388
1780563646915232000,14.20323193359375,-6.333250045776367,6.6230998039245605,1.7751250267028809
1780563646934745600,14.22274560546875,-5.930512428283691,6.294887542724609,2.1782748699188232
1780563646954256600,14.242256591796876,-4.772762298583984,5.294300079345703,2.246612548828125
1780563646973771800,14.261771728515624,-3.600024938583374,4.191137313842773,2.120112419128418
1780563646993292000,14.2812919921875,-2.8495500087738037,3.411787509918213,2.0117623805999756
1780563647012810200,14.300810302734375,-2.5624499320983887,3.0765624046325684,2.017400026321411
1780563647032330800,14.320330810546874,-2.5624499320983887,3.0765624046325684,2.017400026321411
1780563647051853300,14.339853271484374,-2.5624499320983887,3.0765624046325684,2.017400026321411
1780563647071377200,14.359377197265625,-2.131662607192993,2.4865500926971436,1.7785625457763672
1780563647090901200,14.3789013671875,-1.4051125049591064,1.44760000705719,1.155137538909912
1780563647110425000,14.398425048828125,-0.24997499585151672,0.002199999988079071,0.3260124921798706
1780563647129948700,14.41794873046875,1.0429375171661377,-1.3178000450134277,-0.3400374948978424
1780563647149472300,14.43747216796875,1.8965375423431396,-2.033900022506714,-0.6074749827384949
1780563647168995800,14.456995849609376,2.18473744392395,-2.214712381362915,-0.5975750088691711
1780563647188519200,14.476519287109374,2.4437875747680664,-2.359637498855591,-0.5841000080108643
1780563647208042200,14.496042236328124,3.186699867248535,-2.8228750228881836,-0.680899977684021
1780563647227565300,14.5155654296875,4.347750186920166,-3.5039124488830566,-0.7899374961853027
1780563647266608400,14.5546083984375,4.792562484741211,-3.566200017929077,-0.6039000153541565
1780563647286125300,14.574125244140625,3.6953125,-2.7988123893737793,-0.3940750062465668
1780563647305648000,14.593648193359375,2.781899929046631,-2.15806245803833,-0.20350000262260437
1780563647325169000,14.6131689453125,2.5419623851776123,-1.9271999597549438,-0.049912501126527786
1780563647344691500,14.63269140625,2.770900011062622,-1.971750020980835,0.0728750005364418
1780563647364213000,14.652212890625,2.994887590408325,-2.0146501064300537,0.170912504196167
1780563647383730400,14.67173046875,2.917337417602539,-1.891450047492981,0.2433750033378601
1780563647403247400,14.691247314453125,2.531100034713745,-1.5921125411987305,0.2928749918937683
1780563647422768000,14.71076806640625,1.9894875288009644,-1.194737434387207,0.3306874930858612
1780563647442290200,14.730290283203125,1.4924249649047852,-0.8144124746322632,0.3686375021934509
1780563647461813000,14.74981298828125,1.1750749349594116,-0.5325375199317932,0.4090625047683716
1780563647481334800,14.769334716796875,1.041837453842163,-0.3581874966621399,0.4483875036239624
1780563647500853500,14.788853515625,0.9985250234603882,-0.25189998745918274,0.4867500066757202
1780563647520373200,14.808373291015625,0.9311500191688538,-0.16788749396800995,0.5318499803543091
1780563647539893000,14.82789306640625,0.7655999660491943,-0.07947500050067902,0.5906999707221985
1780563647559414300,14.847414306640625,0.5039374828338623,0.013337500393390656,0.6616500020027161
1780563647578933500,14.86693359375,0.23237499594688416,0.0919874981045723,0.7347999811172485
1780563647598456300,14.886456298828126,0.030387500301003456,0.1467124968767166,0.7962625026702881
1780563647617981700,14.905981689453125,-0.1083500012755394,0.18975000083446503,0.8335250020027161
1780563647637503000,14.9255029296875,-0.22110000252723694,0.23361249268054962,0.84232497215271
1780563647657023500,14.9450234375,-0.2910875082015991,0.2737624943256378,0.8280249834060669
1780563647676547000,14.964547119140626,-0.2685374915599823,0.29864999651908875,0.8009374737739563
1780563647696073200,14.9840732421875,-0.17022499442100525,0.3086875081062317,0.7694500088691711
1780563647715596300,15.00359619140625,-0.07507500052452087,0.31679999828338623,0.736175000667572
1780563647735118300,15.023118408203125,-0.040562499314546585,0.3343999981880188,0.6997374892234802
1780563647754637300,15.04263720703125,-0.040562499314546585,0.3343999981880188,0.6997374892234802
1780563647774156000,15.062156005859375,-0.0742499977350235,0.3639625012874603,0.6579374670982361
1780563647793674800,15.0816748046875,-0.15619999170303345,0.39778751134872437,0.6124249696731567
1780563647813194200,15.1011943359375,-0.26042500138282776,0.4241875112056732,0.5674625039100647
1780563647832718300,15.12071826171875,-0.36684998869895935,0.43972501158714294,0.5271750092506409
1780563647852239600,15.140239501953126,-0.36684998869895935,0.43972501158714294,0.5271750092506409
1780563647871757600,15.159757568359375,-0.5036625266075134,0.4465999901294708,0.4595249891281128
1780563647891281200,15.17928125,-0.48922500014305115,0.4258374869823456,0.42707499861717224
1780563647910808800,15.198808837890626,-0.4302375018596649,0.3806000053882599,0.3932499885559082
1780563647930333700,15.218333740234375,-0.35749998688697815,0.3162499964237213,0.35749998688697815
1780563647949856300,15.237856201171875,-0.2782999873161316,0.2461249977350235,0.31831249594688416
1780563647969374500,15.25737451171875,-0.19373749196529388,0.18754999339580536,0.27871251106262207
1780563647988893000,15.276892822265625,-0.1373624950647354,0.15468749403953552,0.24873749911785126
1780563648008410400,15.296410400390625,-0.1321374922990799,0.14726249873638153,0.23485000431537628
1780563648027927800,15.315927734375,-0.16197499632835388,0.14794999361038208,0.23237499594688416
1780563648047446500,15.335446533203125,-0.18672500550746918,0.13420000672340393,0.22756250202655792
1780563648066966000,15.354966064453125,-0.16926249861717224,0.09624999761581421,0.20583750307559967
1780563648086490400,15.374490478515625,-0.10449999570846558,0.045512501150369644,0.16458749771118164
1780563648106010600,15.3940107421875,-0.02928750030696392,0.0034374999813735485,0.11687500029802322
1780563648125526800,15.41352685546875,-0.009349999949336052,-0.016087500378489494,0.08346249908208847
1780563648145043200,15.433043212890626,-0.06806249916553497,-0.016224998980760574,0.07301250100135803
1780563648164558000,15.45255810546875,-0.15468749403953552,-0.009349999949336052,0.07493750005960464
1780563648184078300,15.472078369140625,-0.19772499799728394,-0.006049999967217445,0.0705375000834465
1780563648203602000,15.491601806640626,-0.18150000274181366,-0.0085249999538064,0.050599999725818634
1780563648223126500,15.51112646484375,-0.16279999911785126,-0.010587500408291817,0.02241249941289425
1780563648242655200,15.5306552734375,-0.20019999146461487,-0.0009624999947845936,0.0016499999910593033
1780563648262183200,15.55018310546875,-0.2942500114440918,0.02681249938905239,-0.0009624999947845936
1780563648281707300,15.569707275390625,-0.42611250281333923,0.0672374963760376,0.015812499448657036
1780563648301229600,15.5892294921875,-0.5979874730110168,0.10477499663829803,0.045512501150369644
1780563648320752400,15.60875244140625,-0.7998374700546265,0.1266375035047531,0.07796250283718109
1780563648340277000,15.628277099609376,-0.9842249751091003,0.13337500393390656,0.10339999943971634
1780563648359800300,15.64780029296875,-1.106874942779541,0.1358499974012375,0.1200374960899353
1780563648379320600,15.667320556640625,-1.1808500289916992,0.14300000667572021,0.13557499647140503
1780563648398836500,15.68683642578125,-1.2324124574661255,0.15125000476837158,0.1568875014781952
1780563648418357000,15.70635693359375,-1.2439625263214111,0.14726249873638153,0.17943750321865082
1780563648437880600,15.725880615234376,-1.1845624446868896,0.12209999561309814,0.19126249849796295
1780563648457402600,15.745402587890625,-1.066312551498413,0.08208750188350677,0.18713749945163727
1780563648476925400,15.764925537109375,-0.9509499669075012,0.04262499883770943,0.17393749952316284
1780563648496449500,15.784449462890626,-0.8788999915122986,0.016499999910593033,0.16046249866485596
1780563648515973400,15.803973388671874,-0.8118000030517578,0.0030249999836087227,0.14657500386238098
1780563648535491800,15.823491943359375,-0.6661875247955322,-0.011824999935925007,0.12388750165700912
1780563648555007000,15.843007080078126,-0.38005000352859497,-0.04441250115633011,0.08291249722242355
1780563648574526500,15.8625263671875,-0.38005000352859497,-0.04441250115633011,0.08291249722242355
1780563648594047000,15.882046875,0.4259749948978424,-0.15537500381469727,-0.035337500274181366
1780563648613566500,15.90156640625,0.688462495803833,-0.19910000264644623,-0.0789249986410141
1780563648633087700,15.921087646484375,0.688462495803833,-0.19910000264644623,-0.0789249986410141
1780563648652610600,15.940610595703125,0.7778375148773193,-0.22082500159740448,-0.10119999945163727
1780563648672132400,15.96013232421875,0.7961249947547913,-0.22605000436306,-0.1264999955892563
1780563648691649800,15.97964990234375,0.7961249947547913,-0.22605000436306,-0.1264999955892563
1780563648711168300,15.999168212890625,0.847000002861023,-0.22536249458789825,-0.14300000667572021
1780563648730688000,16.01868798828125,0.8875625133514404,-0.22426250576972961,-0.15262499451637268
1780563648750208300,16.038208251953126,0.8824750185012817,-0.22192500531673431,-0.1461624950170517
1780563648769730000,16.05772998046875,0.8340749740600586,-0.2194499969482422,-0.1251250058412552
1780563648789251000,16.0772509765625,0.7628499865531921,-0.21848750114440918,-0.09968750178813934
1780563648808773000,16.096773193359375,0.6741625070571899,-0.21683749556541443,-0.08084999769926071
1780563648828297700,16.116297607421874,0.5703499913215637,-0.21175000071525574,-0.07301250100135803
1780563648847820000,16.135820068359376,0.47464999556541443,-0.20157499611377716,-0.07356250286102295
1780563648867338200,16.155338134765625,0.41538751125335693,-0.18576249480247498,-0.07686249911785126
1780563648886854400,16.1748544921875,0.3922874927520752,-0.1652749925851822,-0.0775500014424324
1780563648906366000,16.194365966796877,0.3730374872684479,-0.14272500574588776,-0.07273750007152557
1780563648925880800,16.213880859375,0.322299987077713,-0.12113749980926514,-0.06228749826550484
1780563648945401300,16.2334013671875,0.2404875010251999,-0.10298749804496765,-0.04839999973773956
1780563648964919800,16.252919921875,0.16142499446868896,-0.0873124971985817,-0.03382499888539314
1780563648984436500,16.2724365234375,0.1083500012755394,-0.06806249916553497,-0.022687500342726707
1780563649003955000,16.291954833984374,0.07576250284910202,-0.047575000673532486,-0.015812499448657036
1780563649023475200,16.31147509765625,0.03506249934434891,-0.028187500312924385,-0.007424999959766865
1780563649042995500,16.330995361328124,-0.02736249938607216,-0.006599999964237213,0.002474999986588955
1780563649062516000,16.350515869140626,-0.09184999763965607,0.011274999938905239,0.008662499487400055
1780563649082037000,16.370037109375,-0.12966249883174896,0.021724998950958252,0.010449999943375587
1780563649101554400,16.389554443359376,-0.11742500215768814,0.021175000816583633,0.0085249999538064
