time,seconds_elapsed,z,y,x
1780563633181300200,0.46930029296875,7.98900032043457,-5.142000198364258,1.3530000448226929
1780563633191066600,0.479066650390625,8.026050567626953,-5.0620503425598145,1.2709500789642334
1780563633210596900,0.498596923828125,8.104949951171875,-4.935000419616699,1.2229501008987427
1780563633230122500,0.51812255859375,8.136000633239746,-4.864050388336182,1.2079501152038574
1780563633249645600,0.5376455078125,8.064000129699707,-4.821000099182129,1.1209501028060913
1780563633269165000,0.5571650390625,7.932000160217285,-4.80495023727417,1.0380001068115234
1780563633288685800,0.576685791015625,7.846050262451172,-4.807950019836426,1.0170000791549683
1780563633308215800,0.5962158203125,7.786950588226318,-4.79295015335083,1.057050108909607
1780563633327747000,0.6157470703125,7.7470502853393555,-4.857000350952148,1.2000000476837158
1780563633347271700,0.635271728515625,7.884000301361084,-4.921050071716309,1.4040000438690186
1780563633366799600,0.654799560546875,8.059050559997559,-4.9360504150390625,1.5679501295089722
1780563633386332200,0.674332275390625,8.199000358581543,-4.926000118255615,1.5340501070022583
1780563633405865000,0.693864990234375,8.32395076751709,-4.834050178527832,1.3060500621795654
1780563633425395700,0.713395751953125,8.311050415039062,-4.705049991607666,1.0870500802993774
1780563633444929300,0.73292919921875,8.181000709533691,-4.663950443267822,1.0230000019073486
1780563633464466200,0.752466064453125,8.058000564575195,-4.717950344085693,1.1820000410079956
1780563633483999000,0.7719990234375,7.957050323486328,-4.77495002746582,1.4010000228881836
1780563633503527000,0.79152685546875,7.981950283050537,-4.777050018310547,1.50600004196167
1780563633523053300,0.81105322265625,8.113950729370117,-4.708950042724609,1.527000069618225
1780563633542580700,0.830580810546875,8.254950523376465,-4.633050441741943,1.53000009059906
1780563633562109400,0.850109375,8.355000495910645,-4.5769500732421875,1.5490500926971436
1780563633581640700,0.869640625,8.338050842285156,-4.567049980163574,1.5420000553131104
1780563633601170700,0.889170654296875,8.29800033569336,-4.590000152587891,1.489050030708313
1780563633620700000,0.908699951171875,8.278950691223145,-4.567049980163574,1.3410000801086426
1780563633640228600,0.928228515625,8.220000267028809,-4.579950332641602,1.1269500255584717
1780563633659754000,0.94775390625,8.12700080871582,-4.612950325012207,0.9300000667572021
1780563633679279600,0.967279541015625,7.974000453948975,-4.650000095367432,0.7240500450134277
1780563633698810600,0.986810546875,7.879950523376465,-4.666950225830078,0.547950029373169
1780563633718341400,1.00634130859375,7.963050365447998,-4.621950149536133,0.43095001578330994
1780563633737870000,1.0258701171875,8.187000274658203,-4.567049980163574,0.3160500228404999
1780563633757398800,1.045398681640625,8.428950309753418,-4.527000427246094,0.22005000710487366
1780563633776925700,1.06492578125,8.622000694274902,-4.565999984741211,0.14505000412464142
1780563633796452400,1.084452392578125,8.677050590515137,-4.660050392150879,0.08100000023841858
1780563633815978800,1.103978759765625,8.526000022888184,-4.684950351715088,0.006000000052154064
1780563633835505000,1.1235048828125,8.245050430297852,-4.678950309753418,-0.16305001080036163
1780563633855029800,1.14302978515625,8.032050132751465,-4.668000221252441,-0.2959500253200531
1780563633874553300,1.16255322265625,7.999950408935547,-4.590000152587891,-0.36195001006126404
1780563633894077400,1.182077392578125,8.032050132751465,-4.4670000076293945,-0.4339500069618225
1780563633913602300,1.201602294921875,8.16195011138916,-4.414050102233887,-0.534000039100647
1780563633933127400,1.22112744140625,8.236949920654297,-4.447050094604492,-0.6109500527381897
1780563633952650000,1.24064990234375,8.27400016784668,-4.488000392913818,-0.6960000395774841
1780563633972173300,1.26017333984375,8.361000061035156,-4.513050079345703,-0.8040000200271606
1780563633991700000,1.279699951171875,8.418000221252441,-4.462950229644775,-0.8710500597953796
1780563634011223300,1.299223388671875,8.42400074005127,-4.32705020904541,-0.9589500427246094
1780563634030747000,1.318746826171875,8.296050071716309,-4.195050239562988,-1.0429500341415405
1780563634050271200,1.338271240234375,8.056950569152832,-4.141050338745117,-1.0290000438690186
1780563634069795800,1.3577958984375,7.753050327301025,-4.156050205230713,-0.9499500393867493
1780563634089318100,1.377318115234375,7.5319504737854,-4.203000068664551,-0.9070500135421753
1780563634108840000,1.39683984375,7.591950416564941,-4.252050399780273,-0.9360000491142273
1780563634128363500,1.416363525390625,7.972050189971924,-4.350000381469727,-1.048050045967102
1780563634147886000,1.435885986328125,8.42400074005127,-4.477050304412842,-1.0500000715255737
1780563634167411000,1.455410888671875,8.920050621032715,-4.648050308227539,-0.973050057888031
1780563634186936600,1.4749365234375,9.153000831604004,-4.939050197601318,-0.8389500379562378
1780563634206462500,1.49446240234375,9.12600040435791,-5.09505033493042,-0.6510000228881836
1780563634225988400,1.51398828125,9.12405014038086,-5.035950183868408,-0.612000048160553
1780563634245512700,1.5335126953125,9.039000511169434,-4.7659502029418945,-0.6460500359535217
1780563634265037000,1.553037109375,8.89905071258545,-4.252950191497803,-0.7969500422477722
1780563634284563700,1.572563720703125,8.746950149536133,-3.7669501304626465,-1.057050108909607
1780563634304093400,1.592093505859375,8.610000610351562,-3.5710501670837402,-1.114050030708313
1780563634323624000,1.6116240234375,8.55405044555664,-3.652050256729126,-0.9280500411987305
1780563634343151000,1.631151123046875,8.52405071258545,-3.8959500789642334,-0.5760000348091125
1780563634362678000,1.650677978515625,8.584050178527832,-4.126950263977051,-0.23895001411437988
1780563634382207700,1.670207763671875,8.671050071716309,-4.089000225067139,-0.25995001196861267
1780563634401734100,1.689734130859375,8.704950332641602,-3.766050100326538,-0.6310500502586365
1780563634421259000,1.709259033203125,8.805000305175781,-3.460050106048584,-1.1050500869750977
1780563634440786200,1.7287861328125,8.855999946594238,-3.3450002670288086,-1.3210500478744507
1780563634460312300,1.748312255859375,8.944050788879395,-3.44100022315979,-1.2340500354766846
1780563634479835400,1.76783544921875,9.046950340270996,-3.7039501667022705,-1.0009500980377197
1780563634499357400,1.787357421875,9.139050483703613,-3.8610002994537354,-0.7720500230789185
1780563634518880000,1.8068798828125,9.280050277709961,-3.7849502563476562,-0.8029500246047974
1780563634538403300,1.8264033203125,9.256050109863281,-3.507000207901001,-1.0210500955581665
1780563634557924400,1.84592431640625,8.988000869750977,-3.2029502391815186,-1.1920500993728638
1780563634577444900,1.86544482421875,8.538000106811523,-3.0979502201080322,-1.1430000066757202
1780563634596968400,1.884968505859375,8.121000289916992,-3.1330502033233643,-0.9580500721931458
1780563634616497400,1.904497314453125,7.891950607299805,-3.1840500831604004,-0.9529500603675842
1780563634636026000,1.924026123046875,7.867950439453125,-3.1030502319335938,-1.2019500732421875
1780563634655552500,1.943552490234375,7.954950332641602,-2.8750500679016113,-1.6230000257492065
1780563634675082800,1.963082763671875,7.975950241088867,-2.800950050354004,-1.9729501008987427
1780563634694615000,1.982614990234375,8.055000305175781,-2.955000162124634,-1.9030500650405884
1780563634714144800,2.002144775390625,8.38800048828125,-3.241950035095215,-1.6030501127243042
1780563634733681400,2.021681396484375,8.881050109863281,-3.4420502185821533,-1.4520000219345093
1780563634753217000,2.041217041015625,8.907000541687012,-3.630000114440918,-1.366050124168396
1780563634772745500,2.060745361328125,8.725950241088867,-3.715050220489502,-1.3210500478744507
1780563634792274000,2.08027392578125,8.299050331115723,-3.693000078201294,-1.4350500106811523
1780563634811806500,2.099806396484375,7.8600006103515625,-3.8020501136779785,-1.432050108909607
1780563634831337500,2.11933740234375,7.9960503578186035,-3.850050210952759,-1.2679500579833984
1780563634850861600,2.138861572265625,8.344050407409668,-3.82200026512146,-1.2439500093460083
1780563634870385400,2.158385498046875,8.626049995422363,-3.8359501361846924,-1.2780001163482666
1780563634889911600,2.17791162109375,8.72700023651123,-3.825000286102295,-1.3020000457763672
1780563634909442000,2.197442138671875,8.556000709533691,-3.8389501571655273,-1.3470001220703125
1780563634928968200,2.21696826171875,8.292000770568848,-3.973050117492676,-1.1670000553131104
1780563634948491000,2.236490966796875,8.105999946594238,-4.216050148010254,-0.7290000319480896
1780563634968016400,2.256016357421875,8.173049926757812,-4.483050346374512,-0.3139500021934509
1780563634987543300,2.275543212890625,8.506950378417969,-4.564949989318848,-0.19305001199245453
1780563635007070500,2.295070556640625,8.758950233459473,-4.44195032119751,-0.4440000355243683
1780563635026603000,2.31460302734375,8.794050216674805,-4.2460503578186035,-0.7240500450134277
1780563635046137300,2.334137451171875,8.508000373840332,-4.159950256347656,-0.7500000596046448
1780563635065667600,2.35366748046875,7.939050197601318,-4.147950172424316,-0.6930000185966492
1780563635085195800,2.37319580078125,7.422000408172607,-4.147050380706787,-0.6040500402450562
1780563635104719400,2.39271923828125,6.999000549316406,-4.296000003814697,-0.3169500231742859
1780563635124240100,2.412240234375,6.826950550079346,-4.4320502281188965,-0.043950002640485764
1780563635143766000,2.43176611328125,7.146000385284424,-4.573950290679932,0.036000002175569534
1780563635163295500,2.45129541015625,7.6110005378723145,-4.797000408172607,-0.022050000727176666
1780563635182825000,2.470824951171875,9.250950813293457,-4.843950271606445,-0.364950031042099
1780563635202354200,2.490354248046875,9.265050888061523,-4.9110002517700195,-0.7060500383377075
1780563635221881600,2.509881591796875,8.946000099182129,-5.278950214385986,-0.32805001735687256
1780563635241407500,2.529407470703125,8.527950286865234,-5.604000091552734,1.6690500974655151
1780563635260938200,2.548938232421875,8.125950813293457,-5.599950313568115,2.0839500427246094
1780563635280470500,2.568470458984375,7.872000217437744,-5.239050388336182,2.155050039291382
1780563635300000300,2.588000244140625,7.82895040512085,-4.713000297546387,1.7929500341415405
1780563635319526400,2.6075263671875,7.6900506019592285,-4.567049980163574,1.4029500484466553
1780563635339053300,2.62705322265625,7.498950481414795,-4.873050212860107,1.4140501022338867
1780563635358582500,2.64658251953125,7.440000534057617,-5.299950122833252,1.7119500637054443
1780563635378110200,2.666110107421875,7.486050128936768,-5.5909504890441895,1.8709501028060913
1780563635397637600,2.6856376953125,7.831050395965576,-5.767950057983398,1.6200001239776611
1780563635417165300,2.705165283203125,8.277000427246094,-6.085050106048584,1.141950011253357
1780563635436693500,2.724693603515625,8.542950630187988,-6.631050109863281,1.0720500946044922
1780563635456220400,2.744220458984375,8.66295051574707,-7.003950119018555,3.076050043106079
1780563635475742500,2.763742431640625,8.655000686645508,-6.832950115203857,3.6030001640319824
1780563635495264800,2.7832646484375,8.57805061340332,-6.243000507354736,4.01894998550415
1780563635514789000,2.8027890625,8.581050872802734,-5.782050132751465,3.850050210952759
1780563635534314500,2.822314453125,8.640000343322754,-5.785950183868408,1.867050051689148
1780563635553840000,2.841840087890625,8.650050163269043,-6.079050064086914,1.609950065612793
1780563635573363200,2.86136328125,8.569050788879395,-6.349950313568115,1.8330000638961792
1780563635592887800,2.8808876953125,8.332050323486328,-6.078000068664551,3.4330501556396484
1780563635612414500,2.90041455078125,8.112000465393066,-4.605000019073486,3.7600502967834473
1780563635631940000,2.919940185546875,8.035050392150879,-4.498950004577637,3.9130501747131348
1780563635651463200,2.939463134765625,8.128050804138184,-4.764000415802002,3.6880502700805664
1780563635670983700,2.958983642578125,8.23799991607666,-5.319000244140625,3.1300501823425293
1780563635690505500,2.97850537109375,8.251049995422363,-5.818050384521484,2.9170501232147217
1780563635710026200,2.998026123046875,8.133000373840332,-5.83905029296875,3.2250001430511475
1780563635729546500,3.01754638671875,7.966950416564941,-5.440950393676758,3.699000120162964
1780563635749071600,3.037071533203125,7.981050491333008,-5.197050094604492,3.996000289916992
1780563635768600000,3.05660009765625,7.885950565338135,-5.238000392913818,3.879000186920166
1780563635788128000,3.0761279296875,7.734000205993652,-5.496000289916992,3.327000141143799
1780563635807649300,3.095649169921875,7.6900506019592285,-5.743950366973877,2.7649500370025635
1780563635827171300,3.11517138671875,7.609050273895264,-5.677950382232666,2.4600000381469727
1780563635846696700,3.13469677734375,7.636050224304199,-5.463000297546387,2.322000026702881
1780563635866219800,3.1542197265625,7.672950267791748,-5.299950122833252,2.1379501819610596
1780563635885742800,3.173742919921875,7.566000461578369,-5.299950122833252,1.765950083732605
1780563635905269800,3.193269775390625,7.444050312042236,-5.37600040435791,1.2600001096725464
1780563635924795000,3.212794921875,7.488000392913818,-5.356050491333008,0.7279500365257263
1780563635944319700,3.23231982421875,7.599000453948975,-5.284950256347656,0.31905001401901245
1780563635963846700,3.2518466796875,7.666950225830078,-5.190000057220459,0.040950000286102295
1780563635983375000,3.271375,7.554000377655029,-5.182950019836426,-0.16305001080036163
1780563636002908400,3.290908447265625,7.228950500488281,-5.290050029754639,-0.41100001335144043
1780563636022445600,3.310445556640625,6.96405029296875,-5.326050281524658,-0.7660500407218933
1780563636041977900,3.329977783203125,6.802950382232666,-5.247000217437744,-1.1970000267028809
1780563636061503200,3.349503173828125,6.756000518798828,-5.07105016708374,-1.636950135231018
1780563636081026000,3.369026123046875,6.772950172424316,-4.867950439453125,-2.0269501209259033
1780563636100551400,3.388551513671875,6.721950531005859,-4.692000389099121,-2.40405011177063
1780563636120078300,3.408078369140625,6.6060004234313965,-4.456050395965576,-2.8780500888824463
1780563636139606800,3.427606689453125,6.589950084686279,-4.07895040512085,-3.403050184249878
1780563636159134700,3.447134765625,6.718050479888916,-3.6949501037597656,-3.703050136566162
1780563636178661600,3.46666162109375,6.7759504318237305,-3.5059502124786377,-3.5350501537323
1780563636198187800,3.486187744140625,6.813000202178955,-3.6090002059936523,-1.8259501457214355
1780563636217714200,3.505714111328125,6.951000213623047,-3.999000072479248,-1.5109500885009766
1780563636237240800,3.52524072265625,7.312950134277344,-4.405050277709961,-1.3180500268936157
1780563636256765200,3.54476513671875,9.040050506591797,-4.639050006866455,-1.5949500799179077
1780563636276287200,3.564287353515625,9.277950286865234,-4.6650004386901855,-2.115000009536743
1780563636295805000,3.583804931640625,9.454950332641602,-4.575000286102295,-2.4090001583099365
1780563636315326200,3.603326171875,9.23805046081543,-4.563000202178955,-2.2129499912261963
1780563636334852400,3.622852294921875,7.525050163269043,-4.660950183868408,-0.42900002002716064
1780563636354378000,3.6423779296875,7.252050399780273,-4.749000072479248,-0.17805001139640808
1780563636373910000,3.661909912109375,6.900000095367432,-4.719000339508057,-0.0019500000635161996
1780563636393443300,3.681443359375,6.616950511932373,-4.504050254821777,-0.07695000618696213
1780563636412967000,3.700966796875,6.568050384521484,-4.203000068664551,-0.25095000863075256
1780563636432486700,3.720486572265625,6.66195011138916,-3.973950147628784,-0.35805001854896545
1780563636452004000,3.740004150390625,6.7420501708984375,-3.895050287246704,-0.361050009727478
1780563636471525000,3.759525146484375,6.7420501708984375,-4.005000114440918,-0.28095000982284546
1780563636491047200,3.779047119140625,6.66795015335083,-4.223999977111816,-0.19305001199245453
1780563636510569700,3.79856982421875,6.69195032119751,-4.495950222015381,-0.031050002202391624
1780563636530093800,3.81809375,6.95805025100708,-4.81095027923584,0.24105000495910645
1780563636549617200,3.8376171875,7.431000232696533,-5.164950370788574,0.6180000305175781
1780563636569138200,3.85713818359375,7.882050514221191,-5.5849504470825195,1.002000093460083
1780563636588655600,3.876655517578125,8.125950813293457,-5.970000267028809,1.2630000114440918
1780563636608177200,3.89617724609375,8.18595027923584,-6.214950084686279,1.321950078010559
1780563636627702800,3.915702880859375,8.296050071716309,-6.237000465393066,1.1839500665664673
1780563636647226600,3.9352265625,8.566950798034668,-6.130950450897217,0.89205002784729
1780563636666753000,3.9547529296875,8.74905014038086,-6.109950065612793,0.5640000104904175
1780563636686283000,3.974282958984375,8.677050590515137,-6.391050338745117,0.6049500107765198
1780563636705809400,3.993809326171875,8.530950546264648,-6.777000427246094,1.0049999952316284
1780563636725330200,4.013330078125,8.527050018310547,-6.942000389099121,1.3200000524520874
1780563636744848000,4.032847900390625,8.860050201416016,-6.814050197601318,1.363050103187561
1780563636764363500,4.052363525390625,9.285000801086426,-6.586950302124023,1.1040000915527344
1780563636783881700,4.0718818359375,9.363000869750977,-6.534000396728516,0.7590000629425049
1780563636803402200,4.09140234375,9.01200008392334,-6.660000324249268,0.7129500508308411
1780563636822923000,4.110923095703125,8.416950225830078,-6.730050086975098,0.8659500479698181
1780563636842442500,4.1304423828125,7.929000377655029,-6.51900053024292,0.8970000147819519
1780563636861963800,4.1499638671875,7.71405029296875,-6.255000114440918,0.7060500383377075
1780563636881482000,4.16948193359375,7.7560505867004395,-6.32295036315918,0.48600003123283386
1780563636900999200,4.188999267578125,7.969050407409668,-6.772950172424316,0.48900002241134644
1780563636920521200,4.208521240234375,8.287050247192383,-7.31505012512207,0.6360000371932983
1780563636940043300,4.228043212890625,8.604000091552734,-7.494000434875488,0.8029500246047974
1780563636959571000,4.247571044921875,8.84595012664795,-7.225950241088867,0.8650500178337097
1780563636979100000,4.267099853515625,8.950950622558594,-6.822000503540039,0.9880500435829163
1780563636998628600,4.286628662109375,8.824950218200684,-6.538950443267822,1.308000087738037
1780563637018155000,4.306155029296875,8.529000282287598,-6.496950149536133,1.7710500955581665
1780563637037678000,4.325677978515625,8.097000122070312,-6.571950435638428,2.389050006866455
1780563637057203500,4.345203369140625,7.666050434112549,-6.499950408935547,2.965050220489502
1780563637076725800,4.364725830078125,7.401000499725342,-6.309000492095947,3.2689502239227295
1780563637096246000,4.38424609375,7.344000339508057,-6.0960001945495605,3.2820000648498535
1780563637115768300,4.403768310546875,7.408950328826904,-5.9760003089904785,3.0859501361846924
1780563637135291600,4.423291748046875,7.5259504318237305,-5.977950096130371,2.757000207901001
1780563637154818600,4.442818603515625,7.647000312805176,-5.94195032119751,2.4979500770568848
1780563637174345700,4.462345703125,7.695000171661377,-5.812950134277344,2.45205020904541
1780563637193872600,4.48187255859375,7.6459503173828125,-5.617950439453125,2.533950090408325
1780563637213400600,4.501400634765625,7.501950263977051,-5.467950344085693,2.482950210571289
1780563637232926500,4.520926513671875,7.320000171661377,-5.4210004806518555,2.1570000648498535
1780563637252452000,4.5404521484375,7.132950305938721,-5.452950477600098,0.4120500087738037
1780563637271975200,4.55997509765625,7.035000324249268,-5.424000263214111,0.013050000183284283
1780563637291492900,4.579492919921875,7.006950378417969,-5.347050189971924,-0.5509500503540039
1780563637311014100,4.59901416015625,6.919950485229492,-5.37600040435791,-0.8809500336647034
1780563637330542600,4.61854248046875,6.7699503898620605,-5.536050319671631,-0.9150000214576721
1780563637350070800,4.63807080078125,6.577950477600098,-5.719050407409668,-0.814050018787384
1780563637369593600,4.657593505859375,6.5809502601623535,-5.832000255584717,-0.7669500112533569
1780563637389114400,4.6771142578125,6.753000259399414,-5.817000389099121,-0.8359500169754028
1780563637408636700,4.69663671875,7.009050369262695,-5.6670002937316895,-0.9790500402450562
1780563637428162800,4.716162841796875,7.116000175476074,-5.503950119018555,-1.2829500436782837
1780563637447691500,4.73569140625,6.868950366973877,-5.305950164794922,-1.749000072479248
1780563637467219500,4.755219482421875,6.543000221252441,-4.7989501953125,-3.646050214767456
1780563637486743600,4.77474365234375,6.3259501457214355,-3.109950065612793,-4.074000358581543
1780563637506267600,4.794267578125,6.235050201416016,-2.596950054168701,-4.4599504470825195
1780563637525791700,4.813791748046875,6.124050140380859,-2.1750001907348633,-4.297950267791748
1780563637545311000,4.83331103515625,5.892000198364258,-2.3770501613616943,-2.7430500984191895
1780563637564833800,4.852833740234375,5.74500036239624,-4.068000316619873,-2.111999988555908
1780563637584361500,4.872361572265625,6.015000343322754,-4.675050258636475,-1.998000144958496
1780563637603884500,4.891884521484375,8.041950225830078,-5.005950450897217,-3.8770501613616943
1780563637623408400,4.911408447265625,8.377050399780273,-4.804050445556641,-4.369050025939941
1780563637642934500,4.9309345703125,8.689949989318848,-4.42995023727417,-4.503000259399414
1780563637662463000,4.950462890625,8.527950286865234,-4.5520501136779785,-1.2510000467300415
1780563637681993000,4.969992919921875,6.891000270843506,-6.355050086975098,0.8899500370025635
1780563637701520600,4.989520751953125,6.699000358581543,-6.571950435638428,0.973050057888031
1780563637721046500,5.009046630859375,6.612000465393066,-6.511950492858887,-0.5610000491142273
1780563637740569300,5.0285693359375,6.841950416564941,-4.572000026702881,-2.6899502277374268
1780563637760090600,5.048090576171875,7.26900053024292,-4.207950115203857,-2.7400500774383545
1780563637779611400,5.067611328125,7.444050312042236,-4.165050029754639,-0.009000000543892384
1780563637799136000,5.087135986328125,7.089000225067139,-4.624050140380859,1.576050043106079
1780563637818665500,5.10666552734375,6.484050273895264,-6.058950424194336,2.0779500007629395
1780563637838195700,5.12619580078125,6.03795051574707,-6.283050060272217,2.0590500831604004
1780563637857717200,5.14571728515625,6.136050224304199,-6.201000213623047,-0.006000000052154064
1780563637877240300,5.165240234375,7.81095027923584,-5.9569501876831055,-0.10305000841617584
1780563637896768500,5.1847685546875,8.0110502243042,-5.928000450134277,1.6960500478744507
1780563637916294100,5.204294189453125,7.990950584411621,-6.130050182342529,2.2510499954223633
1780563637935819300,5.2238193359375,7.660950183868408,-6.403950214385986,2.7850501537323
1780563637955345400,5.243345458984375,7.3969502449035645,-6.594000339508057,2.7229502201080322
1780563637974874600,5.26287451171875,7.459050178527832,-6.642000198364258,0.6220500469207764
1780563637994402000,5.282402099609375,7.82205057144165,-6.6739501953125,0.2880000174045563
1780563638013927200,5.30192724609375,8.071050643920898,-6.837000370025635,0.12300000339746475
1780563638033453300,5.321453369140625,7.9860005378723145,-7.1670002937316895,0.2689500153064728
1780563638052977000,5.340976806640625,7.653000354766846,-7.492950439453125,0.6859500408172607
1780563638072497200,5.3604970703125,7.336950302124023,-7.521000385284424,1.0410000085830688
1780563638092017000,5.380016845703125,7.405050277709961,-7.228950500488281,1.0390501022338867
1780563638111537000,5.399536865234375,7.73205041885376,-6.789000511169434,0.8760000467300415
1780563638131061200,5.419061279296875,8.046000480651855,-6.436950206756592,0.7579500079154968
1780563638150588400,5.43858837890625,8.164050102233887,-6.414000511169434,0.8040000200271606
1780563638170112000,5.458112060546875,8.020050048828125,-6.676950454711914,1.0369499921798706
1780563638189635000,5.477635009765625,7.821000576019287,-6.951000213623047,1.2480000257492065
1780563638209158000,5.497157958984375,7.759950160980225,-7.039950370788574,1.141050100326538
1780563638228678700,5.5166787109375,7.891950607299805,-7.048050403594971,0.8280000686645508
1780563638248201700,5.53620166015625,8.13705062866211,-7.212000370025635,0.556950032711029
1780563638267729000,5.55572900390625,8.479949951171875,-7.558050155639648,0.41505002975463867
1780563638287255300,5.57525537109375,8.716050148010254,-7.948050498962402,0.5320500135421753
1780563638306778000,5.594778076171875,8.793000221252441,-8.071050643920898,0.8770500421524048
1780563638326296000,5.614296142578125,8.692950248718262,-7.654950141906738,1.4010000228881836
1780563638345814500,5.633814453125,8.461050033569336,-7.0489501953125,2.020050048828125
1780563638365337000,5.653337158203125,8.166000366210938,-6.736050128936768,2.665950059890747
1780563638384859400,5.672859375,7.974000453948975,-6.8610005378723145,3.0810000896453857
1780563638404380200,5.692380126953125,7.9710001945495605,-7.074000358581543,2.91195011138916
1780563638423901000,5.71190087890625,7.873950481414795,-7.0819501876831055,2.39805006980896
1780563638443423000,5.731423095703125,7.795050144195557,-6.744000434875488,2.0460000038146973
1780563638462946800,5.75094677734375,7.660950183868408,-6.240000247955322,2.2990500926971436
1780563638482467600,5.770467529296875,7.423050403594971,-5.953050136566162,2.8789501190185547
1780563638501988000,5.789988037109375,7.25700044631958,-5.931000232696533,3.301950216293335
1780563638521511400,5.809511474609375,7.189950466156006,-6.031050205230713,3.0679502487182617
1780563638541038600,5.82903857421875,7.234050273895264,-5.94795036315918,1.065000057220459
1780563638560563200,5.848563232421875,7.371000289916992,-5.827950477600098,0.4549500346183777
1780563638580086800,5.868086669921875,7.549950122833252,-5.772000312805176,0.21300001442432404
1780563638599608600,5.887608642578125,7.651950359344482,-5.703000068664551,0.361050009727478
1780563638619129000,5.907129150390625,7.5450005531311035,-5.620050430297852,0.5689499974250793
1780563638638649300,5.9266494140625,7.218000411987305,-5.434950351715088,0.6370500326156616
1780563638658167300,5.946167236328125,6.690000534057617,-5.220000267028809,0.32805001735687256
1780563638677689600,5.965689697265625,6.124950408935547,-5.133000373840332,-0.24900001287460327
1780563638697211600,5.985211669921875,5.776950359344482,-5.298000335693359,-0.7200000286102295
1780563638716732200,6.004732177734375,5.758050441741943,-5.620050430297852,-0.9709500670433044
1780563638736257500,6.024257568359375,6.058050155639648,-5.802000045776367,-0.987000048160553
1780563638755783700,6.04378369140625,6.472050189971924,-5.697000503540039,-0.9630000591278076
1780563638775308800,6.063308837890625,6.844050407409668,-5.332050323486328,-1.1809500455856323
1780563638794835700,6.082835693359375,7.105950355529785,-4.833000183105469,-1.6810500621795654
1780563638814365200,6.102365234375,7.26900053024292,-4.276950359344482,-3.2029502391815186
1780563638833894400,6.121894287109375,7.3660502433776855,-3.6499502658843994,-3.4870500564575195
1780563638853419300,6.141419189453125,7.2330002784729,-3.0450000762939453,-3.5970001220703125
1780563638872943900,6.16094384765625,6.8580002784729,-2.557950019836426,-3.460050106048584
1780563638892469800,6.1804697265625,6.315000534057617,-2.3550000190734863,-3.2290501594543457
1780563638911991300,6.1999912109375,5.922000408172607,-2.4880502223968506,-3.1519501209259033
1780563638931514600,6.2195146484375,6.016050338745117,-2.830050230026245,-3.181950092315674
1780563638951044600,6.239044677734375,7.618950366973877,-3.265050172805786,-3.117000102996826
1780563638970571500,6.258571533203125,7.9960503578186035,-3.750000238418579,-2.6890501976013184
1780563638990099700,6.278099609375,8.371050834655762,-4.35105037689209,-1.0210500955581665
1780563639009629000,6.29762890625,8.551050186157227,-4.930050373077393,-0.6370500326156616
1780563639029157600,6.31715771484375,8.557950019836426,-5.238000392913818,-0.5839500427246094
1780563639048684500,6.3366845703125,8.422950744628906,-5.20395040512085,-1.0060499906539917
1780563639068206800,6.356206787109375,8.304000854492188,-4.912050247192383,-1.492050051689148
1780563639087731700,6.375731689453125,8.09595012664795,-4.6870503425598145,-1.519050121307373
1780563639107256300,6.39525634765625,7.660050392150879,-4.839000225067139,0.20100000500679016
1780563639126779400,6.414779296875,7.06095027923584,-5.299950122833252,0.6190500259399414
1780563639146299400,6.43429931640625,6.552000522613525,-5.755950450897217,0.9690000414848328
1780563639165823000,6.453822998046875,6.352950096130371,-5.979000091552734,0.9280500411987305
1780563639185348400,6.473348388671875,6.559950351715088,-5.944050312042236,0.6469500064849854
1780563639204870100,6.4928701171875,6.946950435638428,-5.863950252532959,0.5029500126838684
1780563639224391700,6.5123916015625,7.206000328063965,-5.8999505043029785,0.6799500584602356
1780563639243915500,6.53191552734375,7.183950424194336,-6.1210503578186035,1.0440000295639038
1780563639263442000,6.55144189453125,7.023000240325928,-6.457950115203857,1.3510500192642212
1780563639282962400,6.57096240234375,7.071000099182129,-6.741000175476074,1.3669500350952148
1780563639302482200,6.590482177734375,7.473000526428223,-6.961050510406494,1.1119500398635864
1780563639322004000,6.61000390625,8.026050567626953,-7.129050254821777,0.8149500489234924
1780563639341523200,6.629523193359375,8.464950561523438,-7.234950542449951,0.5869500041007996
1780563639361040400,6.649040283203125,8.635050773620605,-7.273950576782227,0.5359500050544739
1780563639380559000,6.66855908203125,8.43600082397461,-7.141050338745117,0.5929500460624695
1780563639400077800,6.688077880859375,8.068950653076172,-6.756000518798828,0.5680500268936157
1780563639419600400,6.707600341796875,7.7410502433776855,-6.277950286865234,0.42000001668930054
1780563639439119000,6.727119140625,7.464000225067139,-5.944050312042236,0.22305001318454742
1780563639458634000,6.746634033203125,7.330050468444824,-5.968050479888916,0.15900000929832458
1780563639478154000,6.766154052734375,7.408050537109375,-6.336000442504883,0.28995001316070557
1780563639497678600,6.7856787109375,7.581000328063965,-6.736950397491455,0.4710000157356262
1780563639517202400,6.805202392578125,7.849050521850586,-6.960000514984131,0.5230500102043152
1780563639536718600,6.824718505859375,8.175000190734863,-6.9720001220703125,0.31095001101493835
1780563639556236000,6.844236083984375,8.391000747680664,-6.982950210571289,-0.0010500000789761543
1780563639575758800,6.8637587890625,8.613000869750977,-7.2330002784729,-0.1579500138759613
1780563639595278800,6.88327880859375,8.808000564575195,-7.636050224304199,-0.032999999821186066
1780563639614801000,6.90280078125,8.961000442504883,-7.962000370025635,0.3550500273704529
1780563639634328300,6.922328369140625,8.926050186157227,-8.044050216674805,0.9409500360488892
1780563639653856300,6.941856201171875,8.650050163269043,-7.864950180053711,2.4000000953674316
1780563639673384200,6.96138427734375,8.380949974060059,-7.513050556182861,2.740950107574463
1780563639692907300,6.9809072265625,8.16195011138916,-7.197000503540039,2.950050115585327
1780563639712426000,7.000426025390625,8.131050109863281,-7.051050186157227,2.8939502239227295
1780563639731947500,7.019947509765625,8.134950637817383,-7.042050361633301,2.635050058364868
1780563639751470300,7.03947021484375,8.028000831604004,-7.024050235748291,2.370000123977661
1780563639770988500,7.058988525390625,7.818000316619873,-6.7759504318237305,2.335050106048584
1780563639790507500,7.078507568359375,7.552950382232666,-6.285000324249268,2.4820501804351807
1780563639810027800,7.09802783203125,7.336050510406494,-5.734950065612793,2.625000238418579
1780563639829547300,7.11754736328125,7.096950531005859,-5.4340500831604,2.614950180053711
1780563639849067000,7.13706689453125,6.973050117492676,-5.499000072479248,2.40405011177063
1780563639868589000,7.156589111328125,6.987000465393066,-5.724000453948975,1.9890000820159912
1780563639888113700,7.17611376953125,7.114050388336182,-5.8720502853393555,1.5120000839233398
1780563639907632000,7.195632080078125,7.305000305175781,-5.82105016708374,1.065000057220459
1780563639927150300,7.215150390625,7.381950378417969,-5.63700008392334,0.736050009727478
1780563639946669000,7.2346689453125,7.357950210571289,-5.48205041885376,0.5650500059127808
1780563639966184000,7.254183837890625,7.252050399780273,-5.418000221252441,0.4210500121116638
1780563639985705500,7.27370556640625,7.164000511169434,-5.4120001792907715,0.19305001199245453
1780563640005229600,7.2932294921875,7.122000217437744,-5.416050434112549,-0.12195000797510147
1780563640024748800,7.312748779296875,7.105950355529785,-5.377950191497803,-0.43800002336502075
1780563640044268800,7.332268798828125,7.119000434875488,-5.263050079345703,-0.6930000185966492
1780563640063791400,7.351791259765625,7.191000461578369,-5.091000080108643,-0.973050057888031
1780563640083316500,7.37131640625,7.228950500488281,-4.855950355529785,-1.3570500612258911
1780563640102840800,7.3908408203125,7.147050380706787,-4.53000020980835,-1.9170000553131104
1780563640122363600,7.41036376953125,6.982950210571289,-4.045050144195557,-3.4780502319335938
1780563640141884200,7.42988427734375,6.645000457763672,-3.4390501976013184,-3.9030001163482666
1780563640161407500,7.449407470703125,6.298050403594971,-2.8500001430511475,-4.171950340270996
1780563640180933000,7.46893310546875,5.998950481414795,-2.431950092315674,-4.04295015335083
1780563640200456400,7.48845654296875,5.764050483703613,-2.313000202178955,-3.5380501747131348
1780563640219979500,7.5079794921875,5.752950191497803,-2.4250500202178955,-2.1469500064849854
1780563640239499300,7.527499267578125,6.013050079345703,-2.584050178527832,-2.275050163269043
1780563640259015400,7.547015380859375,7.660950183868408,-2.7330000400543213,-2.811000108718872
1780563640278533400,7.566533447265625,7.9200005531311035,-2.9599502086639404,-3.3540000915527344
1780563640298056200,7.58605615234375,8.242050170898438,-3.424950122833252,-3.43500018119812
1780563640317580300,7.605580322265625,8.410950660705566,-4.9770002365112305,-1.4839500188827515
1780563640337102000,7.62510205078125,8.362950325012207,-5.48205041885376,-0.9859500527381897
1780563640356614700,7.64461474609375,8.29995059967041,-5.91195011138916,-0.5760000348091125
1780563640376128300,7.664128173828125,8.299050331115723,-5.908050060272217,-0.7410000562667847
1780563640395648300,7.683648193359375,8.223000526428223,-5.502000331878662,-1.308000087738037
1780563640415167200,7.703167236328125,8.035050392150879,-5.00100040435791,-1.672950029373169
1780563640434686200,7.722686279296875,7.795050144195557,-4.683000087738037,-1.4160000085830688
1780563640454208800,7.742208740234375,7.374000549316406,-4.7220001220703125,0.14100000262260437
1780563640473734700,7.761734619140625,6.933000564575195,-4.996950149536133,0.5670000314712524
1780563640493259500,7.781259521484375,6.618000507354736,-5.344050407409668,0.7870500087738037
1780563640512786000,7.800785888671875,6.550950527191162,-5.628000259399414,0.7069500088691711
1780563640532313000,7.82031298828125,6.87600040435791,-5.800050258636475,0.5580000281333923
1780563640551834600,7.839834716796875,7.468050479888916,-5.932950496673584,0.6169500350952148
1780563640571356700,7.859356689453125,7.987950325012207,-6.078000068664551,0.921000063419342
1780563640590879200,7.878879150390625,8.17905044555664,-6.223950386047363,1.2079501152038574
1780563640610402000,7.898402099609375,8.035050392150879,-6.369000434875488,1.281000018119812
1780563640629928200,7.91792822265625,7.692000389099121,-6.448050498962402,1.111050009727478
1780563640649453800,7.937453857421875,7.3120503425598145,-6.463950157165527,0.8100000619888306
1780563640668980000,7.95697998046875,7.018050193786621,-6.529950141906738,0.5730000138282776
1780563640688503600,7.976503662109375,7.014000415802002,-6.7159504890441895,0.5149500370025635
1780563640708023000,7.99602294921875,7.2210001945495605,-7.042050361633301,0.5209500193595886
1780563640727543800,8.015543701171875,7.6210503578186035,-7.338000297546387,0.4720500111579895
1780563640747063000,8.03506298828125,8.079000473022461,-7.4320502281188965,0.22995001077651978
1780563640766582300,8.054582275390626,8.419050216674805,-7.248000144958496,-0.30195000767707825
1780563640786104000,8.07410400390625,8.665950775146484,-6.853050231933594,-0.9150000214576721
1780563640805622300,8.093622314453125,8.75100040435791,-6.582000255584717,-1.374000072479248
1780563640825140500,8.113140380859376,8.767050743103027,-6.640050411224365,-1.5010501146316528
1780563640844660200,8.13266015625,8.695050239562988,-7.006950378417969,-1.2330000400543213
1780563640864179200,8.15217919921875,8.518950462341309,-7.374000549316406,-0.8340000510215759
1780563640883693600,8.171693603515624,8.407950401306152,-7.462050437927246,-0.6439500451087952
1780563640903206700,8.19120654296875,8.365050315856934,-7.380000114440918,-0.7240500450134277
1780563640922721500,8.210721435546875,8.344950675964355,-7.338000297546387,-0.8670000433921814
1780563640942238200,8.23023828125,8.416950225830078,-7.533000469207764,-0.8490000367164612
1780563640961758200,8.24975830078125,8.48805046081543,-7.90500020980835,-0.531000018119812
1780563640981277000,8.26927685546875,8.647050857543945,-8.138999938964844,-0.00795000046491623
1780563641000796400,8.28879638671875,8.782950401306152,-8.072999954223633,0.4030500054359436
1780563641020320000,8.308320068359375,8.808000564575195,-7.849050521850586,0.6799500584602356
1780563641039840300,8.32784033203125,8.755050659179688,-7.591050148010254,0.9720000624656677
1780563641059358500,8.3473583984375,8.62695026397705,-7.281000137329102,1.3339500427246094
1780563641078878200,8.366878173828125,8.457000732421875,-6.820950508117676,1.689000129699707
1780563641098396400,8.386396484375,8.206049919128418,-6.289050102233887,1.8550500869750977
1780563641117913600,8.40591357421875,7.945950508117676,-5.923050403594971,1.8229501247406006
1780563641137431600,8.425431640625,7.6870503425598145,-5.766000270843506,1.7149500846862793
1780563641156948700,8.44494873046875,7.566000461578369,-5.755050182342529,1.7440500259399414
1780563641176468200,8.46446826171875,7.642050266265869,-5.800050258636475,2.0809500217437744
1780563641195991000,8.483990966796876,7.773000240325928,-5.703000068664551,2.350050210952759
1780563641215510000,8.503510009765625,7.813050270080566,-5.458950042724609,2.247000217437744
1780563641235029200,8.523029296875,7.690950393676758,-5.184000015258789,1.741050124168396
1780563641254550000,8.542550048828126,7.486950397491455,-4.819950103759766,0.12405000627040863
1780563641274070500,8.562070556640625,7.284000396728516,-4.474950313568115,-0.19395001232624054
1780563641293592000,8.581592041015625,7.090050220489502,-4.2619500160217285,-0.4069500267505646
1780563641313109500,8.601109619140624,6.936000347137451,-4.249950408935547,-0.48795002698898315
1780563641332630300,8.62063037109375,6.87600040435791,-4.402950286865234,-0.6460500359535217
1780563641352155400,8.6401552734375,6.934950351715088,-4.519050121307373,-0.9190500378608704
1780563641371676200,8.65967626953125,7.07295036315918,-4.617000102996826,-1.2310500144958496
1780563641391196700,8.67919677734375,7.309050559997559,-4.716000080108643,-1.4269500970840454
1780563641410715100,8.698715087890625,7.527000427246094,-4.825050354003906,-1.5510001182556152
1780563641430234000,8.718234130859376,7.656000137329102,-4.846050262451172,-1.771950125694275
1780563641449757000,8.7377568359375,7.749000549316406,-4.548000335693359,-2.3110501766204834
1780563641469280300,8.7572802734375,7.729950428009033,-2.7120001316070557,-4.273950099945068
1780563641488805000,8.77680517578125,7.509000301361084,-2.2380001544952393,-4.7910003662109375
1780563641508333000,8.7963330078125,7.045050144195557,-1.6360501050949097,-5.049000263214111
1780563641527857000,8.81585693359375,5.2669501304626465,-1.3789501190185547,-4.762950420379639
1780563641547378200,8.835378173828126,5.0970001220703125,-1.6230000257492065,-3.058950185775757
1780563641566897400,8.8548974609375,5.137950420379639,-2.187000036239624,-2.53695011138916
1780563641586414000,8.8744140625,5.6260504722595215,-2.647050142288208,-2.470950126647949
1780563641605928200,8.89392822265625,7.576950550079346,-2.7270002365112305,-4.297950267791748
1780563641625444600,8.913444580078124,9.010950088500977,-2.4979500770568848,-4.800000190734863
1780563641644965400,8.93296533203125,9.160950660705566,-2.260050058364868,-5.172000408172607
1780563641664485600,8.952485595703125,8.871000289916992,-2.4220499992370605,-4.846950054168701
1780563641684007400,8.97200732421875,7.0249505043029785,-4.593000411987305,-2.6260502338409424
1780563641703530000,8.991530029296875,6.885000228881836,-4.954950332641602,-0.6210000514984131
1780563641723051800,9.0110517578125,6.919950485229492,-5.245050430297852,-0.534000039100647
1780563641742573300,9.0305732421875,7.387950420379639,-5.026950359344482,-1.0320000648498535
1780563641762094000,9.050093994140624,8.028000831604004,-3.1530001163482666,-2.5450501441955566
1780563641781616600,9.06961669921875,8.365950584411621,-3.0709500312805176,-2.4870002269744873
1780563641801134300,9.08913427734375,8.0910005569458,-3.4549500942230225,0.08700000494718552
1780563641820649500,9.1086494140625,6.531000137329102,-5.278950214385986,2.2350001335144043
1780563641840166400,9.12816650390625,6.192000389099121,-5.746950149536133,2.4120001792907715
1780563641859689700,9.147689697265625,6.043950080871582,-5.91195011138916,2.1409502029418945
1780563641879217700,9.1672177734375,6.277050495147705,-5.665050506591797,0.6919500231742859
1780563641898742500,9.186742431640624,6.754050254821777,-5.2860002517700195,0.5779500007629395
1780563641918264300,9.206264404296874,6.961050510406494,-5.239950180053711,0.9820500612258911
1780563641937787100,9.225787109375,6.76800012588501,-5.599950313568115,2.608950138092041
1780563641957310700,9.245310791015624,6.517950534820557,-6.145050525665283,2.7810001373291016
1780563641976829200,9.2648291015625,6.585000514984131,-6.681000232696533,2.5030500888824463
1780563641996351700,9.284351806640625,8.157000541687012,-7.147950172424316,0.739050030708313
1780563642015875600,9.30387548828125,8.562000274658203,-7.627950191497803,0.5550000071525574
1780563642035398700,9.323398681640626,9.088050842285156,-8.071050643920898,0.5110500454902649
1780563642054924500,9.342924560546875,9.318000793457031,-8.343000411987305,0.7150500416755676
1780563642074447400,9.362447265625,9.094050407409668,-8.26200008392334,0.9780000448226929
1780563642093971200,9.38197119140625,8.740050315856934,-7.734000205993652,0.970050036907196
1780563642113491000,9.401490966796874,8.437950134277344,-6.256050109863281,0.5470499992370605
1780563642133012700,9.4210126953125,8.257950782775879,-6.211050510406494,0.004050000105053186
1780563642152538600,9.44053857421875,8.346000671386719,-6.475950241088867,-0.3379500210285187
1780563642172060700,9.460060791015625,8.476950645446777,-8.098050117492676,-0.36195001006126404
1780563642191585300,9.479585205078125,8.443050384521484,-8.272050857543945,0.04305000230669975
1780563642211111200,9.499111083984374,8.389050483703613,-8.226000785827637,0.5430000424385071
1780563642230636500,9.518636474609375,8.505000114440918,-7.858950138092041,0.7500000596046448
1780563642250163200,9.5381630859375,8.857050895690918,-7.333950519561768,0.7200000286102295
1780563642269688000,9.55768798828125,9.418950080871582,-6.973950386047363,0.4720500111579895
1780563642289213200,9.577213134765625,9.850950241088867,-7.069950103759766,0.23895001411437988
1780563642308743000,9.596742919921875,9.903000831604004,-7.465050220489502,0.361050009727478
1780563642328269800,9.616269775390625,9.724050521850586,-7.70205020904541,0.7900500297546387
1780563642347789800,9.635789794921875,9.450000762939453,-7.495950222015381,1.2820500135421753
1780563642367314200,9.655314208984375,9.237000465393066,-5.512050151824951,1.7070001363754272
1780563642386844400,9.674844482421875,9.088050842285156,-5.206050395965576,2.124000072479248
1780563642406372400,9.694372314453124,8.934000015258789,-5.118000030517578,2.464050054550171
1780563642425903900,9.71390380859375,8.800050735473633,-5.356950283050537,2.674950122833252
1780563642445434600,9.7334345703125,8.635950088500977,-5.595000267028809,2.5440001487731934
1780563642464962300,9.75296240234375,8.414999961853027,-5.551050186157227,2.0659501552581787
1780563642484490000,9.772489990234375,8.119950294494629,-5.1820502281188965,1.9369500875473022
1780563642504019000,9.79201904296875,7.746000289916992,-4.771050453186035,2.3590500354766846
1780563642523548700,9.811548583984376,7.486950397491455,-4.585050106048584,2.868000030517578
1780563642543078000,9.831077880859375,7.414050579071045,-4.603950023651123,3.0730502605438232
1780563642562605000,9.85060498046875,7.4569501876831055,-4.642050266265869,1.2540000677108765
1780563642582134300,9.87013427734375,7.606950283050537,-4.555950164794922,-0.3520500063896179
1780563642601661700,9.88966162109375,7.675050258636475,-4.52400016784668,-0.45000001788139343
1780563642621189400,9.909189453125,7.693050384521484,-4.579950332641602,-0.25995001196861267
1780563642640717000,9.928717041015625,7.668000221252441,-4.669050216674805,0.15495000779628754
1780563642660242700,9.94824267578125,7.543050289154053,-4.749000072479248,0.42705002427101135
1780563642679771400,9.967771484375,7.383000373840332,-4.699050426483154,0.3150000274181366
1780563642699300000,9.987300048828125,7.201050281524658,-4.584000110626221,-0.20805001258850098
1780563642718828500,10.00682861328125,6.991950511932373,-4.557000160217285,-1.6849501132965088
1780563642738360000,10.026360107421874,6.910050392150879,-4.654950141906738,-1.8919501304626465
1780563642757894000,10.045893798828125,6.937950134277344,-4.767000198364258,-2.035950183868408
1780563642777427000,10.065427001953125,7.018050193786621,-4.750050067901611,-2.1910500526428223
1780563642796956400,10.084956298828125,7.189050197601318,-4.44195032119751,-2.5290000438690186
1780563642816486700,10.104486572265625,7.31505012512207,-2.7139501571655273,-4.3560004234313965
1780563642836016000,10.12401611328125,7.387950420379639,-2.356950044631958,-4.666050434112549
1780563642855546000,10.143546142578124,7.285050392150879,-1.9489500522613525,-4.972050189971924
1780563642875080000,10.163079833984375,7.011000156402588,-1.8379501104354858,-4.703999996185303
1780563642894613200,10.18261328125,6.718950271606445,-2.2270500659942627,-2.6830501556396484
1780563642914141200,10.20214111328125,6.579000473022461,-3.9400501251220703,-2.070000171661377
1780563642933666800,10.221666748046875,6.754950523376465,-4.038000106811523,-2.041949987411499
1780563642953194000,10.241194091796874,7.260000228881836,-3.9280502796173096,-3.7609500885009766
1780563642972719000,10.260718994140625,7.785000324249268,-3.478950262069702,-6.094050407409668
1780563642992244500,10.280244384765625,8.218950271606445,-3.000000238418579,-6.378000259399414
1780563643011771000,10.29977099609375,8.457000732421875,-3.007050037384033,-3.4560000896453857
1780563643031297300,10.31929736328125,8.170050621032715,-4.992000102996826,0.2989500164985657
1780563643050828800,10.338828857421875,7.639950275421143,-5.422050476074219,0.8680500388145447
1780563643070361000,10.358361083984375,7.129950523376465,-5.85705041885376,1.0390501022338867
1780563643089891300,10.377891357421875,6.69795036315918,-5.781000137329102,-1.2499500513076782
1780563643109420300,10.397420166015625,6.430950164794922,-4.05495023727417,-1.7830500602722168
1780563643128949000,10.416948974609374,6.423000335693359,-3.9300003051757812,-1.64805006980896
1780563643148476000,10.436475830078125,6.490950107574463,-4.059000015258789,2.07705020904541
1780563643168001300,10.456001220703126,6.426000118255615,-4.427999973297119,3.765000104904175
1780563643187531500,10.475531494140625,6.450000286102295,-4.914000034332275,3.748950242996216
1780563643207061200,10.495061279296875,6.652950286865234,-5.275050163269043,2.116950035095215
1780563643226590200,10.514590087890625,6.88800048828125,-5.487000465393066,1.7920501232147217
1780563643246120200,10.5341201171875,7.2360005378723145,-5.805000305175781,1.8829500675201416
1780563643265646800,10.553646728515625,7.434000492095947,-6.223050117492676,3.574050188064575
1780563643285172200,10.573172119140626,7.359000205993652,-6.574050426483154,3.756000280380249
1780563643304701400,10.592701416015625,7.228950500488281,-6.673050403594971,3.561000108718872
1780563643324235000,10.612235107421874,7.309950351715088,-6.552000522613525,1.582050085067749
1780563643343767300,10.631767333984374,7.776000499725342,-6.454950332641602,1.297950029373169
1780563643363292400,10.65129248046875,8.331000328063965,-6.676050186157227,1.120050072669983
1780563643382817800,10.67081787109375,8.635050773620605,-7.213950157165527,1.2780001163482666
1780563643402341000,10.690341064453126,8.641050338745117,-7.81095027923584,1.5709500312805176
1780563643421863200,10.70986328125,8.482049942016602,-8.05305004119873,1.7970000505447388
1780563643441385000,10.729385009765625,8.480999946594238,-7.633950233459473,1.7640000581741333
1780563643460911600,10.74891162109375,8.812050819396973,-6.11400032043457,1.4020500183105469
1780563643480443100,10.768443115234374,9.250950813293457,-5.970000267028809,0.9790500402450562
1780563643499972400,10.787972412109376,9.442950248718262,-6.142950057983398,0.6760500073432922
1780563643519500000,10.8075,9.238950729370117,-6.622950077056885,0.5620500445365906
1780563643539027700,10.82702783203125,8.646000862121582,-6.994950294494629,0.6390000581741333
1780563643558550500,10.846550537109374,8.062050819396973,-6.8610005378723145,0.6970500349998474
1780563643578070800,10.86607080078125,7.897050380706787,-6.390000343322754,0.5809500217437744
1780563643597595000,10.885594970703124,8.178000450134277,-6.055050373077393,0.4410000145435333
1780563643617116700,10.90511669921875,8.782950401306152,-6.111000061035156,0.33900001645088196
1780563643636635100,10.92463525390625,9.235950469970703,-6.6060004234313965,0.4420500099658966
1780563643656159000,10.944158935546875,9.394950866699219,-7.16895055770874,0.7950000166893005
1780563643675684900,10.963684814453124,9.442950248718262,-7.344000339508057,1.1650500297546387
1780563643695208400,10.98320849609375,9.42495059967041,-7.012050151824951,1.3729500770568848
1780563643714738200,11.00273828125,9.444000244140625,-6.424950122833252,1.426050066947937
1780563643734269700,11.022269775390624,9.457950592041016,-6.055050373077393,1.5229500532150269
1780563643753795300,11.04179541015625,9.205050468444824,-6.159000396728516,1.8990000486373901
1780563643773318000,11.06131787109375,8.737950325012207,-6.607950210571289,3.652050256729126
1780563643792843000,11.080843017578125,8.308050155639648,-6.880050182342529,3.763050079345703
1780563643812369400,11.100369384765624,8.044050216674805,-6.679050445556641,3.567000150680542
1780563643831894000,11.11989404296875,7.9770002365112305,-6.13800048828125,3.003000259399414
1780563643851416000,11.139416015625,7.963050365447998,-5.626950263977051,2.551950216293335
1780563643870938400,11.1589384765625,7.8949503898620605,-5.332050323486328,2.5630500316619873
1780563643890463700,11.178463623046875,7.686000347137451,-5.095950126647949,2.8090500831604004
1780563643909990700,11.19799072265625,7.4239501953125,-4.78095006942749,2.980950117111206
1780563643929520000,11.21752001953125,7.260000228881836,-4.302000045776367,2.776050090789795
1780563643949050600,11.237050537109376,7.189050197601318,-3.888000249862671,2.230950117111206
1780563643968578000,11.256578125,7.114950180053711,-3.807000160217285,1.7770501375198364
1780563643988101600,11.2761015625,6.87600040435791,-4.063950061798096,1.5910500288009644
1780563644007624400,11.29562451171875,6.600000381469727,-4.446000099182129,1.4700000286102295
1780563644027152100,11.315152099609374,6.463950157165527,-4.779000282287598,1.125
1780563644046680600,11.3346806640625,6.57705020904541,-4.9360504150390625,-0.5629500150680542
1780563644066205400,11.354205322265624,6.877950191497803,-4.885050296783447,-0.931950032711029
1780563644085729000,11.37372900390625,7.135050296783447,-4.8259501457214355,-1.4710500240325928
1780563644105254400,11.39325439453125,7.201950550079346,-4.867950439453125,-1.9140000343322754
1780563644124779300,11.412779296875,7.038000106811523,-4.872000217437744,-2.187000036239624
1780563644144304400,11.432304443359374,6.9370503425598145,-4.705049991607666,-2.4019501209259033
1780563644163831600,11.45183154296875,6.919950485229492,-4.3470001220703125,-2.572050094604492
1780563644183356400,11.4713564453125,6.922050476074219,-3.8530502319335938,-2.599950075149536
1780563644202879500,11.49087939453125,6.955050468444824,-3.4639501571655273,-2.5000500679016113
1780563644222404000,11.510404052734375,7.012050151824951,-3.331050157546997,-2.329050064086914
1780563644241933000,11.52993310546875,7.174050331115723,-3.2779500484466553,-2.3170502185821533
1780563644261463300,11.54946337890625,7.360950469970703,-3.192000150680542,-2.7810001373291016
1780563644280988700,11.56898876953125,7.4569501876831055,-3.100050210952759,-4.462050437927246
1780563644300511200,11.58851123046875,7.405950546264648,-3.040950059890747,-4.869000434875488
1780563644320030000,11.608030029296875,7.306950569152832,-3.160950183868408,-5.0370001792907715
1780563644339549700,11.6275498046875,7.212000370025635,-3.4200000762939453,-4.567950248718262
1780563644359075800,11.647075927734376,7.266000270843506,-3.793950080871582,-2.697000026702881
1780563644378599400,11.666599365234376,7.300950527191162,-4.2870001792907715,-1.024049997329712
1780563644398122200,11.686122314453126,7.329000473022461,-4.70205020904541,-0.8839500546455383
1780563644417648400,11.7056484375,7.4350504875183105,-4.884000301361084,-0.9390000700950623
1780563644437173000,11.725173095703125,7.458000183105469,-4.785000324249268,-1.0639500617980957
1780563644456699000,11.744698974609374,7.434000492095947,-4.588950157165527,-0.9760500192642212
1780563644476221000,11.764220947265626,7.2330002784729,-4.527000427246094,0.6799500584602356
1780563644495735300,11.7837353515625,6.889950275421143,-4.711950302124023,1.0999500751495361
1780563644515247600,11.80324755859375,6.628950119018555,-4.942050457000732,1.6380001306533813
1780563644534761000,11.822760986328126,6.56505012512207,-5.014950275421143,1.8649500608444214
1780563644554278100,11.842278076171874,6.6850504875183105,-4.924950122833252,1.702950119972229
1780563644573796900,11.861796875,6.877050399780273,-4.827000141143799,1.5430500507354736
1780563644593313800,11.881313720703124,6.949050426483154,-4.978050231933594,1.6560001373291016
1780563644612829700,11.90082958984375,7.039950370788574,-5.418000221252441,2.1499500274658203
1780563644632344000,11.920343994140625,7.3120503425598145,-5.8720502853393555,2.6959500312805176
1780563644651856000,11.93985595703125,7.776000499725342,-6.135000228881836,2.940000057220459
1780563644671366100,11.9593662109375,8.427000045776367,-6.250050067901611,2.8339500427246094
1780563644690881800,11.9788818359375,8.971050262451172,-6.322050094604492,2.496000051498413
1780563644710399700,11.998399658203125,9.247050285339355,-6.472050189971924,2.1409502029418945
1780563644729911800,12.017911865234375,9.346050262451172,-6.6739501953125,1.7749500274658203
1780563644749422600,12.037422607421876,9.279000282287598,-6.790050506591797,1.3120501041412354
1780563644768934100,12.05693408203125,9.133950233459473,-6.748950481414795,-0.3340500295162201
1780563644788445700,12.07644580078125,9.016050338745117,-6.664050102233887,-0.6160500049591064
1780563644807960300,12.095960205078125,8.932050704956055,-6.724950313568115,-0.8760000467300415
1780563644827475200,12.11547509765625,8.881950378417969,-6.867000102996826,-0.9019500613212585
1780563644846989600,12.134989501953125,8.859000205993652,-6.925050258636475,-0.7770000100135803
1780563644866510300,12.15451025390625,8.809950828552246,-6.885000228881836,-0.47700002789497375
1780563644886030000,12.174030029296874,8.7649507522583,-6.68595027923584,-0.11595000326633453
1780563644905547500,12.193547607421875,8.788050651550293,-6.456000328063965,0.1399500072002411
1780563644925064400,12.213064453125,8.896950721740723,-6.382950305938721,0.25200000405311584
1780563644944577800,12.232577880859376,8.949000358581543,-6.586050510406494,0.22905001044273376
1780563644964090000,12.252090087890625,8.907000541687012,-7.065000534057617,0.25394999980926514
1780563644983601000,12.271600830078125,8.907000541687012,-7.591050148010254,0.4050000309944153
1780563645003111200,12.291111083984376,9.010050773620605,-7.855050563812256,0.6570000052452087
1780563645022625500,12.31062548828125,9.280950546264648,-7.719000339508057,0.9130500555038452
1780563645042140700,12.330140625,9.543000221252441,-7.341000556945801,1.0879501104354858
1780563645061654300,12.349654296875,9.592050552368164,-7.063950538635254,1.3729500770568848
1780563645081171200,12.369171142578125,9.360000610351562,-7.057950496673584,1.915950059890747
1780563645100682500,12.3886826171875,8.908050537109375,-7.2270002365112305,3.415950059890747
1780563645120194600,12.408194580078124,8.395950317382812,-7.31505012512207,3.7270500659942627
1780563645139708000,12.4277080078125,7.992000579833984,-7.134000301361084,3.8200502395629883
1780563645159215600,12.447215576171875,7.73205041885376,-6.745950222015381,3.5779502391815186
1780563645178723600,12.4667236328125,7.531050205230713,-6.349050521850586,3.1780500411987305
1780563645198236000,12.48623583984375,7.332000255584717,-6.094050407409668,2.803950071334839
1780563645217751000,12.5057509765625,7.044000148773193,-5.881050109863281,2.5609500408172607
1780563645237261600,12.525261474609374,6.711000442504883,-5.641050338745117,2.325000047683716
1780563645256770000,12.54477001953125,6.456000328063965,-5.341050148010254,2.026050090789795
1780563645276279800,12.56427978515625,6.288000106811523,-5.0209503173828125,1.7470500469207764
1780563645295790600,12.58379052734375,6.211950302124023,-4.882050037384033,1.6000500917434692
1780563645315303700,12.6033037109375,6.127950191497803,-4.999950408935547,1.5019500255584717
1780563645334819000,12.622819091796876,6.1050004959106445,-5.239950180053711,1.3350000381469727
1780563645354329600,12.64232958984375,6.211950302124023,-5.494050025939941,0.9499500393867493
1780563645373838800,12.6618388671875,6.535950183868408,-5.574000358581543,-0.7150500416755676
1780563645393350100,12.68135009765625,7.0759501457214355,-5.454000473022461,-0.9199500679969788
1780563645412859600,12.700859619140624,7.573950290679932,-5.349000453948975,-1.1080501079559326
1780563645432366000,12.720365966796875,7.834050178527832,-5.293050289154053,-1.1620500087738037
1780563645451876600,12.739876708984376,7.8259501457214355,-5.208000183105469,-1.2570000886917114
1780563645471388400,12.759388427734375,7.695000171661377,-4.885950088500977,-1.5670500993728638
1780563645490898200,12.778898193359375,7.540950298309326,-2.9260501861572266,-3.630000114440918
1780563645510408000,12.798407958984376,7.477050304412842,-2.4649500846862793,-4.132050037384033
1780563645529914400,12.817914306640626,7.317000389099121,-1.91100013256073,-4.501950263977051
1780563645549422800,12.8374228515625,6.95205020904541,-1.6990500688552856,-4.140000343322754
1780563645568928000,12.856927978515625,6.562950134277344,-1.9380000829696655,-2.200050115585327
1780563645588429300,12.87642919921875,6.3160505294799805,-2.4060001373291016,-1.8060001134872437
1780563645607935200,12.895935302734374,6.51900053024292,-2.6860501766204834,-2.1910500526428223
1780563645627443500,12.915443359375,8.140049934387207,-2.593050241470337,-6.0010504722595215
1780563645646952200,12.9349521484375,8.414999961853027,-2.2860000133514404,-6.463050365447998
1780563645666461400,12.95446142578125,8.683050155639648,-2.1910500526428223,-6.2659502029418945
1780563645685963800,12.9739638671875,8.56605052947998,-3.8650500774383545,-1.771950125694275
1780563645705460000,12.9934599609375,8.10300064086914,-4.381950378417969,0.08700000494718552
1780563645724960800,13.012960693359375,7.618050575256348,-5.73900032043457,0.6040500402450562
1780563645744470800,13.032470703125,7.44195032119751,-5.569950103759766,0.4320000112056732
1780563645763979800,13.051979736328125,7.555950164794922,-3.8230502605438232,-1.2859500646591187
1780563645783482000,13.071482177734374,7.746000289916992,-3.652050256729126,-1.3990501165390015
1780563645802984400,13.090984375,7.576950550079346,-3.8550002574920654,1.2559500932693481
1780563645822490400,13.110490478515626,6.954000473022461,-5.737950325012207,3.0580501556396484
1780563645841998000,13.129998046875,6.5620503425598145,-6.0610504150390625,3.1050002574920654
1780563645861507600,13.149507568359375,6.5620503425598145,-6.292050361633301,2.640000104904175
1780563645881016300,13.169016357421874,7.053000450134277,-6.168000221252441,0.505050003528595
1780563645900525300,13.188525390625,8.60205078125,-6.078000068664551,0.16995000839233398
1780563645920035000,13.20803515625,8.493000030517578,-6.280050277709961,1.6410000324249268
1780563645939548000,13.2275478515625,8.158050537109375,-6.67995023727417,2.0940001010894775
1780563645959061800,13.247061767578124,7.833000183105469,-6.95805025100708,2.4880502223968506
1780563645978569500,13.266569580078125,7.6459503173828125,-6.877950191497803,2.3830502033233643
1780563645998077200,13.2860771484375,7.641000270843506,-6.552000522613525,0.7579500079154968
1780563646017585400,13.30558544921875,7.680000305175781,-6.406050205230713,0.7440000176429749
1780563646037090800,13.3250908203125,7.597050189971924,-6.583950519561768,1.1119500398635864
1780563646056597800,13.34459765625,7.471050262451172,-6.799050331115723,1.6300500631332397
1780563646076105700,13.364105712890625,7.383000373840332,-6.8460001945495605,1.966050148010254
1780563646095613700,13.38361376953125,7.485000133514404,-6.708000183105469,1.8660000562667847
1780563646115126500,13.40312646484375,7.630050182342529,-6.57705020904541,1.3680000305175781
1780563646134639600,13.4226396484375,7.73805046081543,-6.580050468444824,0.8680500388145447
1780563646154148600,13.442148681640624,7.765050411224365,-6.703050136566162,0.5920500159263611
1780563646173658600,13.46165869140625,7.762050151824951,-6.886050224304199,0.5550000071525574
1780563646193168400,13.48116845703125,7.854000568389893,-6.9910502433776855,0.5710500478744507
1780563646212681200,13.50068115234375,8.086950302124023,-7.195950508117676,0.3559500277042389
1780563646232199700,13.52019970703125,8.45205020904541,-7.579050540924072,-0.04905000329017639
1780563646251718100,13.53971826171875,8.671050071716309,-7.957050323486328,-0.44505003094673157
1780563646271235600,13.559235595703125,8.745000839233398,-8.293050765991211,-0.5850000381469727
1780563646290754000,13.578754150390624,8.659049987792969,-8.51205062866211,-0.24300001561641693
1780563646310274800,13.59827490234375,8.539950370788574,-8.55405044555664,1.2619500160217285
1780563646329798400,13.61779833984375,8.529000282287598,-8.433000564575195,1.7830500602722168
1780563646349318000,13.63731787109375,8.662050247192383,-8.266050338745117,2.3519999980926514
1780563646368831500,13.65683154296875,8.884950637817383,-8.14905071258545,2.805000066757202
1780563646388347100,13.67634716796875,9.055950164794922,-8.00100040435791,2.9290502071380615
1780563646407867100,13.6958671875,9.16200065612793,-7.842000484466553,2.650050163269043
1780563646427389400,13.715389404296875,9.075000762939453,-7.629000186920166,2.1690001487731934
1780563646446911700,13.734911865234375,8.809050559997559,-7.1670002937316895,1.7770501375198364
1780563646466431000,13.754430908203124,8.403000831604004,-6.57105016708374,1.615950107574463
1780563646485947100,13.773947021484375,7.861950397491455,-6.0960001945495605,1.7230501174926758
1780563646505463600,13.793463623046875,7.318950176239014,-5.835000514984131,2.1310501098632812
1780563646524978200,13.812978271484376,6.943050384521484,-5.782050132751465,2.5360500812530518
1780563646544490000,13.832489990234375,6.769050121307373,-5.793000221252441,2.7550501823425293
1780563646563997700,13.851997802734376,6.760950088500977,-5.635050296783447,2.743950128555298
1780563646583501800,13.871501708984376,6.862050533294678,-5.194050312042236,2.3430001735687256
1780563646603010600,13.891010498046874,6.9210004806518555,-4.606950283050537,0.8929500579833984
1780563646622528000,13.910528076171875,6.919050216674805,-4.126049995422363,0.5080500245094299
1780563646642044200,13.930044189453126,6.934050559997559,-3.8779501914978027,0.21495001018047333
1780563646661557200,13.94955712890625,7.020000457763672,-3.894000291824341,0.08100000023841858
1780563646681068300,13.969068359375,7.234950542449951,-4.0819501876831055,0.028950002044439316
1780563646700577500,13.98857763671875,7.552950382232666,-4.3120503425598145,-0.0970500037074089
1780563646720088600,14.008088623046875,7.9830002784729,-4.513050079345703,-0.4069500267505646
1780563646739603700,14.027603759765626,8.355000495910645,-4.621950149536133,-0.8449500203132629
1780563646759119000,14.047119140625,8.470050811767578,-4.6459503173828125,-1.3480501174926758
1780563646778635300,14.06663525390625,8.290050506591797,-4.573950290679932,-1.9350000619888306
1780563646798157300,14.0861572265625,7.7410502433776855,-4.2430500984191895,-3.4110002517700195
1780563646817675000,14.105675048828125,7.192050457000732,-2.370000123977661,-3.9160501956939697
1780563646837186800,14.125186767578125,6.733950138092041,-1.9180500507354736,-5.374950408935547
1780563646856698400,14.144698486328124,6.372000217437744,-0.505050003528595,-5.394000053405762
1780563646876206300,14.164206298828125,6.1620001792907715,-0.49800002574920654,-3.856950283050537
1780563646895717400,14.18371728515625,6.109950065612793,-0.8940000534057617,-3.3670501708984375
1780563646915232000,14.20323193359375,6.493950366973877,-1.4740500450134277,-2.845050096511841
1780563646934745600,14.22274560546875,8.176950454711914,-1.8310500383377075,-3.0949501991271973
1780563646954256600,14.242256591796876,8.690999984741211,-1.804050087928772,-5.07705020904541
1780563646973771800,14.261771728515624,8.872050285339355,-1.6909500360488892,-6.789000511169434
1780563646993292000,14.2812919921875,8.647050857543945,-1.9939501285552979,-6.5209503173828125
1780563647012810200,14.300810302734375,8.559000015258789,-3.6349501609802246,-1.5600000619888306
1780563647032330800,14.320330810546874,8.665050506591797,-4.266000270843506,0.33705002069473267
1780563647051853300,14.339853271484374,10.282050132751465,-4.675050258636475,1.9750500917434692
1780563647071377200,14.359377197265625,10.419000625610352,-4.353000164031982,1.8130500316619873
1780563647090901200,14.3789013671875,9.964950561523438,-2.77905011177063,-0.12600000202655792
1780563647110425000,14.398425048828125,8.505000114440918,-2.5219500064849854,-0.45900002121925354
1780563647129948700,14.41794873046875,8.1670503616333,-2.581050157546997,1.543950080871582
1780563647149472300,14.43747216796875,7.9069504737854,-3.0229501724243164,3.3610501289367676
1780563647168995800,14.456995849609376,8.140049934387207,-3.5430002212524414,3.555000066757202
1780563647188519200,14.476519287109374,9.826050758361816,-3.742950201034546,3.28695011138916
1780563647208042200,14.496042236328124,9.960000038146973,-3.517050266265869,1.221000075340271
1780563647227565300,14.5155654296875,10.009050369262695,-3.199050188064575,-0.15105000138282776
1780563647247090000,14.53508984375,9.87405014038086,-2.968950033187866,0.22005000710487366
1780563647266608400,14.5546083984375,9.586050033569336,-2.8600502014160156,1.6960500478744507
1780563647286125300,14.574125244140625,9.342000007629395,-2.8980002403259277,2.050950050354004
1780563647305648000,14.593648193359375,9.340950012207031,-2.9290502071380615,2.083050012588501
1780563647325169000,14.6131689453125,9.594000816345215,-2.842050075531006,1.602000117301941
1780563647344691500,14.63269140625,9.793950080871582,-2.716050148010254,0.9790500402450562
1780563647364213000,14.652212890625,10.047000885009766,-2.530050039291382,0.5389500260353088
1780563647383730400,14.67173046875,10.077000617980957,-2.263050079345703,0.34005001187324524
1780563647403247400,14.691247314453125,9.835050582885742,-2.124000072479248,0.2850000262260437
1780563647422768000,14.71076806640625,9.613950729370117,-1.9960501194000244,0.2779500186443329
1780563647442290200,14.730290283203125,9.385950088500977,-1.7800500392913818,0.22095000743865967
1780563647461813000,14.74981298828125,9.391050338745117,-1.5040500164031982,0.16200000047683716
1780563647481334800,14.769334716796875,9.473999977111816,-1.1389501094818115,0.1489500105381012
1780563647500853500,14.788853515625,9.553950309753418,-0.7480500340461731,0.16200000047683716
1780563647520373200,14.808373291015625,9.598950386047363,-0.48600003123283386,0.1770000010728836
1780563647539893000,14.82789306640625,9.592050552368164,-0.33000001311302185,0.13095000386238098
1780563647559414300,14.847414306640625,9.568950653076172,-0.19200000166893005,0.009000000543892384
1780563647578933500,14.86693359375,9.43005084991455,-0.15600000321865082,-0.15300001204013824
1780563647598456300,14.886456298828126,9.276000022888184,-0.11805000901222229,-0.2569500207901001
1780563647617981700,14.905981689453125,9.13800048828125,-0.043950002640485764,-0.3340500295162201
1780563647637503000,14.9255029296875,9.057000160217285,0.027000000700354576,-0.3960000276565552
1780563647657023500,14.9450234375,9.055950164794922,0.09405000507831573,-0.45000001788139343
1780563647676547000,14.964547119140626,9.121950149536133,0.15495000779628754,-0.5929500460624695
1780563647696073200,14.9840732421875,9.181950569152832,0.13199999928474426,-0.7660500407218933
1780563647715596300,15.00359619140625,9.249000549316406,0.10305000841617584,-0.9019500613212585
1780563647735118300,15.023118408203125,9.490950584411621,0.12405000627040863,-0.9370500445365906
1780563647754637300,15.04263720703125,9.756000518798828,0.13199999928474426,-0.921000063419342
1780563647774156000,15.062156005859375,9.907050132751465,0.15405000746250153,-0.9930000305175781
1780563647793674800,15.0816748046875,9.972000122070312,0.18195000290870667,-1.1190000772476196
1780563647813194200,15.1011943359375,9.850950241088867,0.21495001018047333,-1.2790501117706299
1780563647832718300,15.12071826171875,9.609000205993652,0.23100000619888306,-1.3189500570297241
1780563647852239600,15.140239501953126,9.502950668334961,0.2550000250339508,-1.114050030708313
1780563647871757600,15.159757568359375,9.52695083618164,0.2659500241279602,-0.8400000333786011
1780563647891281200,15.17928125,9.651000022888184,0.22500000894069672,-0.6570000052452087
1780563647910808800,15.198808837890626,9.793050765991211,0.18900001049041748,-0.6829500198364258
1780563647930333700,15.218333740234375,9.795000076293945,0.24105000495910645,-0.9040500521659851
1780563647949856300,15.237856201171875,9.77400016784668,0.37005001306533813,-1.0890001058578491
1780563647969374500,15.25737451171875,9.720000267028809,0.45795002579689026,-1.1059499979019165
1780563647988893000,15.276892822265625,9.675000190734863,0.45795002579689026,-0.9529500603675842
1780563648008410400,15.296410400390625,9.714000701904297,0.3439500033855438,-0.6970500349998474
1780563648027927800,15.315927734375,9.71505069732666,0.16995000839233398,-0.5250000357627869
1780563648047446500,15.335446533203125,9.678000450134277,0.09195000678300858,-0.5929500460624695
1780563648066966000,15.354966064453125,9.673050880432129,0.18495000898838043,-0.7279500365257263
1780563648086490400,15.374490478515625,9.745050430297852,0.2850000262260437,-0.8119500279426575
1780563648106010600,15.3940107421875,9.865050315856934,0.30705001950263977,-0.8520000576972961
1780563648125526800,15.41352685546875,9.943950653076172,0.2659500241279602,-0.7810500264167786
1780563648145043200,15.433043212890626,9.919950485229492,0.12195000797510147,-0.6810000538825989
1780563648164558000,15.45255810546875,9.780000686645508,0.0010500000789761543,-0.673050045967102
1780563648184078300,15.472078369140625,9.552000045776367,-0.0010500000789761543,-0.8059500455856323
1780563648203602000,15.491601806640626,9.373050689697266,0.0970500037074089,-1.0009500980377197
1780563648223126500,15.51112646484375,9.2920503616333,0.20100000500679016,-1.1610000133514404
1780563648242655200,15.5306552734375,9.313950538635254,0.2569500207901001,-1.1989500522613525
1780563648262183200,15.55018310546875,9.426000595092773,0.25005000829696655,-1.144950032234192
1780563648281707300,15.569707275390625,9.507000923156738,0.1469999998807907,-1.1149500608444214
1780563648301229600,15.5892294921875,9.565950393676758,0.14400000870227814,-1.1740500926971436
1780563648320752400,15.60875244140625,9.532950401306152,0.2350500077009201,-1.3210500478744507
1780563648340277000,15.628277099609376,9.366000175476074,0.31995001435279846,-1.3920000791549683
1780563648359800300,15.64780029296875,9.183000564575195,0.42705002427101135,-1.264050006866455
1780563648379320600,15.667320556640625,9.052050590515137,0.42195001244544983,-1.057050108909607
1780563648398836500,15.68683642578125,9.03600025177002,0.3439500033855438,-0.9040500521659851
1780563648418357000,15.70635693359375,9.148950576782227,0.31905001401901245,-0.8890500664710999
1780563648437880600,15.725880615234376,9.292950630187988,0.31905001401901245,-1.0180500745773315
1780563648457402600,15.745402587890625,9.361950874328613,0.3430500030517578,-1.0999500751495361
1780563648476925400,15.764925537109375,9.366000175476074,0.34905001521110535,-1.0170000791549683
1780563648496449500,15.784449462890626,9.381000518798828,0.3060000240802765,-0.7380000352859497
1780563648515973400,15.803973388671874,9.480000495910645,0.23595000803470612,-0.4410000145435333
1780563648535491800,15.823491943359375,9.640950202941895,0.18900001049041748,-0.30900001525878906
1780563648555007000,15.843007080078126,9.801000595092773,0.16905000805854797,-0.30105000734329224
1780563648574526500,15.8625263671875,9.853950500488281,0.17100000381469727,-0.3910500109195709
1780563648594047000,15.882046875,9.792000770568848,0.14805001020431519,-0.43995001912117004
1780563648613566500,15.90156640625,9.718950271606445,0.07605000585317612,-0.3769500255584717
1780563648633087700,15.921087646484375,9.712050437927246,0.010050000622868538,-0.3150000274181366
1780563648652610600,15.940610595703125,9.790950775146484,-0.012000000104308128,-0.27195000648498535
1780563648672132400,15.96013232421875,9.877050399780273,0.028950002044439316,-0.2659500241279602
1780563648691649800,15.97964990234375,9.871950149536133,0.11700000613927841,-0.24705001711845398
1780563648711168300,15.999168212890625,9.805950164794922,0.19005000591278076,-0.18405000865459442
1780563648730688000,16.01868798828125,9.735000610351562,0.20295001566410065,-0.13095000386238098
1780563648750208300,16.038208251953126,9.765000343322754,0.13305000960826874,-0.10305000841617584
1780563648769730000,16.05772998046875,9.895050048828125,0.05100000277161598,-0.0970500037074089
1780563648789251000,16.0772509765625,10.003050804138184,-0.0019500000635161996,-0.11595000326633453
1780563648808773000,16.096773193359375,10.023000717163086,-0.013950000517070293,-0.1290000081062317
1780563648828297700,16.116297607421874,9.895950317382812,0.015000000596046448,-0.15105000138282776
1780563648847820000,16.135820068359376,9.754950523376465,0.028050001710653305,-0.1789500117301941
1780563648867338200,16.155338134765625,9.721050262451172,0.05595000088214874,-0.18300001323223114
1780563648886854400,16.1748544921875,9.793950080871582,0.08400000631809235,-0.18105000257492065
1780563648906366000,16.194365966796877,9.904050827026367,0.09195000678300858,-0.1860000044107437
1780563648925880800,16.213880859375,9.933000564575195,0.12195000797510147,-0.20100000500679016
1780563648945401300,16.2334013671875,9.838950157165527,0.13005000352859497,-0.2560500204563141
1780563648964919800,16.252919921875,9.709050178527832,0.13005000352859497,-0.31200000643730164
1780563648984436500,16.2724365234375,9.628050804138184,0.14400000870227814,-0.3630000054836273
1780563649003955000,16.291954833984374,9.652950286865234,0.13095000386238098,-0.37905001640319824
1780563649023475200,16.31147509765625,9.751049995422363,0.11295000463724136,-0.3439500033855438
1780563649042995500,16.330995361328124,9.877050399780273,0.08700000494718552,-0.322050005197525
1780563649062516000,16.350515869140626,10.077000617980957,0.06195000186562538,-0.30705001950263977
1780563649082037000,16.370037109375,10.023000717163086,0.07095000147819519,-0.30300000309944153
1780563649101554400,16.389554443359376,9.645000457763672,0.22500000894069672,-0.325950026512146
