Time (s),Acc_X,Acc_Y,Acc_Z,Gyro_X,Gyro_Y,Gyro_Z,activity_label
4.927625583,-2.123334503,9.465117188,-0.9090596008,0.001515927026,0.004223162308,0.0025699283,5
4.947668583,-2.114652557,9.480834503,-0.9369017029,0.001200216939,0.007628193125,0.002055462915,5
4.967711583,-2.105222168,9.514514465,-0.9512718201,0.0007362943143,0.01537293196,0.002225902164,5
4.987754583,-2.117646332,9.48233139,-0.9500743103,-0.001413424732,0.01846823096,0.0007232131902,5
5.007797583,-2.140698395,9.512418823,-0.960402832,-0.004431426991,0.01212066133,0.0003668284044,5
5.027841583,-2.136806488,9.503138123,-0.9497749329,-0.004799337126,0.003172284923,0.002058417536,5
5.047884583,-2.155068512,9.506730652,-0.9571096802,-0.002919693245,-0.003700894304,-0.0004988261499,5
5.067927583,-2.114203491,9.478140106,-0.9574090576,-0.001959264278,-0.007614046801,-0.004123927094,5
5.087970583,-2.136656799,9.499695282,-0.9324110413,-0.0002257172018,-0.008269550279,-0.005237739999,5
5.108013583,-2.105970612,9.476942596,-0.9369017029,-0.0009519939777,-0.003719263244,-0.007707207464,5
5.128056583,-2.068847809,9.481133881,-0.9226812744,0.002163248369,0.005607109517,-0.003228972899,5
5.148099583,-2.059118042,9.513616333,-0.8541238403,0.00866994448,0.005476454739,-0.0005906997249,5
5.168142333,-2.08157135,9.514664154,-0.8885522461,0.005241141655,0.002885096939,0.001507753623,5
5.188185333,-2.101929016,9.515412598,-0.9065148926,0.0001564463601,0.002665922046,0.001900064759,5
5.208228333,-2.139800262,9.523495789,-0.8900491333,-0.00529698655,0.002319707768,0.002260629321,5
5.228271333,-2.121238861,9.52214859,-0.8792715454,-0.005286429077,-0.0006850375794,-0.001043197466,5
5.248314333,-2.125729523,9.489516449,-0.8708889771,-0.00559870759,-0.002396124415,0.00118874351,5
5.268357333,-2.097288666,9.49759964,-0.8967851257,-0.005476217717,-0.0006651631556,0.001290439744,5
5.288400333,-2.103575592,9.505383453,-0.9005273438,-0.003318448318,0.004574004095,0.000241066562,5
5.308443333,-2.120041351,9.500294037,-0.887504425,-0.003393187886,0.003732613986,-0.0002836640924,5
5.328486333,-2.126927032,9.497000885,-0.9312135315,-0.0007344763726,-0.002703710925,-0.001067139208,5
5.348530333,-2.119741974,9.476643219,-0.9587562561,-0.002789667808,-0.002593108453,0.0005224295892,5
5.368573333,-2.125879211,9.480535126,-0.9229806519,0.002196475165,-0.0003758575767,-6.859004498e-05,5
5.388616333,-2.143692169,9.50463501,-0.8943901062,0.002708021086,0.0002222054172,-0.001854992472,5
5.408659333,-2.122136993,9.487121429,-0.9002279663,0.002174838912,-0.006706971675,0.000200019218,5
5.428702333,-2.096390533,9.492809601,-0.9252259827,0.0007549363654,-0.00521570025,0.0004912801087,5
5.448745333,-2.115101624,9.484127655,-0.8982820129,0.00218870258,0.007319989614,-0.001870021457,5
5.468788333,-2.106569366,9.502689056,-0.9181906128,0.001742200693,0.008007878438,0.0005273038987,5
5.488831333,-2.110311584,9.500743103,-0.913250885,0.003775509074,0.005457011051,0.0004266011529,5
5.508874333,-2.124681702,9.504036255,-0.9440867615,0.002927056281,0.003797779791,-0.0004982443061,5
5.528917333,-2.134112091,9.489516449,-0.9574090576,0.0006897668354,0.006159729324,-0.0007209638134,5
5.548960333,-2.145338745,9.493558044,-0.9665400696,0.0002774449531,0.007018079981,-0.001699253451,5
5.569003333,-2.160307617,9.486672363,-0.936302948,-0.0004203165881,0.003442768939,-0.002170283347,5
5.589046333,-2.147584076,9.499994659,-0.9193881226,-0.000240302179,-0.0001509934664,-0.003409488127,5
5.609089333,-2.144290924,9.475595398,-0.9262738037,0.001610170701,-0.005928266328,-0.001475934638,5
5.629132333,-2.134112091,9.509574738,-0.9508227539,-0.00166932377,-0.004086693283,-0.001455455087,5
5.649175333,-2.127376099,9.503587189,-0.9295669556,-0.0002357747871,0.001540913014,-0.0002610993106,5
5.669219333,-2.117646332,9.479038239,-0.9425898743,-0.0006224201061,-0.0006090453826,0.0008780421922,5
5.689262333,-2.111060028,9.498497772,-0.9307644653,-0.0002800307702,0.00366203743,-0.0007572008763,5
5.709305333,-2.120640106,9.502389679,-0.9321116638,0.00082527427,0.006824370008,-0.004392886069,5
5.729348333,-2.130968628,9.502988434,-0.9318122864,0.001814262127,-0.002167521976,-0.00203950936,5
5.749391333,-2.149979095,9.486372986,-0.9126521301,-0.001513277879,-0.0007389266975,-0.0004300484434,5
5.769434333,-2.126477966,9.493707733,-0.9195378113,-0.001029210165,0.006367018446,-0.002012171783,5
5.789477333,-2.127825165,9.495653687,-0.9148974609,0.002435107715,-0.0001606536098,6.334856153e-06,5
5.809520333,-2.146835632,9.523495789,-0.9196875,-0.0001279031858,5.142530426e-05,-0.0002521181013,5
5.829563333,-2.137105865,9.49295929,-0.920735321,-0.001709446311,0.000745361438,0.001316742506,5
5.849606333,-2.1260289,9.470206604,-0.9108558655,-0.001543122344,0.005204018205,-0.0001292608213,5
5.869649333,-2.155218201,9.489815826,-0.9002279663,-0.0008220144082,0.002767827362,0.002531657927,5
5.889692333,-2.142943726,9.523944855,-0.9521699524,-0.005363112781,-0.01093971357,0.004655854777,5
5.909735333,-2.134710846,9.483828278,-0.9505233765,-0.008214059286,-0.007566280197,2.825353295e-05,5
5.929778333,-2.130220184,9.521549835,-0.9145980835,-0.003119774396,-0.001511512324,-0.001145514194,5
5.949821333,-2.203417969,9.484277344,-0.8869056702,0.0006849733181,-0.0131010497,-0.004833028186,5
5.969864333,-2.13770462,9.457033997,-0.9554631042,-0.00377881364,-0.01652791537,-0.002313286532,5
5.989907333,-2.11195816,9.488019562,-0.9383985901,0.00171757408,-0.002328468952,-0.000418671174,5
6.009950333,-2.121837616,9.523495789,-0.8927435303,0.0004796267021,-0.01147402637,0.001373542473,5
6.029993333,-2.121687927,9.50463501,-0.9151968384,-0.007078206167,-0.01781802811,0.004794434644,5
6.050036333,-2.113455048,9.50223999,-0.9113049316,-0.008582530543,-0.01399781741,0.005390098318,5
6.070080333,-2.100581818,9.501341858,-0.9421408081,-0.01067720167,-0.01138862409,0.007546278648,5
6.090123333,-2.114951935,9.515861664,-0.9214837646,-0.009628809988,-0.0009018029086,0.005861112848,5
6.110166333,-2.144590302,9.535470886,-0.8991801453,-0.004537692759,0.005153605249,0.006316286977,5
6.130209333,-2.150278473,9.483229523,-0.9042695618,-0.004696616903,-0.001181453466,0.005520770792,5
6.150252333,-2.140249329,9.473200378,-0.9461824036,-0.008007099852,-0.00653963862,0.006112853996,5
6.170295667,-2.123633881,9.479038239,-0.929866333,-0.005226839334,-0.002486919519,0.002602128778,5
6.190338667,-2.134561157,9.490414581,-0.9578581238,-0.001762051368,-0.002221311908,0.001712133293,5
6.210381667,-2.155218201,9.502539368,-0.9496252441,0.001787192887,-0.006034795661,0.002249903278,5
6.230424667,-2.144290924,9.487121429,-0.9226812744,0.003739020089,-0.008016081527,0.003392684273,5
6.250467667,-2.13066925,9.46601532,-0.9418414307,0.001679960638,-0.006919668522,0.0002352835145,5
6.270510667,-2.146236877,9.502389679,-0.9304650879,0.001615559682,-0.004208486062,-0.001052664826,5
6.290553667,-2.124232635,9.499695282,-0.9023236084,0.001121573965,-0.003806430846,-0.0008299548645,5
6.310596667,-2.114502869,9.520202637,-0.9081614685,-0.0009364066646,-0.009243546054,0.001569500891,5
6.330639667,-2.100881195,9.520502014,-0.9018745422,-0.004384353757,-0.005999199115,0.002592110541,5
6.350682667,-2.105970612,9.49759964,-0.9075627136,-0.004369691014,-0.005243567284,0.003032366745,5
6.370725667,-2.126627655,9.511820068,-0.9117539978,-0.002828771016,-0.0006804149598,0.002131986897,5
6.390768667,-2.099683685,9.497749329,-0.9222322083,-0.002088697162,-6.255088374e-05,0.003424132941,5
6.410811667,-2.102976837,9.509724426,-0.9277706909,-0.003261315636,0.004654876422,0.00170565804,5
6.430854667,-2.126777344,9.501940613,-0.9255253601,0.000480505405,0.00563046895,0.0008602478774,5
6.450897667,-2.130968628,9.506880341,-0.912203064,-0.0001282021403,-0.001429021358,0.001673517399,5
6.470940667,-2.11435318,9.482930145,-0.9342073059,-0.002348306589,-0.004591084551,0.003227946348,5
6.490984667,-2.106569366,9.506580963,-0.9196875,-0.0004217431415,0.001942974981,-5.154754035e-05,5
6.511027667,-2.111509094,9.517957306,-0.889151001,-0.00151014654,0.004729357548,0.0005242968909,5
6.531070667,-2.095492401,9.527836761,-0.8690927124,-0.0006958299782,0.001041676151,0.001225215266,5
6.551113667,-2.099983063,9.507329407,-0.9002279663,-0.003885389538,0.001677822322,0.00363946287,5
6.571156667,-2.092947693,9.485624542,-0.8884025574,-0.004268242046,0.007199884392,0.005328922532,5
6.591199667,-2.097288666,9.529333649,-0.8716374207,-0.004037125036,0.008784722537,0.005124288611,5
6.611242667,-2.113305359,9.527687073,-0.8967851257,-0.00502902735,0.01066047512,0.006063301582,5
6.631285667,-2.091301117,9.480385437,-0.9160949707,-0.006856691092,0.01524421759,0.003109580604,5
6.651328667,-2.105820923,9.474547577,-0.9165440369,-0.003243268933,0.01672840677,0.003568813903,5
6.671371667,-2.120789795,9.50463501,-0.9144483948,-2.601277083e-05,0.007557359524,0.004798565991,5
6.691414667,-2.133812714,9.513017578,-0.9270222473,-0.003268459113,0.004190240055,0.005086231511,5
6.711457667,-2.122136993,9.49759964,-0.9524693298,-0.005727292039,0.01101556607,2.00914219e-05,5
6.731500667,-2.124532013,9.50463501,-0.8779243469,0.0008216850692,0.0144035602,-0.00189617509,5
6.751543667,-2.129471741,9.485774231,-0.8912466431,-0.003817461897,0.002655905671,-0.002510950901,5
6.771586667,-2.103126526,9.483379211,-0.9313632202,-0.002291565528,0.009404450655,-0.001668508165,5
6.791629667,-2.103575592,9.47649353,-0.8791218567,0.001454029465,0.01530637033,-0.003981746733,5
6.811672667,-2.100132751,9.49176178,-0.9047186279,0.00423942972,0.007782140747,-0.003131931648,5
6.831715667,-2.085912323,9.491312714,-0.8921447754,0.003866368439,0.003580557182,-0.002362853149,5
6.851758667,-2.120789795,9.518256683,-0.9047186279,0.00315115368,0.005999235436,-0.001068874961,5
6.871801667,-2.121687927,9.506281586,-0.886456604,-0.0006413285155,0.009488330223,-0.002117112745,5
6.891844667,-2.102527771,9.524992676,-0.8677455139,0.001016974333,0.007737483364,-0.001891765743,5
6.911887667,-2.102378082,9.530231781,-0.8678952026,-0.001227383502,0.004608189687,0.001154281781,5
6.931930667,-2.095342712,9.503736877,-0.8729846191,-0.003886500606,0.005644062068,-0.0004629711621,5
6.951973667,-2.083816681,9.519903259,-0.8581654358,-0.004857614636,0.005763017572,-0.002400936326,5
6.972017667,-2.086511078,9.503138123,-0.8705895996,-0.002813982777,0.002588261385,-0.001131699421,5
6.992060667,-2.07573349,9.490264893,-0.8936416626,-0.0002813977189,-0.0001416471787,0.001077112043,5
7.012103667,-2.110461273,9.496551819,-0.8942404175,0.001142768771,0.007033170201,-0.000593414763,5
7.032146667,-2.097138977,9.467961273,-0.8771759033,-0.001613321248,0.006576795131,-0.001625622855,5
7.052189667,-2.09908493,9.509874115,-0.8852590942,0.001236213604,0.001884218073,-0.0006407448091,5
7.072232667,-2.11435318,9.530830536,-0.8455915833,0.004678117111,0.006277441047,-0.001859629527,5
7.092275667,-2.114652557,9.49640213,-0.889151001,0.002269723685,-0.001340780873,-0.003924148157,5
7.112318667,-2.112856293,9.514813843,-0.9198371887,0.0006220275536,-0.004995622206,-0.0007197086234,5
7.132361667,-2.101030884,9.508227539,-0.8888516235,0.001999819884,-0.00122102676,-0.001582414377,5
7.152404667,-2.110012207,9.500892792,-0.8846603394,0.003761188826,-0.0002361941151,-0.001550288638,5
7.172447917,-2.096390533,9.512718201,-0.890198822,0.004581096582,-0.00277746655,-0.003107857425,5
7.192490917,-2.099384308,9.49879715,-0.899329834,0.007769919466,-0.005011595786,-0.002560675377,5
7.212533917,-2.107916565,9.493857422,-0.9136999512,0.002814638428,-0.001062217169,-0.003023274709,5
7.232576917,-2.104922791,9.500294037,-0.9017248535,0.004073607735,-0.001021645963,-0.002678603632,5
7.252619917,-2.097737732,9.49295929,-0.8988807678,0.003637696151,-0.007875204086,-0.000137723051,5
7.272662917,-2.118394775,9.51511322,-0.8857081604,0.007003619336,-0.01065528393,-0.002420154167,5
7.292705917,-2.112706604,9.51167038,-0.9306147766,0.003146202071,-0.008137702942,-0.001977984328,5
7.312748917,-2.127376099,9.48936676,-0.9101074219,0.004430300556,-0.006227153353,-0.00377646694,5
7.332791917,-2.133513336,9.509574738,-0.8813671875,0.006939372979,-0.006108993664,-0.003768680384,5
7.352834917,-2.113305359,9.48233139,-0.8933422852,0.009270984679,-0.01285398193,-0.000949091278,5
7.372877917,-2.137405243,9.507179718,-0.9178912354,0.01040806249,-0.02153988183,-0.001003963407,5
7.392920917,-2.147434387,9.516909485,-0.8897497559,0.005654540379,-0.02390184626,0.001204234199,5
7.412963917,-2.118544464,9.475894775,-0.9045689392,-0.001577368937,-0.01935786754,0.0003044789191,5
7.433006917,-2.118544464,9.52214859,-0.9351054382,0.0005849925801,-0.0203795433,0.005337189883,5
7.453049917,-2.176773376,9.516161041,-0.9470805359,-0.001846207073,-0.03051473573,0.009806317277,5
7.473092917,-2.174977112,9.518406372,-0.9864486694,-0.006294029765,-0.03119118139,0.008536498062,5
7.493135917,-2.121837616,9.476643219,-0.9987231445,-0.007284288295,-0.0185858123,0.005600444507,5
7.513178917,-2.14713501,9.523046722,-0.9568103027,-0.002430677647,-0.009237585589,0.00318229408,5
7.533221917,-2.1658461,9.473649445,-0.9608518982,-0.004855656996,-0.03152726963,-0.003149186494,5
7.553265917,-2.11555069,9.455686798,-0.9696835327,0.001309920452,-0.02967095561,-0.002477213973,5
7.573308917,-2.105371857,9.412576447,-0.9259744263,0.01184139121,-0.02216190659,-0.006194453686,5
7.593351917,-2.026934967,9.463320923,-0.9222322083,0.01505947672,-0.00819229614,-0.00968241971,5
7.613394917,-2.067650299,9.441915436,-0.8583151245,0.01870152354,-0.007268270943,-0.01166360453,5
7.633437917,-2.093097382,9.521699524,-0.8479866028,0.01772114821,-0.006420315709,-0.0126520237,5
7.653480917,-2.079924774,9.500144348,-0.8436456299,0.01348556392,0.0003698563669,-0.01379084587,5
7.673523917,-2.066153412,9.537117462,-0.8851094055,0.01222426165,0.02594169229,-0.01686407998,5
7.693566917,-2.071542206,9.490713959,-0.8400531006,0.01977942884,0.01592448726,-0.007931733504,5
7.713609917,-2.085163879,9.604327698,-0.9163943481,0.01074542198,0.01584726013,-0.005698863417,5
7.733652917,-2.263293457,9.450597382,-0.8042774963,0.00721353665,-0.007966280915,0.001597799012,5
7.753695917,-2.141746216,9.55373291,-0.9086105347,0.001133415499,-0.01045580488,0.008255316876,5
7.773738917,-2.152823181,9.446406097,-0.8909472656,-0.001179522602,0.003898005933,0.003773109056,5
7.793781917,-2.088307343,9.571695557,-0.973276062,0.003035993082,0.02592546307,-0.004764311947,5
7.813824917,-2.131417694,9.45778244,-0.8946894836,0.01248249225,0.03393065557,-0.00500319805,5
7.833867917,-2.141746216,9.506880341,-0.9716294861,0.01020359434,0.02814076468,-0.004886616021,5
7.853910917,-2.114802246,9.456135864,-0.9292675781,0.01319141127,0.03942954168,-0.002086945344,5
7.873953917,-2.123184814,9.491612091,-0.9286688232,0.01535099931,0.03566614538,0.0007938647177,5
7.893996917,-2.137105865,9.517059174,-0.9214837646,0.008966914378,0.02142587304,-0.0003816911485,5
7.914039917,-2.155517578,9.495803375,-0.9090596008,0.008317621425,0.01311547868,-0.001420754008,5
7.934082917,-2.153122559,9.49056427,-0.9599537659,0.006000296678,0.009312301874,-0.002148421481,5
7.954125917,-2.164199524,9.481732635,-0.9345066833,0.003827611916,0.0136087779,-5.680019967e-05,5
7.974168917,-2.143841858,9.511520691,-0.9470805359,0.007756211795,0.01645845547,0.001573404996,5
7.994211917,-2.127825165,9.497300262,-0.9395960999,0.008941929787,0.01116542332,0.002118578879,5
8.014254917,-2.153421936,9.505233765,-0.9213340759,0.008417097852,0.00746629294,-0.0007624044083,5
8.034297917,-2.171534271,9.489965515,-0.9391470337,0.007270906121,0.007286792621,0.00154541689,5
8.054340917,-2.140698395,9.49759964,-0.9602531433,0.002561057918,0.003783317283,0.004184651189,5
8.074383917,-2.168839874,9.491312714,-0.9699829102,0.003483152948,-0.001460799482,0.003321076278,5
8.094426917,-2.154320068,9.473200378,-0.9723779297,0.002479409333,-0.00511430623,0.003300698241,5
8.114469917,-2.160756683,9.462572479,-0.9659413147,0.01005608588,-0.006412770133,2.325256355e-05,5
8.134512917,-2.149829407,9.463919678,-0.9710307312,0.01038552076,-0.007784748916,-0.001305805519,5
8.154555917,-2.132315826,9.513616333,-0.9880952454,0.005640204996,0.0005286682863,0.001870363951,5
8.174599167,-2.13066925,9.507778473,-0.9574090576,0.004701252095,-0.003492970485,0.002568403259,5
8.194642167,-2.163600769,9.511969757,-0.9743238831,0.0006142416969,-0.01042145677,0.004642081447,5
8.214685167,-2.137105865,9.493707733,-0.9837542725,-0.001844405429,-0.005251367576,0.007258745842,5
8.234728167,-2.124232635,9.491462402,-0.9831555176,-0.001080736518,0.002874381375,0.00701002311,5
8.254771167,-2.119292908,9.504784698,-0.9957293701,0.0004400999751,0.001582039753,0.003187933937,5
8.274814167,-2.143243103,9.496551819,-0.9765692139,0.003711324651,-0.004076116253,0.001650345395,5
8.294857167,-2.139351196,9.494605865,-1.010847931,0.0005219674204,-0.004774483386,-0.0005968671758,5
8.314900167,-2.113455048,9.456135864,-1.044677582,-3.109266981e-05,0.004120739643,0.001696935622,5
8.334943167,-2.099234619,9.462422791,-0.9771679688,0.006844673306,0.00604398828,0.003113905899,5
8.354986167,-2.110910339,9.478140106,-0.983454895,0.01047263481,0.004679473583,0.003381028539,5
8.375030167,-2.122885437,9.485175476,-0.9970765686,0.01009335462,0.004395845346,0.003469350515,5
8.395073167,-2.141147461,9.494007111,-1.002465363,0.008452172391,0.008167947643,-0.0001271304209,5
8.415116167,-2.149829407,9.497449951,-0.9907896423,0.005094381049,0.01221408881,-0.001611599466,5
8.435159167,-2.13186676,9.492659912,-0.9960287476,0.002264929935,0.01277610287,-0.003951806575,5
8.455202167,-2.102228394,9.494905243,-0.9993218994,0.005198761355,0.01169707999,-0.000292833196,5
8.475245167,-2.115850067,9.486372986,-1.002914429,0.003952668048,0.01046590135,7.042195648e-05,5
8.495288167,-2.115101624,9.492061157,-1.002615051,0.002645667177,0.009679470211,0.002235861728,5
8.515331167,-2.128124542,9.506880341,-0.9951306152,0.003834534436,0.01041556615,-0.0002318946645,5
8.535374167,-2.13186676,9.484127655,-0.9978250122,0.003129078308,0.01089902036,0.0002656159922,5
8.555417167,-2.122286682,9.499096527,-1.007854156,0.0009325350402,0.01004627347,-0.001603996148,5
8.575460167,-2.132315826,9.499246216,-1.00740509,-0.0001199783292,0.01232966967,-0.002041746862,5
8.595503167,-2.114951935,9.486822052,-0.9874964905,0.001760416897,0.008021563292,-0.001502715051,5
8.615546167,-2.10971283,9.499844971,-1.000818787,0.003559382167,0.00593604194,0.000666962238,5
8.635589167,-2.113305359,9.479337616,-1.016536102,0.002523068339,0.005340292118,-0.0005740944762,5
8.655632167,-2.112556915,9.496551819,-1.014290771,0.002061995678,0.002026964212,-0.001668279292,5
8.675675167,-2.131417694,9.507030029,-0.9686357117,0.002007244388,-2.739718184e-05,-0.000129816588,5
8.695718167,-2.103276215,9.494456177,-0.9916877747,-0.0007654658984,-0.005149544217,-0.001701402711,5
8.715761167,-2.125130768,9.486822052,-0.980760498,-0.001058085822,-0.003480986226,0.0006891733501,5
8.735804167,-2.120340729,9.506431274,-0.9794132996,-0.002200439572,-0.0003493735567,-0.0002076276578,5
8.755847167,-2.105521545,9.521849213,-0.996328125,-0.004121611826,-0.004015217535,0.001772625954,5
8.775890167,-2.106868744,9.496851196,-0.9849517822,-0.005643014796,-0.005122201983,0.001138122054,5
8.795933167,-2.107766876,9.484277344,-0.9946815491,-0.005878249649,-0.003285153303,0.002649442758,5
8.815976167,-2.123334503,9.492510223,-0.9997709656,-0.004398268647,-0.004611762706,0.0002778901253,5
8.836019167,-2.119891663,9.479936371,-0.9979747009,-0.006035736762,-0.0088068638,-4.480127245e-05,5
8.856062167,-2.121538239,9.497449951,-1.013093262,-0.002330747666,-0.004493608605,-0.003095718799,5
8.876105167,-2.129022675,9.479786682,-0.9791139221,0.001086557633,-0.0007959874347,-0.002744419267,5
8.896148167,-2.113455048,9.489067383,-0.9912387085,0.0005376650952,-0.002824338153,-0.002394583309,5
8.916191167,-2.089953918,9.515412598,-0.9635462952,7.47689046e-06,-0.004127599765,0.001216891222,5
8.936234167,-2.102827148,9.499395905,-0.9616003418,-0.002621298423,0.002838606481,-0.00104966457,5
8.956277167,-2.111209717,9.511221313,-0.9569599915,-0.003074363573,0.00523376558,-0.002089823131,5
8.976320167,-2.094743958,9.486223297,-0.9589059448,-0.005236397032,0.0007249449845,0.0005912799388,5
8.996363167,-2.120340729,9.516161041,-0.9864486694,-0.00816505868,-0.001676249318,-0.002398242475,5
9.016406167,-2.117346954,9.483379211,-0.983454895,-0.007650851272,-0.002176305745,-0.004000488203,5
9.036449167,-2.139500885,9.478738861,-0.9514215088,-0.001929361606,-0.004074603319,-0.004818279296,5
9.056492167,-2.104623413,9.472152557,-0.9750723267,-0.002626984613,-0.01066956669,-0.00292117754,5
9.076535167,-2.104024658,9.475445709,-0.9855505371,-0.0002116705291,0.0001288400963,-0.003817767836,5
9.096578167,-2.098037109,9.479636993,-0.9345066833,0.003112347797,0.01123573072,-0.003341209609,5
9.116621167,-2.116897888,9.516909485,-0.9524693298,0.00272637629,0.003094093408,-0.002063581022,5
9.136664167,-2.132465515,9.533973999,-0.9677375793,-0.002594366902,-0.002646353561,0.001204749104,5
9.156707167,-2.174677734,9.499395905,-0.9369017029,-0.002268350217,0.007677127607,-0.0004063658416,5
9.176750042,-2.154469757,9.49640213,-0.9493258667,-0.006897019222,0.009503345937,-0.003014854854,5
9.196793042,-2.142494659,9.514215088,-0.9337582397,-0.006692190189,0.008647672832,-0.0001307206694,5
9.216836042,-2.135608978,9.488318939,-0.9626481628,-0.006633491721,0.005546331406,0.002271801466,5
9.236879042,-2.172582092,9.481582947,-0.9574090576,-0.003456635866,0.009804368019,-0.0001809017267,5
9.256922042,-2.13066925,9.455686798,-0.9885443115,-0.003484052606,0.01067735627,-0.0003791393247,5
9.276965042,-2.128872986,9.479636993,-1.011296997,0.0013937779,0.01162961405,0.0004658505786,5
9.297008042,-2.148182831,9.452243958,-0.997375946,0.005664797965,0.01741950214,-0.00066777342,5
9.317051042,-2.170785828,9.473649445,-1.017883301,0.007513454184,0.01601707935,-2.777203918e-05,5
9.337094042,-2.184856567,9.49056427,-0.9937834167,0.009684980847,0.01005177759,0.0005892533809,5
9.357137042,-2.186652832,9.497300262,-0.9934840393,0.006095697172,6.607780233e-05,0.0004800490569,5
9.377180042,-2.195634155,9.520202637,-0.9919871521,0.000637031626,-0.003962930758,-0.002474166453,5
9.397223042,-2.184257813,9.486522675,-0.9508227539,-0.002828257158,-0.01163824648,-0.001827381551,5
9.417266042,-2.154769135,9.496851196,-0.9479786682,-0.005144189112,-0.01422479935,-0.0001467245165,5
9.437309042,-2.107018433,9.47888855,-0.9949809265,-0.004615724552,-0.0140276365,0.001993898768,5
9.457352042,-2.119442596,9.497150574,-0.9877958679,-0.003942241892,-0.001855302602,0.002877654973,5
9.477395042,-2.110311584,9.480834503,-0.9740245056,-0.004263168201,0.002898351522,0.003703470808,5
9.497438042,-2.095791779,9.476194153,-0.9789642334,-0.0031843537,0.00335534825,0.005043108948,5
9.517481042,-2.112856293,9.49176178,-0.9852511597,-0.0006928869989,0.004039338324,0.002884243615,5
9.537524042,-2.142344971,9.486073608,-0.986149292,-0.001636853442,0.005356535781,-0.0003732207697,5
9.557567042,-2.13890213,9.465117188,-0.9927355957,-0.003912962507,0.003783319844,0.001063745469,5
9.577610042,-2.125280457,9.498348083,-0.9725276184,-0.004405694548,-0.002384916879,4.698871635e-05,5
9.597653042,-2.109413452,9.486073608,-0.979712677,-0.002005027607,-0.007872540504,0.001744805952,5
9.617696042,-2.098935242,9.511221313,-1.001716919,-0.00153797213,-0.006042593624,-0.001306104241,5
9.637739042,-2.089654541,9.511969757,-0.9828561401,0.0003906902857,-0.003646988422,0.0005662357435,5
9.657782042,-2.091899872,9.502090302,-0.9665400696,-0.000294634141,-0.005292113405,0.00173184555,5
9.677825042,-2.08860672,9.512418823,-0.9449848938,-0.002875772305,-0.002557497472,0.004038931336,5
9.697868042,-2.100581818,9.520202637,-0.9595046997,-0.00458730571,-0.002574356273,0.005169744603,5
9.717911042,-2.102078705,9.498348083,-0.9666897583,-0.006186957471,0.004166015889,0.006620187778,5
9.737954042,-2.120041351,9.5034375,-0.9635462952,-0.004195914604,0.004601706751,0.00140477682,5
9.757997042,-2.11315567,9.499695282,-0.9789642334,-0.003843329614,-0.001310512424,0.0003940723836,5
9.778040042,-2.106269989,9.501192169,-1.009500732,-0.004783470184,-0.002404980827,0.001957391156,5
9.798083042,-2.105970612,9.503587189,-1.019080811,-0.004681677558,0.008779225871,0.0007696067914,5
9.818126042,-2.136058044,9.507479095,-0.9616003418,-0.002062989864,0.006252514198,-0.003255087184,5
9.838169042,-2.094294891,9.470955048,-0.9458830261,-0.003092756029,-0.0003441362642,-0.002074485412,5
9.858212042,-2.081870728,9.464967499,-0.9635462952,-4.951492883e-05,-0.002140615601,0.001193441451,5
9.878255042,-2.127825165,9.537716217,-0.9431886292,0.001129215583,-0.004869201686,0.002686706372,5
9.898298042,-2.130070496,9.5034375,-0.9538165283,-0.005524002016,-0.004905598238,0.002126558218,5
9.918341042,-2.120640106,9.489815826,-0.9526190186,-0.008821341209,-0.00735260034,0.005325122736,5
9.938384042,-2.080972595,9.500443726,-0.9268725586,-0.004183571786,0.005062434357,0.002931222087,5
9.958427042,-2.077230377,9.486073608,-0.9367520142,-0.006054911762,0.01457409188,0.0007479551714,5
9.978470042,-2.106269989,9.498497772,-0.9589059448,-0.0006245216355,0.02179676294,3.703427501e-05,5
9.998513042,-2.139800262,9.50807785,-0.9535171509,-0.00285712909,0.01655663922,0.001998294378,5
10.01855604,-2.138303375,9.464219055,-0.9764195251,-0.006109725684,0.00981777627,0.001383614261,5
10.03859904,-2.166594543,9.501491547,-0.937350769,-0.006492844783,0.002987567335,0.000663981773,5
10.05864204,-2.140399017,9.500743103,-0.9565109253,-0.00624383986,-0.003991604783,-0.0004395041615,5
10.07868504,-2.14713501,9.478140106,-0.9833052063,-0.003565718187,-0.003747036215,-0.00161958742,5
10.09872804,-2.134112091,9.481732635,-0.9683363342,-0.001138059888,0.003697202774,-0.004328188486,5
10.11877104,-2.115401001,9.489217072,-0.9560618591,-0.000883319648,0.0003674593754,-0.002223866293,5
10.13881404,-2.114652557,9.490713959,-0.9545649719,-0.001246983185,-0.002336721402,-0.0006453027017,5
10.15885704,-2.121837616,9.512568512,-0.9460327148,-0.0008151582442,-0.002843335271,0.002086696215,5
10.17890021,-2.132016449,9.494755554,-0.9394464111,-0.005240000784,-0.002901924774,0.003525602166,5
10.19894321,-2.124382324,9.513167267,-0.9512718201,-0.005361110903,0.004406499211,0.002097075107,5
10.21898621,-2.11555069,9.493707733,-0.9470805359,-0.004937402904,0.007589148358,0.001584541169,5
10.23902921,-2.126477966,9.494156799,-0.9446855164,-0.006581466645,0.007513961755,0.0001200186089,5
10.25907221,-2.10851532,9.499096527,-0.9624984741,-0.005499688908,0.002458574716,0.002247489523,5
10.27911521,-2.102378082,9.476942596,-0.9339079285,-0.00281871669,0.0002236494329,0.001909337356,5
10.29915821,-2.092199249,9.502389679,-0.9601034546,-0.002842232352,-0.003826047294,0.001202104264,5
10.31920121,-2.119442596,9.475894775,-0.9623487854,-0.002231396269,-0.005144929979,0.001328021172,5
10.33924421,-2.101030884,9.484576721,-0.9457333374,0.0001924873795,-0.004005719908,0.0005796875339,5
10.35928721,-2.107018433,9.492360535,-0.962049408,-0.0001629346516,-0.003285332583,0.001481655985,5
10.37933021,-2.128274231,9.519454193,-0.9431886292,-0.002059747698,-0.002915421501,0.0003240241203,5
10.39937321,-2.124681702,9.512718201,-0.9377998352,-0.005208276678,-0.0007836460136,0.0008583769668,5
10.41941621,-2.087259521,9.517358551,-0.937350769,-0.005222847685,0.001183005515,0.0003362817224,5
10.43945921,-2.106269989,9.477840729,-0.9364526367,-0.003597943578,0.002894789446,0.00124769297,5
10.45950221,-2.101330261,9.494306488,-0.9488768005,-0.002290095901,-0.001586151309,0.00378557574,5
10.47954521,-2.104174347,9.505533142,-0.956660614,-0.002002411988,-0.0004839571193,0.003645486198,5
10.49958821,-2.099983063,9.488768005,-0.9479786682,-0.003481139662,0.005419029389,0.003700332716,5
10.51963121,-2.128573608,9.504335632,-0.9479786682,-0.004193911795,0.0008216113783,-0.0007889149711,5
10.53967421,-2.133962402,9.493707733,-0.9425898743,-0.004298949149,-0.004414069001,0.0007247466128,5
10.55971721,-2.125579834,9.515412598,-0.9780661011,-0.006205990911,-0.004989754874,0.0009432886727,5
10.57976021,-2.108665009,9.499395905,-0.9550140381,-0.00394974649,0.004107424989,-0.001943504671,5
10.59980321,-2.119442596,9.508975983,-0.9279203796,-0.001795436721,-0.00417314237,-0.002971494338,5
10.61984621,-2.104473724,9.473649445,-0.9379495239,0.001950753387,-0.01384174824,-0.002381892409,5
10.63988921,-2.117945709,9.462871857,-0.9711804199,1.703226008e-05,-0.0004300689325,0.0006045761984,5
10.65993221,-2.104922791,9.506580963,-0.9258247375,7.648346946e-05,0.005731864832,-0.0002734754235,5
10.67997521,-2.107766876,9.513017578,-0.8954379272,-0.001078906469,-0.001354909036,0.002639919054,5
10.70001821,-2.126328278,9.528136139,-0.9256750488,-0.002945013344,-0.007351623382,0.001814428018,5
10.72006121,-2.132016449,9.538913727,-0.9153465271,-0.009637271985,-0.004382828251,0.001576212468,5
10.74010421,-2.11435318,9.505084076,-0.9205856323,-0.008914193138,0.004298183136,0.001621806994,5
10.76014721,-2.103874969,9.488019562,-0.9425898743,-0.004103489686,0.003509716131,0.002055251971,5
10.78019021,-2.112257538,9.475894775,-0.9493258667,-0.004249133635,0.002183366567,0.0007963625249,5
10.80023321,-2.11315567,9.488318939,-0.9553134155,-0.004167859908,0.005416003987,-0.0001957560889,5
10.82027621,-2.134710846,9.514813843,-0.9496252441,-0.002576636849,9.066145867e-05,-0.0002151348162,5
10.84031921,-2.140848083,9.506431274,-0.9364526367,-0.003139425535,-0.008021770976,0.001340599963,5
10.86036221,-2.12722641,9.494605865,-0.9410929871,-0.003018813673,-0.01206213236,5.073705688e-05,5
10.88040521,-2.119741974,9.500294037,-0.9087602234,0.0001733752433,-0.01443767734,-0.0006938832812,5
10.90044821,-2.11315567,9.48592392,-0.9282197571,0.00138263742,-0.01415281557,-0.001476960722,5
10.92049121,-2.098186798,9.497150574,-0.9410929871,-0.001701428555,-0.006187391002,-0.002106068889,5
10.94053421,-2.082469482,9.505682831,-0.9268725586,-0.0006755942013,0.001485623186,-0.002935124794,5
10.96057721,-2.070045319,9.505682831,-0.8940907288,-0.001917645102,0.004111592658,4.535797052e-05,5
10.98062021,-2.077529755,9.509724426,-0.8681945801,-0.002445420949,-0.005731273443,0.0002894045319,5
11.00066321,-2.08396637,9.513316956,-0.8976832581,-0.004018268548,-0.008586094715,0.0004665327724,5
11.02070621,-2.095492401,9.501641235,-0.9008267212,-0.004694899544,-0.0004192478955,-0.001011500834,5
11.04074921,-2.10147995,9.510023804,-0.9131011963,-0.002629461931,0.0006918178406,-0.001800555037,5
11.06079221,-2.101330261,9.505533142,-0.9123527527,-0.002046823967,-0.001607100014,-0.001830493333,5
11.08083521,-2.111509094,9.502389679,-0.9277706909,-0.002494407818,0.001719539287,-0.0007388719823,5
11.10087821,-2.122136993,9.493857422,-0.9321116638,-0.001588071464,0.003999649547,0.0002566329204,5
11.12092121,-2.109263763,9.514813843,-0.920735321,-0.001036703354,-0.0006269770674,0.001429101103,5
11.14096421,-2.112407227,9.489067383,-0.9051676941,-0.0008560465649,-0.002190067898,-0.001092893071,5
11.16100721,-2.123783569,9.514364777,-0.9201365662,-0.004045526497,-0.007288954221,0.0008100233972,5
11.18104979,-2.124082947,9.51511322,-0.9099577332,-0.00563607458,-0.004930632655,-6.87839929e-05,5
11.20109279,-2.103575592,9.505533142,-0.899329834,-0.004153071903,-0.002373299561,-0.0005689170212,5
11.22113579,-2.09444458,9.488468628,-0.9204359436,-0.002385798143,-0.004073461518,-0.0004799049348,5
11.24117879,-2.08740921,9.486522675,-0.9276210022,0.00159334077,0.002427585423,0.001093463739,5
11.26122179,-2.119143219,9.500743103,-0.9300160217,0.002455406124,0.006141097285,0.0002268627286,5
11.28126479,-2.127376099,9.515711975,-0.9322613525,0.003490952309,0.002114832634,0.0006953603588,5
11.30130779,-2.137105865,9.485774231,-0.9348060608,0.0003935077693,0.0005132043734,9.005074389e-05,5
11.32135079,-2.139201508,9.504784698,-0.9407936096,0.001116007683,0.002810362261,-0.000372513663,5
11.34139379,-2.146685944,9.505383453,-0.9503736877,-0.00110274856,-0.003096160479,-0.00107295881,5
11.36143679,-2.162702637,9.517957306,-0.950223999,-0.002564887051,-0.008460743353,-0.002404623898,5
11.38147979,-2.138303375,9.487271118,-0.9651928711,-0.00100875576,-0.001046244055,-0.00323812291,5
11.40152279,-2.115700378,9.493558044,-0.938997345,0.003704633331,-0.005572632421,-0.005571398884,5
11.42156579,-2.119741974,9.470356293,-0.9394464111,0.001892632805,-0.00616706023,-0.004287402146,5
11.44160879,-2.090852051,9.469907227,-0.9383985901,0.001843223581,0.0002738847397,-0.001689693658,5
11.46165179,-2.087109833,9.509874115,-0.8907975769,0.001848095329,0.001896013971,-0.00100372592,5
11.48169479,-2.116598511,9.515711975,-0.883762207,-0.0006902415771,0.0003218217753,0.0003187744878,5
11.50173779,-2.103575592,9.50807785,-0.9032217407,-0.003943340853,-0.002799761947,-0.0004359714221,5
11.52178079,-2.127825165,9.517208862,-0.9063652039,-0.003760161111,0.001297253184,-2.318294719e-06,5
11.54182379,-2.143243103,9.504485321,-0.8930429077,-0.004100387916,0.001273540081,-0.000288114883,5
11.56186679,-2.126328278,9.494605865,-0.9075627136,-0.003467886709,6.429990754e-05,7.42811244e-05,5
11.58190979,-2.13306427,9.489666138,-0.9204359436,-0.001691668527,-0.001513892785,-0.002102748957,5
11.60195279,-2.119292908,9.486372986,-0.9351054382,0.001784227905,0.001326553058,-0.0007204257417,5
11.62199579,-2.142494659,9.49056427,-0.9289682007,-0.0001164409332,0.001354748616,-0.002359644743,5
11.64203879,-2.131567383,9.508975983,-0.9184899902,0.001350726816,-0.005559767596,-0.002589592477,5
11.66208179,-2.135758667,9.497150574,-0.9193881226,-0.0008845424745,-0.008439174853,-0.001468292903,5
11.68212479,-2.130519562,9.504485321,-0.8984317017,0.001577471965,-0.008136105724,-0.001095554559,5
11.70216779,-2.11195816,9.486372986,-0.9021739197,-0.001287463121,-0.005431580357,-0.002053819131,5
11.72221079,-2.101180573,9.497449951,-0.9177415466,0.0007770983502,-0.006418453064,-0.001289453125,5
11.74225379,-2.10267746,9.512718201,-0.9104067993,0.001929838909,-0.008317293599,0.0003729839809,5
11.76229679,-2.111808472,9.520651703,-0.8937913513,-0.0006723497063,-0.01257381588,-0.0006900802255,5
11.78233979,-2.113754425,9.495503998,-0.912203064,-0.002532539191,-0.01004331,0.0008894432103,5
11.80238279,-2.109563141,9.482181702,-0.910556488,0.0004615911748,-0.01087109186,4.496937618e-05,5
11.82242579,-2.130220184,9.500593414,-0.9225315857,0.0007066183025,-0.01404486131,-0.001930022147,5
11.84246879,-2.131567383,9.505383453,-0.8952882385,0.003879507538,-0.01263162307,-0.002560148248,5
11.86251179,-2.124232635,9.490863647,-0.9131011963,0.001429510186,-0.01397055574,-0.001316864742,5
11.88255479,-2.118245087,9.492510223,-0.9000782776,0.001159449224,-0.01454811357,-0.002640841762,5
11.90259779,-2.099983063,9.487869873,-0.8779243469,0.002310545649,-0.01711060852,-0.003287232714,5
11.92264079,-2.117197266,9.509874115,-0.8919950867,0.004167614505,-0.02149977535,-0.002750565065,5
11.94268379,-2.120490417,9.502988434,-0.9071136475,0.003047818784,-0.02684765495,-0.005146774929,5
11.96272679,-2.124681702,9.498647461,-0.9080117798,0.001940193702,-0.009245946072,-0.0051170066,5
11.98276979,-2.100881195,9.496851196,-0.8753796387,0.001315965201,7.477309555e-05,-0.007440698333,5
12.00281279,-2.088307343,9.497300262,-0.8625064087,0.003997626249,-0.006140525453,-0.006272268016,5
12.02285579,-2.087109833,9.515562286,-0.8981323242,0.007477155887,-0.007710560225,-0.00480745919,5
12.04289879,-2.098785553,9.495503998,-0.916993103,0.006405484863,0.00116977212,-0.002979869023,5
12.06294179,-2.115999756,9.497000885,-0.9380992126,0.00422186451,0.006784594618,-0.002738519572,5
12.08298479,-2.119891663,9.49640213,-0.8713380432,0.005015628412,0.003525963286,-0.001310900552,5
12.10302779,-2.130519562,9.490713959,-0.8740324402,0.007834208198,-0.006418018602,-0.0004298852291,5
12.12307079,-2.144889679,9.504335632,-0.9165440369,0.006003346294,-0.01049045101,-0.0005578780547,5
12.14311379,-2.149530029,9.519454193,-0.922381897,0.0007135272026,0.003707949771,-0.002551991027,5
12.16315679,-2.139351196,9.467661896,-0.8830137634,0.001227030647,0.009392727166,-0.002666954417,5
12.18320017,-2.129920807,9.49879715,-0.904119873,0.00510542281,-0.003372964915,8.654221892e-05,5
12.20324317,-2.138003998,9.501192169,-0.9141490173,0.005507012364,-0.007196283899,0.002341946354,5
12.22328617,-2.154020691,9.516011353,-0.9449848938,0.002029284136,-0.004833445884,0.001518543577,5
12.24332917,-2.147584076,9.482780457,-0.9360035706,0.000861315988,0.001780434977,-0.001605411526,5
12.26337217,-2.155517578,9.494007111,-0.9021739197,0.003917371389,-0.005758443847,-0.005305586848,5
12.28341517,-2.152523804,9.471104736,-0.9285191345,0.003706621006,-0.01357527543,-0.0045103007,5
12.30345817,-2.099833374,9.462273102,-0.9517208862,0.001738843159,0.0003309622407,-0.003280246165,5
12.32350117,-2.103126526,9.491911469,-0.9134005737,0.007835288532,0.005629941821,-0.001409901306,5
12.34354417,-2.121987305,9.502838745,-0.9092092896,0.008711076342,0.00409001112,-6.099673919e-05,5
12.36358717,-2.141746216,9.494306488,-0.9413923645,0.004777917638,0.004144784994,0.001030359766,5
12.38362917,-2.178270264,9.50927536,-0.9511221313,0.0004149712622,0.01515386254,0.000812883256,5
12.40367217,-2.178869019,9.50583252,-0.920735321,0.0001743924804,0.01156257186,0.0005329076666,5
12.42371517,-2.150278473,9.469757538,-0.9436376953,-0.0007437868044,-0.005259450991,-0.0002024858259,5
12.44375817,-2.154469757,9.489217072,-0.9388476562,0.001254319563,0.003333488712,0.000988866901,5
12.46380117,-2.141147461,9.485774231,-0.9532177734,0.0009178225882,0.01103421301,0.001414312166,5
12.48384417,-2.147883453,9.496551819,-0.9562115479,0.0032127616,0.004932462238,0.0008548304904,5
12.50388717,-2.142195282,9.480684814,-0.9380992126,0.006258839276,0.004111683462,0.0008355714381,5
12.52393017,-2.154320068,9.479936371,-0.9506730652,0.004373368341,0.005658538081,-4.570488818e-05,5
12.54397317,-2.173779602,9.494905243,-0.9446855164,0.002894028556,0.004252916202,-0.0004480225034,5
12.56401617,-2.166594543,9.489965515,-0.9313632202,0.001267212909,0.002310308628,-0.0006245151162,5
12.58405917,-2.149230652,9.490713959,-0.946481781,0.003347830381,0.0001131943427,-0.001039396506,5
12.60410217,-2.136207733,9.486822052,-0.9413923645,0.001650942373,-0.003163295798,-0.0003424282186,5
12.62414517,-2.146835632,9.501641235,-0.9395960999,-0.000531345373,-0.002604646143,0.0007960279472,5
12.64418817,-2.134860535,9.493857422,-0.9460327148,-0.0007107015699,-0.001516569406,0.001903916011,5
12.66423117,-2.137405243,9.496252441,-0.9198371887,0.001481503597,-0.002580936067,0.001739259576,5
12.68427417,-2.135010223,9.492210846,-0.9386979675,-0.001028588507,-0.007432860788,-0.0007049830165,5
12.70431717,-2.132016449,9.507928162,-0.9532177734,-0.0005794393364,-0.0103417635,0.0005367058329,5
12.72436017,-2.139800262,9.518106995,-0.9440867615,-0.0001807168592,-0.007368781138,0.001183290267,5
12.74440317,-2.146087189,9.486522675,-0.9252259827,-0.0009990748949,-0.004131699447,0.001245017396,5
12.76444617,-2.113005981,9.492061157,-0.9252259827,-0.003215451026,-0.003994895611,0.001689185156,5
12.78448917,-2.110012207,9.487869873,-0.933608551,-0.001579644391,-0.006641570944,0.00271050469,5
12.80453217,-2.110461273,9.507928162,-0.9294172668,-0.002277800115,-0.003187892493,0.002319274237,5
12.82457517,-2.124981079,9.514514465,-0.9699829102,-0.0002597656567,-0.00113795558,0.001370320562,5
12.84461817,-2.112706604,9.485325165,-0.9228309631,0.0007590505993,0.001007585786,0.001816059928,5
12.86466117,-2.121089172,9.506281586,-0.9493258667,0.002045701956,-0.002348531969,0.0007936928887,5
12.88470417,-2.117496643,9.50223999,-0.9602531433,-0.0004241454881,0.001914913533,0.001221165759,5
12.90474717,-2.123933258,9.507928162,-0.9547146606,0.0004544160329,0.005167614203,0.001178302919,5
12.92479017,-2.124082947,9.493258667,-0.936302948,-0.0002540792339,0.0008682843763,0.002678870922,5
12.94483317,-2.126178589,9.487570496,-0.9327104187,-0.001978255808,-0.0004526302218,0.001556027913,5
12.96487617,-2.134561157,9.496701508,-0.9358538818,0.0008998995181,0.003567298641,0.000246059848,5
12.98491917,-2.124532013,9.479636993,-0.9457333374,0.001271175686,0.004163060337,-0.001355912304,5
13.00496217,-2.127675476,9.524693298,-0.9250762939,6.832019426e-05,0.004235952627,-0.001235036645,5
13.02500517,-2.123484192,9.495054932,-0.9208850098,-0.004168471321,0.005065163597,0.0005592461675,5
13.04504817,-2.129920807,9.487720184,-0.9202862549,-0.003401888534,0.002176790498,0.002197447699,5
13.06509117,-2.131717072,9.49520462,-0.9128018188,-0.005022484809,-0.000856840983,0.001474486664,5
13.08513417,-2.134710846,9.509125671,-0.9633966064,-0.005316997878,-0.001399638131,0.002720439341,5
13.10517717,-2.131118317,9.521250458,-0.969533844,-0.007289351895,0.004564751871,0.0005711363629,5
13.12522017,-2.129322052,9.496851196,-0.9310638428,-0.005001367535,0.006389196496,-0.0009656199254,5
13.14526317,-2.130070496,9.494306488,-0.9074130249,-0.002146629849,-0.001995743718,-0.002606945345,5
13.16530617,-2.10267746,9.462123413,-0.922381897,-0.003408218035,-0.001925209537,-0.0009000056889,5
13.18534871,-2.095043335,9.493857422,-0.9376501465,-0.00317489286,0.006783713587,0.002483896678,5
13.20539171,-2.117047577,9.505982208,-0.8765771484,0.0009026105981,0.003958187532,0.001358605688,5
13.22543471,-2.119891663,9.495953064,-0.9226812744,-0.00240547373,-0.007618655451,0.001723343157,5
13.24547771,-2.1260289,9.489516449,-0.9153465271,-0.004223112948,-0.002193003427,0.001271530055,5
13.26552071,-2.152523804,9.517957306,-0.9096583557,-0.004772758577,0.007232625969,-0.0002530447673,5
13.28556371,-2.138752441,9.511520691,-0.9039701843,-0.003196716076,0.004078983795,-0.001270736568,5
13.30560671,-2.106569366,9.492659912,-0.9136999512,-0.001228482695,0.003714765888,0.0001608463936,5
13.32564971,-2.124681702,9.486971741,-0.9448352051,-0.003455214668,0.004713539034,0.00310047809,5
13.34569171,-2.131268005,9.481133881,-0.9472302246,-0.00554147223,0.007575816941,1.063151285e-05,5
13.36573471,-2.132315826,9.494905243,-0.9141490173,-0.003117775545,0.00307295518,-0.001656064298,5
13.38577771,-2.148033142,9.499096527,-0.9258247375,-0.003977946006,-0.005206109956,-0.0001728348434,5
13.40582071,-2.152224426,9.497300262,-0.9342073059,-0.005006365478,-0.004826641176,-0.0007602991536,5
13.42586371,-2.127675476,9.476942596,-0.8963360596,-0.004680895247,-0.000554008875,-0.0004235776141,5
13.44590671,-2.114652557,9.495953064,-0.9023236084,-0.003879033728,-0.005044823512,0.0008793614106,5
13.46594971,-2.116299133,9.51047287,-0.9154962158,-0.003515150864,-0.003819313832,0.0018533119,5
13.48599271,-2.127376099,9.499096527,-0.9131011963,-0.008893733844,-0.003772087861,0.001672320184,5
13.50603571,-2.114502869,9.493707733,-0.9131011963,-0.007167881355,0.0002165094484,6.928574294e-06,5
13.52607871,-2.104174347,9.483977966,-0.9006770325,-0.005136060528,-0.004311206285,0.0006407268811,5
13.54612171,-2.12483139,9.491163025,-0.9229806519,-0.005003607832,-0.004618987907,0.0007189044263,5
13.56616471,-2.14354248,9.498348083,-0.9195378113,-0.004036551341,0.0008550526109,0.001143810223,5
13.58620771,-2.132914581,9.514065399,-0.8982820129,-0.003888729727,0.00202170969,0.001374970656,5
13.60625071,-2.136956177,9.497449951,-0.9027726746,-0.005629247054,-0.007646806072,-0.0001025586389,5
13.62629371,-2.124981079,9.48816925,-0.9069639587,-0.005924962461,-0.01565316692,0.000155269634,5
13.64633671,-2.121538239,9.507179718,-0.9319619751,-0.005631064996,-0.007878763601,-0.001333021559,5
13.66637971,-2.133962402,9.485325165,-0.9102571106,-0.007481158711,0.0009060173761,0.001475141966,5
13.68642271,-2.108964386,9.480984192,-0.8890013123,-0.005168391392,-0.003327612765,0.002070729621,5
13.70646571,-2.111209717,9.493707733,-0.8699908447,-0.00101384311,-0.001768674236,0.001582598081,5
13.72650871,-2.117796021,9.51631073,-0.9276210022,-0.004562349059,0.00012376206,-0.000857388135,5
13.74655171,-2.131417694,9.50104248,-0.9282197571,-0.004356721416,0.006047173403,-0.0003182529472,5
13.76659471,-2.139650574,9.514664154,-0.9128018188,-0.007367691956,0.003430245444,7.001752965e-05,5
13.78663771,-2.135159912,9.501491547,-0.895587616,-0.006194976158,-0.00115109887,0.0005489259493,5
13.80668071,-2.120490417,9.480385437,-0.9033714294,-0.006597552449,0.002406007145,0.001495357137,5
13.82672371,-2.125430145,9.500593414,-0.9160949707,-0.005001406185,0.003132558893,0.0008663007757,5
13.84676671,-2.134710846,9.501491547,-0.9044192505,-0.006924132816,0.004737220705,0.0006492584944,5
13.86680971,-2.144290924,9.49295929,-0.8984317017,-0.005811432842,0.002696182812,0.0008863521507,5
13.88685271,-2.133213959,9.495054932,-0.8863069153,-0.004475280643,0.001984164584,-0.0001488879789,5
13.90689571,-2.132166138,9.50583252,-0.8830137634,-0.004396046977,-0.001935133711,-0.0005564596504,5
13.92693871,-2.130220184,9.494905243,-0.9066645813,-0.004595542327,0.001393375918,0.00178987137,5
13.94698171,-2.132315826,9.489965515,-0.8945397949,-0.003863072721,0.005807572044,-0.001223922707,5
13.96702471,-2.140548706,9.49176178,-0.8946894836,-0.005255217198,0.004001409747,0.0007101679221,5
13.98706771,-2.155517578,9.514813843,-0.9114546204,-0.005231620744,-0.002532393206,0.001903488999,5
14.00711071,-2.155068512,9.518256683,-0.9246272278,-0.008024708368,-0.004387446214,-0.002298764419,5
14.02715371,-2.151925049,9.492210846,-0.8681945801,-0.004964059684,-0.005027148407,-0.004460613243,5
14.04719671,-2.142195282,9.487271118,-0.8655001831,-0.001649352722,-0.01031700429,-0.003930368461,5
14.06723971,-2.096240845,9.464069366,-0.905766449,-0.002631794196,-0.009182390757,-0.002336802892,5
14.08728171,-2.098037109,9.492360535,-0.8798703003,0.0005288715474,-0.0008653630503,-0.001934235916,5
14.10732471,-2.107766876,9.510772247,-0.8548722839,-0.001092268387,0.002202965319,0.0004202304408,5
14.12736771,-2.118095398,9.517807617,-0.8396040344,-0.004039745312,-0.003011762165,0.001537974807,5
14.14741071,-2.130519562,9.535470886,-0.8385562134,-0.008168866858,-0.003424279392,0.001449807663,5
14.16745371,-2.1459375,9.546547852,-0.8541238403,-0.01349528227,-0.005167507567,0.002173981396,5
14.18749717,-2.141596527,9.511969757,-0.8719367981,-0.0139712207,-0.0002157934941,0.00490391301,5
14.20754017,-2.128124542,9.469907227,-0.8767268372,-0.01454789005,0.000768320635,0.007269928232,5
14.22758317,-2.152823181,9.475296021,-0.9047186279,-0.01307365671,-0.00343396049,0.007148444653,5
14.24762617,-2.165247345,9.515412598,-0.9053173828,-0.0169003848,-0.009941031225,0.00613825582,5
14.26766917,-2.194736023,9.545949097,-0.9270222473,-0.02371246926,-0.009935199283,0.00673573371,5
14.28771217,-2.212998047,9.583371277,-0.9394464111,-0.03508361802,-0.009279066697,0.01145903673,5
14.30775517,-2.201472015,9.612111511,-0.9629475403,-0.06138774008,-0.02509648912,0.02345133573,5
14.32779817,-2.265987854,9.644593964,-1.02267334,-0.106904529,-0.07063117623,0.04110952094,5
14.34784117,-2.381846924,9.720037079,-1.075214081,-0.1682038605,-0.1163216308,0.04901386797,5
14.36788417,-2.377056885,9.713001709,-1.117276611,-0.2449661195,-0.1221811324,0.07528652251,5
14.38792717,-2.400558014,9.590706024,-1.170715485,-0.3349830806,-0.1069341749,0.08346644044,5
14.40797017,-2.313139801,9.655970306,-1.115031281,-0.4255348444,-0.1010416523,0.0807249099,5
14.42801317,-2.362537079,9.623188477,-1.088536377,-0.5016772151,-0.09537035972,0.05622115359,5
14.44805617,-2.353256378,9.567504272,-1.034498749,-0.5602842569,-0.0942928493,0.007336989976,5
14.46809917,-2.471061401,9.495503998,-1.016236725,-0.5819659233,-0.08972980827,-0.02208525687,5
14.48814217,-2.483635254,9.49295929,-0.9987231445,-0.5576380491,-0.06848743558,-0.06912450492,5
14.50818517,-2.636317749,9.474547577,-1.14781311,-0.4996133149,-0.09442149848,-0.1154197231,5
14.52822817,-2.770139465,9.3747052,-1.370549927,-0.4495774209,-0.149274379,-0.1805390418,5
14.54827117,-2.904260559,9.190588074,-1.485061798,-0.3915338516,-0.2154555023,-0.2501514852,5
14.56831417,-3.155438232,8.894803162,-1.676064606,-0.3820432425,-0.2020507604,-0.306671977,5
14.58835717,-3.453318787,8.798253937,-1.739981689,-0.4432741702,-0.03346047923,-0.3234521151,5
14.60840017,-4.073479156,8.998537445,-1.618135071,-0.5626901388,0.1830723584,-0.202060461,5
14.62844317,-4.528832245,9.075926514,-1.310674438,-0.565397799,0.2931187749,-0.08493828773,5
14.64848617,-3.916306,9.352102203,-1.227746887,-0.5516893268,0.1473803222,-0.07671746612,5
14.66852917,-3.345991974,9.43323349,-1.581161957,-0.6357443333,-0.238491118,-0.0274974294,5
14.68857217,-3.427871704,9.386979675,-1.862427063,-0.7442398071,-0.6214706302,0.07982660085,5
14.70861417,-3.390150146,9.038055267,-1.503473511,-1.003202081,-0.5054653883,0.1073024571,5
14.72865717,-3.184328156,8.605005798,-0.310304718,-1.172765136,0.1328450441,0.1093256399,5
14.74870017,-2.656974792,9.050329742,0.4095483398,-1.223198056,0.4383582473,0.08789718896,5
14.76874317,-2.412533112,9.632319489,0.659229126,-1.175840139,0.18912597,0.06859164685,5
14.78878617,-2.506537628,9.696835327,1.194066925,-1.206856608,0.0963364765,0.06203278154,5
14.80882917,-2.882106628,9.554032288,2.298919373,-1.134672761,-0.04511926696,0.04888524488,5
14.82887217,-2.321222992,9.317673798,2.193538513,-1.002383471,-0.3348856568,-0.03656203672,4
14.84891517,-2.627785492,8.940158844,2.31912735,-0.9913535714,-0.243563652,-0.02571012639,4
14.86895817,-3.222947845,8.495283966,2.721790009,-1.102524519,0.1667270213,0.06866722554,4
14.88900117,-2.445913696,8.438402252,3.045417023,-1.088775277,0.2585324943,0.1088678911,4
14.90904417,-0.887504425,8.680748291,3.12999115,-0.8416934609,0.00665285252,-0.01463835593,4
14.92908717,-0.2389031982,8.810079346,2.77193573,-0.7310817838,0.06770803779,-0.1538356543,4
14.94913017,-0.7662565613,8.969048767,2.389780426,-1.021687984,0.2833604515,-0.08595831692,4
14.96917317,-1.191671906,9.284143524,2.915786591,-1.416037083,0.4910710156,0.1048256904,4
14.98921617,-1.379381561,8.815917206,3.606749725,-1.523995042,0.3430566192,0.2258941531,4
15.00925917,-2.199226685,7.469916229,3.857178955,-1.421654582,0.07761000842,0.2379348725,4
15.02930217,-2.330952759,6.868167572,4.058061218,-1.62886548,0.1518747509,0.09267805517,4
15.04934517,-2.008972321,6.8332901,4.952900391,-1.938416243,0.512009263,-0.05459823087,4
15.06938817,-1.143621826,7.123985596,5.983357544,-1.926317096,0.3264815211,-0.04986948147,4
15.08943117,-1.471889191,6.851252747,5.151537323,-1.703951597,-0.0966039449,0.0937704742,4
15.10947417,-2.486030273,6.031856689,4.52000061,-1.645380378,-0.3124962747,0.1923161745,4
15.12951717,-2.413131866,5.569767609,4.476141815,-1.93675375,-0.5864362717,0.4109306335,4
15.14956017,-1.038091278,5.26649826,5.267097015,-2.055195093,-0.6853040457,0.3507008553,4
15.16960317,0.3766168213,5.418132935,5.771548004,-2.071706057,-0.4785719216,0.1473508924,4
15.18964567,-0.312999115,5.539530487,4.752018127,-1.924573183,-0.3606877923,0.1199102104,4
15.20968867,-2.265538788,5.783074036,4.438270569,-1.98195231,-0.3906578422,0.2195765078,4
15.22973167,-2.971171417,6.183641052,5.559888153,-1.976822138,-0.5046492219,0.4311195314,4
15.24977467,-2.563868408,7.180418243,6.089337158,-1.896920919,-0.4956220686,0.6289491653,4
15.26981667,-2.630629578,7.513625336,6.690936127,-1.874019027,-0.3772858381,0.6089552045,4
15.28985967,-2.430495758,6.519093475,5.831872559,-1.907578349,-0.4399508536,0.5303230286,4
15.30990267,-2.33200058,5.762117615,5.546416168,-1.952209115,-0.4365710914,0.547781527,4
15.32994567,-1.829046478,5.461842041,5.752387848,-2.081473112,-0.3685445786,0.4638558626,4
15.34998867,-1.103205872,5.358706512,6.69168457,-2.091966152,-0.4136852324,0.4444291592,4
15.37003167,-1.429527283,5.147495728,6.12301712,-2.180647612,-0.349722147,0.4177719951,4
15.39007467,-1.873653717,3.86241806,5.901477814,-2.277990818,-0.3569147885,0.3263429701,4
15.41011767,-1.619482269,2.356848907,5.257516937,-2.407730103,-0.58845824,0.25416255,4
15.43016067,-1.033301239,2.321522369,5.561085663,-2.55029273,-0.6916094422,0.230001837,4
15.45020367,-0.7231462097,1.95523407,5.12384491,-2.700577974,-0.8406975865,0.1488966048,4
15.47024667,-0.296383667,1.15140564,4.878954163,-2.843736649,-1.045440078,0.1714373231,4
15.49028967,0.2430944824,0.3658392334,4.504582672,-3.070207834,-1.179071903,0.1780046672,4
15.51033267,1.138233032,-0.9521699524,3.930077362,-3.372140646,-1.09859252,0.2931107581,4
15.53037567,2.934347992,-3.768413544,5.471721497,-3.260946751,-0.9230601788,0.4262738526,4
15.55041867,2.416425018,-3.00125885,10.86814957,-2.8808918,-0.8570837379,0.1900670826,4
15.57046167,3.928430786,-3.476670227,19.37675583,-2.138442039,-0.8108053803,0.2665118575,4
15.59050467,2.346221008,-3.750899963,19.45384552,-1.350394368,-0.5022946596,0.5550813079,4
15.61054767,1.399589539,-4.350702667,19.02034698,-0.9230850935,-0.2769998908,0.5441389084,4
15.63059067,3.66587677,-4.487817535,23.96486481,-0.5561284423,-0.378411144,0.6922219992,4
15.65063367,3.693718872,-6.875053253,20.47352509,0.08070550859,-0.5548900962,0.6750087738,4
15.67067667,4.921465759,-8.162675629,18.62457001,0.6206299663,-0.1583795995,0.600566268,4
15.69071967,5.902825012,-7.936795349,17.8509787,0.9382663369,-0.1174900681,0.5959103703,4
15.71076267,5.075196075,-7.20541626,13.70280487,0.7094372511,-0.04597565532,0.7148355842,4
15.73080567,3.630550232,-5.697003021,10.80902252,0.5383938551,0.2176718712,0.5968551636,4
15.75084767,2.104024658,-4.198768616,8.523126068,0.6441534758,0.2490221411,0.4143282771,4
15.77089067,1.219963074,-3.766766968,7.049889679,0.8622617722,0.1636524051,0.276003629,4
15.79093367,0.5613327026,-3.117267609,5.732179871,0.884398222,0.1880538315,0.04504329711,4
15.81097667,-0.160765686,-2.072590027,6.292464752,0.7091417909,0.2351474613,-0.1753274351,4
15.83101967,-0.1362167358,-0.329614563,6.153254242,0.4516076148,0.1188978851,-0.2769788206,4
15.85106267,0.1972897339,1.232387238,5.909860382,0.2006831169,-0.1336182505,-0.2478585243,4
15.87110567,-0.03263214111,1.917063446,5.273833008,-0.0246163141,0.1320315301,-0.1871632189,4
15.89114867,-0.616867218,1.567839661,6.751859436,-0.1166114658,0.5383322239,-0.05768989027,4
15.91119167,-0.4796026611,1.131197662,8.845405884,-0.2157900631,0.3007229269,0.07850307971,4
15.93123467,0.2101629639,1.534459076,8.838220825,-0.3661758304,-0.1148910746,0.2135551721,4
15.95127767,0.005388793945,1.006057892,9.76314743,-0.3708004951,-0.1239061728,0.2795806527,4
15.97132067,-0.4578977966,-0.2612068176,9.957892456,-0.3222400546,-0.1041725501,0.3161736727,4
15.99136367,-0.4209246826,-1.281335449,10.35082535,-0.5785281062,-0.3203705549,0.2322591096,4
16.01140667,-0.01362167358,-1.137634277,9.812694397,-0.8246387839,-0.641618669,0.2685552537,4
16.03144967,0.3814068604,-0.5177732849,11.96372131,-0.389007479,-0.4226464331,0.2108350843,4
16.05149267,1.15844101,-2.041903839,10.99298996,0.1650323719,-0.4072718918,0.187743783,4
16.07153567,1.326990509,-4.389172668,9.77138031,0.2781069279,-0.01974062063,0.07018000633,4
16.09157867,1.907483368,-5.19629425,10.17988083,-0.05244564265,0.4122733772,-0.1627845764,4
16.11162167,2.338886261,-3.813918915,10.40576111,-0.07451442629,0.00724122487,-0.47625947,4
16.13166467,3.190764771,-1.560953979,10.96829132,0.135706082,-0.2403661907,-0.699415803,4
16.15170767,2.680026855,-1.730700989,10.6115831,0.1679757386,-0.1414564699,-0.7414117455,4
16.17175108,1.597627716,-1.417701874,9.544452209,0.1247820407,0.03359524161,-0.7024621964,4
16.19179408,0.9675878906,-0.987197113,9.489965515,0.1529420912,0.05415722728,-0.647674799,4
16.21183608,0.5366340637,-0.4363426208,9.252708893,0.1882444471,-0.1311444342,-0.4725725651,4
16.23187908,-0.001047821045,0.2426454163,9.264234924,0.1647470891,-0.2776176631,-0.1567414105,4
16.25192208,-0.2821632385,0.9165440369,9.33967804,0.06023605168,-0.3158454895,0.1736906767,4
16.27196508,0.1175056458,0.970581665,8.738977203,-0.06174726784,-0.2468584478,0.2944945693,4
16.29200808,1.823957062,0.3287164307,8.598718872,-0.1142183691,-0.0740679428,0.238852635,4
16.31205108,2.570005646,-0.2877017212,8.925938416,-0.09934662282,-0.02524545416,0.1684027016,4
16.33209408,2.667902069,-0.5303471375,9.502539368,-0.08262149245,0.01621419191,0.07286392897,4
16.35213708,2.503693542,-0.613125,10.06297394,-0.1054164022,0.04958450422,-0.02550185472,4
16.37218008,2.182311859,-0.8137078857,10.17344421,-0.164910391,0.09257190675,-0.08850234002,4
16.39222308,1.822609863,-1.035995636,10.13796799,-0.210989207,0.2300890088,-0.1628327668,4
16.41226608,1.357826385,-1.648521881,9.916578369,-0.20479469,0.3935216367,-0.2066902369,4
16.43230908,1.338815918,-1.978435822,9.127120056,-0.1909738928,0.3398399353,-0.190214321,4
16.45235208,1.160087585,-1.677112427,9.461824036,-0.1258670539,0.1261795759,-0.09109439701,4
16.47239508,0.8876541138,-1.338666229,10.30067963,-0.1364018917,0.03470806032,-0.06471335143,4
16.49243808,1.226549377,-1.234782257,10.42432251,-0.1129347309,0.05710844696,-0.1378400475,4
16.51248108,1.465602264,-1.340312805,10.08527756,-0.04550459981,0.03737459332,-0.1558621675,4
16.53252408,0.8442443848,-1.172661438,9.275012512,-0.04909278825,-0.01138644665,-0.1379964054,4
16.55256708,1.008303223,-1.261426849,8.822054443,-0.1086450964,0.01046211086,-0.164188534,4
16.57261008,0.6613247681,-1.576521606,8.072862396,-0.2163268775,-0.004109704401,-0.1769313365,4
16.59265308,0.3594026184,-1.419198761,9.191785583,-0.1941078007,0.08218796551,-0.2393669188,4
16.61269608,0.8738827515,-1.032103729,10.59182419,-0.05971584097,0.2220629454,-0.1751059145,4
16.63273808,0.5120851135,-1.263522491,11.3613739,0.1893109679,0.2667447627,-0.04191483185,4
16.65278108,-0.4815486145,-1.636546783,10.85063599,0.2941272557,0.2152215838,0.08560653031,4
16.67282408,0.09370513916,-1.384021912,9.915231171,0.2618357837,0.08296181262,0.1038958281,4
16.69286708,1.236279144,-1.00396225,9.289083252,0.2406144589,-0.05256166682,-0.06736378372,4
16.71291008,2.20087326,-1.250649261,9.328152008,0.226967141,-0.08994847536,-0.1802873462,4
16.73295308,1.936822357,-1.41695343,9.024732971,0.13898848,-0.1263425052,-0.1459100246,4
16.75299608,0.6854246521,-1.458417206,9.391021271,0.08844345808,0.0386782214,-0.07853571326,4
16.77303908,1.436712341,-0.7131170654,9.194030914,0.02724224515,0.09198797494,-0.08727120608,4
16.79308208,1.746118927,-0.4697232056,9.931996307,0.03725955635,0.06951428205,-0.08637405187,4
16.81312508,1.600022736,-0.8277786255,9.759105835,0.03350175545,0.1231505051,-0.1227138638,4
16.83316808,1.150357819,-1.069226532,9.56076828,0.02792083286,0.1319637001,-0.1068384871,4
16.85321108,0.904119873,-1.056952057,9.388326874,0.02132863365,0.1170787662,-0.08041729033,4
16.87325408,0.9894424438,-1.025517426,9.413474579,0.0275150463,0.03396496177,-0.05382239446,4
16.89329708,0.926124115,-1.090632019,9.830058289,0.04523036256,-0.03294058144,-0.01992669515,4
16.91334008,0.9014254761,-1.092278595,9.966125336,0.08649902046,0.01944868639,-0.0164736677,4
16.93338308,0.7964936829,-1.122815094,9.439221039,0.03528599441,-0.005433832295,-0.02056647278,4
16.95342608,0.8809181213,-0.9412426758,9.417216797,-0.01830471866,0.01549248397,-0.02809547819,4
16.97346908,0.8701405334,-0.8678952026,9.622889099,-0.01758990996,0.03667880967,-0.009050390683,4
16.99351208,0.8816665649,-0.9777667236,10.06596771,0.01101300493,0.009298333898,-0.007446688134,4
17.01355508,0.8307723999,-1.106349335,10.30756531,0.06794501841,0.06165935844,-0.0255668126,4
17.03359708,0.9134005737,-1.079405365,10.09246262,0.1011366174,0.08345980942,-0.07019629329,4
17.05364008,1.217418365,-0.9187893677,9.916578369,0.0694911778,0.03775944188,-0.1183529347,4
17.07368308,0.7782316589,-1.101858673,9.824519806,0.05155139044,0.03330441564,-0.093595393,4
17.09372608,0.9214837646,-0.942739563,9.05646698,-0.05613767728,0.08761388808,-0.09900714457,4
17.11376908,0.7711962891,-1.198108521,8.650660858,-0.1355353594,0.1926507652,-0.1537780762,4
17.13381208,0.688717804,-0.7298822021,9.243428192,-0.2262797803,0.4486352503,-0.1662656367,4
17.15385508,0.2894979858,-0.5295986938,10.12509476,-0.1606373936,0.5159401298,-0.07289098203,4
17.17389767,1.195713501,-0.1249900818,10.0077388,-0.1511514336,0.4407722354,-0.0884392187,4
17.19394067,1.281485138,-0.9174421692,10.18946091,-0.2163715512,0.3276393712,-0.06037516147,4
17.21398367,0.09849517822,-1.789977722,9.954299927,-0.515050292,0.9218931198,0.05218309164,4
17.23402667,-0.1630110168,-1.593137054,9.973310394,-0.2476910353,0.4684181511,-0.004127294291,4
17.25406967,0.5352868652,-1.516496429,10.15757721,-0.04911946505,-0.08992662281,-0.06730196625,4
17.27411267,0.4906796265,-1.154549103,9.797575836,0.1039275303,-0.2553419471,-0.04984602705,4
17.29415567,0.0260458374,-1.279239807,9.670939178,0.1549163759,-0.2615957558,0.07120258361,4
17.31419867,0.02724334717,-1.127156067,9.366172943,0.09720619768,-0.22123456,0.1543549746,4
17.33424167,0.4281097412,-0.8834628296,9.393266602,0.00822702609,-0.06273510307,0.1743691117,4
17.35428467,0.7075785828,-1.087338867,9.467661896,-0.01580416597,-0.04378745705,0.1754252166,4
17.37432767,0.9440867615,-1.358275452,9.720336456,0.02768210694,-0.1475355923,0.1753820479,4
17.39437067,0.9047186279,-1.369951172,9.929601288,0.08704873919,-0.2092033029,0.1613391787,4
17.41441367,0.8228388977,-1.284927979,9.916278992,0.1259846091,-0.2043993473,0.1368429661,4
17.43445567,0.7993377686,-1.207239532,9.882149963,0.1344253272,-0.2007578015,0.1112563238,4
17.45449867,0.7420069885,-0.9746232605,9.887688446,0.1055184081,-0.1711059809,0.0870763585,4
17.47454167,0.5492079163,-0.903072052,9.902807007,0.0892226696,-0.1583812237,0.06973413378,4
17.49458467,0.5013075256,-1.041234741,9.800270233,0.08865265548,-0.1285094172,0.05216309056,4
17.51462767,0.502205658,-1.11862381,9.550140381,0.0715430975,-0.07731345296,0.02566338703,4
17.53467067,0.4575984192,-1.068777466,9.402098236,0.05313224345,-0.03836616129,-0.002811070532,4
17.55471367,0.4011657715,-0.9921368408,9.464219055,0.03339427337,-0.0353486985,-0.02204417996,4
17.57475667,0.4320016479,-1.115480347,9.590855713,0.01162676886,-0.01423008833,-0.03282415867,4
17.59479967,0.4971162415,-1.196012878,9.652377777,0.02049177513,0.06069039926,-0.05984058231,4
17.61484267,0.7149133301,-1.199755096,9.807754669,-0.0272221081,0.06592925638,-0.1116501912,4
17.63488567,0.8560697937,-1.176253967,9.814041595,0.006691414863,0.1268735826,-0.114896901,4
17.65492867,0.6891668701,-1.079555054,9.433083801,0.03609063104,0.08484314382,-0.08650949597,4
17.67497167,0.7159611511,-0.9398954773,9.682165833,-0.02514612675,0.1178648472,-0.07645025104,4
17.69501467,0.7667056274,-0.7777825928,9.836644592,-0.1267571598,0.1804814339,-0.03357652947,4
17.71505767,0.7884104919,-0.8563691711,9.620194702,-0.2171902359,0.393945694,0.01297260821,4
17.73510067,0.4240681458,-1.09871521,9.255253601,-0.2339943051,0.5928419232,0.05438985303,4
17.75514367,0.3760180664,-1.365759888,9.678872681,-0.09824914485,0.5273752809,0.05093037337,4
17.77518667,0.4719685364,-1.636696472,9.891131287,0.03924102336,0.4972401857,0.02071577311,4
17.79522967,0.2483335876,-1.57023468,9.89187973,0.1042118743,0.4827277362,0.005850865971,4
17.81527167,0.09011260986,-1.341061249,9.687854004,0.1324659139,0.3951390386,0.0001356734429,4
17.83531467,0.001496887207,-1.397793274,9.530680847,0.1534501761,0.2775675654,-0.004104866646,4
17.85535767,0.03847000122,-1.504970398,9.665251007,0.1954282969,0.1597572714,-0.03675721213,4
17.87540067,0.04595443726,-1.300345917,9.918524323,0.2128433883,0.08684831113,-0.05673611537,4
17.89544367,-0.05957611084,-1.079255676,9.953102417,0.1885849684,0.02040907927,-0.06230152771,4
17.91548667,-0.07424560547,-0.8681945801,9.887089691,0.1283733398,-0.03095322475,-0.06660824269,4
17.93552967,-0.09789642334,-0.5737568665,9.687255249,0.03026460297,-0.006090952549,-0.05785515904,4
17.95557267,-0.1309776306,-0.3375480652,9.636211395,-0.08565589041,0.05321143568,-0.02582427673,4
17.97561567,-0.1571731567,-0.4653822327,9.565857697,-0.1918958426,0.1077643707,0.01835347712,4
17.99565867,-0.2371069336,-0.5779481506,9.565258942,-0.250890255,0.1855758727,0.05924424157,4
18.01570167,-0.2920426941,-0.7397616577,9.566306763,-0.2368208319,0.2025271803,0.09169346094,4
18.03574467,-0.3495231628,-0.9246272278,9.587562561,-0.1982321441,0.2310324907,0.1360151619,4
18.05578767,-0.3270698547,-1.11622879,9.63561264,-0.1452278048,0.2545230389,0.1503005028,4
18.07583067,-0.2627037048,-1.162781982,9.789941711,-0.09765714407,0.2433837056,0.1350902319,4
18.09587367,-0.2612068176,-1.209933929,9.865534515,-0.06667137146,0.2106854022,0.1050359607,4
18.11591667,-0.3177891541,-1.350491638,9.997410278,-0.04001521319,0.136792779,0.05964404717,4
18.13595967,-0.3586541748,-1.444496155,9.992021484,-0.01910518669,0.06460610777,0.01279001404,4
18.15600167,-0.3327580261,-1.344803467,9.850116577,0.00971192494,0.009961103089,-0.02670026384,4
18.17604479,-0.3763174438,-1.29181366,9.701775055,0.02237715013,-0.002874225378,-0.04449616745,4
18.19608779,-0.4273612976,-1.202150116,9.564211121,0.02406772599,0.02333379909,-0.0441929251,4
18.21613079,-0.4770579529,-1.138233032,9.511221313,0.01207016967,0.05689208955,-0.03251169622,4
18.23617379,-0.5418731689,-1.155447235,9.534123688,0.004544139374,0.01064819377,-0.02202373743,4
18.25621679,-0.4674778748,-1.047371979,9.699529724,0.01314127631,-0.1000155881,-0.004125351086,4
18.27625979,-0.4370910645,-0.9870474243,9.864486694,0.04139895365,-0.1884562969,0.007944003679,4
18.29630279,-0.3728746033,-1.10455307,9.952054596,0.09229966998,-0.2730938792,0.02468710579,4
18.31634579,-0.3059637451,-1.221010895,9.874216461,0.121111311,-0.3002588153,0.03069728427,4
18.33638879,-0.2541714478,-1.222058716,9.690099335,0.1145457402,-0.2796957493,0.03417775035,4
18.35643179,-0.08741821289,-1.069675598,9.579778748,0.06469643861,-0.1617903411,0.03241662309,4
18.37647479,-0.2484832764,-1.170865173,9.532177734,0.02289759554,-0.03313142806,0.02032347769,4
18.39651779,-0.2362088013,-1.14317276,9.583221588,-0.01216976531,0.05558632687,0.009145231918,4
18.41656079,-0.2624043274,-1.157842255,9.599537659,-0.03250540048,0.1006882936,0.002192251617,4
18.43660379,-0.2625540161,-1.152154083,9.658065948,-0.01358313672,0.03192797676,-0.004447849467,4
18.45664679,-0.1416055298,-1.108444977,9.983638916,0.0460239388,-0.1313683242,-0.008380096406,4
18.47668979,-0.03547622681,-1.036295013,10.06671616,0.1229189411,-0.3258129954,-0.007580320351,4
18.49673279,-0.06271957397,-1.059496765,9.958940277,0.2029514164,-0.4922110438,0.005584001541,4
18.51677479,-0.04326004028,-0.9385482788,9.74563385,0.2442235947,-0.5023298264,0.01990296505,4
18.53681779,0.05373825073,-0.807121582,9.745035095,0.2730210721,-0.5053188801,0.03027683124,4
18.55686079,0.1995350647,-0.8511300659,9.715696106,0.2907681167,-0.5292263627,0.0102791544,4
18.57690379,0.3100053406,-0.9011260986,9.781110077,0.2528485656,-0.3719192743,0.008791809902,4
18.59694679,0.4108955383,-0.8675958252,9.756261749,0.1770015061,-0.2102680504,0.005480121821,4
18.61698979,0.505947876,-0.9267228699,9.708061981,0.1126749516,-0.1293156892,0.001764527406,4
18.63703279,0.3309617615,-0.9726773071,9.57483902,0.06491167098,-0.05211073533,0.003768801456,4
18.65707579,0.2736309814,-0.7375163269,9.52678894,0.0474636741,-0.04140058532,0.01353892032,4
18.67711879,0.2303709412,-0.7514373779,9.506880341,0.03594769537,-0.06355071068,0.02804089338,4
18.69716179,0.1573228455,-0.6981481934,9.674082642,0.03772450984,-0.03987066075,0.02982914262,4
18.71720479,0.2857557678,-0.6828799438,9.884994049,0.04492012039,-0.02859783545,0.02380446531,4
18.73724779,0.2730322266,-0.6753955078,9.875863037,0.04478265345,-0.06725089997,0.03126569837,4
18.75729079,0.2412982178,-0.7012916565,9.729916534,0.04903760552,-0.09751433134,0.03224913403,4
18.77733379,0.4376898193,-0.6939569092,9.63681015,0.05729018897,-0.1013522893,0.01248100027,4
18.79737679,0.5754034424,-0.8202941895,9.665849762,0.0350557901,-0.06921560317,-0.01024739444,4
18.81741979,0.6415658569,-0.9162446594,9.591005402,0.01075483486,-0.02766966447,-0.02123134583,4
18.83746279,0.7143145752,-0.650098114,9.742939453,0.007941095158,-0.03348057717,-0.02211903781,4
18.85750479,0.6900650024,-0.7694000244,9.658065948,-0.01132914703,-0.02489072084,-0.01535089221,4
18.87754779,0.6146218872,-0.8746311951,9.730515289,-0.007858389989,0.01164687425,-0.01913072728,4
18.89759079,0.6765930176,-0.802331543,9.953401794,0.01064594276,0.02096419968,-0.02813963406,4
18.91763379,0.5545967102,-0.6638694763,10.08437943,0.04452240095,-0.01050352678,-0.01883457229,4
18.93767679,0.3788621521,-0.5652246094,9.967322845,0.0513914451,-0.05741893873,-0.02897559665,4
18.95771979,0.4950205994,-0.6367758179,9.583071899,0.03422533721,-0.07442048192,-0.04396675527,4
18.97776279,0.6295907593,-0.655486908,9.458381195,0.02215712704,-0.04005273059,-0.06357884407,4
18.99780579,0.6584806824,-0.536484375,9.521849213,0.02200070396,-0.009498624131,-0.08888264,4
19.01784879,0.7291337585,-0.5719606018,9.713001709,0.02671291865,-0.01709121466,-0.1144199371,4
19.03789179,0.6219566345,-0.58737854,9.814340973,0.031871479,-0.05404435471,-0.1109295785,4
19.05793479,0.4619393921,-0.5682183838,9.8299086,0.02120503224,-0.08105190843,-0.1078587174,4
19.07797779,0.4722679138,-0.7045848083,9.774972839,0.01153520402,-0.08406472951,-0.1211303398,4
19.09802079,0.6035449219,-0.7608677673,9.71644455,0.01102168299,-0.09213973582,-0.1378985792,4
19.11806379,0.6703060913,-0.7692503357,9.654174042,0.02221281826,-0.08923076093,-0.1463589072,4
19.13810679,0.6732998657,-0.7493417358,9.593250732,0.02498375997,-0.09977368265,-0.1426270455,4
19.15814979,0.5469625854,-0.6947053528,9.747879181,0.03160619363,-0.08173473924,-0.1219945252,4
19.17819342,0.2875520325,-0.6023474121,10.0050444,0.05426255241,-0.0591105558,-0.0926816687,4
19.19823542,0.4146377563,-0.4766088867,9.920470276,0.04391637444,-0.1179669797,-0.1042378247,4
19.21827842,0.6128256226,-0.5803431702,9.69997879,0.01754799485,-0.1246882454,-0.1120449156,4
19.23832142,0.9138496399,-0.6194119263,9.55837326,0.01257560682,-0.09152071178,-0.1185366362,4
19.25836442,1.083746338,-0.5295986938,9.547445984,0.02117973194,-0.06584884226,-0.1003072336,4
19.27840742,1.060544586,-0.4813989258,9.595645752,-0.002714980161,-0.04840157181,-0.0575946942,4
19.29845042,0.9443861389,-0.4825964355,9.600136414,-0.0393724367,-0.02446615696,-0.003373504151,4
19.31849342,0.9443861389,-0.4433779907,9.645492096,-0.05376002565,0.009504356422,0.03174365684,4
19.33853642,1.031954041,-0.4219725037,9.728419647,-0.06151119992,0.01318101771,0.06470455974,4
19.35857942,1.021176453,-0.4912783813,9.683063965,-0.05140766874,-0.004525379278,0.1077234447,4
19.37862242,0.7453001404,-0.5918692017,9.687554626,-0.009695547633,-0.02273309603,0.14503631,4
19.39866542,0.4963677979,-0.6605763245,9.816286926,0.02365868166,-0.02321710996,0.1454414725,4
19.41870842,0.4879852295,-0.6920109558,9.981094208,0.02739335597,-0.02658538334,0.108870402,4
19.43875142,0.6262976074,-0.7348219299,10.05384293,0.01993224397,-0.05746832117,0.06493819505,4
19.45879442,0.750838623,-0.6761439514,9.775421906,-0.0009928075597,-0.04429291934,0.0403107889,4
19.47883742,0.7607180786,-0.6578819275,9.621242523,-0.003752531717,0.008902665228,0.01909654588,4
19.49888042,0.988843689,-0.7153623962,9.628427582,-0.007885256782,0.02989182062,0.0105601009,4
19.51892242,1.099763031,-0.7608677673,9.791737976,0.004297342617,0.04924165457,0.0121933734,4
19.53896542,1.003662872,-0.6556365967,10.07240433,0.03943413496,0.05652156472,0.01199183334,4
19.55900842,0.9828561401,-0.55579422,10.1072818,0.05112408102,0.02456203103,0.02065456286,4
19.57905142,0.9225315857,-0.5313949585,9.792187042,0.0418709293,-0.001590210013,0.03137724847,4
19.59909442,0.7686515808,-0.5180726624,9.499246216,0.03030950204,0.001613415312,0.05257914588,4
19.61913742,0.6150709534,-0.4535568237,9.299112396,0.005211355165,0.005451378413,0.06185895205,4
19.63918042,0.6644682312,-0.3873944092,9.330696716,0.008811416104,0.02142794803,0.0622946471,4
19.65922342,0.6569837952,-0.1642085266,9.686955872,-0.001892579952,0.02908703126,0.07509217411,4
19.67926642,0.6071374512,-0.5242098999,9.783804474,0.01231840719,0.004486156628,0.09334284812,4
19.69930942,0.6780899048,-0.6929090881,10.03992188,0.04680582508,-0.02749885991,0.0926746875,4
19.71935242,0.6993457031,-0.7514373779,10.03812561,0.06658326089,-0.05617977306,0.07989204675,4
19.73939542,0.6110293579,-0.5819897461,9.92346405,0.0649972111,-0.05138066411,0.07021917403,4
19.75943842,0.5569917297,-0.5200186157,9.758806458,0.05813939124,-0.03413650021,0.05596933886,4
19.77948142,0.6797364807,-0.6598278809,9.629475403,0.04208119214,-0.01983934641,0.03492059559,4
19.79952442,0.9571096802,-0.7710466003,9.483828278,0.00563321542,-0.008013749495,0.001237706165,4
19.81956642,1.104253693,-0.6900650024,9.585766296,-0.0155356722,0.0006477478892,-0.01011271495,4
19.83960942,1.044976959,-0.6114784241,9.697284393,-0.01313411165,0.02210072428,-0.008124854416,4
19.85965242,0.9104067993,-0.5617817688,9.843829651,-0.003034935333,0.01962993108,0.006849838421,4
19.87969542,0.8207432556,-0.5221142578,9.856403503,0.001775955665,0.001883536112,0.02516700141,4
19.89973842,0.7884104919,-0.4688250732,9.763895874,0.007619918324,-0.01100056432,0.03812592849,4
19.91978142,0.7491920471,-0.4586462402,9.70581665,0.01848143153,-0.01127899624,0.0438733995,4
19.93982442,0.7280859375,-0.4041595459,9.665251007,0.01934251003,-0.007717697881,0.04399237037,4
19.95986742,0.7610174561,-0.3721261597,9.628128204,0.01216770429,-0.007569673005,0.04172053188,4
19.97991042,0.7878117371,-0.4058061218,9.699230347,0.008549612015,-0.006191244815,0.04013445973,4
19.99995342,0.827479248,-0.4665797424,9.790390778,0.01121527888,-0.005650464911,0.03467131034,4
20.01999642,0.8514294434,-0.5438191223,9.807006226,0.01663861796,-0.01562693901,0.0280416552,4
20.04003942,0.8759783936,-0.6010002136,9.810449066,0.02252149396,-0.01826504245,0.01235210896,4
20.06008242,0.9226812744,-0.6355783081,9.865983582,0.0606280081,-0.03002698533,-0.02270599827,4
20.08012542,1.20289856,-0.6857240295,10.46533722,0.1547399312,-0.08670305461,-0.07110760361,4
20.10016842,1.015188904,-0.5551954651,10.22194336,0.1737077683,-0.03375648335,-0.09308853745,4
20.12021042,0.7307803345,-0.4906796265,9.359586639,0.1043190956,0.005732787773,-0.06536052376,4
20.14025342,0.7541317749,-0.3532653809,9.267827454,0.02445845865,0.07016705722,-0.05594298989,4
20.16029642,0.892893219,-0.3450325012,9.198371887,-0.08043552935,0.09752873331,-0.03161181509,4
20.18033867,0.8680448914,-0.3929328918,9.147178345,-0.1060861796,0.138363868,-0.005629227962,4
20.20038167,0.9843530273,-0.3284170532,9.411229248,-0.08491951227,0.1818352789,0.02261305228,4
20.22042467,0.9777667236,-0.2685415649,9.921967163,-0.07268175483,0.1540366709,0.06004404649,4
20.24046767,0.8277786255,-0.1371148682,10.14635056,-0.1735781878,0.06829817593,0.1217536777,4
20.26051067,0.6836283875,0.01422042847,10.26819717,-0.2689449191,-0.01284891553,0.1712710112,4
20.28055367,1.074615326,-0.1646575928,10.30247589,-0.2701187432,-0.1289126724,0.1809467673,4
20.30059667,0.9222322083,-0.4132905579,9.962233429,-0.2927703559,-0.1371696889,0.1743935198,4
20.32063967,0.05284011841,-0.4816983032,9.658365326,-0.3177734017,-0.04486986622,0.1696307361,4
20.34068267,-0.3607498169,-0.2383044434,9.541458435,-0.3648213744,-0.04318158329,0.1098834798,4
20.36072567,0.03951782227,-0.2612068176,9.621990967,-0.5054698586,-0.1607094854,0.08024229854,4
20.38076867,0.6676116943,-0.7773335266,9.814939728,-0.4470517039,-0.1704393476,0.07931100577,4
20.40081167,1.171463928,-1.336420898,9.877958679,-0.3219383061,-0.1822511703,0.07399449497,4
20.42085367,1.087338867,-1.725461884,9.337732086,-0.2440369576,-0.03473696113,0.03223873302,4
20.44089667,0.8662486267,-1.849254456,9.329948273,-0.19944866,0.02468207106,0.03252022341,4
20.46093967,0.9476792908,-1.711091766,9.465715942,-0.1556732208,-0.005863790866,0.06759891659,4
20.48098267,1.066831512,-1.844763794,9.277706909,-0.09659514576,-0.04060364887,0.1195845902,4
20.50102567,0.9627978516,-2.080074463,9.029972076,0.04607425258,0.01962098107,0.1610436291,4
20.52106867,1.133442993,-2.200573883,9.128167877,0.1807595491,-0.03132821247,0.1474026442,4
20.54111167,1.222956848,-1.596579895,9.194330292,0.1946090013,-0.07089608908,0.0911487937,4
20.56115467,0.9653425598,-0.3570075989,9.445058899,0.01267132349,0.04173789546,-0.001368676312,4
20.58119767,0.7379653931,0.403560791,10.11865814,-0.2756203711,0.1316725761,-0.09006099403,4
20.60124067,0.4206253052,-0.1410067749,10.68373306,-0.3031467199,-0.005144929979,-0.09621208161,4
20.62128367,0.4032614136,-1.479972382,10.4880899,-0.08265641332,-0.09941574931,-0.05670360103,4
20.64132667,0.5656736755,-1.968855743,9.793833618,0.1184991524,0.02029474452,-0.04165776819,4
20.66136967,0.7957452393,-1.705852661,9.324858856,0.1503959894,0.1117503867,-0.03581647202,4
20.68141267,0.9590556335,-1.200653229,9.410929871,0.06016962975,0.07616033405,-0.02031818032,4
20.70145567,1.040037231,-1.081351318,9.924212494,0.006105017848,-0.02389898337,-0.005211639218,4
20.72149767,1.195114746,-1.277293854,10.07644592,-0.002911865944,-0.06667137891,-0.004782097414,4
20.74154067,1.173409882,-1.41575592,9.718240814,0.01565207541,-0.03387732804,-0.004080030601,4
20.76158367,1.157842255,-1.232686615,9.349407806,0.007718814537,0.0186419636,0.006106866524,4
20.78162667,1.060694275,-1.105002136,9.297914886,-0.01844890416,0.0262481831,0.01715805568,4
20.80166967,0.9461824036,-1.104104004,9.566456451,-0.02289870009,0.002203028416,0.02941021137,4
20.82171267,0.8131091309,-1.079255676,9.81,-0.01873596199,-0.007777265739,0.03846152127,4
20.84175567,0.6918612671,-1.160985718,9.824968872,-0.007593248971,-0.01565252617,0.03804480284,4
20.86179867,0.6352789307,-1.246308289,9.778265991,0.004493726417,-0.01327628829,0.02586352639,4
20.88184167,0.6782395935,-1.245410156,9.707313538,0.0119561702,-0.004099440295,-0.001149535179,4
20.90188467,0.7149133301,-1.27774292,9.685009918,0.01136689167,0.001226342749,-0.02588682435,4
20.92192767,0.7408094788,-1.149459686,9.632469177,-0.0184625648,0.0007899657357,-0.04467789829,4
20.94197067,0.8190966797,-1.1373349,9.647438049,-0.05170298368,-0.00721581094,-0.05695574358,4
20.96201367,0.8806187439,-1.183588715,9.705217896,-0.06596944481,-0.008367555216,-0.06472814083,4
20.98205667,0.9086105347,-1.264121246,9.738299103,-0.0563707836,-0.01153451856,-0.06873590499,4
21.00209867,0.9443861389,-1.294358368,9.70581665,-0.03361366317,-0.01594241895,-0.0679680109,4
21.02214167,0.8340655518,-1.267115021,9.586814117,-0.02063194476,-0.004389312118,-0.06553004682,4
21.04218467,0.7613168335,-1.347198486,9.576485596,-0.0150361266,0.01898875833,-0.0621554032,4
21.06222767,0.7824229431,-1.251248016,9.608668671,-0.02692851797,0.02459567972,-0.0498582311,4
21.08227067,0.840352478,-1.086740112,9.658065948,-0.03812982142,0.008790785447,-0.03044828586,4
21.10231367,0.9153465271,-1.224304047,9.674082642,0.003468112322,0.00534996856,-0.01022128016,4
21.12235667,0.9846524048,-1.422042847,9.666298828,0.07935854048,0.01131492294,0.01497167535,4
21.14239967,0.9592053223,-1.42638382,9.631870422,0.1274120063,0.04430696741,0.03594964743,4
21.16244267,0.8984317017,-1.392703857,9.648336182,0.1386837065,0.05359198526,0.05943553895,4
21.18248558,0.8710386658,-1.139729919,9.705666962,0.08300182223,0.04075042531,0.06396710873,4
21.20252858,0.8907975769,-0.8057743835,9.783804474,-0.04537623748,0.009128447622,0.04161318764,4
21.22257158,0.8840615845,-0.918639679,9.880802765,-0.1138694733,-0.05099556968,0.02672975138,4
21.24261458,0.8376580811,-1.223256226,9.922266541,-0.05641828105,-0.0680347532,0.0218601916,4
21.26265758,0.8631051636,-1.441801758,9.644144897,0.03521556035,-0.0004953392781,0.01022066083,4
21.28269958,0.841999054,-1.447789307,9.31273407,0.06087430194,0.06932654232,-0.00523155136,4
21.30274258,0.8193960571,-1.117126923,9.455088043,0.01085951179,0.07219655067,-0.0132221356,4
21.32278558,0.7929011536,-1.025367737,9.821825409,-0.03529895842,0.005319894291,-0.005490487441,4
21.34282858,0.8018824768,-1.194366302,9.984537048,-0.02223367989,-0.04805066064,-0.001888546627,4
21.36287158,0.7682025146,-1.317859497,9.745484161,0.01060261112,-0.02711797506,-0.007240107749,4
21.38291458,0.7644602966,-1.325044556,9.494456177,0.01783442497,0.01947243139,-0.0141691193,4
21.40295758,0.8181985474,-1.228495331,9.49520462,0.003781581763,0.02386620641,-0.01336112712,4
21.42300058,0.8647517395,-1.157692566,9.704319763,-0.003204093082,0.003707980737,-0.01038300805,4
21.44304358,0.8575666809,-1.191671906,9.795480194,-0.002017059363,-0.01068409532,-0.004374922719,4
21.46308658,0.8388555908,-1.210832062,9.721234589,-0.001608405262,-0.006854233798,-0.001015264774,4
21.48312958,0.8336164856,-1.195264435,9.639803925,-0.004311827011,-0.001384075731,0.0007628644817,4
21.50317258,0.8714877319,-1.2063414,9.623338165,-0.004140100442,0.003209512681,0.002256126143,4
21.52321558,0.845741272,-1.204245758,9.665251007,-0.002222796436,0.005635192618,0.001696365885,4
21.54325858,0.8464897156,-1.226998444,9.672136688,-0.004027856048,0.007330187596,-0.001677287044,4
21.56330058,0.8372090149,-1.219813385,9.72228241,-0.003157597734,0.001219511498,-0.004278477281,4
21.58334358,0.7887098694,-1.213676147,9.741592255,0.001398475841,-0.001203740016,-0.002554522594,4
21.60338658,0.7735913086,-1.215472412,9.665999451,0.0004278006963,-0.005142861512,0.002765561687,4
21.62342958,0.7870632935,-1.241967316,9.600735168,-0.001348997699,-0.005123898387,0.005563029554,4
21.64347258,0.8083190918,-1.226399689,9.632469177,2.892152406e-05,-0.002132369205,0.000919808168,4
21.66351558,0.8342152405,-1.224603424,9.726473694,0.004879963584,0.0006841230206,-0.002071771771,4
21.68355858,0.8306227112,-1.205293579,9.70581665,0.004409320652,-0.004654629156,-0.0001974338666,4
21.70360158,0.8482859802,-1.199006653,9.670939178,0.001841140212,-0.006816391367,-0.003987415694,4
21.72364458,0.9023236084,-1.250948639,9.673483887,0.007452921942,-0.002872002311,-0.00505209947,4
21.74368758,0.8795709229,-1.207688599,9.696236572,0.001277787494,6.901286542e-05,-0.003620911855,4
21.76373058,0.8577163696,-1.188678131,9.681716766,-0.005482067354,-0.004212983884,-0.005185544956,4
21.78377358,0.8867559814,-1.162482605,9.626182251,-0.004999972414,-0.02490542829,-0.01208038814,4
21.80381658,0.9361532593,-1.177900543,9.625433807,-0.01837637275,-0.03671432287,-0.01411558595,4
21.82385958,0.8515791321,-1.204096069,9.622140656,-0.0173686631,-0.01713345386,-0.003700453322,4
21.84390258,0.8131091309,-1.26951004,9.767787781,-0.0006183672231,0.006896506995,0.0008804633981,4
21.86394458,0.8303233337,-1.271156616,9.759105835,0.004437111318,0.004101119004,-0.0006243027747,4
21.88398758,0.819994812,-1.225800934,9.665999451,-0.00336281769,-0.00885533914,-0.001064518001,4
21.90403058,0.7918533325,-1.212478638,9.669142914,-0.004853874911,-0.000827673357,0.0002060506959,4
21.92407358,0.7893086243,-1.250948639,9.682016144,0.004553835839,0.007528067566,-0.001326031052,4
21.94411658,0.8252339172,-1.240620117,9.656269684,0.006724970415,0.007408453152,-0.003985127434,4
21.96415958,0.8434959412,-1.239572296,9.654772797,0.004205259494,0.005260406528,-0.006784757134,4
21.98420258,0.8309220886,-1.203946381,9.693841553,-0.001736425329,0.003351525869,-0.003210759489,4
22.00424558,0.8414002991,-1.227148132,9.703870697,0.001850978006,0.002876912011,-0.00163862505,4
22.02428858,0.8631051636,-1.212778015,9.659263458,4.161079414e-05,0.004753031302,0.001733451616,4
22.04433158,0.8653504944,-1.236279144,9.608668671,0.001180206193,0.005926089827,0.00369482208,4
22.06437458,0.882714386,-1.231189728,9.654174042,0.002677529585,0.0107291732,0.00598490797,4
22.08441758,0.8437953186,-1.223106537,9.71644455,0.003125128336,0.007904897444,0.006202207413,4
22.10446058,0.8140072632,-1.200952606,9.752220154,0.00158929918,0.001072232611,0.008331606165,4
22.12450258,0.8354127502,-1.210832062,9.704768829,0.001883406192,-0.003688893281,0.005594178103,4
22.14454558,0.8544232178,-1.220861206,9.645941162,0.004951915704,0.003099051304,0.00230892282,4
22.16458858,0.850531311,-1.227597198,9.65552124,0.004635360092,0.006817024201,-0.001430738252,4
22.18463167,0.8503816223,-1.208137665,9.690099335,0.002354111988,0.00495262444,-0.002985737752,4
22.20467467,0.8463400269,-1.203048248,9.695488129,0.002467405982,0.0006475104019,-0.0008682047483,4
22.22471767,0.8349636841,-1.196461945,9.691596222,0.004907174967,-0.0003774394281,-0.0005366648547,4
22.24476067,0.8297245789,-1.184337158,9.661957855,0.00276859384,0.0002387620043,0.001279528835,4
22.26480367,0.8358618164,-1.224603424,9.643097076,0.000696670264,-0.001173964236,0.003008740488,4
22.28484667,0.8434959412,-1.214125214,9.65552124,-0.001086033648,0.002859062748,0.001980955247,4
22.30488967,0.8533753967,-1.221010895,9.695488129,-0.0005168854259,0.002852442442,0.0004159477539,4
22.32493267,0.8527766418,-1.214424591,9.720785522,0.004542227834,-0.00253881095,0.001326621976,4
22.34497567,0.8202941895,-1.211131439,9.696985016,0.005806242116,-8.670194075e-05,0.001990122488,4
22.36501867,0.8385562134,-1.255588989,9.685458984,0.007756694686,-6.682844833e-05,0.001488673966,4
22.38506067,0.839304657,-1.218466187,9.682165833,0.004370516632,3.918539733e-05,0.001883575926,4
22.40510367,0.8108638,-1.177900543,9.658814392,-0.0005520232953,-0.002951572649,0.002978460863,4
22.42514667,0.819994812,-1.209933929,9.641001434,-0.003206568304,-0.00200301921,0.002556833206,4
22.44518967,0.8273295593,-1.218166809,9.643995209,-0.001963640098,-0.001818836201,0.001313708955,4
22.46523267,0.8509803772,-1.200054474,9.664352875,-0.0019689193,-0.002072001807,0.003559262259,4
22.48527567,0.8345146179,-1.22160965,9.698032837,-0.002183836419,-0.002637657337,0.003891890869,4
22.50531867,0.8153544617,-1.200054474,9.686955872,-0.003293857211,-0.00528678298,0.002704367507,4
22.52536167,0.8360115051,-1.243015137,9.649833069,-0.001996615902,-0.007432412822,0.003210388124,4
22.54540467,0.8406518555,-1.23328537,9.673184509,0.000925341621,0.0006738035008,0.001759502804,4
22.56544767,0.8416996765,-1.218765564,9.721234589,0.0009592892602,0.002868874464,1.139380038e-05,4
22.58549067,0.8472381592,-1.199006653,9.693392487,-0.001859541517,-0.0008530663326,-0.002088252455,4
22.60553367,0.8665480042,-1.204096069,9.654174042,-0.00489424495,-0.003420374356,0.0007611080073,4
22.62557667,0.8637039185,-1.223106537,9.659712524,0.001764206216,0.0001812255941,0.0008177685086,4
22.64561867,0.8503816223,-1.234931946,9.681567078,0.003170198528,0.005286391359,0.001890545012,4
22.66566167,0.8488847351,-1.214873657,9.699230347,-0.000328051392,0.003298067488,0.0003259524237,4
22.68570467,0.840352478,-1.195264435,9.699080658,-0.002220274415,-0.00214593811,0.0003349476028,4
22.70574767,0.8449928284,-1.190773773,9.657317505,-0.001919995062,-0.0007103211246,-0.0006671894807,4
22.72579067,0.8484356689,-1.216071167,9.655221863,0.0004349441733,0.002253309358,0.001113182749,4
22.74583367,0.8241860962,-1.230441284,9.685908051,0.0002754207235,0.005592775531,-0.001505141612,4
22.76587667,0.8164022827,-1.221909027,9.695637817,-0.00205439073,0.002313364297,-0.001131583471,4
22.78591967,0.8265811157,-1.213077393,9.68007019,-0.002668030094,-0.00216510566,-0.0003782445565,4
22.80596267,0.8333171082,-1.219663696,9.655970306,-0.002502412768,-0.0005483212881,-0.001530400477,4
22.82600567,0.8427474976,-1.2461586,9.665999451,0.001062698197,0.001584823709,-0.001381830545,4
22.84604867,0.8351133728,-1.232536926,9.680818634,-0.0003282709513,0.002883248497,-0.001241933322,4
22.86609167,0.8372090149,-1.215173035,9.698032837,0.0005435699131,-0.0003993567079,-3.826967441e-05,4
22.88613467,0.8475375366,-1.183588715,9.692344666,-0.0008366841357,-0.003029446583,0.002616407583,4
22.90617667,0.8313711548,-1.179098053,9.661808167,-0.002524595475,-0.002383232117,0.004802700132,4
22.92621967,0.8437953186,-1.231489105,9.643695831,-0.001868580701,5.009118468e-05,0.002505317796,4
22.94626267,0.8345146179,-1.22744751,9.671987,-5.072681233e-06,0.003130641766,0.0001708243508,4
22.96630567,0.8406518555,-1.217418365,9.716294861,0.002665529493,0.005303702317,-0.002949886722,4
22.98634867,0.8568182373,-1.19346817,9.734257507,0.005742749199,-0.0002094879746,0.00105950702,4
23.00639167,0.8331674194,-1.202000427,9.693691864,0.003320839489,0.001404495211,0.0003508005757,4
23.02643467,0.8533753967,-1.23089035,9.613009644,-0.01142722927,0.005643102806,-0.0009187487885,4
23.04647767,0.8322692871,-1.179247742,9.450148315,-0.03532006219,0.007726019714,0.006362664513,4
23.06652067,0.7044351196,-1.218765564,9.527687073,-0.04486185312,0.01382103097,0.02084624022,4
23.08656367,0.7506889343,-1.217717743,9.62977478,-0.05094133317,0.01951332763,0.01858634315,4
23.10660667,0.8575666809,-1.30812973,9.855355682,-0.02946925163,0.006854781881,0.01129515562,4
23.12664967,0.9687854004,-1.30348938,9.932445374,-0.008659955114,-0.008939242922,0.004284333438,4
23.14669267,0.9596543884,-1.248852997,9.785151672,0.001414063154,-0.01405505557,-0.004023999907,4
23.16673467,0.9110055542,-1.236578522,9.61690155,0.002979108831,-0.004876936786,-0.009258392267,4
23.18677829,0.807121582,-1.198258209,9.639055481,0.008106085472,0.008585702628,-0.006818680093,4
23.20682129,0.7209008789,-1.181942139,9.626631317,-0.000124852173,0.008352214471,0.0002949233167,4
23.22686429,0.7340734863,-1.185384979,9.590556335,-0.0066693197,-0.00294006709,0.009481289424,4
23.24690729,0.7677534485,-1.230441284,9.632319489,-0.008948375471,0.001471446594,0.01128356811,4
23.26695029,0.833915863,-1.32684082,9.711804199,-0.002462997567,0.008463408798,0.008145004511,4
23.28699329,0.9045689392,-1.307381287,9.742490387,0.001092650695,-0.003213432617,-0.0006409455091,4
23.30703629,0.8943901062,-1.280587006,9.703870697,0.0006349631585,-0.01531588845,-0.004480455071,4
23.32707929,0.8177494812,-1.298399963,9.614057465,-0.0007267736364,-0.01591913775,-0.0002294301521,4
23.34712229,0.7517367554,-1.319206696,9.602980499,0.00929930713,-0.004830275662,0.006047920324,4
23.36716529,0.7012916565,-1.284478912,9.682165833,0.00659196917,0.01139585581,0.01145675872,4
23.38720829,0.7390132141,-1.216819611,9.771679688,0.0009909963701,0.009254149161,0.01023382135,4
23.40725029,0.816252594,-1.21801712,9.776769104,-0.002472225111,-0.008433869109,0.006635647733,4
23.42729329,0.9050180054,-1.188528442,9.673034821,0.0001935518812,-0.009261680767,0.001338910195,4
23.44733629,0.9333091736,-1.234183502,9.592053223,0.006476121489,0.002994381357,-0.004044170026,4
23.46737929,0.9059161377,-1.275946655,9.598938904,0.005695470609,0.01265314128,-0.009197667241,4
23.48742229,0.8632548523,-1.254092102,9.674831085,-0.002073471434,0.005105633754,-0.006476677954,4
23.50746529,0.840352478,-1.247505798,9.673932953,-0.004402860068,-0.00545687275,-0.001899570692,4
23.52750829,0.8292755127,-1.272653503,9.654922485,-0.005887008738,-0.005628488027,0.004143181257,4
23.54755129,0.8184979248,-1.27654541,9.652826843,-0.0006864974275,0.006477427669,0.007214101031,4
23.56759429,0.8294252014,-1.286574554,9.683363342,0.002519494388,0.007597676478,0.004986831453,4
23.58763729,0.8500822449,-1.245559845,9.720186768,0.0008408413269,-0.001729958691,0.0007998147048,4
23.60768029,0.8325686646,-1.213676147,9.686656494,-0.002376210177,-0.004756540991,-0.0002590836957,4
23.62772329,0.7982899475,-1.2753479,9.677525482,-0.001467837254,-0.0005124155432,-0.0033447647,4
23.64776629,0.7864645386,-1.270857239,9.668993225,0.004482964519,0.005528010894,-0.005703295581,4
23.66780829,0.8168513489,-1.254541168,9.704619141,0.005735997576,0.003030441701,-0.006997122429,4
23.68785129,0.8337661743,-1.232536926,9.711804199,0.005107194185,-0.002498568967,0.000492796069,4
23.70789429,0.8295748901,-1.219663696,9.679471436,0.005494167097,-0.0007151081227,0.00265601743,4
23.72793729,0.8747808838,-1.274150391,9.676178284,0.00907759089,-0.0003740498796,0.002745776437,4
23.74798029,0.8653504944,-1.223555603,9.652826843,0.0005322122015,0.0007464073133,0.003811356146,4
23.76802329,0.8170010376,-1.230590973,9.643396454,-0.002349186921,-0.003083184361,0.005786547437,4
23.78806629,0.8146060181,-1.285377045,9.64504303,-0.001528792782,-0.001302550547,0.005798892118,4
23.80810929,0.7997868347,-1.282982025,9.662257233,-0.002239464782,-0.001103784423,0.002861682326,4
23.82815229,0.8053253174,-1.243314514,9.679022369,-0.003851100104,-0.002089273185,0.001324555371,4
23.84819529,0.8107141113,-1.243913269,9.678722992,-0.002906257519,-0.001858877484,-0.0006739345845,4
23.86823829,0.8214916992,-1.264720001,9.683513031,-0.002399160294,-0.004370483104,-0.0004318973515,4
23.88828129,0.8297245789,-1.268013153,9.678872681,0.001219511498,-0.002221067436,-0.001312560635,4
23.90832329,0.8424481201,-1.255439301,9.672436066,0.0002904594876,0.002629441675,-0.000727473991,4
23.92836629,0.8475375366,-1.221759338,9.685608673,-4.956312478e-05,0.003007791005,-0.001842277823,4
23.94840929,0.8458909607,-1.243613892,9.676028595,-0.0001901779324,0.001390851103,-0.0003399115521,4
23.96845229,0.8560697937,-1.259181519,9.662855988,0.001311562955,0.002346582711,0.000524533214,4
23.98849529,0.8330177307,-1.261875916,9.687854004,-0.0003247929271,0.003728881245,0.002413196722,4
24.00853829,0.8330177307,-1.243015137,9.657317505,-0.003189445939,-0.0003017988056,-0.0001988606527,4
24.02858129,0.8294252014,-1.248852997,9.654473419,-0.001793087693,-0.0005462290719,0.002773834625,4
24.04862429,0.8039781189,-1.256786499,9.651779022,0.0002324341331,0.005285303108,0.0008464916609,4
24.06866729,0.8081694031,-1.272503815,9.690099335,-0.004154293332,0.004979062825,-3.319256939e-05,4
24.08871029,0.8165519714,-1.249152374,9.688452759,-0.004494269378,0.00219594175,-0.001253402093,4
24.10875329,0.8315208435,-1.252295837,9.698182526,-0.001162169036,0.003959650639,-0.002078161109,4
24.12879629,0.8105644226,-1.227148132,9.653724976,-0.003173153615,0.01071566902,-0.0009215855971,4
24.14883829,0.7711962891,-1.213975525,9.632469177,-0.007832134143,0.01595440321,0.008317662403,4
24.16888129,0.7107220459,-1.08000412,9.577832794,-0.0312981233,0.02528759278,0.009795782156,4
24.18892417,0.7937992859,-1.02027832,9.50104248,-0.06327302754,0.01030370779,0.004304810893,4
24.20896717,0.7777825928,-1.159339142,9.354347534,-0.07475771755,0.009633531794,0.01926997676,4
24.22901017,0.7059320068,-1.336869965,9.605076141,-0.06846900284,0.02893839031,0.03127381206,4
24.24905317,0.7415579224,-1.021625519,9.990524597,-0.06900923699,0.05079491809,0.02475500107,4
24.26909617,1.046623535,-0.9125024414,10.26699966,-0.0256980136,-0.04814992845,-0.001860668417,4
24.28913917,1.31636261,-0.959355011,10.01133133,0.006340143271,-0.08605025709,-0.01447553374,4
24.30918217,1.09048233,-1.007554779,9.900561676,-0.04040801153,0.07972279936,-0.02344900742,4
24.32922517,1.221909027,-0.8340655518,9.932145996,-0.1141680181,0.09150099754,-0.04526326805,4
24.34926817,1.398092651,-0.9559121704,9.360484772,-0.1540285796,-0.01812360808,0.01311592665,4
24.36931117,1.045725403,-1.00396225,9.597142639,-0.1078560129,-0.1395873874,0.06020436436,4
24.38935317,0.7393125916,-0.8640032959,9.785001984,-0.151084289,-0.137624383,0.1122191176,4
24.40939617,0.5182223511,-1.099313965,9.241033173,-0.2861781716,-0.01056121103,0.1215579882,4
24.42943917,0.6825805664,-1.522483978,9.269324341,-0.3354795277,0.1001779884,0.08758591115,4
24.44948217,0.8909472656,-1.889520721,9.91642868,-0.3059625924,0.0484207049,0.1043774113,4
24.46952517,0.7173083496,-1.828597412,9.856253815,-0.3076559603,-0.06494317949,0.1422663778,4
24.48956817,0.228874054,-1.838626556,9.741592255,-0.2893208563,-0.08181209862,0.1532535255,4
24.50961117,0.01901046753,-2.093845825,9.605525208,-0.2703952193,-0.09549128264,0.1354791224,4
24.52965417,0.03996688843,-2.67134491,9.272767181,-0.2546270192,-0.03790238127,0.09230050445,4
24.54969717,0.554147644,-3.049907684,9.267228699,-0.1880255491,-0.06996684521,0.025153175,4
24.56974017,1.047671356,-3.07849823,9.416318665,-0.08556383848,-0.1157929599,-0.07668621093,4
24.58978317,1.475032654,-2.73331604,9.098230133,-0.09140255302,-0.15432477,-0.1359475851,5
24.60982617,1.491947479,-2.5215065,8.447233887,-0.07335111499,0.04667823762,-0.1386129707,5
24.62986817,1.515747986,-2.767744446,9.101074219,0.08486683667,0.1610910892,-0.1712255925,5
24.64991117,1.368304596,-2.970273285,9.477391663,0.2201099396,0.1796741486,-0.2062036246,5
24.66995417,1.119222565,-2.529290314,9.865833893,0.2234515399,0.05261610448,-0.2239685804,5
24.68999717,0.7207511902,-1.894460449,9.089548187,0.2062881291,0.2503307462,-0.2837722003,5
24.71004017,1.074016571,-1.50706604,9.883497162,0.2839351892,0.3136047423,-0.2838071585,5
24.73008317,0.699944458,-1.325194244,9.939480743,0.1947613358,0.2188157439,-0.3065059483,5
24.75012617,0.6966513062,-1.138831787,10.47117508,0.02688137069,0.1518954486,-0.447416842,5
24.77016917,0.3688330078,-1.39360199,10.70424042,-0.1370262653,0.0175214,-0.4300165176,5
24.79021217,0.157023468,-1.697619781,9.745035095,-0.06866144389,0.009921975434,-0.3322047293,5
24.81025517,0.7188052368,-2.550695801,8.303383026,0.07664950192,0.1590207219,-0.3043624163,5
24.83029817,0.4658312988,-2.967878265,8.304281158,0.2136513591,0.3237846792,-0.2005623579,5
24.85034117,0.4246669006,-2.534230042,9.202862549,0.1120108366,0.1414892972,-0.1082139462,5
24.87038317,1.292412415,-2.064656525,10.43629761,-0.3773685396,-0.4259872437,-0.185275197,5
24.89042617,1.07536377,-0.8235873413,12.75497589,-1.13777554,-0.83984828,-0.3976180255,5
24.91046917,0.7813751221,-2.089504852,14.41801758,-0.8106685877,-0.1341080666,-0.7429837584,5
24.93051217,1.504970398,-4.903054047,13.15105225,-0.02729722485,0.2543177307,-0.7931832075,5
24.95055517,1.221010895,-4.213887177,11.89875641,0.0725992918,0.3314548135,-0.6112715006,5
24.97059817,2.194436646,-2.992127838,13.20419174,0.267562151,0.4025844634,-0.604655683,5
24.99064117,2.927312622,-3.268602905,13.02067337,0.7919722199,0.3899199665,-0.4457373619,5
25.01068417,2.107617188,-3.193758545,11.22665405,0.9648244977,0.6683577299,-0.153288722,5
25.03072717,1.552272034,-2.491568756,10.80453186,0.9353826046,0.9579823017,-0.07485153526,5
25.05077017,2.130070496,-2.204765167,11.85399948,0.9375923872,1.23536706,0.02662313171,5
25.07081317,1.555265808,-3.103945312,12.1828656,1.058525801,1.422635913,0.2938171029,5
25.09085517,1.028062134,-2.963237915,11.88064407,1.434366822,1.234591007,0.319806397,5
25.11089817,0.1983375549,-2.082619171,11.31047974,1.65935421,1.236924887,0.3578754365,5
25.13094117,-0.4978646851,-1.875300293,11.12681168,1.740035295,1.305899382,0.4162942469,5
25.15098417,-0.6821315002,-1.500928802,11.05436234,1.912626505,1.274555326,0.4483033419,5
25.17102717,-0.3620970154,-1.175804901,11.04732697,2.125241995,1.192159534,0.5171462893,5
25.19106954,-0.4718188477,-0.7583230591,10.82743423,2.326613903,1.09094882,0.6020628214,5
25.21111254,-0.5231620789,-0.217048645,10.56607773,2.520041704,0.9452453256,0.5658047199,5
25.23115554,-0.6021977234,0.5382806396,9.797875214,2.624523401,0.7990950942,0.4389626086,5
25.25119854,-1.19586319,1.458866272,8.635691986,2.648623705,0.6765171885,0.3701014519,5
25.27124154,-1.472487946,2.197280731,7.816295929,2.642181158,0.551248312,0.3941514194,5
25.29128454,-1.504820709,2.815495148,7.272925873,2.588353634,0.4515998065,0.3900616765,5
25.31132754,-1.493294678,3.172951813,6.849755859,2.497862101,0.5019775629,0.3194446266,5
25.33136954,-1.535806274,3.452121277,6.430926819,2.382907629,0.5432153344,0.301684916,5
25.35141254,-1.681303711,3.953279114,6.17570755,2.325267315,0.4967803955,0.3383206129,5
25.37145554,-1.728305969,4.371958466,5.597909088,2.235533476,0.4808668494,0.3249737024,5
25.39149854,-2.088457031,4.619094543,5.514083405,2.087890387,0.4391613901,0.3318595588,5
25.41154154,-2.054028625,4.780758362,5.742209015,1.988723516,0.4371226132,0.2871315479,5
25.43158454,-1.804647217,5.019212494,5.930966492,1.840831161,0.4335805178,0.1113579646,5
25.45162754,-1.998793488,5.385800171,6.03649704,1.750490665,0.3732351661,-0.05711693689,5
25.47167054,-2.309098206,5.574108582,5.907465363,1.677250266,0.3255387545,-0.143155396,5
25.49171354,-2.383194122,5.457950134,5.878874817,1.620914936,0.2774557471,-0.1044559628,5
25.51175654,-2.393073578,5.242697754,5.917344818,1.544466972,0.1957308203,0.04741659388,5
25.53179954,-2.066303101,5.501808929,5.787115631,1.45500648,0.1622393429,0.2232840359,5
25.55184154,-1.299447784,5.723348236,6.198909302,1.307405829,0.4021443427,0.3471308947,5
25.57188454,-0.4101470947,5.805527344,6.3887146,1.240786076,0.6320917606,0.4393577874,5
25.59192754,-0.08472381592,5.928721161,5.942492523,1.259234548,0.5220756531,0.5024190545,5
25.61197054,-0.7875123596,6.212980042,3.77470047,1.185008168,0.37253052,0.4744729102,5
25.63201354,-1.653162231,7.000791779,4.700824585,1.200965047,0.3212770224,0.3201437593,5
25.65205654,-1.929786987,7.638615417,4.302053833,1.190871119,0.3146009147,0.1138726175,5
25.67209954,-2.055675201,7.952961731,4.389172668,1.197988629,0.368461132,-0.05279306322,5
25.69214254,-2.387984161,7.766748962,4.148323517,1.221967816,0.251038909,-0.1274953187,5
25.71218554,-3.417992249,7.524253235,4.018244019,1.270448923,0.04383455962,-0.1187161282,5
25.73222854,-3.949237518,7.396718445,3.858376465,1.30295372,-0.03703649342,-0.2105816156,5
25.75227154,-3.328029327,7.616012421,4.00866394,1.369686484,-0.02061606199,-0.3333674371,5
25.77231454,-3.204685822,7.934849396,3.244203644,1.356581926,-0.1860518903,-0.3578762412,5
25.79235654,-3.168910217,8.90558075,2.746788025,1.246520281,-0.2598066926,-0.3279471397,5
25.81239954,-3.113525391,9.267827454,2.53437973,1.114659429,-0.1195681095,-0.1953691095,5
25.83244254,-2.988535309,9.463769989,2.546354828,1.071427941,-0.03756479546,-0.002904548543,5
25.85248554,-2.648592224,9.57124649,2.540067902,1.165559292,-0.08828009665,0.1439421624,5
25.87252854,-2.41627533,9.197024689,1.80659317,1.181413293,-0.1816397607,0.2131803334,5
25.89257154,-2.55084549,8.949439545,1.124761047,1.082589984,-0.1190891936,0.1927743554,5
25.91261454,-2.767894135,8.828940125,0.8502319336,1.028621912,0.001253277296,0.1083316728,5
25.93265754,-3.159928894,8.782985687,1.013392639,0.9921266437,0.138369143,0.01326027513,5
25.95270054,-3.513942719,8.815019073,1.057550812,0.9778261781,0.1590852141,-0.02480971068,5
25.97274354,-3.752696228,8.762628021,0.873583374,1.079030275,-0.03249960393,-0.003673201194,5
25.99278654,-3.359014893,8.795709229,0.4812492371,1.098339319,-0.2789686322,-0.04277683794,5
26.01282854,-2.941083984,8.624165955,-0.3064128113,0.9896318913,-0.2804792225,-0.08425486088,5
26.03287154,-2.683619385,8.697513428,0.07768844604,0.9651204944,-0.01732962579,-0.06283264607,5
26.05291454,-2.708318024,9.017398224,-0.0773890686,0.9784003496,0.09227436781,0.01779322699,5
26.07295754,-2.586770782,9.200617218,-0.7204518127,0.9239643812,0.0948202312,0.08084122092,5
26.09300054,-2.456840973,9.282496948,-0.8527766418,0.8074666858,0.1592966914,0.09234180301,5
26.11304354,-2.671943665,9.414672089,-0.5396278381,0.6986268163,0.2630592585,0.09213481098,5
26.13308654,-2.730771332,9.639654236,-0.5998027039,0.5247352123,0.2238855362,0.06339351833,5
26.15312954,-3.106190643,9.27411438,-0.9809101868,0.3722586334,0.1164305285,0.06917392462,5
26.17317254,-3.103645935,9.326206055,-0.1166075134,0.4694979191,0.05998588353,0.02585176565,5
26.19321596,-3.46574295,9.918075256,0.01990859985,0.4490713477,0.1013453528,-0.002387393964,5
26.21325896,-3.29734314,9.818083191,-0.8539741516,0.3604594469,-0.07104320079,0.05190860108,5
26.23330096,-2.483036499,9.415869598,-1.819017334,0.156981498,-0.2464318722,0.1389966309,5
26.25334396,-2.658920746,9.70701416,-2.125729523,0.06954029202,-0.3343211412,0.2179931402,5
26.27338696,-3.229234772,9.94337265,-1.496138763,0.09264212102,-0.1390233189,0.1659619361,5
26.29342996,-3.144361267,9.541608124,-0.9633966064,0.02755230106,0.1337204427,-0.02381069772,5
26.31347296,-3.181783447,9.182654572,-1.198707275,-0.02346131951,0.1220010892,-0.1253274381,5
26.33351596,-2.585573273,9.16993103,-0.8930429077,0.04655664787,-0.07948861271,-0.1167666987,5
26.35355896,-2.1260289,9.032666473,-1.107696533,0.07897725701,-0.2443593293,-0.08845568448,5
26.37360196,-1.970352631,9.043893127,-1.066532135,0.1164776757,-0.1695804298,-0.08158127964,5
26.39364496,-2.12483139,9.157207489,-0.9316625977,0.1724279076,0.06217849255,-0.07071235776,5
26.41368796,-2.317480774,9.231303406,-0.7123686218,0.2052848786,0.298053503,-0.06744772941,5
26.43373096,-2.49815506,9.34192337,-0.4257147217,0.2081491202,0.3070212305,-0.05157766864,5
26.45377396,-2.636317749,9.560917969,-0.4944218445,0.2010002732,0.06671892852,0.001078710193,5
26.47381696,-2.65487915,9.669891357,-0.7583230591,0.1425971985,-0.1615700722,0.03967721388,5
26.49385896,-2.771786041,9.728868713,-0.9889933777,0.08924005926,-0.2295752168,0.03551736847,5
26.51390196,-2.948269043,9.571695557,-0.8803193665,0.07366915792,-0.1590905488,0.01721712202,5
26.53394496,-2.959795074,9.497000885,-0.8066725159,0.05410352722,-0.07147734612,-0.02297289297,5
26.55398796,-3.055745544,9.38757843,-0.7478448486,0.03240216523,-0.03510447219,-0.05072933808,5
26.57403096,-2.794838104,9.259145508,-0.6762936401,0.02400348149,-0.02779293619,-0.05053839833,5
26.59407396,-2.460134125,9.253307648,-0.6255491638,0.04470672458,-0.0661477074,-0.03445447236,5
26.61411696,-2.391726379,9.36183197,-0.573457489,0.06784307957,-0.06270447373,-0.02294435725,5
26.63415996,-2.493215332,9.404193878,-0.63887146,0.0686878413,0.001608550781,-0.02612734772,5
26.65420296,-2.605930939,9.315129089,-0.6981481934,0.05784638599,0.07815499604,-0.03730330244,5
26.67424596,-2.705923004,9.270222473,-0.6746470642,0.05345528573,0.1199650317,-0.04443100467,5
26.69428896,-2.726879425,9.35255127,-0.662971344,0.05302216113,0.104326874,-0.04540069401,5
26.71433096,-2.696492615,9.325756989,-0.6572831726,0.05850741267,0.06052155793,-0.03369575366,5
26.73437396,-2.671644287,9.305249634,-0.7176077271,0.06324517727,0.02187722549,-0.02228969708,5
26.75441696,-2.663411407,9.363328857,-0.7955955505,0.06562946737,0.009389774874,-0.02062579058,5
26.77445996,-2.778522034,9.409732361,-0.8357121277,0.07096084952,0.02067611367,-0.01571644656,5
26.79450296,-2.810256042,9.365873566,-0.880019989,0.06083244458,0.02732492611,-0.01796370372,5
26.81454596,-2.855611725,9.313781891,-0.9035211182,0.05548641458,0.0105700437,-0.02050444484,5
26.83458896,-2.833607483,9.245374146,-0.8777746582,0.05715867504,-0.01800162718,-0.02827999555,5
26.85463196,-2.857557678,9.293873291,-0.8786727905,0.05278172344,-0.008349506184,-0.04005229473,5
26.87467496,-2.836900635,9.373657379,-0.9000782776,0.04254592955,0.01781636849,-0.04662196711,5
26.89471796,-2.833308105,9.468709717,-0.8693920898,0.03179747239,0.03617997095,-0.04539034516,5
26.91476096,-2.843187561,9.510622559,-0.8081694031,0.01985513791,0.03713458031,-0.03520125896,5
26.93480396,-2.845582581,9.482930145,-0.7473957825,0.003958306275,0.01621958986,-0.01729943976,5
26.95484596,-2.908152466,9.4543396,-0.6599775696,-0.005187992007,-0.0149442777,0.0009843249572,5
26.97488896,-2.862198029,9.565708008,-0.616867218,-0.01910396293,-0.03500358388,0.01053181384,5
26.99493196,-2.778671722,9.479636993,-0.7095245361,-0.04442503303,-0.0453090854,0.01639537513,5
27.01497496,-2.689307556,9.438921661,-0.8536747742,-0.05398957059,-0.04498476163,0.01760890335,5
27.03501796,-2.61745697,9.361382904,-0.9053173828,-0.05690148845,-0.02792809159,0.01797613315,5
27.05506096,-2.65847168,9.218430176,-0.9135502625,-0.04069374129,-0.03943952546,0.02956995741,5
27.07510396,-2.756966858,9.23085434,-0.8476872253,-0.02048227564,-0.0363409929,0.03802620992,5
27.09514696,-2.861599274,9.333989868,-0.5999523926,0.01465550344,-0.01974280924,0.03035563417,5
27.11518996,-2.915487213,9.441765747,-0.6418652344,0.01935483888,-0.06619352847,0.01607768983,5
27.13523296,-2.880310364,9.444759521,-0.7795788574,0.008570728824,-0.1310857683,-0.002697372111,5
27.15527596,-2.753374329,9.365723877,-0.8629554749,-0.005688963458,-0.1386649013,-0.01057055127,5
27.17531896,-2.523452454,9.352850647,-0.7897576904,-0.02178365178,-0.04364003614,-0.02710943669,5
27.19536042,-2.44546463,9.270521851,-0.8021818542,-0.0213500578,-0.04369113967,-0.0178424716,5
27.21540342,-2.359842682,9.21094574,-0.7698490906,-0.0319038853,-0.04984522611,0.006023653783,5
27.23544642,-2.333497467,9.336833954,-0.6050418091,-0.01876759157,-0.007853779942,0.02471404336,5
27.25548942,-2.360441437,9.413175201,-0.4926255798,0.004627041519,0.05482764915,0.02867571637,5
27.27553242,-2.473157043,9.42619812,-0.6424639893,-0.0006801839918,0.09384696931,0.01442725863,5
27.29557542,-2.662812653,9.405840454,-0.6188131714,-0.004187410697,0.07314925641,-0.007281818893,5
27.31561842,-2.755170593,9.43562851,-0.5628295898,0.0009869548958,0.05119936541,-0.01481584739,5
27.33566142,-2.711611176,9.376501465,-0.5945635986,-0.00867527537,0.05855973065,-0.009850136936,5
27.35570442,-2.704725494,9.375154266,-0.6394702148,-0.0142208701,0.05141133815,-0.0007295627147,5
27.37574742,-2.766996002,9.38054306,-0.6197113037,-0.01193048898,0.03755229339,0.008220969699,5
27.39579042,-2.833308105,9.375753021,-0.636177063,-0.01209077984,0.005110488273,0.01236895844,5
27.41583342,-2.82462616,9.401948547,-0.7096742249,-0.01715874299,-0.01927099191,0.006548314821,5
27.43587542,-2.913092194,9.37350769,-0.7632627869,-0.01520072576,-0.01618766971,0.005928326398,5
27.45591842,-2.84453476,9.331894226,-0.7225474548,-0.01738067903,0.008709704503,0.003010538872,5
27.47596142,-2.814896393,9.357940063,-0.6851252747,-0.02309654281,0.02047714032,0.001325038495,5
27.49600442,-2.754272461,9.362580414,-0.6366261292,-0.0204085838,0.01345840096,0.003999074921,5
27.51604742,-2.707868958,9.311835938,-0.6747967529,-0.01214791276,-0.02596318908,0.01358185336,5
27.53609042,-2.726729736,9.298513641,-0.676892395,0.007760720327,-0.05352377146,0.003027615836,5
27.55613342,-2.780617676,9.321565704,-0.6542893982,0.02591094747,-0.05182235688,-0.001778076869,5
27.57617642,-2.804418182,9.336983643,-0.7827223206,0.03599965945,-0.08849731833,0.0001466562971,5
27.59621942,-2.694396973,9.31393158,-0.7758366394,0.03420351446,-0.1243362874,-0.006138113327,5
27.61626242,-2.699037323,9.35135376,-0.724044342,-0.000334944576,-0.08502738178,-0.002823335817,5
27.63630542,-2.666554871,9.289382629,-0.7327262878,0.02100078203,-0.1336638927,-0.004783675075,5
27.65634842,-2.819237366,9.255253601,-0.8074209595,0.009137041867,-0.1969014406,-0.01313484181,5
27.67639042,-2.780617676,9.479487305,-0.7644602966,0.02401877195,-0.2123774141,-0.03699305654,5
27.69643342,-2.86085083,9.476643219,-0.4040098572,0.0119466139,0.013660945,-0.0329535529,5
27.71647642,-2.716700592,9.405840454,-0.5453160095,0.02093514428,0.05289803073,-0.03903652355,5
27.73651942,-2.731370087,9.311237183,-0.6929090881,0.03319663554,-0.01551468857,-0.03347660229,5
27.75656242,-2.726879425,9.329648895,-0.7619155884,-0.0002655771095,-0.01010217518,-0.01258942205,5
27.77660542,-2.656376038,9.317524109,-0.7529342651,0.002660422586,0.004699457902,-0.00889492128,5
27.79664842,-2.699187012,9.258097687,-0.6668632507,-0.02044210769,0.0956556946,-0.004291572608,5
27.81669142,-2.625240784,9.369615784,-0.5921685791,-0.01757284999,0.1110036001,-0.01905804127,5
27.83673442,-2.669099579,9.350904694,-0.5911207581,-0.01174994186,0.1568812728,-0.01225407422,5
27.85677742,-2.631677399,9.121731262,-0.653840332,-0.005690921098,0.1359665841,0.004267480224,5
27.87682042,-2.613265686,9.079069977,-0.918639679,-0.007067698054,-0.05477021635,0.03027787432,5
27.89686342,-2.633773041,9.301357727,-0.8605604553,-0.03232577443,-0.04330167174,0.04644593596,5
27.91690542,-2.66071701,9.505533142,-0.7926017761,-0.05627476797,0.09664577991,0.05248420686,5
27.93694842,-2.763104095,9.515562286,-0.5548960876,-0.03500869125,0.1898190975,0.05403915793,5
27.95699142,-2.81175293,9.455237732,-0.5462141418,-0.03649083152,0.1904406101,0.05406602845,5
27.97703442,-2.724484406,9.488468628,-0.8247848511,-0.05778691173,0.05820252374,0.02955397405,5
27.99707742,-2.812950439,9.482930145,-0.9008267212,-0.05224097148,-0.06004655734,0.01971497573,5
28.01712042,-2.748135223,9.416318665,-0.6607260132,-0.03195758536,-0.04920812696,0.0102530513,5
28.03716342,-2.749931488,9.334588623,-0.5770500183,-0.01926190592,-0.004745226819,0.01053294167,5
28.05720642,-2.648143158,9.356892242,-0.5631289673,-0.02441534027,0.008230191655,0.008828036487,5
28.07724942,-2.6701474,9.378297729,-0.6713539124,-0.03197157383,-0.005929670297,0.01497048419,5
28.09729242,-2.648592224,9.349258118,-0.6060896301,-0.002956873504,-0.006690728478,0.01267381012,5
28.11733542,-2.710114288,9.329948273,-0.6020480347,0.0007733849343,0.001710988348,0.01243496593,5
28.13737842,-2.680326233,9.376202087,-0.675844574,-0.002748332219,-0.003729215823,0.0151039632,5
28.15742142,-2.705024872,9.413025513,-0.6605763245,-0.003432169557,-0.01102130301,0.01930402964,5
28.17746342,-2.730172577,9.427695007,-0.6834786987,-0.01173269469,-0.01752493158,0.0195120424,5
28.19750717,-2.733615417,9.40284668,-0.7048841858,-0.02657082677,-0.02911598422,0.01649255492,5
28.21755017,-2.72508316,9.385931854,-0.6902146912,-0.0301370807,-0.03841782734,0.01305537485,5
28.23759317,-2.678080902,9.391919403,-0.6771917725,-0.03019040823,-0.04069406912,0.01218434423,5
28.25763617,-2.680475922,9.379195862,-0.6810836792,-0.03385649621,-0.0291808825,0.01159314066,5
28.27767917,-2.646346893,9.368268585,-0.6607260132,-0.03696188331,-0.01613676175,0.01416273229,5
28.29772217,-2.621498566,9.349856873,-0.6376739502,-0.03095269576,-0.0268953722,0.01426538359,5
28.31776517,-2.632126465,9.347461853,-0.6117778015,-0.02366179228,-0.03325103223,0.01256483607,5
28.33780817,-2.611020355,9.323960724,-0.6477030945,-0.01643499173,-0.02334729768,0.008384265006,5
28.35785117,-2.613115997,9.311386871,-0.6137237549,-0.007894530892,-0.005060594995,0.003750592005,5
28.37789417,-2.64200592,9.360185394,-0.5908213806,-0.004559078254,-0.001450261567,0.0008177062264,5
28.39793617,-2.666554871,9.368118896,-0.5644761658,-0.0003770694602,-0.01432547998,0.001082400675,5
28.41797917,-2.662812653,9.382489014,-0.5596861267,0.001237291959,-0.01740206406,0.0004589783493,5
28.43802217,-2.658172302,9.382189636,-0.5486091614,-0.0003522392362,-0.019772131,0.0005687503144,5
28.45806517,-2.629881134,9.39341629,-0.5186714172,2.054963261e-06,-0.02229660191,-0.00173652661,5
28.47810817,-2.607278137,9.380992126,-0.4813989258,0.004560462665,-0.02000784688,0.001155748731,5
28.49815117,-2.591411133,9.393565979,-0.494122467,0.003401094582,-0.01015248522,0.001553252456,5
28.51819417,-2.566562805,9.436676331,-0.5110372925,0.0002179276198,-0.0008557746187,0.005108356941,5
28.53823717,-2.553689575,9.407337341,-0.479153595,0.000448447885,0.01203963533,0.008167212829,5
28.55828017,-2.538720703,9.393715668,-0.4788542175,-0.003434362588,0.01881550811,0.009118774906,5
28.57832317,-2.554138641,9.398056641,-0.4846920776,-0.003764485242,0.02703616768,0.009161623195,5
28.59836617,-2.551444244,9.413175201,-0.4912783813,-0.003248097841,0.03305451572,0.008552370593,5
28.61840917,-2.555186462,9.391320648,-0.5004093933,-0.0003640197683,0.03472848237,0.006422649138,5
28.63845117,-2.655028839,9.363328857,-0.4915777588,0.004104263149,0.0167287346,0.002533062594,5
28.65849417,-2.676584015,9.390272827,-0.5010081482,0.002223601332,0.02095907927,-0.004972528666,5
28.67853717,-2.586471405,9.383836212,-0.53004776,0.003505803877,0.0291232504,-0.002194558503,5
28.69858017,-2.565514984,9.359586639,-0.5309458923,0.01310215984,0.01919605769,0.001510950387,5
28.71862317,-2.586172028,9.373657379,-0.5637277222,0.01861507632,0.02523603663,0.005710190162,5
28.73866617,-2.623893585,9.398505707,-0.5818400574,0.01435464434,0.03765442967,0.004210330546,5
28.75870917,-2.624043274,9.415420532,-0.5252577209,0.01326773036,0.03917962685,-0.0003388950136,5
28.77875217,-2.599344635,9.410630493,-0.5179229736,0.009696463123,0.03349207342,-0.0006693575997,5
28.79879517,-2.604434052,9.412726135,-0.5131329346,0.01042125002,0.03417481109,0.0007911286084,5
28.81883817,-2.585273895,9.420809326,-0.5258564758,0.009200645611,0.0390513353,0.003884377191,5
28.83888117,-2.578537903,9.447902985,-0.5331912231,0.002001791261,0.03973771632,0.007794168778,5
28.85892317,-2.580932922,9.445807343,-0.5785469055,-0.004981110804,0.03711602837,0.01203868352,5
28.87896617,-2.599793701,9.412277069,-0.590072937,-0.005555648822,0.02490496449,0.01302942261,5
28.89900917,-2.639161835,9.388326874,-0.6138734436,-0.009355729446,0.02083158307,0.009210699238,5
28.91905217,-2.637814636,9.380093994,-0.603993988,-0.009561575949,0.02135750465,0.005917640869,5
28.93909517,-2.634371796,9.359287262,-0.6345304871,-0.00822130125,0.02093918249,0.003244139953,5
28.95913817,-2.644251251,9.376052399,-0.6185137939,-0.005677323788,0.02222531848,0.002867559902,5
28.97918117,-2.629581757,9.408534851,-0.5972579956,-0.001666117925,0.02667096257,0.004108536057,5
28.99922417,-2.620899811,9.393565979,-0.6360273743,0.008387424983,0.01248152554,0.007970171981,5
29.01926717,-2.653531952,9.373208313,-0.6123765564,0.01727483235,-0.01240032911,0.01706144959,5
29.03931017,-2.717449036,9.392817535,-0.6551875305,0.01206098963,-0.02062769234,0.01835543476,5
29.05935317,-2.744393005,9.377848663,-0.6333329773,0.002375746146,-0.008383370936,0.009408021346,5
29.07939617,-2.762655029,9.35719162,-0.5727090454,0.004078445956,-0.01272787992,0.003347208491,5
29.09943817,-2.69469635,9.37590271,-0.5869294739,0.007036654279,-0.03807933629,0.003705176292,5
29.11948117,-2.58467514,9.385931854,-0.5978567505,0.0098146284,-0.04173103347,0.008004277945,5
29.13952417,-2.554138641,9.383686523,-0.5983058167,0.01401756704,-0.0378315486,0.008616543375,5
29.15956717,-2.566413116,9.392667847,-0.6087840271,0.01276169904,-0.03577666357,0.008918825537,5
29.17961017,-2.572250977,9.379794617,-0.6427633667,0.01154352166,-0.03094339743,0.002535515931,5
29.19965317,-2.600093079,9.356293488,-0.6345304871,0.0159717463,-0.02636128291,-0.0005567700136,5
29.21969617,-2.600991211,9.402247925,-0.6072871399,0.01529021282,-0.02605104819,-0.003226280678,5
29.23973917,-2.579585724,9.431287537,-0.6017486572,0.01213712431,-0.02320805565,-0.001941274386,5
29.25978217,-2.577939148,9.407037964,-0.595461731,0.01032722462,-0.02757970989,0.003151204437,5
29.27982517,-2.553689575,9.430389404,-0.6179150391,0.003877393436,-0.03092132881,0.005459980108,5
29.29986817,-2.579286346,9.45314209,-0.6155200195,0.001542928745,-0.03026080877,0.007212267257,5
29.31991017,-2.549797668,9.431886292,-0.6439608765,-0.003307972336,-0.018575022,0.003755728714,5
29.33995317,-2.537822571,9.404193878,-0.5947132874,-0.003193267854,-0.01638816297,0.000393923372,5
29.35999617,-2.568209381,9.397757263,-0.5517526245,-0.004517376423,-0.03098340519,-0.001950621838,5
29.38003917,-2.53677475,9.41571991,-0.6322851562,-0.006271914113,-0.01363580674,-0.002920335624,5
29.40008217,-2.541265411,9.400751038,-0.6170169067,-0.005342611577,0.001043497818,0.001938671805,5
29.42012517,-2.558629303,9.399104462,-0.5854325867,-0.0081140697,-0.01102521177,0.004133869894,5
29.44016817,-2.561174011,9.414971466,-0.5674699402,-0.00728220772,-0.01580533572,0.005188509822,5
29.46021117,-2.575244751,9.408235474,-0.6083349609,-0.006934523582,-0.01837950945,0.005876066163,5
29.48025417,-2.572550354,9.394314423,-0.6292913818,-0.005521826446,-0.005253334995,0.0019215676,5
29.50029717,-2.594404907,9.396110687,-0.6083349609,-0.008151980117,0.001955496846,-0.001110993326,5
29.52034017,-2.581082611,9.386829987,-0.5785469055,-0.008362651803,-0.001030252781,-0.004070851021,5
29.54038317,-2.574047241,9.400002594,-0.5309458923,-0.006352764554,-0.004774521571,-0.002099763602,5
29.56042517,-2.561024323,9.426497498,-0.5501060486,-0.007189372554,-0.009988209233,-0.0003915855195,5
29.58046817,-2.548151093,9.430539093,-0.5628295898,-0.008853189647,-0.007876760326,0.0001402390189,5
29.60051117,-2.56955658,9.414971466,-0.5834866333,-0.01334096212,-0.002293168567,0.002410836983,5
29.62055417,-2.572101288,9.414073334,-0.5822891235,-0.01448370889,-0.0001103635877,-0.001662982861,5
29.64059717,-2.557880859,9.414073334,-0.5620811462,-0.009858016856,-0.0002460824326,-0.0007308986969,5
29.66064017,-2.556234283,9.385333099,-0.5754034424,-0.007686568424,-0.005631999113,0.001034021494,5
29.68068317,-2.589465179,9.386680298,-0.5945635986,-0.003280619858,-0.0007321015,-0.0002411571331,5
29.70072617,-2.606829071,9.361981659,-0.586330719,-0.002478272188,0.004052353557,-0.002467288869,5
29.72076917,-2.60338623,9.372908936,-0.582588501,0.001661784365,0.00563220121,-0.002825972624,5
29.74081217,-2.603086853,9.408983917,-0.5849835205,0.001264879247,0.0009003551677,-0.003716226434,5
29.76085517,-2.618504791,9.421258392,-0.5885760498,0.0004561240785,-0.002232216764,-0.001801966224,5
