time,seconds_elapsed,z,y,x
1780528298587350000,1.55635009765625,0.2455678284168243,-0.4593706727027893,-2.6279423236846924
1780528298597481700,1.566481689453125,0.2028072625398636,-0.4899139404296875,-3.016452550888061
1780528298607583000,1.5765830078125,0.0818559452891349,-0.5253441333770752,-3.327993869781494
1780528298617684500,1.5866845703125,-0.0684169083833694,-0.5436700582504272,-3.5185837745666504
1780528298627785700,1.59678564453125,-0.2284636050462722,-0.6316346526145935,-3.5515706539154053
1780528298637887000,1.606886962890625,-0.394618958234787,-0.7709119319915771,-3.4269540309906006
1780528298647957800,1.616957763671875,-0.5510004758834839,-0.8906415104866028,-3.143512487411499
1780528298658059000,1.62705908203125,-0.6695083379745483,-0.9285151958465576,-2.698802709579468
1780528298678231300,1.647231201171875,-0.7550294399261475,-0.8845328688621521,-1.5968017578125
1780528298688332500,1.65733251953125,-0.7464773058891296,-0.8808676600456238,-1.119105100631714
1780528298698372900,1.667372802734375,-0.7648032903671265,-0.8943067193031311,-0.7770205736160278
1780528298708443600,1.677443603515625,-0.8246681094169617,-0.9651671051979064,-0.5864306092262268
1780528298718514400,1.687514404296875,-0.9187413454055786,-1.047023057937622,-0.5497786998748779
1780528298728615700,1.69761572265625,-1.0286970138549805,-1.1215485334396362,-0.5742133259773254
1780528298738686500,1.7076865234375,-1.1227703094482422,-1.1716395616531372,-0.5925393104553223
1780528298748757200,1.71775732421875,-1.1789699792861938,-1.244943380355835,-0.5754350423812866
1780528298758858800,1.727858642578125,-1.2131783962249756,-1.350012183189392,-0.5375614166259766
1780528298768929500,1.737929443359375,-1.2522737979888916,-1.4440854787826538,-0.5815436840057373
1780528298849495800,1.818495849609375,-1.557706356048584,-2.1783454418182373,-2.026850938796997
1780528298930092800,1.8990927734375,-2.689028739929199,-1.822821855545044,-1.4734070301055908
1780528298980477400,1.9494775390625,-2.809980154037476,-0.9162978529930116,-0.911410927772522
1780528299030923000,1.999923095703125,-2.1319196224212646,-0.4105014503002167,0.4141666293144226
1780528299121560000,2.09056005859375,-0.6059783101081848,-0.2907718420028686,0.2101376503705978
1780528299141732000,2.110732177734375,-0.2846632003784179,-0.3176499307155609,-0.3078760802745819
1780528299151803100,2.12080322265625,-0.1930334120988845,-0.3103195428848266,-0.46547931432724
1780528299161904400,2.130904296875,-0.1185078546404838,-0.2357939779758453,-0.50335294008255
1780528299171975200,2.14097509765625,-0.051312681287527,-0.1356120854616165,-0.4544837474822998
1780528299182046000,2.1510458984375,0.0794124826788902,-0.1111774742603302,-0.2577851414680481
1780528299212288800,2.181288818359375,0.1966986060142517,-0.1111774742603302,0.4361577928066253
1780528299222359600,2.191359619140625,0.1466076523065567,-0.1185078546404838,0.4801400899887085
1780528299232400000,2.20139990234375,0.1514945775270462,-0.1466076523065567,0.50335294008255
1780528299242470700,2.211470703125,0.1832595765590667,-0.1600466966629028,0.4813618063926697
1780528299252541400,2.22154150390625,0.2162462919950485,-0.1563815027475357,0.4202753007411957
1780528299262643000,2.231642822265625,0.2419026345014572,-0.1563815027475357,0.4214970171451568
1780528299272713700,2.241713623046875,0.2797762751579284,-0.1502728462219238,0.5326744914054871
1780528299282784500,2.251784423828125,0.3396410644054413,-0.1319468915462494,0.7232644557952881
1780528299292885800,2.2618857421875,0.4043927788734436,-0.1099557429552078,0.9663888216018676
1780528299313027300,2.28202734375,0.5216789245605469,-0.0171042270958423,1.481959104537964
1780528299323159300,2.2921591796875,0.6108652353286743,0.0537561401724815,1.5503759384155271
1780528299333230000,2.30222998046875,0.7073819637298584,0.1185078546404838,1.4123204946517944
1780528299343239700,2.31223974609375,0.7843509912490845,0.1514945775270462,1.1325441598892212
1780528299353341200,2.322341064453125,0.8527678847312927,0.1661553531885147,0.8051204085350037
1780528299363412000,2.332411865234375,0.923628270626068,0.180816113948822,0.4789183437824249
1780528299373513200,2.34251318359375,1.0054842233657837,0.1991420686244964,0.2431243658065796
1780528299383584000,2.352583984375,1.10444438457489,0.2370157092809677,0.1588249653577804
1780528299393654800,2.36265478515625,1.2021827697753906,0.3005456924438476,0.2076941877603531
1780528299403725600,2.3727255859375,1.274264931678772,0.3775147199630737,0.3701843321323395
1780528299413827000,2.3828271484375,1.3439035415649414,0.4569272100925445,0.6572909951210022
1780528299423928300,2.39292822265625,1.4501941204071045,0.5400048494338989,0.988379955291748
1780528299434029600,2.403029541015625,1.5723671913146973,0.608421802520752,1.319468975067139
1780528299444070000,2.41306982421875,1.6688838005065918,0.6609562039375305,1.6371188163757324
1780528299454171100,2.423171142578125,1.7482963800430298,0.7244861721992493,1.930334210395813
1780528299464242000,2.433241943359375,1.863139033317566,0.7916813492774963,2.207667112350464
1780528299474312700,2.443312744140625,2.0036380290985107,0.856433093547821,2.442239284515381
1780528299484444700,2.453444580078125,2.1282544136047363,0.9187413454055786,2.618168354034424
1780528299494546000,2.4635458984375,2.230879783630371,0.9834930300712584,2.757445812225342
1780528299504586200,2.473586181640625,2.311514139175415,1.0580185651779177,2.850297212600708
1780528299544869400,2.513869384765625,2.488665103912353,1.341460108757019,2.841745138168335
1780528299554940200,2.523940185546875,2.5057692527771,1.3976596593856812,2.7733283042907715
1780528299565011000,2.534010986328125,2.49966049194336,1.4465289115905762,2.713463306427002
1780528299575020800,2.544020751953125,2.456900119781494,1.480737328529358,2.6535985469818115
1780528299585122000,2.5541220703125,2.39214825630188,1.5063936710357666,2.56563401222229
1780528299595192800,2.56419287109375,2.324953079223633,1.5149458646774292,2.4300220012664795
1780528299605294300,2.57429443359375,2.279749155044556,1.4929546117782593,2.280970811843872
1780528299615304000,2.584303955078125,2.2565362453460693,1.4355332851409912,2.172236919403076
1780528299625405400,2.594405517578125,2.250427484512329,1.351233959197998,2.130697965621948
1780528299645577500,2.614577392578125,2.2284364700317383,1.1154398918151855,2.326174736022949
1780528299655678700,2.6246787109375,2.1868975162506104,0.9871582388877868,2.4471261501312256
1780528299665780000,2.634780029296875,2.12703275680542,0.8588765263557434,2.5473079681396484
1780528299675881500,2.644881591796875,2.0696115493774414,0.7220427393913269,2.66337251663208
1780528299685952300,2.6549521484375,2.0195205211639404,0.6010913848876953,2.7879889011383057
1780528299695992600,2.66499267578125,1.926669001579285,0.3530801236629486,2.8515188694000244
1780528299716134100,2.685134033203125,1.8167132139205933,0.0720821022987365,2.5668556690216064
1780528299726235400,2.6952353515625,1.7397441864013672,-0.1246165111660957,2.2394320964813232
1780528299736245200,2.705245361328125,1.6407840251922607,-0.361632227897644,1.825265407562256
1780528299746346500,2.715346435546875,1.519832730293274,-0.5913175344467163,1.4001030921936035
1780528299756417300,2.725417236328125,1.3927727937698364,-0.8185594081878662,1.0519099235534668
1780528299766488000,2.735488037109375,1.303586483001709,-1.0421360731124878,0.8234463334083557
1780528299776558800,2.745558837890625,1.2681562900543213,-1.226617455482483,0.7635815739631653
1780528299786660000,2.75566015625,1.2779301404953003,-1.36955988407135,0.8955284357070923
1780528299796731000,2.76573095703125,1.3048081398010254,-1.4721852540969849,1.1276572942733765
1780528299826974000,2.795973876953125,0.9553932547569276,-1.853365182876587,0.921184778213501
1780528299837075200,2.8060751953125,0.8100073337554932,-2.0219640731811523,0.6976081132888794
1780528299847115500,2.816115478515625,0.7147123217582703,-2.1429152488708496,0.5180137157440186
1780528299857216800,2.826216796875,0.6279694437980652,-2.2235496044158936,0.4398229718208313
1780528299867287600,2.83628759765625,0.5510004758834839,-2.3066272735595703,0.4874704778194427
1780528299877389000,2.84638916015625,0.4911356568336487,-2.344500780105591,0.6719517707824707
1780528299887459800,2.8564599609375,0.4508185386657715,-2.315179347991944,1.0067058801651
1780528299897500200,2.866500244140625,0.4544837474822998,-2.2540926933288574,1.3866641521453855
1780528299907601400,2.876601318359375,0.4874704778194427,-2.1710150241851807,1.6823228597640991
1780528299947915000,2.9169150390625,0.5852088928222656,-1.7580702304840088,1.9339994192123413
1780528299957985800,2.92698583984375,0.6524040699005127,-1.5992451906204224,1.7299703359603882
1780528299968087300,2.93708740234375,0.7171558141708374,-1.4526375532150269,1.4233160018920898
1780528299978158000,2.947157958984375,0.7965682744979858,-1.312138557434082,1.0751228332519531
1780528299988228900,2.957228759765625,0.9077457785606384,-1.186300277709961,0.7562511563301086
1780528299998299600,2.967299560546875,1.0054842233657837,-1.1154398918151855,0.5057964324951172
1780528300008370400,2.977370361328125,1.0616837739944458,-1.0971139669418335,0.2858849465847015
1780528300028512000,2.997511962890625,1.0580185651779177,-1.0299187898635864,-0.1783726513385772
1780528300038582800,3.007582763671875,1.1252137422561646,-0.9468411207199096,-0.3371976017951965
1780528300048623000,3.017623046875,1.214400053024292,-0.8796459436416626,-0.4117231667041778
1780528300058694000,3.02769384765625,1.2522737979888916,-0.8442157506942749,-0.4960225820541382
1780528300068795100,3.037795166015625,1.2290608882904053,-0.7916813492774963,-0.6426302194595337
1780528300078866000,3.047865966796875,1.2082914113998413,-0.7134906053543091,-0.7574729323387146
1780528300088936700,3.057936767578125,1.216843605041504,-0.6487388610839844,-0.788016140460968
1780528300099007500,3.068007568359375,1.2498302459716797,-0.6096435189247131,-0.6597344875335693
1780528300109109000,3.07810888671875,1.310916781425476,-0.5839871764183044,-0.3982841372489929
1780528300119179800,3.0881796875,1.361007809638977,-0.5571091175079346,-0.1502728462219238
1780528300129281000,3.098281005859375,1.387885808944702,-0.4813618063926697,0.051312681287527
1780528300149453000,3.118453125,1.52105450630188,-0.3481931984424591,0.4043927788734436
1780528300159554600,3.128554443359375,1.587027907371521,-0.3164281845092773,0.3933972120285034
1780528300169655800,3.13865576171875,1.6126842498779297,-0.3176499307155609,0.2443460971117019
1780528300179726600,3.1487265625,1.588249683380127,-0.3408628106117248,0.1747074574232101
1780528300189797400,3.15879736328125,1.5723671913146973,-0.3335324227809906,0.1136209368705749
1780528300199898600,3.168898681640625,1.5332717895507812,-0.2663372457027435,0.0635299831628799
1780528300210000100,3.179000244140625,1.4587461948394775,-0.1380555480718612,0.0842994004487991
1780528300220071000,3.18907080078125,1.4355332851409912,0.0317649915814399,0.090408056974411
1780528300240212500,3.20921240234375,1.4697418212890625,0.2663372457027435,0.3335324227809906
1780528300250313700,3.219313720703125,1.431868076324463,0.2174680233001709,0.5668829679489136
1780528300260415000,3.2294150390625,1.2388347387313845,0.1123992055654525,0.8210029006004333
1780528300270485800,3.23948583984375,0.9456194043159484,-0.0122173046693205,0.9285151958465576
1780528300300789800,3.269789794921875,0.6499606370925903,-0.2504547536373138,-0.2235766798257827
1780528300310891300,3.279891357421875,0.6096435189247131,-0.3066543638706207,-0.6792821288108826
1780528300341103600,3.310103515625,0.7574729323387146,-0.46547931432724,0.2700024247169494
1780528300351174400,3.32017431640625,0.856433093547821,-0.432492583990097,0.6304129362106323
1780528300371377000,3.340376953125,0.7929030656814575,-0.4459316432476043,0.9480628371238708
1780528300391518700,3.360518798828125,0.6731734871864319,-0.0342084541916847,0.8332201838493347
1780528300401589500,3.370589599609375,0.7452555894851685,0.0769690200686454,0.4581489264965057
1780528300411690800,3.380690673828125,0.7244861721992493,0.0965167060494422,-0.0061086523346602
1780528300421792000,3.3907919921875,0.6279694437980652,0.0635299831628799,-0.4263839423656463
1780528300431893200,3.400893310546875,0.5363397002220154,0.0317649915814399,-0.7391469478607178
1780528300502572000,3.471572021484375,0.1014036312699318,0.1429424732923507,-0.675616979598999
1780528300512642800,3.481642822265625,0.1820378452539444,0.098960168659687,-0.4434881806373596
1780528300522774800,3.49177490234375,0.221133217215538,0.0280998013913631,-0.3323107063770294
1780528300563180000,3.532179931640625,0.1246165111660957,0.171042263507843,0.9553932547569276
1780528300573281300,3.54228125,0.0806342139840126,0.2443460971117019,1.1826350688934326
1780528300583382500,3.552382568359375,0.098960168659687,0.2907718420028686,1.4013248682022097
1780528300674294500,3.64329443359375,-0.1771509200334549,0.0623082555830478,-0.2626720666885376
1780528300724770600,3.6937705078125,-0.1820378452539444,0.1930334120988845,-0.3017674386501312
1780528300734841300,3.70384130859375,-0.2577851414680481,0.180816113948822,-0.455705463886261
1780528300744973300,3.713973388671875,-0.3396410644054413,0.1759291887283325,-0.6719517707824707
1780528300775277000,3.744277099609375,-0.4056145250797272,0.0769690200686454,-0.7611380815505981
1780528300785409000,3.754408935546875,-0.2504547536373138,0.0195476878434419,-0.6536257863044739
1780528300795510300,3.76451025390625,-0.0879645943641662,0.0097738439217209,-0.8295549750328064
1780528300805642200,3.774642333984375,0.0537561401724815,0.0122173046693205,-1.1887437105178833
1780528300825844700,3.7948447265625,0.2993239760398865,0.117286130785942,-2.20278000831604
1780528300835946000,3.804946044921875,0.3897320330142975,0.0,-2.364048480987549
1780528300846047500,3.815047607421875,0.4276056587696075,-0.1453859210014343,-1.9425514936447144
1780528300856148700,3.825148681640625,0.5326744914054871,-0.197920337319374,-1.0005972385406494
1780528300886452700,3.85545263671875,0.7929030656814575,-0.140499010682106,-0.0366519130766391
1780528300896554000,3.865553955078125,0.675616979598999,-0.0977384373545646,-0.1026253625750541
1780528300906655200,3.8756552734375,0.626747727394104,-0.0684169083833694,0.0329867228865623
1780528300916756700,3.8857568359375,0.6328563690185547,-0.0427605658769607,0.1905899494886398
1780528300926827500,3.89582763671875,0.6633996367454529,-0.0109955742955207,0.1869247704744339
1780528300936928800,3.9059287109375,0.6780604124069214,-0.0012217304902151,0.1014036312699318
1780528300946999600,3.91599951171875,0.6145304441452026,-0.0439822971820831,0.2138028293848037
1780528300957070300,3.9260703125,0.5265658497810364,-0.0769690200686454,0.5143485069274902
1780528300967141000,3.93614111328125,0.5265658497810364,-0.0855211317539215,1.0140362977981567
1780528300977242400,3.946242431640625,0.6499606370925903,-0.1795943826436996,1.4587461948394775
1780528300987313200,3.956313232421875,0.8014551997184753,-0.2736676335334778,1.5992451906204224
1780528301007485400,3.9764853515625,0.8026769161224365,-0.3225368559360504,1.1533136367797852
1780528301017556200,3.98655615234375,0.720820963382721,-0.2761110961437225,1.0250319242477417
1780528301027657500,3.996657470703125,0.675616979598999,-0.2174680233001709,0.978606104850769
1780528301037728300,4.006728271484375,0.6230825781822205,-0.1600466966629028,0.8026769161224365
1780528301047799000,4.016799072265625,0.5375614166259766,-0.1441642045974731,0.66584312915802
1780528301057869800,4.026869873046875,0.4728097021579742,-0.1747074574232101,0.799011766910553
1780528301078042000,4.0470419921875,0.5827654600143433,-0.2480112910270691,0.7709119319915771
1780528301088113000,4.05711279296875,0.5900958180427551,-0.3604104816913605,0.4605923891067505
1780528301098153200,4.0671533203125,0.588874101638794,-0.4703662395477295,0.3371976017951965
1780528301108224000,4.07722412109375,0.5803219676017761,-0.513126790523529,0.4080579876899719
1780528301118325200,4.0873251953125,0.485027015209198,-0.5241223573684692,0.4667010605335235
1780528301128426500,4.097426513671875,0.3726277947425842,-0.5082398653030396,0.4459316432476043
1780528301138497300,4.107497314453125,0.3066543638706207,-0.5009095072746277,0.2773328125476837
1780528301148537600,4.11753759765625,0.2247984111309051,-0.5265658497810364,0.3689626157283783
1780528301158608400,4.1276083984375,0.2247984111309051,-0.5265658497810364,0.3689626157283783
1780528301168679200,4.13767919921875,0.1759291887283325,-0.4862487316131592,0.5009095072746277
1780528301178719500,4.147719482421875,0.0207694191485643,-0.4153883755207062,0.3323107063770294
1780528301188790300,4.157790283203125,-0.0733038261532783,-0.4043927788734436,0.1221730485558509
1780528301198861000,4.167861083984375,-0.0965167060494422,-0.4092797040939331,0.0635299831628799
1780528301208931800,4.177931884765625,-0.1123992055654525,-0.3506366610527038,0.1527163088321685
1780528301239083300,4.208083251953125,-0.107512280344963,-0.2638937830924988,0.3213151097297668
1780528301249184500,4.2181845703125,-0.0745255574584007,-0.2907718420028686,0.271224170923233
1780528301259286000,4.2282861328125,-0.0390953756868839,-0.3310889601707458,0.3237585723400116
1780528301279458000,4.2484580078125,-0.0280998013913631,-0.3640756905078888,0.923628270626068
1780528301289559300,4.258559326171875,-0.0280998013913631,-0.3274237811565399,1.19607412815094
1780528301309762000,4.278761962890625,-0.1050688251852989,-0.2138028293848037,1.2779301404953003
1780528301329903600,4.298903564453125,-0.2858849465847015,-0.0781907513737678,0.9480628371238708
1780528301339974400,4.308974365234375,-0.4605923891067505,-0.0537561401724815,0.789237916469574
1780528301350045200,4.319045166015625,-0.6133087277412415,-0.0134390350431203,0.5839871764183044
1780528301360116000,4.329115966796875,-0.7354817390441895,-0.0415388382971286,0.3115412890911102
1780528301370186800,4.339186767578125,-0.9004153609275818,-0.1246165111660957,-0.0574213340878486
1780528301390328300,4.359328369140625,-1.123992085456848,-0.3371976017951965,-0.5070181488990784
1780528301400368600,4.36936865234375,-1.1081095933914185,-0.4434881806373596,-0.4019493460655212
1780528301410470000,4.379469970703125,-1.1349875926971436,-0.4337143301963806,-0.0940732508897781
1780528301430672600,4.399672607421875,-1.2608258724212646,-0.2260201424360275,0.3396410644054413
1780528301440743400,4.409743408203125,-1.273043155670166,-0.0952949747443199,0.0879645943641662
1780528301450844700,4.4198447265625,-1.1374311447143557,0.0623082555830478,-0.4740314185619354
1780528301460915500,4.42991552734375,-0.911410927772522,0.1233947798609733,-1.1362093687057495
1780528301470986500,4.439986572265625,-0.7220427393913269,0.0232128798961639,-1.4697418212890625
1780528301481057300,4.450057373046875,-0.6316346526145935,-0.1514945775270462,-1.2901474237442017
1780528301491128000,4.460128173828125,-0.5656611919403076,-0.1893682330846786,-0.9004153609275818
1780528301511269600,4.48026953125,-0.4153883755207062,-0.067195177078247,-0.977384388446808
1780528301521340400,4.49034033203125,-0.3543018400669098,-0.1527163088321685,-1.2608258724212646
1780528301541512400,4.510512451171875,-0.0610865242779254,-0.1551597714424133,-1.7153096199035645
1780528301551583200,4.520583251953125,-0.0085521135479211,-0.1637118905782699,-1.879021525382996
1780528301561654000,4.530654052734375,0.0134390350431203,-0.157603234052658,-1.7812830209732056
1780528301571724800,4.540724853515625,0.0696386396884918,-0.1453859210014343,-1.529606580734253
1780528301581795600,4.550795654296875,0.0806342139840126,-0.0977384373545646,-1.274264931678772
1780528301591866600,4.56086669921875,0.0684169083833694,-0.0720821022987365,-0.9358455538749696
1780528301601937400,4.5709375,0.0842994004487991,-0.1185078546404838,-0.5510004758834839
1780528301612008200,4.58100830078125,0.0745255574584007,-0.1343903541564941,-0.1368338167667389
1780528301632149800,4.601149658203125,0.0232128798961639,-0.0928515195846557,0.2675589919090271
1780528301642251000,4.6112509765625,-0.0366519130766391,-0.1050688251852989,0.2321287989616394
1780528301682473200,4.65147314453125,0.4434881806373596,-0.2162462919950485,0.1734857261180877
1780528301702645200,4.671645263671875,0.7806857824325562,-0.1966986060142517,-0.361632227897644
1780528301732888300,4.701888427734375,0.7953465580940247,-0.3909537494182586,-1.2486085891723633
1780528301783303200,4.75230322265625,0.1111774742603302,-0.6243042945861816,-0.5803219676017761
1780528301803414300,4.772414306640625,0.1527163088321685,-0.7354817390441895,-0.9260717034339904
1780528301853737700,4.82273779296875,-0.7440338730812073,-0.3860668241977691,0.1893682330846786
1780528301863839200,4.832839111328125,-0.7391469478607178,-0.3897320330142975,0.2626720666885376
1780528301873940500,4.8429404296875,-0.588874101638794,-0.375071257352829,0.2602286040782928
1780528301884011300,4.85301123046875,-0.475253164768219,-0.3885102868080139,0.2528982162475586
1780528301954568000,4.92356787109375,0.3335324227809906,-0.2028072625398636,1.1533136367797852
1780528301964638700,4.933638671875,0.4544837474822998,-0.1490511149168014,1.0726794004440308
1780528301974679000,4.943678955078125,0.5351179838180542,-0.1038470938801765,0.9321803450584412
1780528301984780300,4.9537802734375,0.6988298296928406,-0.107512280344963,0.7929030656814575
1780528301994851000,4.96385107421875,0.7220427393913269,-0.0183259565383195,1.0018190145492554
1780528302004921900,4.973921875,0.7672467231750488,0.1417207419872284,1.1410962343215942
1780528302014962200,4.983962158203125,0.7709119319915771,0.221133217215538,1.0787880420684814
1780528302025063400,4.9940634765625,0.6743952035903931,0.2296853363513946,0.9627236127853394
1780528302035134200,5.00413427734375,0.5461135506629944,0.2247984111309051,0.8918632864952087
1780528302045205200,5.014205322265625,0.4642575979232788,0.2345722615718841,0.6878342628479004
1780528302055245300,5.024245361328125,0.3579670190811157,0.2785545587539673,0.3775147199630737
1780528302065346800,5.034346923828125,0.2284636050462722,0.3164281845092773,0.1783726513385772
1780528302075448000,5.044447998046875,0.180816113948822,0.3262020349502563,0.1600466966629028
1780528302085549300,5.05454931640625,0.1771509200334549,0.3029891550540924,0.2284636050462722
1780528302095650600,5.064650634765625,0.130725160241127,0.2785545587539673,0.2834414839744568
1780528302105721600,5.0747216796875,0.0769690200686454,0.2480112910270691,0.2480112910270691
1780528302115822800,5.08482275390625,0.0561996027827262,0.1893682330846786,0.130725160241127
1780528302156136400,5.125136474609375,0.0329867228865623,0.0635299831628799,-0.0598647929728031
1780528302176278000,5.145278076171875,0.0183259565383195,0.0012217304902151,-0.0354301854968071
1780528302186348800,5.155348876953125,0.0329867228865623,-0.0464257597923278,-0.0928515195846557
1780528302287209500,5.25620947265625,-0.1209513172507286,0.1319468915462494,-0.1441642045974731
1780528302297310700,5.266310791015625,-0.1429424732923507,0.1050688251852989,-0.2076941877603531
1780528302307412200,5.276412109375,-0.1233947798609733,0.0855211317539215,-0.3005456924438476
1780528302317513500,5.286513427734375,-0.0855211317539215,0.090408056974411,-0.4080579876899719
1780528302327584300,5.296584228515625,-0.0574213340878486,0.0965167060494422,-0.4386012554168701
1780528302337624600,5.30662451171875,-0.0378736443817615,0.1392772793769836,-0.4007275998592376
1780528302347695400,5.3166953125,-0.0525344125926494,0.1795943826436996,-0.3274237811565399
1780528302357766100,5.32676611328125,-0.0952949747443199,0.2076941877603531,-0.2651155292987823
1780528302367837000,5.3368369140625,-0.1270599663257599,0.2076941877603531,-0.2981022298336029
1780528302377907700,5.34690771484375,-0.1246165111660957,0.1820378452539444,-0.3665191531181335
1780528302387978500,5.356978515625,-0.0867428630590438,0.1820378452539444,-0.4043927788734436
1780528302398018800,5.367018798828125,-0.0696386396884918,0.1918116807937622,-0.3909537494182586
1780528302478615800,5.44761572265625,-0.1111774742603302,0.3017674386501312,-0.2907718420028686
1780528302488686600,5.4576865234375,-0.1343903541564941,0.3054326176643371,-0.221133217215538
1780528302518960000,5.487960205078125,-0.1795943826436996,0.1942551434040069,-0.3090978264808655
1780528302549233400,5.5182333984375,-0.1820378452539444,0.0134390350431203,-0.4410447180271148
1780528302629860900,5.59886083984375,-0.1026253625750541,-0.0610865242779254,0.0036651915870606
1780528302690468900,5.65946875,-0.1600466966629028,0.1612684279680252,-0.0452040284872055
1780528302700570000,5.669570068359375,-0.1343903541564941,0.1783726513385772,-0.0097738439217209
1780528302710641000,5.679640869140625,-0.0977384373545646,0.2003637999296188,-0.0378736443817615
1780528302720742100,5.6897421875,-0.0598647929728031,0.2113593816757202,-0.1490511149168014
1780528302730813000,5.69981298828125,-0.0085521135479211,0.2223549485206604,-0.2675589919090271
1780528302740914400,5.70991455078125,0.0464257597923278,0.230907067656517,-0.3726277947425842
1780528302751015700,5.720015625,0.1050688251852989,0.2553416788578033,-0.4471533596515655
1780528302761117000,5.730116943359375,0.1661553531885147,0.2907718420028686,-0.4495968222618103
1780528302771218400,5.740218505859375,0.2443460971117019,0.342084527015686,-0.3775147199630737
1780528302781350100,5.75035009765625,0.342084527015686,0.3799581825733185,-0.2357939779758453
1780528302791481900,5.76048193359375,0.3811798989772796,0.3762930035591125,-0.1295034289360046
1780528302801583400,5.770583251953125,0.375071257352829,0.3457497358322143,-0.067195177078247
1780528302811684600,5.7806845703125,0.4361577928066253,0.3628539443016052,-0.1087340116500854
1780528302831887400,5.800887451171875,0.5057964324951172,0.3762930035591125,-0.1771509200334549
1780528302872323000,5.841322998046875,0.4483750760555267,0.2504547536373138,-0.0293215326964855
1780528302882424300,5.85142431640625,0.3860668241977691,0.1783726513385772,-0.0464257597923278
1780528302892464600,5.861464599609375,0.3237585723400116,0.1295034289360046,-0.0733038261532783
1780528302942971100,5.91197119140625,0.1331686228513717,0.157603234052658,0.1343903541564941
1780528302953072600,5.92207275390625,0.1331686228513717,0.1233947798609733,0.0879645943641662
1780528302963174000,5.932173828125,0.107512280344963,0.0574213340878486,0.0097738439217209
1780528303053994200,6.022994140625,0.1038470938801765,-0.5424483418464661,0.0818559452891349
1780528303094399500,6.0633994140625,0.0818559452891349,-0.4838052690029144,0.167377084493637
1780528303114632700,6.0836328125,-0.0036651915870606,-0.3543018400669098,0.2932153046131134
1780528303134835200,6.103835205078125,-0.0158824957907199,-0.221133217215538,0.3762930035591125
1780528303144936400,6.1139365234375,-0.0366519130766391,-0.1893682330846786,0.3811798989772796
1780528303155007500,6.124007568359375,-0.0598647929728031,-0.1539380401372909,0.4239404797554016
1780528303165078300,6.134078369140625,-0.0623082555830478,-0.1295034289360046,0.5057964324951172
1780528303175149000,6.144149169921875,-0.0635299831628799,-0.1246165111660957,0.5632177591323853
1780528303185219800,6.1542197265625,-0.0733038261532783,-0.107512280344963,0.5913175344467163
1780528303195290600,6.16429052734375,-0.0561996027827262,-0.0610865242779254,0.6511823534965515
1780528303215432200,6.18443212890625,-0.0012217304902151,0.0109955742955207,0.7770205736160278
1780528303235573800,6.20457373046875,0.0342084541916847,0.067195177078247,0.7831292152404785
1780528303306100000,6.275099853515625,0.0952949747443199,-0.1356120854616165,0.3628539443016052
1780528303376687000,6.34568701171875,0.1319468915462494,-0.2553416788578033,0.2785545587539673
1780528303396859100,6.365859130859375,0.1038470938801765,-0.2663372457027435,0.180816113948822
1780528303457223000,6.426222900390625,0.0244346093386411,-0.1893682330846786,0.1918116807937622
1780528303527718700,6.49671875,0.0390953756868839,-0.2138028293848037,0.1099557429552078
1780528303588296000,6.5572958984375,-0.0134390350431203,-0.2223549485206604,0.0
1780528303658761000,6.627760986328125,0.0207694191485643,0.1197295859456062,-0.0244346093386411
1780528303709084400,6.67808447265625,0.147829383611679,0.2504547536373138,-0.2663372457027435
1780528303719186000,6.68818603515625,0.1502728462219238,0.2761110961437225,-0.2700024247169494
1780528303769570300,6.7385703125,0.0488692186772823,0.4715879559516907,-0.1319468915462494
1780528303789712000,6.7587119140625,-0.0806342139840126,0.4960225820541382,-0.1392772793769836
1780528303799782700,6.76878271484375,-0.1038470938801765,0.4996877610683441,-0.2406809031963348
1780528303809884200,6.77888427734375,-0.1270599663257599,0.4691445231437683,-0.3469714522361755
1780528303840127000,6.809126953125,-0.2907718420028686,0.4569272100925445,-0.2919935882091522
1780528303850197800,6.81919775390625,-0.36529740691185,0.4605923891067505,-0.0561996027827262
1780528303890603000,6.85960302734375,-0.6646214127540588,0.2651155292987823,-0.2700024247169494
1780528303910805800,6.8798056640625,-0.607200026512146,0.1417207419872284,-0.4911356568336487
1780528303920907000,6.889906982421875,-0.598647952079773,0.1136209368705749,-0.5009095072746277
1780528303930977800,6.899977783203125,-0.6401867866516113,0.0610865242779254,-0.4447098970413208
1780528303941079000,6.9100791015625,-0.6414085030555725,0.0024434609804302,-0.3323107063770294
1780528303991433200,6.96043310546875,-0.5094616413116455,0.0623082555830478,-0.1771509200334549
1780528304001504000,6.97050390625,-0.475253164768219,0.0476474873721599,-0.1588249653577804
1780528304011544300,6.98054443359375,-0.4899139404296875,0.0122173046693205,-0.1588249653577804
1780528304021645600,6.9906455078125,-0.5082398653030396,0.0464257597923278,-0.1429424732923507
1780528304031716400,7.00071630859375,-0.5204572081565857,0.1123992055654525,-0.1649336218833923
1780528304041787100,7.010787109375,-0.5681046843528748,0.1368338167667389,-0.1661553531885147
1780528304051827500,7.020827392578125,-0.6133087277412415,0.1429424732923507,-0.1588249653577804
1780528304071969000,7.040968994140625,-0.6475171446800232,0.0952949747443199,-0.2003637999296188
1780528304082009300,7.05100927734375,-0.6316346526145935,0.1148426681756973,-0.2199114859104156
1780528304092019200,7.061019287109375,-0.6035348773002625,0.1197295859456062,-0.180816113948822
1780528304102120400,7.071120361328125,-0.6194173693656921,0.1453859210014343,-0.0623082555830478
1780528304112221700,7.0812216796875,-0.646295428276062,0.1954768747091293,0.058643065392971
1780528304122292500,7.09129248046875,-0.6133087277412415,0.2125810980796814,0.0561996027827262
1780528304192757500,7.161757568359375,-0.5900958180427551,0.1905899494886398,-0.2076941877603531
1780528304263314200,7.232314208984375,-0.6352998614311218,0.1270599663257599,-0.3176499307155609
1780528304273385000,7.242385009765625,-0.6768386960029602,0.1502728462219238,-0.0427605658769607
1780528304283455700,7.252455810546875,-0.6768386960029602,0.1502728462219238,-0.0427605658769607
1780528304293526500,7.262526611328125,-0.5204572081565857,0.1356120854616165,-0.1563815027475357
1780528304303597600,7.27259765625,-0.4153883755207062,0.1197295859456062,-0.2736676335334778
1780528304313698800,7.28269873046875,-0.3457497358322143,0.1612684279680252,-0.3604104816913605
1780528304333840400,7.30284033203125,-0.3005456924438476,0.2492330223321914,-0.3213151097297668
1780528304343911200,7.3129111328125,-0.2626720666885376,0.251676470041275,-0.3213151097297668
1780528304353982000,7.32298193359375,-0.2382374405860901,0.3225368559360504,-0.2101376503705978
1780528304364052700,7.333052734375,-0.1991420686244964,0.452040284872055,-0.0317649915814399
1780528304374123500,7.34312353515625,-0.1136209368705749,0.50335294008255,0.0733038261532783
1780528304384194300,7.3531943359375,-0.0195476878434419,0.5351179838180542,-0.0635299831628799
1780528304394265000,7.36326513671875,0.0073303831741213,0.5839871764183044,-0.2125810980796814
1780528304404366600,7.37336669921875,0.0574213340878486,0.6206390857696533,-0.2052507251501083
1780528304414437400,7.383437255859375,0.1881465017795562,0.618195652961731,-0.2052507251501083
1780528304424538600,7.39353857421875,0.2260201424360275,0.5656611919403076,-0.147829383611679
1780528304434640000,7.403639892578125,0.180816113948822,0.4996877610683441,0.0452040284872055
1780528304444710700,7.413710693359375,0.1453859210014343,0.4630358517169952,0.1368338167667389
1780528304454812200,7.423812255859375,0.1722639948129654,0.4459316432476043,0.0549778714776039
1780528304464913400,7.433913330078125,0.2467895597219467,0.4214970171451568,-0.197920337319374
1780528304475014700,7.4440146484375,0.3310889601707458,0.3567453026771545,-0.461814135313034
1780528304485085400,7.45408544921875,0.442266434431076,0.2626720666885376,-0.6035348773002625
1780528304495156200,7.46415625,0.5522221922874451,0.2406809031963348,-0.6304129362106323
1780528304505227000,7.47422705078125,0.6035348773002625,0.2247984111309051,-0.4532620012760162
1780528304515328500,7.48432861328125,0.6096435189247131,0.2064724564552307,-0.2101376503705978
1780528304525368600,7.49436865234375,0.6010913848876953,0.2345722615718841,0.0280998013913631
1780528304535439600,7.504439697265625,0.675616979598999,0.2846632003784179,0.2052507251501083
1780528304545510400,7.514510498046875,0.827111542224884,0.4141666293144226,0.0635299831628799
1780528304555581200,7.524581298828125,0.9053022861480712,0.5644394755363464,-0.1612684279680252
1780528304565652000,7.53465185546875,0.9260717034339904,0.5778785347938538,-0.2150245606899261
1780528304575753200,7.544753173828125,1.0396926403045654,0.5876523852348328,-0.3677408695220947
1780528304585824000,7.554823974609375,1.1545352935791016,0.5424483418464661,-0.4972442984580993
1780528304595864300,7.5648642578125,1.2791517972946167,0.3909537494182586,-0.4813618063926697
1780528304605965600,7.574965576171875,1.368338108062744,0.3213151097297668,-0.5241223573684692
1780528304616066800,7.58506689453125,1.379333734512329,0.3335324227809906,-0.4948008358478546
1780528304626137900,7.595137939453125,1.5027284622192385,0.4447098970413208,-0.626747727394104
1780528304636208600,7.605208740234375,1.616349458694458,0.513126790523529,-0.8515461683273315
1780528304646310000,7.615309814453125,1.712866187095642,0.4349360466003418,-0.921184778213501
1780528304656380700,7.625380615234375,1.890017032623291,0.2370157092809677,-0.8222246170043945
1780528304666451500,7.635451416015625,2.085494041442871,0.1514945775270462,-0.636521577835083
1780528304676522200,7.645522216796875,2.079385280609131,0.2003637999296188,-0.271224170923233
1780528304686593000,7.655593017578125,1.9339994192123413,0.3567453026771545,0.1514945775270462
1780528304696633300,7.66563330078125,1.7678439617156982,0.5070181488990784,0.461814135313034
1780528304706734600,7.675734619140625,1.6908750534057615,0.5094616413116455,0.6340781450271606
1780528304716805400,7.685805419921875,1.7079792022705078,0.4703662395477295,0.4105014503002167
1780528304726876200,7.695876220703125,1.6481144428253174,0.4239404797554016,-0.2406809031963348
1780528304736947000,7.705947021484375,1.6859880685806274,0.4227187633514404,-1.2119566202163696
1780528304747048400,7.71604833984375,1.9046778678894043,0.3787364661693573,-1.8753563165664675
1780528304757149700,7.726149658203125,2.101376533508301,0.2504547536373138,-1.7104226350784302
1780528304767220500,7.736220458984375,2.046398639678955,0.2162462919950485,-0.9370672702789308
1780528304777291300,7.746291259765625,1.841147899627685,0.3005456924438476,-0.2101376503705978
1780528304787392500,7.756392578125,1.598023533821106,0.3824016451835632,0.3298672437667846
1780528304797494000,7.766493896484375,1.55892813205719,0.4214970171451568,0.4544837474822998
1780528304817666000,7.786666015625,1.176526427268982,0.7037167549133301,0.1685988008975982
1780528304827736800,7.79673681640625,0.8258898258209229,0.8869763612747192,0.4263839423656463
1780528304837838000,7.806838134765625,0.608421802520752,0.9639453291893004,0.6817256212234497
1780528304847939600,7.816939697265625,0.5778785347938538,0.9712757468223572,0.7721336483955383
1780528304858040800,7.827040771484375,0.6585127115249634,0.9297369122505188,0.361632227897644
1780528304868142000,7.83714208984375,0.3811798989772796,0.8735373020172119,0.4605923891067505
1780528304878212900,7.847212890625,0.0061086523346602,0.9089674949645996,1.0555751323699951
1780528304888314400,7.857314453125,-0.2724458873271942,0.9529497623443604,1.590693116188049
1780528304898415600,7.86741552734375,-0.5974262356758118,1.0311405658721924,1.8753563165664675
1780528304908516900,7.877516845703125,-0.8429940342903137,1.0751228332519531,1.7641788721084597
1780528304918618000,7.8876181640625,-1.0934487581253052,1.1301007270812988,1.578475832939148
1780528304928689000,7.89768896484375,-1.4062118530273438,1.1643091440200806,1.7324138879776
1780528304938790400,7.907790283203125,-1.6774359941482544,1.138652801513672,2.174680233001709
1780528304948891600,7.9178916015625,-1.842369556427002,1.1056660413742063,2.635272741317749
1780528304958993000,7.927992919921875,-1.919338583946228,1.0946705341339111,2.387261390686035
1780528304979165200,7.948165283203125,-2.120924234390259,1.341460108757019,2.3408355712890625
1780528305009499600,7.978499755859375,-2.623055458068848,2.3970351219177246,0.4373795092105865
1780528305019631400,7.98863134765625,-1.8570303916931152,2.9016098976135254,0.0537561401724815
1780528305029732600,7.998732666015625,-1.0201449394226074,2.6841418743133545,-2.2492058277130127
1780528305039834000,8.008834228515624,-0.8100073337554932,1.6798794269561768,-6.3297858238220215
1780528305120736300,8.089736328125,-1.72630512714386,-1.605353832244873,-1.2424999475479126
1780528305140908300,8.109908203125,-2.394591808319092,-1.5467108488082886,0.9395107626914978
1780528305181344000,8.150343994140625,-1.216843605041504,-2.4825563430786133,-1.539380431175232
1780528305191445200,8.1604453125,-1.9242255687713623,-2.662150621414185,-0.6450737118721008
1780528305201516000,8.17051611328125,-2.400700330734253,-2.609616279602051,0.5827654600143433
1780528305211587000,8.180587158203124,-2.277305603027344,-2.27852725982666,1.2767083644866943
1780528305231820000,8.200820068359375,-1.3634512424468994,-0.8906415104866028,0.6047565937042236
1780528305241921500,8.210921630859374,-0.5852088928222656,-0.5302310585975647,-0.1209513172507286
1780528305251992300,8.220992431640624,-0.1148426681756973,-0.6511823534965515,-0.5338962078094482
1780528305262124000,8.2311240234375,-0.1527163088321685,-0.9358455538749696,-0.6475171446800232
1780528305282326800,8.251326904296874,-1.037249207496643,-1.3084733486175537,0.9175195693969728
1780528305292397600,8.2613974609375,-0.7354817390441895,-0.9553932547569276,1.5149458646774292
1780528305322762500,8.291762451171875,0.4312708675861358,-0.6059783101081848,0.1954768747091293
1780528305332833300,8.301833251953125,0.1759291887283325,-0.7819074988365173,0.0329867228865623
1780528305342965200,8.31196533203125,-0.3640756905078888,-0.9553932547569276,0.1747074574232101
1780528305353066500,8.32206640625,-0.7684684991836548,-1.099557399749756,0.5119050741195679
1780528305363167700,8.332167724609375,-0.8063421249389648,-1.1349875926971436,0.7635815739631653
1780528305373269000,8.34226904296875,-0.6243042945861816,-0.856433093547821,0.9004153609275818
1780528305383370500,8.35237060546875,-0.2919935882091522,-0.5253441333770752,0.6633996367454529
1780528305393471700,8.3624716796875,-0.0439822971820831,-0.3103195428848266,0.1527163088321685
1780528305403573000,8.372572998046875,-0.0439822971820831,-0.3298672437667846,0.1136209368705749
1780528305413674200,8.38267431640625,-0.1844813078641891,-0.3188716471195221,0.3689626157283783
1780528305423775700,8.392775634765625,-0.351858377456665,-0.2443460971117019,0.5485569834709167
1780528305504403200,8.4734033203125,-0.0818559452891349,0.0146607663482427,0.6633996367454529
1780528305585000000,8.554,-0.140499010682106,-0.6243042945861816,0.5595525503158569
1780528305655587300,8.62458740234375,0.2993239760398865,-0.1857030391693115,0.2687807083129883
1780528305746407400,8.715407470703125,0.5595525503158569,-0.2467895597219467,0.2919935882091522
1780528305827035000,8.796034912109375,0.608421802520752,-0.1221730485558509,0.3579670190811157
1780528305897561000,8.86656103515625,0.3958406746387481,-0.2345722615718841,0.4043927788734436
1780528305947976200,8.91697607421875,0.4214970171451568,-0.2162462919950485,0.5497786998748779
1780528306008462000,8.977462158203124,0.2357939779758453,-0.3824016451835632,0.2822197377681732
1780528306058938000,9.027938232421874,0.3103195428848266,-0.261450320482254,0.7061602473258972
1780528306109322500,9.078322509765623,0.2858849465847015,-0.5009095072746277,0.3225368559360504
1780528306189919500,9.15891943359375,0.2235766798257827,-0.280998021364212,0.3738495409488678
1780528306280495600,9.24949560546875,0.2382374405860901,-0.1588249653577804,-0.2186897546052932
1780528306290536000,9.259535888671875,0.1881465017795562,-0.1649336218833923,-0.271224170923233
1780528306300637200,9.26963720703125,0.1514945775270462,-0.1319468915462494,-0.294437050819397
1780528306310738700,9.27973876953125,0.1502728462219238,-0.1185078546404838,-0.3323107063770294
1780528306340981500,9.3099814453125,0.1857030391693115,-0.1417207419872284,-0.3604104816913605
1780528306351021800,9.320021728515623,0.1881465017795562,-0.1136209368705749,-0.2748893499374389
1780528306361123000,9.330123046875,0.1771509200334549,-0.0806342139840126,-0.1722639948129654
1780528306371163400,9.340163330078123,0.1514945775270462,-0.0537561401724815,-0.1343903541564941
1780528306391366000,9.360365966796875,0.1429424732923507,-0.0818559452891349,-0.221133217215538
1780528306411477000,9.38047705078125,0.1527163088321685,-0.1624901592731475,-0.2296853363513946
1780528306421578500,9.39057861328125,0.1832595765590667,-0.1966986060142517,-0.1539380401372909
1780528306451790800,9.420790771484375,0.2052507251501083,-0.2357939779758453,0.0342084541916847
1780528306492104400,9.4611044921875,0.1649336218833923,-0.1698205322027206,-0.0781907513737678
1780528306502206000,9.4712060546875,0.1466076523065567,-0.1453859210014343,-0.0403171069920063
1780528306512276700,9.48127685546875,0.0745255574584007,-0.1233947798609733,0.1197295859456062
1780528306522378000,9.4913779296875,-0.0500909499824047,-0.0549778714776039,0.3005456924438476
1780528306532448800,9.50144873046875,-0.0794124826788902,0.1563815027475357,0.2528982162475586
1780528306542550000,9.511550048828123,-0.0745255574584007,0.2382374405860901,0.2003637999296188
1780528306552620800,9.521620849609375,-0.1087340116500854,0.3262020349502563,0.2480112910270691
1780528306562691600,9.531691650390623,-0.1563815027475357,0.3995058834552765,0.3054326176643371
1780528306572793000,9.54179296875,-0.2467895597219467,0.4398229718208313,0.3213151097297668
1780528306582864000,9.55186376953125,-0.3139847218990326,0.4569272100925445,0.2700024247169494
1780528306592965000,9.561965087890623,-0.2846632003784179,0.4801400899887085,0.1417207419872284
1780528306603005400,9.57200537109375,-0.2150245606899261,0.5021312236785889,0.0171042270958423
1780528306613106700,9.582106689453123,-0.2162462919950485,0.5265658497810364,0.0415388382971286
1780528306623177500,9.592177490234375,-0.2773328125476837,0.5583308339118958,0.1221730485558509
1780528306663399700,9.632399658203123,-0.4043927788734436,0.4801400899887085,-0.1820378452539444
1780528306683602400,9.6526025390625,-0.4056145250797272,0.3017674386501312,-0.3530801236629486
1780528306693673200,9.662673095703123,-0.4337143301963806,0.2590068578720093,-0.375071257352829
1780528306703744000,9.672743896484375,-0.485027015209198,0.2626720666885376,-0.3469714522361755
1780528306713814800,9.682814697265623,-0.5070181488990784,0.2724458873271942,-0.3262020349502563
1780528306723885600,9.692885498046875,-0.5021312236785889,0.2186897546052932,-0.394618958234787
1780528306733956400,9.702956298828123,-0.5473352670669556,0.0867428630590438,-0.5290092825889587
1780528306774331100,9.7433310546875,-0.8148942589759827,-0.0366519130766391,-0.4117231667041778
1780528306784371500,9.753371337890623,-0.8381071090698242,-0.0195476878434419,-0.1820378452539444
1780528306794472700,9.76347265625,-0.8002334833145142,0.0610865242779254,-0.0427605658769607
1780528306814614300,9.7836142578125,-0.8222246170043945,0.2138028293848037,-0.1038470938801765
1780528306824715500,9.793715576171875,-0.8002334833145142,0.2333505302667617,-0.2638937830924988
1780528306834817000,9.803817138671874,-0.7916813492774963,0.2138028293848037,-0.3469714522361755
1780528306844887800,9.8138876953125,-0.8625417351722717,0.1551597714424133,-0.2492330223321914
1780528306885171000,9.8541708984375,-0.96883225440979,0.3384193480014801,-0.0647517144680023
1780528306905373700,9.874373779296874,-0.923628270626068,0.3384193480014801,-0.2467895597219467
1780528306935616500,9.904616455078123,-0.9737191796302797,0.3164281845092773,-0.294437050819397
1780528306945687300,9.914687255859375,-0.8588765263557434,0.3396410644054413,-0.3640756905078888
1780528306955758000,9.924758056640623,-0.7941248416900635,0.3555235862731933,-0.2651155292987823
1780528306965828900,9.934828857421875,-0.7244861721992493,0.304210901260376,-0.0977384373545646
1780528306975899600,9.944899658203123,-0.6780604124069214,0.2492330223321914,-0.1136209368705749
1780528306986001000,9.9550009765625,-0.6890559792518616,0.271224170923233,-0.221133217215538
1780528306996072000,9.965072021484374,-0.6768386960029602,0.3298672437667846,-0.3262020349502563
1780528307006173200,9.975173095703123,-0.6133087277412415,0.3481931984424591,-0.4434881806373596
1780528307016244000,9.985243896484375,-0.5571091175079346,0.2846632003784179,-0.6133087277412415
1780528307026314800,9.995314697265623,-0.5607742667198181,0.1869247704744339,-0.7171558141708374
1780528307036385500,10.005385498046875,-0.5485569834709167,0.1649336218833923,-0.7354817390441895
1780528307046456300,10.015456298828123,-0.455705463886261,0.1881465017795562,-0.7183775305747986
1780528307056527000,10.025527099609375,-0.3286454975605011,0.2150245606899261,-0.6157521605491638
1780528307096810200,10.065810302734375,-0.2186897546052932,0.4214970171451568,0.0891863256692886
1780528307106911700,10.075911865234374,-0.1343903541564941,0.4068362414836883,-0.1514945775270462
1780528307117013000,10.086012939453123,-0.0977384373545646,0.4031710624694824,-0.3152064681053161
1780528307127114200,10.0961142578125,-0.0244346093386411,0.3982841372489929,-0.4361577928066253
1780528307137215700,10.1062158203125,0.0733038261532783,0.3677408695220947,-0.5522221922874451
1780528307157387800,10.1263876953125,0.1111774742603302,0.4068362414836883,-0.3567453026771545
1780528307187630600,10.156630615234375,0.4288274049758911,0.4300491213798523,-0.2541199326515198
1780528307238076200,10.207076171875,0.7049384713172913,0.3384193480014801,-0.2333505302667617
1780528307258248400,10.22724853515625,0.9395107626914978,0.4202753007411957,-0.5204572081565857
1780528307278390000,10.24739013671875,1.0775662660598757,0.3701843321323395,-0.3677408695220947
1780528307288460800,10.257460693359375,1.166752576828003,0.294437050819397,-0.2076941877603531
1780528307298531600,10.267531494140623,1.263269305229187,0.2076941877603531,-0.1111774742603302
1780528307308632800,10.2776328125,1.36955988407135,0.1893682330846786,-0.2150245606899261
1780528307318734000,10.287734130859375,1.4575244188308716,0.2651155292987823,-0.3689626157283783
1780528307328835600,10.297835693359374,1.5821410417556765,0.3237585723400116,-0.5461135506629944
1780528307338906400,10.30790625,1.72630512714386,0.371406078338623,-0.8588765263557434
1780528307349038000,10.3180380859375,1.7043139934539795,0.3249803185462951,-0.912632703781128
1780528307359139300,10.328139404296875,1.655444860458374,0.2528982162475586,-0.6829473376274109
1780528307379311600,10.3483115234375,1.626123309135437,0.2076941877603531,-0.107512280344963
1780528307389412900,10.358412841796875,1.588249683380127,0.2981022298336029,-0.2138028293848037
1780528307399514000,10.36851416015625,1.5919147729873655,0.3408628106117248,-0.3445279896259308
1780528307409554400,10.378554443359375,1.6774359941482544,0.2260201424360275,-0.2272418737411499
1780528307419686400,10.388686279296875,1.7971655130386353,0.2113593816757202,-0.180816113948822
1780528307429787600,10.39878759765625,1.7177530527114868,0.3726277947425842,-0.0647517144680023
1780528307500527400,10.46952734375,1.1362093687057495,0.4459316432476043,-0.394618958234787
1780528307540932600,10.5099326171875,0.9321803450584412,0.4214970171451568,0.3469714522361755
1780528307551033900,10.520033935546875,0.7147123217582703,0.2785545587539673,0.3152064681053161
1780528307561165800,10.530165771484375,0.7061602473258972,0.2590068578720093,0.251676470041275
1780528307571267000,10.54026708984375,0.6499606370925903,0.3066543638706207,0.1588249653577804
1780528307591530800,10.56053076171875,0.3164281845092773,0.3078760802745819,0.130725160241127
1780528307601632000,10.570632080078123,0.1380555480718612,0.1624901592731475,0.0537561401724815
1780528307611703000,10.580703125,-0.0183259565383195,0.1734857261180877,-0.1893682330846786
1780528307621834800,10.590834716796875,-0.1624901592731475,0.2272418737411499,-0.4068362414836883
1780528307631936000,10.60093603515625,-0.2345722615718841,0.1380555480718612,-0.2834414839744568
1780528307642037500,10.61103759765625,-0.2858849465847015,0.1551597714424133,-0.0500909499824047
1780528307652138800,10.621138671875,-0.4459316432476043,0.2089159190654754,-0.0061086523346602
1780528307662240000,10.631239990234375,-0.608421802520752,0.1612684279680252,-0.1233947798609733
1780528307672341200,10.64134130859375,-0.6841690540313721,0.0635299831628799,-0.2638937830924988
1780528307753182500,10.722182373046875,-1.1349875926971436,-0.6120869517326355,-0.2981022298336029
1780528307803719400,10.772719482421875,-1.7568484544754028,-0.7269296646118164,0.197920337319374
1780528307844094200,10.81309423828125,-1.5650367736816406,-0.7782423496246338,-0.6829473376274109
1780528307854134500,10.823134521484375,-1.5968017578125,-0.7232644557952881,-0.4764748811721802
1780528307864205300,10.833205322265623,-1.528384804725647,-0.5632177591323853,-0.2736676335334778
1780528307874276000,10.843276123046875,-1.602910399436951,-0.4068362414836883,0.0757472887635231
1780528307884347000,10.853346923828123,-1.6676621437072754,-0.3213151097297668,0.3995058834552765
1780528307894417700,10.863417724609375,-1.578475832939148,-0.2431243658065796,0.371406078338623
1780528307904458000,10.8734580078125,-1.3280210494995115,-0.0928515195846557,0.0696386396884918
1780528307914559500,10.8835595703125,-1.076344609260559,-0.1014036312699318,-0.167377084493637
1780528307924599600,10.893599609375,-1.0042624473571775,-0.2968805134296417,-0.221133217215538
1780528307934670300,10.90367041015625,-1.263269305229187,-0.4043927788734436,0.1380555480718612
1780528307954842600,10.923842529296875,-1.3573426008224487,0.0696386396884918,0.9822713136672974
1780528307964944000,10.93394384765625,-1.0445796251296997,0.2577851414680481,0.6841690540313721
1780528307974984200,10.943984130859375,-0.8454375267028809,0.2064724564552307,0.3054326176643371
1780528307985085400,10.95408544921875,-0.6536257863044739,-0.0464257597923278,-0.0855211317539215
1780528307995095300,10.96409521484375,-0.6878342628479004,-0.3457497358322143,-0.1759291887283325
1780528308005196500,10.974196533203123,-0.7452555894851685,-0.2504547536373138,0.7562511563301086
1780528308015267300,10.984267333984375,-0.6206390857696533,-0.0537561401724815,0.8588765263557434
1780528308025338000,10.994338134765623,-0.7489207983016968,0.0806342139840126,0.9590584635734558
1780528308035378400,11.00437841796875,-0.8332201838493347,0.0708603709936142,0.8808676600456238
1780528308045449200,11.01444921875,-0.588874101638794,-0.0171042270958423,0.3665191531181335
1780528308055489500,11.024489501953123,-0.1942551434040069,-0.1038470938801765,-0.271224170923233
1780528308126137900,11.095137939453124,-0.1246165111660957,0.4764748811721802,0.452040284872055
1780528308196694300,11.1656943359375,-0.1466076523065567,-0.0623082555830478,0.6963863968849182
1780528308206765000,11.17576513671875,0.1991420686244964,0.2296853363513946,0.3591887652873993
1780528308216805400,11.185805419921875,0.3457497358322143,0.0415388382971286,0.0500909499824047
1780528308226876200,11.195876220703123,0.3213151097297668,-0.4141666293144226,-0.2199114859104156
1780528308236947000,11.205947021484375,0.2577851414680481,-0.7305948138237,-0.4092797040939331
1780528308247048400,11.21604833984375,0.2480112910270691,-0.7073819637298584,-0.3371976017951965
1780528308257149700,11.226149658203123,0.3078760802745819,-0.432492583990097,-0.157603234052658
1780528308267251000,11.2362509765625,0.2431243658065796,-0.2052507251501083,0.1185078546404838
1780528308277321700,11.24632177734375,0.1600466966629028,-0.1136209368705749,0.485027015209198
1780528308287392500,11.256392578125,0.1368338167667389,-0.0733038261532783,0.5656611919403076
1780528308297494000,11.266493896484375,0.1209513172507286,-0.1270599663257599,0.432492583990097
1780528308307564800,11.276564697265623,0.2467895597219467,-0.1966986060142517,0.1233947798609733
1780528308317635600,11.286635498046875,0.4459316432476043,-0.2028072625398636,-0.2577851414680481
1780528308327706400,11.296706298828123,0.5070181488990784,-0.2040289938449859,-0.3481931984424591
1780528308337777200,11.306777099609375,0.4178318381309509,-0.1062905490398407,-0.0366519130766391
1780528308347848000,11.316847900390623,0.3469714522361755,0.0806342139840126,0.5167919993400574
1780528308357918700,11.326918701171875,0.3567453026771545,0.1319468915462494,0.9199630618095398
1780528308367989500,11.336989501953123,0.3188716471195221,-0.0329867228865623,0.950506329536438
1780528308378090800,11.3470908203125,0.2626720666885376,-0.2748893499374389,0.588874101638794
1780528308388161800,11.357161865234374,0.3347541689872741,-0.4080579876899719,-0.0745255574584007
1780528308398232600,11.367232666015624,0.4984660446643829,-0.2895501255989074,-0.513126790523529
1780528308408242200,11.3772421875,0.6414085030555725,-0.147829383611679,-0.4349360466003418
1780528308418343400,11.387343505859375,0.5925393104553223,-0.1685988008975982,-0.1233947798609733
1780528308428414500,11.39741455078125,0.3762930035591125,-0.2382374405860901,0.3371976017951965
1780528308438515700,11.407515625,0.2883284091949463,-0.2993239760398865,0.6829473376274109
1780528308448586500,11.41758642578125,0.3995058834552765,-0.3457497358322143,0.6279694437980652
1780528308509072400,11.478072265625,0.6524040699005127,-0.2553416788578033,0.5387831330299377
1780528308569527600,11.538527587890623,0.5510004758834839,-0.4874704778194427,0.2492330223321914
1780528308609872000,11.578871826171875,0.3933972120285034,-0.3371976017951965,0.4459316432476043
1780528308660225800,11.629225830078123,0.3701843321323395,-0.3982841372489929,0.4105014503002167
1780528308690407700,11.65940771484375,0.3555235862731933,-0.4984660446643829,0.2565633952617645
1780528308710610400,11.6796103515625,0.3469714522361755,-0.2321287989616394,0.3885102868080139
1780528308720681200,11.68968115234375,0.3017674386501312,-0.2443460971117019,0.5119050741195679
1780528308730752000,11.699751953125,0.2675589919090271,-0.3249803185462951,0.618195652961731
1780528308740822800,11.70982275390625,0.2834414839744568,-0.384845107793808,0.5839871764183044
1780528308760964400,11.72996435546875,0.2638937830924988,-0.4447098970413208,0.3176499307155609
1780528308771065600,11.740065673828123,0.280998021364212,-0.3885102868080139,0.294437050819397
1780528308781136600,11.75013671875,0.2895501255989074,-0.3090978264808655,0.3127630054950714
1780528308811349000,11.780348876953123,0.2492330223321914,-0.2761110961437225,-0.0842994004487991
1780528308821450200,11.7904501953125,0.3176499307155609,-0.2272418737411499,-0.2761110961437225
1780528308892037400,11.861037353515623,0.130725160241127,-0.0537561401724815,0.1270599663257599
1780528308912179000,11.881178955078123,0.1734857261180877,0.0183259565383195,-0.0134390350431203
1780528308922280200,11.8912802734375,0.1233947798609733,0.0109955742955207,0.058643065392971
1780528308932381700,11.901381591796875,0.0928515195846557,0.0415388382971286,0.1185078546404838
1780528308942452500,11.911452392578123,0.1087340116500854,0.1001818999648094,0.1551597714424133
1780528308952553700,11.9215537109375,0.130725160241127,0.1136209368705749,0.1136209368705749
1780528308962655000,11.931655029296875,0.1209513172507286,0.0488692186772823,0.0354301854968071
1780528308972725800,11.941725830078123,0.1343903541564941,0.0195476878434419,-0.0403171069920063
1780528308982827300,11.9518271484375,0.167377084493637,0.0171042270958423,-0.1038470938801765
1780528308992898000,11.96189794921875,0.1502728462219238,0.0024434609804302,-0.1087340116500854
1780528309002968800,11.97196875,0.1368338167667389,-0.0171042270958423,-0.1209513172507286
1780528309013039600,11.98203955078125,0.1282816976308822,-0.051312681287527,-0.1966986060142517
1780528309023140900,11.992140869140623,0.1148426681756973,-0.0342084541916847,-0.2846632003784179
1780528309033211600,12.002211669921875,0.1099557429552078,0.0061086523346602,-0.3384193480014801
1780528309043282400,12.012282470703123,0.0867428630590438,0.0317649915814399,-0.3152064681053161
1780528309053353200,12.022353271484375,0.0561996027827262,0.0293215326964855,-0.2174680233001709
1780528309063454700,12.032454833984374,0.0549778714776039,0.0354301854968071,-0.1014036312699318
1780528309073525500,12.042525390625,0.0561996027827262,0.0390953756868839,-0.0403171069920063
1780528309083565800,12.05256591796875,0.0500909499824047,0.0256563406437635,-0.0659734457731247
1780528309093636600,12.06263671875,0.0378736443817615,0.0342084541916847,-0.140499010682106
1780528309103737900,12.07273779296875,0.0366519130766391,0.1111774742603302,-0.2260201424360275
1780528309113808600,12.08280859375,0.0476474873721599,0.2064724564552307,-0.3115412890911102
1780528309123879400,12.09287939453125,0.0085521135479211,0.2382374405860901,-0.3591887652873993
1780528309184395800,12.153395751953123,-0.2003637999296188,0.4227187633514404,-0.2834414839744568
1780528309204598500,12.1735986328125,-0.3885102868080139,0.4141666293144226,-0.4361577928066253
1780528309214699800,12.18369970703125,-0.4092797040939331,0.4190535545349121,-0.4984660446643829
1780528309224801000,12.193801025390623,-0.3787364661693573,0.4361577928066253,-0.5412266254425049
1780528309234871800,12.203871826171875,-0.371406078338623,0.442266434431076,-0.4899139404296875
1780528309244973300,12.213973388671874,-0.361632227897644,0.4276056587696075,-0.3628539443016052
1780528309255013400,12.224013427734375,-0.3494149148464203,0.4337143301963806,-0.2089159190654754
1780528309265115000,12.234114990234374,-0.4056145250797272,0.4263839423656463,-0.0684169083833694
1780528309275216100,12.244216064453123,-0.5216789245605469,0.3836233615875244,-0.0048869219608604
1780528309295357700,12.264357666015623,-0.5351179838180542,0.3555235862731933,-0.2700024247169494
1780528309305428500,12.274428466796875,-0.4886921942234039,0.3579670190811157,-0.3335324227809906
1780528309325600500,12.2946005859375,-0.5839871764183044,0.3970624208450317,0.0036651915870606
1780528309345833700,12.314833740234375,-0.93095862865448,0.3787364661693573,0.4813618063926697
1780528309355904500,12.324904541015623,-0.9957103729248048,0.2895501255989074,0.4092797040939331
1780528309376046000,12.345046142578123,-1.0115928649902344,0.0635299831628799,-0.0232128798961639
1780528309396218400,12.36521826171875,-1.0201449394226074,-0.0268780700862407,-0.067195177078247
1780528309406289200,12.3752890625,-0.978606104850769,-0.0122173046693205,-0.0085521135479211
1780528309416360000,12.38535986328125,-0.9285151958465576,0.0036651915870606,0.0720821022987365
1780528309426461200,12.395461181640623,-0.8417723178863525,0.0464257597923278,0.1038470938801765
1780528309436532000,12.405531982421875,-0.7440338730812073,0.1295034289360046,0.1050688251852989
1780528309446602800,12.415602783203123,-0.7012733221054077,0.1563815027475357,0.1185078546404838
1780528309456673500,12.425673583984375,-0.7024950385093689,0.1429424732923507,0.1930334120988845
1780528309476876300,12.445876220703123,-0.6340781450271606,0.2577851414680481,0.0965167060494422
1780528309486916600,12.45591650390625,-0.646295428276062,0.2834414839744568,0.0134390350431203
1780528309507119000,12.476119140625,-0.6768386960029602,0.1551597714424133,-0.0879645943641662
1780528309517190000,12.48618994140625,-0.6304129362106323,0.2223549485206604,-0.1722639948129654
1780528309527291400,12.49629150390625,-0.5754350423812866,0.2638937830924988,-0.180816113948822
1780528309537392600,12.506392578125,-0.5473352670669556,0.2858849465847015,-0.2138028293848037
1780528309547463400,12.51646337890625,-0.5546656250953674,0.2467895597219467,-0.2186897546052932
1780528309618050600,12.587050537109375,-0.5009095072746277,0.1588249653577804,-0.3103195428848266
1780528309628151800,12.59715185546875,-0.5143485069274902,0.0623082555830478,-0.2748893499374389
1780528309648324000,12.617323974609375,-0.5949827432632446,0.0109955742955207,-0.1954768747091293
1780528309658425300,12.62742529296875,-0.6059783101081848,-0.0109955742955207,-0.2125810980796814
1780528309668526600,12.637526611328123,-0.5766568183898926,-0.0232128798961639,-0.2700024247169494
1780528309718911200,12.6879111328125,-0.304210901260376,0.1062905490398407,-0.3066543638706207
1780528309769326300,12.738326416015624,-0.0549778714776039,0.3970624208450317,-0.1392772793769836
1780528309830025700,12.799025634765623,0.2504547536373138,0.361632227897644,-0.4825835525989532
1780528309870461400,12.83946142578125,0.3310889601707458,0.2858849465847015,-0.0891863256692886
1780528309921059600,12.8900595703125,0.8759807348251343,-0.171042263507843,-0.7232644557952881
1780528309931160800,12.900160888671875,0.9334021210670472,-0.2028072625398636,-0.3677408695220947
1780528309941292800,12.910292724609375,0.96883225440979,-0.1136209368705749,-0.171042263507843
1780528309951394000,12.92039404296875,0.8967501521110535,0.0928515195846557,-0.1026253625750541
1780528309961526000,12.930526123046874,0.8674286603927612,0.2553416788578033,-0.1966986060142517
1780528309981728500,12.950728515625,1.0812314748764038,0.1087340116500854,-0.7831292152404785
1780528310001931300,12.97093115234375,1.2583824396133425,-0.1918116807937622,-1.0787880420684814
1780528310032235300,13.0012353515625,1.4575244188308716,0.2724458873271942,0.2565633952617645
1780528310042367000,13.011366943359375,1.539380431175232,0.3433062732219696,0.3237585723400116
1780528310052499000,13.0214990234375,1.5528194904327393,0.3689626157283783,0.1747074574232101
1780528310062600200,13.03160009765625,1.4941763877868652,0.2076941877603531,0.0427605658769607
1780528310072701400,13.041701416015623,1.4697418212890625,-0.0891863256692886,-0.1246165111660957
1780528310082833400,13.05183349609375,1.4672982692718506,-0.3152064681053161,-0.3811798989772796
1780528310092965000,13.061965087890623,1.4672982692718506,-0.3408628106117248,-0.4911356568336487
1780528310103066400,13.07206640625,1.2620476484298706,-0.0977384373545646,0.090408056974411
1780528310113168000,13.08216796875,1.214400053024292,-0.0488692186772823,0.5656611919403076
1780528310123299600,13.092299560546875,1.2986994981765747,-0.0855211317539215,0.7293730974197388
1780528310133400800,13.10240087890625,1.3451253175735474,-0.0146607663482427,0.4667010605335235
1780528310143532800,13.11253271484375,1.3145819902420044,0.2480112910270691,0.0928515195846557
1780528310153634000,13.122634033203123,1.330464482307434,0.513126790523529,-0.140499010682106
1780528310163735300,13.1327353515625,1.4049900770187378,0.6218608021736145,-0.3188716471195221
1780528310183968500,13.152968505859375,1.1447614431381226,0.3836233615875244,-0.0720821022987365
1780528310204232200,13.173232177734375,0.856433093547821,0.4630358517169952,0.1551597714424133
1780528310214364200,13.1833642578125,0.960280179977417,0.5619960427284241,-0.0036651915870606
1780528310224465400,13.19346533203125,1.0836749076843262,0.5351179838180542,-0.3249803185462951
1780528310305276000,13.27427587890625,0.1661553531885147,0.2076941877603531,0.0940732508897781
1780528310376015600,13.345015625,-0.6572909951210022,0.2993239760398865,-0.0745255574584007
1780528310426552800,13.395552734375,-1.1264355182647705,0.0171042270958423,-0.0818559452891349
1780528310487130000,13.456130126953123,-1.7018705606460571,-0.7684684991836548,0.3457497358322143
1780528310547585500,13.51658544921875,-1.8875735998153689,-1.1325441598892212,0.4398229718208313
1780528310567727000,13.53672705078125,-1.909564733505249,-1.2754865884780884,1.018923282623291
1780528310577798000,13.5467978515625,-1.835039138793945,-0.8356636762619019,0.9162978529930116
1780528310587868700,13.55686865234375,-1.6371188163757324,-0.5082398653030396,0.6120869517326355
1780528310597970000,13.566969970703123,-1.3756685256958008,-0.5277875661849976,0.1918116807937622
1780528310608040700,13.577040771484375,-1.2754865884780884,-0.750142514705658,0.0183259565383195
1780528310618142200,13.58714208984375,-1.3426817655563354,-0.9028588533401488,0.261450320482254
1780528310628213000,13.597212890625,-1.4343116283416748,-0.7134906053543091,0.9382890462875366
1780528310638283800,13.60728369140625,-1.4184291362762451,-0.4068362414836883,1.644449234008789
1780528310648324000,13.617323974609375,-1.2754865884780884,-0.1649336218833923,1.7299703359603882
1780528310658425300,13.62742529296875,-1.1166616678237915,0.0134390350431203,1.0873401165008545
1780528310668526600,13.637526611328123,-0.8833111524581909,0.0452040284872055,0.2590068578720093
1780528310678628000,13.647628173828124,-0.4679227769374847,0.0403171069920063,-0.4874704778194427
1780528310698800000,13.667800048828123,-0.2602286040782928,-0.2797762751579284,-0.3164281845092773
1780528310759316500,13.72831640625,0.2406809031963348,-0.1649336218833923,-1.1508700847625732
1780528310819741200,13.7887412109375,0.0378736443817615,0.1637118905782699,1.1545352935791016
1780528310829812000,13.79881201171875,0.2174680233001709,0.0879645943641662,-0.3176499307155609
1780528310839882800,13.8088828125,0.4276056587696075,-0.1331686228513717,-1.3170254230499268
1780528310849923000,13.818923095703123,0.6145304441452026,-0.2736676335334778,-1.4269812107086182
1780528310860024600,13.829024658203124,0.618195652961731,-0.3481931984424591,-0.8539896011352539
1780528310890297900,13.8592978515625,0.0928515195846557,-0.0183259565383195,1.655444860458374
1780528310900399000,13.869399169921875,0.2260201424360275,0.261450320482254,1.2974777221679688
1780528310910470000,13.879469970703123,0.3152064681053161,0.2871066629886627,0.4276056587696075
1780528310920541000,13.889541015625,0.455705463886261,0.0940732508897781,-0.5668829679489136
1780528310930642200,13.89964208984375,0.6829473376274109,-0.2076941877603531,-1.0543533563613892
1780528310940713000,13.909712890625,0.6829473376274109,-0.2076941877603531,-1.0543533563613892
1780528310950783700,13.91978369140625,0.1539380401372909,0.1209513172507286,0.6426302194595337
1780528310960854500,13.9298544921875,0.0268780700862407,0.1942551434040069,1.4062118530273438
1780528310970925300,13.93992529296875,0.0928515195846557,0.1111774742603302,1.4782938957214355
1780528310980996000,13.94999609375,0.2321287989616394,-0.0171042270958423,0.7220427393913269
1780528310991067000,13.96006689453125,0.3897320330142975,-0.1295034289360046,-0.3665191531181335
1780528311001137700,13.9701376953125,0.5632177591323853,-0.1038470938801765,-0.9932668805122375
1780528311011208400,13.98020849609375,0.7183775305747986,-0.1087340116500854,-0.950506329536438
1780528311021310000,13.99031005859375,0.6768386960029602,-0.1563815027475357,-0.5595525503158569
1780528311041451500,14.010451416015623,0.1844813078641891,-0.2443460971117019,0.9065240025520324
1780528311101876200,14.070876220703123,0.6548475623130798,-0.3274237811565399,-0.230907067656517
1780528311192635600,14.1616357421875,0.3543018400669098,-0.3237585723400116,0.1099557429552078
1780528311243020000,14.21202001953125,0.636521577835083,-0.2541199326515198,0.3872885704040527
1780528311263192000,14.232192138671875,0.5766568183898926,-0.4789183437824249,0.342084527015686
1780528311273293600,14.24229345703125,0.4715879559516907,-0.5424483418464661,0.3567453026771545
1780528311333718300,14.30271826171875,0.4251621961593628,-0.3213151097297668,0.3494149148464203
1780528311414376200,14.383376220703123,0.1685988008975982,0.0305432621389627,0.2419026345014572
1780528311424447000,14.393447021484375,0.1551597714424133,0.1722639948129654,0.3982841372489929
1780528311434517800,14.403517822265623,0.2113593816757202,0.280998021364212,0.6194173693656921
1780528311444588500,14.413588623046875,0.2956587672233581,0.3213151097297668,0.779464066028595
1780528311454659600,14.42365966796875,0.3274237811565399,0.261450320482254,0.9077457785606384
1780528311464730400,14.43373046875,0.3591887652873993,0.167377084493637,0.923628270626068
1780528311494942700,14.463942626953123,0.3530801236629486,-0.0085521135479211,0.1380555480718612
1780528311505013500,14.474013427734375,0.2907718420028686,-0.1747074574232101,-0.1392772793769836
1780528311515114800,14.48411474609375,0.2321287989616394,-0.2871066629886627,-0.3310889601707458
1780528311525185500,14.494185546875,0.2064724564552307,-0.2626720666885376,-0.3738495409488678
1780528311535286800,14.504286865234375,0.1795943826436996,-0.1722639948129654,-0.2370157092809677
1780528311545357800,14.51435791015625,0.147829383611679,-0.0842994004487991,-0.0342084541916847
1780528311555428600,14.5244287109375,0.1368338167667389,-0.0317649915814399,0.1282816976308822
1780528311585732400,14.554732421875,0.1832595765590667,-0.147829383611679,-0.0525344125926494
1780528311595803400,14.564803466796874,0.2040289938449859,-0.157603234052658,-0.1441642045974731
1780528311605935000,14.57493505859375,0.2174680233001709,-0.1453859210014343,-0.1600466966629028
1780528311615945000,14.584945068359374,0.2174680233001709,-0.1319468915462494,-0.0879645943641662
1780528311636117000,14.605116943359375,0.1893682330846786,-0.0757472887635231,0.0818559452891349
1780528311646126800,14.615126953125,0.1514945775270462,-0.0757472887635231,0.0769690200686454
1780528311656228000,14.62522802734375,0.1087340116500854,-0.1221730485558509,0.0219911485910415
1780528311666299000,14.635298828125,0.0794124826788902,-0.1514945775270462,-0.0647517144680023
1780528311676369700,14.64536962890625,0.0708603709936142,-0.1343903541564941,-0.1417207419872284
1780528311686410000,14.655409912109375,0.0757472887635231,-0.140499010682106,-0.1869247704744339
1780528311696511200,14.66551123046875,0.0720821022987365,-0.1795943826436996,-0.1857030391693115
1780528311706582000,14.67558203125,0.0574213340878486,-0.197920337319374,-0.171042263507843
1780528311716622300,14.685622314453123,0.0390953756868839,-0.1527163088321685,-0.167377084493637
1780528311736794400,14.70579443359375,0.0867428630590438,-0.0012217304902151,-0.1527163088321685
1780528311746896000,14.715895751953123,0.0818559452891349,0.0354301854968071,-0.2064724564552307
1780528311767068000,14.73606787109375,0.0696386396884918,0.1539380401372909,-0.3445279896259308
1780528311777169200,14.746169189453123,0.0855211317539215,0.2076941877603531,-0.3494149148464203
1780528311787270700,14.756270751953124,0.0561996027827262,0.2467895597219467,-0.3555235862731933
1780528311807381800,14.7763818359375,-0.0048869219608604,0.3885102868080139,-0.3176499307155609
1780528311817483000,14.78648291015625,-0.0073303831741213,0.4495968222618103,-0.3054326176643371
1780528311827523300,14.7965234375,-0.0268780700862407,0.4715879559516907,-0.3200933933258056
1780528311888039700,14.857039794921874,-0.2089159190654754,0.598647952079773,-0.1490511149168014
1780528311928322800,14.89732275390625,-0.3176499307155609,0.3457497358322143,-0.4911356568336487
1780528311938393600,14.9073935546875,-0.3090978264808655,0.3408628106117248,-0.6487388610839844
1780528311948464400,14.91746435546875,-0.294437050819397,0.3115412890911102,-0.7086036801338196
1780528311988869600,14.95786962890625,-0.4007275998592376,0.3408628106117248,-0.0244346093386411
1780528312009011200,14.97801123046875,-0.4667010605335235,0.3347541689872741,-0.1612684279680252
1780528312019051500,14.988051513671875,-0.5253441333770752,0.2736676335334778,-0.180816113948822
1780528312029152800,14.99815283203125,-0.4960225820541382,0.1991420686244964,-0.2260201424360275
1780528312089608200,15.058608154296875,-0.6621779203414917,0.0232128798961639,0.1087340116500854
1780528312099709400,15.06870947265625,-0.6524040699005127,0.0415388382971286,-0.0134390350431203
1780528312109811000,15.07881103515625,-0.6475171446800232,0.0818559452891349,-0.0232128798961639
1780528312119912200,15.088912109375,-0.6487388610839844,0.098960168659687,0.0549778714776039
1780528312130013400,15.099013427734375,-0.6524040699005127,0.1038470938801765,0.0842994004487991
1780528312140084200,15.109084228515623,-0.6670648455619812,0.1233947798609733,0.1136209368705749
1780528312150155000,15.119155029296875,-0.6646214127540588,0.197920337319374,0.090408056974411
1780528312160225800,15.129225830078123,-0.656069278717041,0.2638937830924988,0.0745255574584007
1780528312170327300,15.139327392578124,-0.6585127115249634,0.251676470041275,0.0659734457731247
1780528312180428500,15.149428466796875,-0.7183775305747986,0.2101376503705978,0.1185078546404838
1780528312190529800,15.15952978515625,-0.7623597979545593,0.2321287989616394,0.167377084493637
1780528312210671400,15.17967138671875,-0.6829473376274109,0.3213151097297668,0.0085521135479211
1780528312220772900,15.18977294921875,-0.6731734871864319,0.2956587672233581,-0.0867428630590438
1780528312230843600,15.19984375,-0.7098253965377808,0.2724458873271942,-0.1685988008975982
1780528312240945000,15.20994482421875,-0.7354817390441895,0.2651155292987823,-0.197920337319374
1780528312261117000,15.230116943359375,-0.7281513810157776,0.2797762751579284,-0.1197295859456062
1780528312271187700,15.240187744140623,-0.788016140460968,0.2834414839744568,0.0378736443817615
1780528312281258500,15.250258544921875,-0.7819074988365173,0.2834414839744568,0.0549778714776039
1780528312291298800,15.260298828125,-0.7037167549133301,0.294437050819397,-0.2113593816757202
1780528312301400000,15.270400146484375,-0.6695083379745483,0.2553416788578033,-0.4581489264965057
1780528312321602800,15.290602783203123,-0.6328563690185547,0.157603234052658,-0.5717698931694031
1780528312331704000,15.3007041015625,-0.6255260109901428,0.1197295859456062,-0.4214970171451568
1780528312351906800,15.32090673828125,-0.5693264007568359,0.1698205322027206,-0.0720821022987365
1780528312362008000,15.331008056640623,-0.5522221922874451,0.1991420686244964,-0.0952949747443199
1780528312382149600,15.351149658203123,-0.5057964324951172,0.1258382350206375,-0.3225368559360504
1780528312392251100,15.361251220703124,-0.4178318381309509,0.0733038261532783,-0.4508185386657715
1780528312412423200,15.381423095703123,-0.3408628106117248,0.1905899494886398,-0.3433062732219696
1780528312422524400,15.3915244140625,-0.3005456924438476,0.2150245606899261,-0.1441642045974731
1780528312432656400,15.401656494140624,-0.2687807083129883,0.2919935882091522,-0.0232128798961639
1780528312442757600,15.411757568359375,-0.2101376503705978,0.2785545587539673,-0.0207694191485643
1780528312452889300,15.421889404296875,-0.0855211317539215,0.2089159190654754,-0.2333505302667617
1780528312463021300,15.432021240234375,-0.0085521135479211,0.1429424732923507,-0.5265658497810364
1780528312473122600,15.44212255859375,0.0146607663482427,0.1441642045974731,-0.608421802520752
1780528312483223800,15.452223876953123,0.0427605658769607,0.2492330223321914,-0.5595525503158569
1780528312493325300,15.4623251953125,0.067195177078247,0.3017674386501312,-0.3555235862731933
1780528312503457000,15.47245703125,0.1685988008975982,0.2235766798257827,-0.1331686228513717
1780528312513558300,15.482558349609375,0.2968805134296417,0.1185078546404838,-0.0623082555830478
1780528312523690200,15.492690185546875,0.3738495409488678,0.1221730485558509,-0.117286130785942
1780528312533791500,15.50279150390625,0.3982841372489929,0.2541199326515198,-0.2333505302667617
1780528312543893000,15.51289306640625,0.5326744914054871,0.3885102868080139,-0.3078760802745819
1780528312553994200,15.522994140625,0.759916365146637,0.342084527015686,-0.4972442984580993
1780528312604500700,15.573500732421875,1.0751228332519531,0.197920337319374,-0.2260201424360275
1780528312614602000,15.58360205078125,1.1850786209106443,0.1832595765590667,-0.2260201424360275
1780528312624734000,15.59373388671875,1.321912407875061,0.1551597714424133,-0.3665191531181335
1780528312715676400,15.684676513671874,1.9511035680770876,0.0378736443817615,-0.4813618063926697
1780528312796364800,15.76536474609375,1.4343116283416748,0.0378736443817615,-0.3396410644054413
1780528312877205800,15.846205810546875,0.3555235862731933,-0.117286130785942,-0.1869247704744339
1780528312887276500,15.856276611328123,0.1490511149168014,-0.0733038261532783,0.0867428630590438
1780528312897408500,15.866408447265623,0.0647517144680023,0.0244346093386411,0.2370157092809677
1780528312907509800,15.876509765625,0.0171042270958423,0.1160643994808197,0.1771509200334549
1780528312947793000,15.91679296875,-0.5534439086914062,-0.0818559452891349,0.2052507251501083
1780528312978066400,15.94706640625,-0.779464066028595,0.1453859210014343,0.0012217304902151
1780528313048653600,16.017653564453123,-1.5601497888565063,0.0378736443817615,0.0952949747443199
1780528313058724400,16.027724365234373,-1.610240817070007,0.0769690200686454,0.1319468915462494
1780528313068795100,16.037795166015623,-1.4648548364639282,0.1734857261180877,-0.0977384373545646
1780528313078866000,16.047865966796873,-1.389107584953308,0.2284636050462722,-0.4043927788734436
1780528313099038200,16.0680380859375,-1.6236798763275146,0.0073303831741213,-0.1221730485558509
1780528313119179800,16.0881796875,-1.7922786474227903,-0.2761110961437225,0.912632703781128
1780528313139321300,16.1083212890625,-1.4587461948394775,0.1209513172507286,0.7134906053543091
1780528313169595000,16.138594970703124,-1.3744467496871948,0.0,-0.351858377456665
1780528313179696000,16.148696044921873,-1.2217304706573486,-0.2235766798257827,-0.0061086523346602
1780528313189767000,16.158766845703123,-1.1215485334396362,-0.4691445231437683,0.8881980776786804
1780528313260262400,16.229262451171873,-0.6291912198066711,-0.7367035150527954,1.0580185651779177
1780528313270364000,16.239364013671874,-1.080009698867798,-0.6902777552604675,1.712866187095642
1780528313290505500,16.25950537109375,-0.8222246170043945,-0.0158824957907199,1.3060299158096311
1780528313300576300,16.269576171875,-0.3445279896259308,0.0305432621389627,0.4080579876899719
1780528313310647000,16.27964697265625,-0.067195177078247,-0.1905899494886398,-0.3164281845092773
1780528313320717800,16.2897177734375,-0.1258382350206375,-0.3323107063770294,-0.4447098970413208
1780528313330788600,16.29978857421875,-0.3665191531181335,-0.3139847218990326,-0.0109955742955207
1780528313340889900,16.309889892578123,-0.5448917746543884,-0.2296853363513946,0.3701843321323395
1780528313350960600,16.319960693359373,-0.5241223573684692,-0.1331686228513717,0.4728097021579742
1780528313371071700,16.34007177734375,-0.1783726513385772,-0.0574213340878486,0.294437050819397
1780528313381173200,16.35017333984375,0.0757472887635231,-0.0818559452891349,0.1429424732923507
1780528313391274500,16.3602744140625,0.3384193480014801,-0.0171042270958423,-0.1160643994808197
1780528313401345300,16.37034521484375,0.3579670190811157,0.0219911485910415,-0.1319468915462494
1780528313411416000,16.380416015625,0.2235766798257827,-0.0158824957907199,0.1954768747091293
1780528313421486800,16.39048681640625,0.0830776765942573,-0.0280998013913631,0.3323107063770294
1780528313431557600,16.4005576171875,-0.0109955742955207,-0.1038470938801765,0.4801400899887085
1780528313441659000,16.410658935546873,0.1514945775270462,-0.0720821022987365,0.5021312236785889
1780528313492074000,16.461073974609373,0.4447098970413208,-0.2687807083129883,0.0488692186772823
1780528313532448800,16.50144873046875,0.4667010605335235,-0.1209513172507286,0.6120869517326355
1780528313542519600,16.51151953125,0.3738495409488678,-0.0500909499824047,0.4984660446643829
1780528313552590300,16.52159033203125,0.3249803185462951,0.1038470938801765,0.3958406746387481
1780528313562661000,16.5316611328125,0.3982841372489929,0.1295034289360046,0.251676470041275
1780528313572732000,16.54173193359375,0.5302310585975647,-0.0708603709936142,0.1905899494886398
1780528313592873500,16.56187353515625,0.4825835525989532,-0.1991420686244964,0.3933972120285034
1780528313602944300,16.5719443359375,0.4056145250797272,-0.1099557429552078,0.4935791194438934
1780528313613015300,16.582015380859374,0.3481931984424591,-0.0439822971820831,0.4948008358478546
1780528313623086000,16.592086181640624,0.3481931984424591,-0.0733038261532783,0.4141666293144226
1780528313633156900,16.602156982421874,0.4899139404296875,-0.1038470938801765,0.1991420686244964
1780528313643258000,16.612258056640623,0.6963863968849182,-0.0855211317539215,-0.0305432621389627
1780528313653329000,16.622328857421873,0.8148942589759827,-0.0708603709936142,-0.0452040284872055
1780528313663399700,16.632399658203123,0.7757988572120667,-0.1123992055654525,0.1551597714424133
1780528313673501000,16.6425009765625,0.6255260109901428,-0.1734857261180877,0.3982841372489929
1780528313713784300,16.682784423828124,0.6939429044723511,-0.2553416788578033,-0.0390953756868839
1780528313723855000,16.692855224609374,0.7183775305747986,-0.2932153046131134,-0.1759291887283325
1780528313733926000,16.70292578125,0.6792821288108826,-0.2492330223321914,-0.0085521135479211
1780528313743996700,16.71299658203125,0.608421802520752,-0.2125810980796814,0.3213151097297668
1780528313754037000,16.723037109375,0.5473352670669556,-0.2199114859104156,0.5595525503158569
1780528313764138200,16.73313818359375,0.5057964324951172,-0.2357939779758453,0.5656611919403076
1780528313774209000,16.743208984375,0.4740314185619354,-0.2981022298336029,0.3933972120285034
1780528313794411800,16.763411865234374,0.2993239760398865,-0.4801400899887085,0.0525344125926494
1780528313854867000,16.823866943359373,0.4349360466003418,-0.3604104816913605,0.588874101638794
1780528313874978000,16.84397802734375,0.130725160241127,-0.5729916095733643,0.4605923891067505
1780528313905220900,16.874220947265623,0.2138028293848037,-0.452040284872055,-0.230907067656517
1780528313915261200,16.88426123046875,0.1832595765590667,-0.3921754956245422,-0.1918116807937622
1780528313935402800,16.90440283203125,0.157603234052658,-0.1466076523065567,0.0977384373545646
1780528313945504300,16.914504150390623,0.1759291887283325,-0.1747074574232101,0.0830776765942573
1780528313955575000,16.924574951171873,0.1857030391693115,-0.2138028293848037,0.0061086523346602
1780528313965615400,16.934615478515624,0.1905899494886398,-0.2015855312347412,-0.0403171069920063
1780528313975716600,16.944716552734373,0.2357939779758453,-0.1490511149168014,-0.0097738439217209
1780528313985817900,16.95481787109375,0.2907718420028686,-0.107512280344963,0.0952949747443199
1780528313995888600,16.964888671875,0.3762930035591125,-0.0855211317539215,0.304210901260376
1780528314016030200,16.9850302734375,0.3677408695220947,-0.1258382350206375,0.1844813078641891
1780528314026131700,16.995131591796873,0.3921754956245422,-0.2235766798257827,-0.0574213340878486
1780528314036233000,17.00523291015625,0.3860668241977691,-0.3005456924438476,-0.3115412890911102
1780528314046273300,17.015273193359373,0.3237585723400116,-0.3689626157283783,-0.394618958234787
1780528314056374500,17.02537451171875,0.280998021364212,-0.3677408695220947,-0.3457497358322143
1780528314066475800,17.035475830078123,0.2370157092809677,-0.280998021364212,-0.2089159190654754
1780528314076577300,17.045577392578124,0.1771509200334549,-0.1722639948129654,-0.0183259565383195
1780528314086648000,17.05564794921875,0.1380555480718612,-0.0965167060494422,0.130725160241127
1780528314096749300,17.065749267578123,0.1185078546404838,-0.0317649915814399,0.1637118905782699
1780528314116921300,17.08592138671875,0.2761110961437225,0.1001818999648094,-0.2162462919950485
1780528314127022800,17.09602294921875,0.2296853363513946,-0.0916297882795333,-0.2932153046131134
1780528314137093600,17.10609375,0.107512280344963,-0.1771509200334549,-0.0476474873721599
1780528314147164400,17.116164306640623,0.1514945775270462,-0.0561996027827262,0.0036651915870606
1780528314157235200,17.126235107421873,0.1429424732923507,-0.0085521135479211,-0.0427605658769607
1780528314167306000,17.136305908203123,0.0317649915814399,-0.0561996027827262,-0.1221730485558509
1780528314177376800,17.146376708984373,0.0329867228865623,-0.0598647929728031,-0.1771509200334549
1780528314187447600,17.156447509765623,0.0684169083833694,0.0317649915814399,-0.1795943826436996
1780528314197518300,17.166518310546873,0.0183259565383195,0.0965167060494422,-0.0879645943641662
1780528314207589000,17.176589111328123,-0.0158824957907199,0.0708603709936142,0.0280998013913631
1780528314217660000,17.186659912109373,-0.0146607663482427,0.0329867228865623,0.0574213340878486
1780528314227730700,17.196730712890623,-0.0305432621389627,0.0256563406437635,-0.0036651915870606
1780528314278176300,17.24717626953125,0.1233947798609733,-0.0842994004487991,-0.0109955742955207
1780528314318490000,17.287489990234373,0.1991420686244964,-0.0525344125926494,-0.2968805134296417
1780528314328591400,17.29759130859375,0.1698205322027206,-0.0134390350431203,-0.4141666293144226
1780528314338692600,17.307692626953123,0.1392772793769836,0.0329867228865623,-0.4447098970413208
1780528314348763400,17.317763427734373,0.1233947798609733,0.1136209368705749,-0.3384193480014801
1780528314358865000,17.327864990234374,0.0549778714776039,0.1881465017795562,-0.1637118905782699
1780528314368905000,17.337905029296873,-0.0684169083833694,0.2467895597219467,-0.0158824957907199
1780528314378976000,17.34797607421875,-0.1356120854616165,0.2834414839744568,0.058643065392971
1780528314389046800,17.358046875,-0.1099557429552078,0.3310889601707458,-0.0317649915814399
1780528314399148000,17.36814794921875,-0.0928515195846557,0.3604104816913605,-0.1612684279680252
1780528314419320000,17.388320068359373,-0.0733038261532783,0.3726277947425842,-0.2186897546052932
1780528314429421300,17.39842138671875,-0.1197295859456062,0.4019493460655212,-0.1783726513385772
1780528314439492400,17.408492431640624,-0.1258382350206375,0.4031710624694824,-0.1050688251852989
1780528314449563100,17.418563232421874,-0.1209513172507286,0.4214970171451568,-0.1160643994808197
1780528314459634000,17.428634033203124,-0.180816113948822,0.4715879559516907,-0.0855211317539215
1780528314469704700,17.43870458984375,-0.2174680233001709,0.4899139404296875,-0.0464257597923278
1780528314479775500,17.448775390625,-0.2260201424360275,0.4703662395477295,-0.0867428630590438
1780528314489846300,17.45884619140625,-0.251676470041275,0.4312708675861358,-0.1588249653577804
1780528314499917000,17.4689169921875,-0.2761110961437225,0.3872885704040527,-0.2272418737411499
1780528314520089000,17.489089111328123,-0.4349360466003418,0.2932153046131134,-0.2919935882091522
1780528314530190600,17.499190673828124,-0.5143485069274902,0.2590068578720093,-0.2822197377681732
1780528314540291800,17.509291748046873,-0.5778785347938538,0.2272418737411499,-0.2577851414680481
1780528314550362600,17.519362548828123,-0.5803219676017761,0.1991420686244964,-0.2822197377681732
1780528314560464000,17.5294638671875,-0.5497786998748779,0.1869247704744339,-0.371406078338623
1780528314570565000,17.539565185546873,-0.5632177591323853,0.1795943826436996,-0.4105014503002167
1780528314580636000,17.549635986328123,-0.598647952079773,0.197920337319374,-0.3579670190811157
1780528314590707000,17.55970703125,-0.6707300543785095,0.2113593816757202,-0.2687807083129883
1780528314600808200,17.56980810546875,-0.7513642311096191,0.1930334120988845,-0.1123992055654525
1780528314610879000,17.57987890625,-0.7513642311096191,0.1893682330846786,0.0073303831741213
1780528314620980200,17.589980224609373,-0.6963863968849182,0.2076941877603531,0.0048869219608604
1780528314631081500,17.60008154296875,-0.6438519954681396,0.221133217215538,-0.0488692186772823
1780528314641183000,17.610182861328123,-0.5522221922874451,0.2504547536373138,-0.0965167060494422
1780528314651253800,17.620253662109373,-0.4960225820541382,0.2932153046131134,-0.1319468915462494
1780528314661355000,17.63035498046875,-0.5448917746543884,0.3310889601707458,-0.0720821022987365
1780528314671456300,17.640456298828123,-0.5766568183898926,0.3188716471195221,0.0036651915870606
1780528314681557800,17.650557861328124,-0.4996877610683441,0.3176499307155609,-0.1038470938801765
1780528314691628500,17.660628662109374,-0.4227187633514404,0.2871066629886627,-0.2504547536373138
1780528314701729800,17.670729736328123,-0.3604104816913605,0.2492330223321914,-0.3029891550540924
1780528314711831000,17.6808310546875,-0.3445279896259308,0.1905899494886398,-0.3555235862731933
1780528314721932500,17.6909326171875,-0.3872885704040527,0.1551597714424133,-0.3262020349502563
1780528314732033800,17.70103369140625,-0.4300491213798523,0.1661553531885147,-0.3017674386501312
1780528314742104600,17.7111044921875,-0.4984660446643829,0.1722639948129654,-0.2577851414680481
1780528314752175400,17.72117529296875,-0.5607742667198181,0.1783726513385772,-0.2089159190654754
1780528314762276600,17.731276611328123,-0.5766568183898926,0.2186897546052932,-0.147829383611679
1780528314772377900,17.7413779296875,-0.6096435189247131,0.2345722615718841,-0.1270599663257599
1780528314782479400,17.751479248046873,-0.6695083379745483,0.2504547536373138,-0.1209513172507286
1780528314792580600,17.76158056640625,-0.7122688889503479,0.2357939779758453,-0.1246165111660957
1780528314802681900,17.771681884765623,-0.7122688889503479,0.2504547536373138,-0.1832595765590667
1780528314822854100,17.791854248046874,-0.7953465580940247,0.2602286040782928,-0.261450320482254
1780528314832925000,17.801925048828124,-0.8319984674453735,0.2492330223321914,-0.1783726513385772
1780528314873269000,17.84226904296875,-0.6817256212234497,0.3836233615875244,-0.058643065392971
1780528314883339800,17.85233984375,-0.6939429044723511,0.4178318381309509,0.0293215326964855
1780528314893441300,17.862441162109373,-0.6633996367454529,0.4129449129104614,-0.0708603709936142
1780528314913613300,17.88261328125,-0.5913175344467163,0.3310889601707458,-0.4373795092105865
1780528314933846500,17.902846435546873,-0.4300491213798523,0.2553416788578033,-0.4141666293144226
1780528314943978200,17.912978271484373,-0.3933972120285034,0.1893682330846786,-0.1783726513385772
1780528314954079700,17.923079833984374,-0.4214970171451568,0.1918116807937622,0.0733038261532783
1780528314964181000,17.933180908203123,-0.4251621961593628,0.2528982162475586,0.1001818999648094
1780528314974282200,17.9432822265625,-0.3579670190811157,0.2932153046131134,-0.0757472887635231
1780528314994515500,17.963515380859373,-0.0794124826788902,0.1771509200334549,-0.4300491213798523
1780528315004616700,17.97361669921875,-0.0696386396884918,0.1123992055654525,-0.3188716471195221
1780528315024819500,17.9938193359375,-0.0696386396884918,0.2260201424360275,-0.0158824957907199
1780528315034920700,18.003920654296873,-0.0256563406437635,0.2455678284168243,-0.1795943826436996
1780528315055092700,18.0240927734375,0.2052507251501083,-0.0171042270958423,-0.7183775305747986
1780528315065194200,18.0341943359375,0.3323107063770294,-0.1050688251852989,-0.779464066028595
1780528315075295500,18.04429541015625,0.4007275998592376,-0.0452040284872055,-0.6426302194595337
1780528315085396700,18.054396728515623,0.3530801236629486,0.1038470938801765,-0.2284636050462722
1780528315095498000,18.064498046875,0.3897320330142975,0.2651155292987823,0.1453859210014343
1780528315105599500,18.074599609375,0.513126790523529,0.3995058834552765,0.0757472887635231
1780528315125802000,18.094802001953123,0.588874101638794,0.3286454975605011,-0.4667010605335235
1780528315135903500,18.104903564453124,0.626747727394104,0.2565633952617645,-0.6291912198066711
1780528315196541700,18.165541748046877,1.3170254230499268,0.8539896011352539,0.2113593816757202
1780528315236947000,18.205947021484373,1.9449949264526367,1.3365731239318848,-0.2797762751579284
1780528315297555000,18.266554931640623,2.094046115875244,1.0128145217895508,-0.2541199326515198
1780528315307656200,18.27665625,1.9804251194000244,0.9358455538749696,-0.0134390350431203
1780528315317757700,18.2867578125,1.7617353200912476,0.7757988572120667,0.3225368559360504
1780528315327859000,18.29685888671875,1.567480206489563,0.50335294008255,0.5180137157440186
1780528315348031000,18.317031005859373,1.428202986717224,0.2761110961437225,0.3298672437667846
1780528315368172500,18.337172607421877,1.1227703094482422,-0.1197295859456062,-0.3933972120285034
1780528315388375300,18.357375244140623,0.9260717034339904,-0.3824016451835632,-0.3872885704040527
1780528315398476500,18.3674765625,0.8063421249389648,-0.3860668241977691,-0.3335324227809906
1780528315408547300,18.37754736328125,0.5619960427284241,-0.3494149148464203,-0.2577851414680481
1780528315469033200,18.438033203125,-0.3628539443016052,-0.1368338167667389,0.0390953756868839
1780528315549721600,18.5187216796875,-0.8930850028991699,0.0745255574584007,0.1368338167667389
1780528315600136700,18.56913671875,-1.635897159576416,-0.7391469478607178,0.2553416788578033
1780528315630349000,18.59934912109375,-1.510058879852295,-0.442266434431076,-0.0464257597923278
1780528315640450600,18.609450439453123,-1.5234979391098022,-0.5412266254425049,0.051312681287527
1780528315650582300,18.619582275390623,-1.588249683380127,-0.7183775305747986,0.3701843321323395
1780528315660653000,18.629653076171877,-1.703092336654663,-0.8662069439888,0.7916813492774963
1780528315670723800,18.639723876953123,-1.7971655130386353,-0.9480628371238708,1.1068878173828125
1780528315680825300,18.649825439453124,-1.7470746040344238,-0.8637634515762329,0.9932668805122375
1780528315690896100,18.65989624023437,-1.577254056930542,-0.5668829679489136,0.4984660446643829
1780528315711068200,18.680068115234373,-1.1679743528366089,-0.2590068578720093,-0.3139847218990326
1780528315721139000,18.690138916015623,-1.056796908378601,-0.3506366610527038,-0.171042263507843
1780528315731240200,18.700240234375,-1.0115928649902344,-0.4960225820541382,0.294437050819397
1780528315741341700,18.710341796875,-1.086118459701538,-0.5876523852348328,0.8857545852661133
1780528315751473400,18.720473388671877,-1.23394775390625,-0.5290092825889587,1.3524556159973145
1780528315761544200,18.730544189453123,-1.3573426008224487,-0.3115412890911102,1.4660766124725342
1780528315771645400,18.7406455078125,-1.361007809638977,-0.0390953756868839,1.1887437105178833
1780528315781716500,18.75071655273437,-1.1801916360855105,0.0965167060494422,0.7244861721992493
1780528315791817700,18.760817626953123,-0.901637077331543,0.0452040284872055,0.2724458873271942
1780528315832131300,18.80113134765625,-0.9285151958465576,0.0085521135479211,1.4025466442108154
1780528315892617200,18.8616171875,-0.2822197377681732,-0.2015855312347412,-0.7831292152404785
1780528315902688000,18.87168798828125,-0.2504547536373138,-0.2907718420028686,-0.513126790523529
1780528315912728300,18.881728271484373,-0.2981022298336029,-0.4080579876899719,-0.1527163088321685
1780528315922799000,18.891799072265623,-0.4129449129104614,-0.5534439086914062,0.4202753007411957
1780528315932870000,18.901869873046877,-0.2907718420028686,-0.5082398653030396,0.9737191796302797
1780528315942940700,18.911940673828123,-0.0268780700862407,-0.3200933933258056,1.0983357429504397
1780528315953011500,18.922011474609373,0.1050688251852989,-0.1954768747091293,0.8588765263557434
1780528315963021300,18.932021240234373,0.1954768747091293,-0.1600466966629028,0.4862487316131592
1780528315973122600,18.94212255859375,0.3701843321323395,-0.1221730485558509,-0.1771509200334549
1780528315983223800,18.952223876953123,0.5632177591323853,-0.130725160241127,-0.7000515460968018
1780528315993325300,18.9623251953125,0.7538077235221863,-0.147829383611679,-0.7843509912490845
1780528316003335000,18.9723349609375,0.7293730974197388,-0.1820378452539444,-0.4679227769374847
1780528316013467000,18.982466796875,0.4972442984580993,-0.3811798989772796,0.4605923891067505
1780528316043679200,19.01267919921875,0.107512280344963,0.1111774742603302,1.3292428255081177
1780528316053811200,19.022811279296874,0.3567453026771545,0.2736676335334778,0.6145304441452026
1780528316104195600,19.073195556640623,0.1148426681756973,-0.6010913848876953,0.5815436840057373
1780528316114266400,19.083266357421877,0.1246165111660957,-0.2076941877603531,1.017701506614685
1780528316124306700,19.093306640625,0.3029891550540924,0.0757472887635231,0.9651671051979064
1780528316134408000,19.103407958984373,0.5754350423812866,0.1001818999648094,0.4349360466003418
1780528316144478700,19.113478759765623,0.7904596328735352,-0.1685988008975982,-0.2370157092809677
1780528316154549500,19.123549560546877,0.7623597979545593,-0.3982841372489929,-0.6120869517326355
1780528316164620300,19.133620361328123,0.5632177591323853,-0.2956587672233581,-0.4447098970413208
1780528316174691300,19.14369140625,0.4605923891067505,0.0720821022987365,0.1197295859456062
1780528316184792600,19.15379248046875,0.5485569834709167,0.4886921942234039,0.6914994716644287
1780528316194893800,19.163893798828123,0.6633996367454529,0.6866125464439392,0.9932668805122375
1780528316204964600,19.173964599609373,0.6805039048194885,0.6157521605491638,0.979827880859375
1780528316215035400,19.184035400390623,0.5913175344467163,0.1490511149168014,0.4117231667041778
1780528316225075700,19.19407568359375,0.6963863968849182,0.1062905490398407,-0.0244346093386411
1780528316255349200,19.22434936523437,0.9004153609275818,0.3359758853912353,0.6866125464439392
1780528316325906000,19.29490600585937,0.7513642311096191,-0.3909537494182586,-0.4691445231437683
1780528316336007200,19.305007080078123,0.6585127115249634,-0.4740314185619354,-0.2015855312347412
1780528316406655200,19.3756552734375,0.5754350423812866,-0.769690215587616,-0.2333505302667617
1780528316436867800,19.405867919921874,0.442266434431076,-0.7672467231750488,0.3298672437667846
1780528316446938600,19.415938720703124,0.4129449129104614,-0.6487388610839844,0.2150245606899261
1780528316457009400,19.42600952148437,0.4398229718208313,-0.5351179838180542,0.0537561401724815
1780528316497323000,19.466322998046877,0.2834414839744568,-0.442266434431076,0.0940732508897781
1780528316507424300,19.47642431640625,0.2125810980796814,-0.3323107063770294,0.0830776765942573
1780528316517495000,19.4864951171875,0.1795943826436996,-0.2675589919090271,0.1441642045974731
1780528316567910100,19.53691015625,0.3665191531181335,-0.2003637999296188,0.1759291887283325
1780528316577981000,19.54698095703125,0.3359758853912353,-0.2101376503705978,0.0415388382971286
1780528316588082400,19.55708251953125,0.2895501255989074,-0.2724458873271942,-0.0659734457731247
1780528316598183700,19.56718359375,0.2834414839744568,-0.3164281845092773,-0.1258382350206375
1780528316608254500,19.57725439453125,0.2773328125476837,-0.2932153046131134,-0.1624901592731475
1780528316618355700,19.587355712890623,0.2321287989616394,-0.2150245606899261,-0.147829383611679
1780528316648568000,19.617568115234373,0.1466076523065567,-0.1123992055654525,0.090408056974411
1780528316658669600,19.62766967773437,0.1453859210014343,-0.0598647929728031,0.0452040284872055
1780528316668740400,19.637740234375,0.1429424732923507,-0.0232128798961639,-0.0610865242779254
1780528316678811100,19.64781103515625,0.147829383611679,-0.0268780700862407,-0.1282816976308822
1780528316699013600,19.668013671875,0.1062905490398407,-0.0733038261532783,-0.1905899494886398
1780528316709084400,19.67808447265625,0.0684169083833694,-0.0965167060494422,-0.2333505302667617
1780528316769570300,19.7385703125,0.0684169083833694,-0.0036651915870606,-0.1844813078641891
1780528316820015900,19.789015869140623,-0.0366519130766391,-0.0403171069920063,-0.2761110961437225
1780528316830086700,19.799086669921877,-0.0329867228865623,-0.051312681287527,-0.2504547536373138
1780528316840157400,19.809157470703123,-0.0171042270958423,-0.0952949747443199,-0.280998021364212
1780528316870400500,19.839400390625,0.0,0.0293215326964855,-0.1062905490398407
1780528316880471300,19.84947119140625,0.0366519130766391,0.0598647929728031,-0.0097738439217209
1780528316890572500,19.859572509765623,0.0549778714776039,0.0830776765942573,-0.0158824957907199
1780528316900643300,19.869643310546877,0.0745255574584007,0.0818559452891349,-0.0757472887635231
1780528316910744600,19.87974462890625,0.1099557429552078,0.0867428630590438,-0.1734857261180877
1780528316920846000,19.88984619140625,0.1258382350206375,0.0733038261532783,-0.2199114859104156
1780528316930916900,19.899916748046877,0.1099557429552078,0.0635299831628799,-0.2590068578720093
1780528316941018000,19.91001806640625,0.0867428630590438,0.1111774742603302,-0.2590068578720093
1780528316961220900,19.930220947265624,0.0720821022987365,0.1661553531885147,-0.294437050819397
1780528316971322000,19.940322021484373,0.0574213340878486,0.2761110961437225,-0.3689626157283783
1780528317021676000,19.990676025390623,0.0794124826788902,0.5009095072746277,-0.0684169083833694
1780528317031777300,20.00077734375,0.0500909499824047,0.455705463886261,-0.0891863256692886
1780528317041878800,20.010878662109373,0.0403171069920063,0.4129449129104614,-0.1771509200334549
1780528317051888400,20.020888427734373,0.0794124826788902,0.3836233615875244,-0.304210901260376
1780528317072030000,20.041030029296877,0.1111774742603302,0.3469714522361755,-0.4043927788734436
1780528317102242600,20.07124267578125,-0.0158824957907199,0.3445279896259308,-0.3237585723400116
1780528317142617300,20.111617431640624,-0.051312681287527,0.3689626157283783,-0.1930334120988845
1780528317152688000,20.121688232421874,-0.0879645943641662,0.36529740691185,-0.1123992055654525
1780528317162759000,20.131759033203124,-0.1233947798609733,0.3469714522361755,-0.0293215326964855
1780528317172860200,20.141860107421877,-0.1649336218833923,0.3286454975605011,-0.0232128798961639
1780528317182931000,20.151930908203123,-0.2162462919950485,0.3005456924438476,-0.0806342139840126
1780528317193032200,20.1620322265625,-0.2504547536373138,0.2626720666885376,-0.1368338167667389
1780528317203072500,20.172072509765623,-0.280998021364212,0.1942551434040069,-0.1612684279680252
1780528317213143300,20.182143310546877,-0.3298672437667846,0.1649336218833923,-0.1233947798609733
1780528317223244800,20.192244873046874,-0.3579670190811157,0.1954768747091293,-0.0842994004487991
1780528317233346000,20.202345947265623,-0.3591887652873993,0.2199114859104156,-0.0940732508897781
1780528317243416800,20.212416748046877,-0.3885102868080139,0.2272418737411499,-0.1380555480718612
1780528317253518000,20.22251806640625,-0.4471533596515655,0.2333505302667617,-0.2199114859104156
1780528317263588900,20.2325888671875,-0.5204572081565857,0.2113593816757202,-0.3115412890911102
1780528317273659600,20.24265966796875,-0.618195652961731,0.1771509200334549,-0.3359758853912353
1780528317283761200,20.25276123046875,-0.6988298296928406,0.1832595765590667,-0.3237585723400116
1780528317293832000,20.26283203125,-0.7733554244041443,0.2040289938449859,-0.2455678284168243
1780528317303933200,20.27293310546875,-0.8417723178863525,0.2174680233001709,-0.0684169083833694
1780528317314034400,20.283034423828123,-0.8552113175392151,0.2406809031963348,0.0940732508897781
1780528317324135700,20.2931357421875,-0.8381071090698242,0.2272418737411499,0.1233947798609733
1780528317334206500,20.30320654296875,-0.8503243923187256,0.2223549485206604,0.0696386396884918
1780528317344277500,20.313277587890624,-0.8833111524581909,0.1991420686244964,0.0195476878434419
1780528317354348300,20.323348388671874,-0.9395107626914978,0.1331686228513717,0.0036651915870606
1780528317435219700,20.4042197265625,-1.027475357055664,0.1429424732923507,-0.0806342139840126
1780528317495858200,20.464858154296877,-0.93095862865448,0.0207694191485643,-0.598647952079773
1780528317536263400,20.505263427734373,-0.7086036801338196,0.1148426681756973,-0.1062905490398407
1780528317546364700,20.51536474609375,-0.6621779203414917,0.1820378452539444,-0.304210901260376
1780528317556496600,20.52549658203125,-0.4593706727027893,0.1160643994808197,-0.7342600226402283
1780528317566598000,20.535597900390623,-0.3836233615875244,-0.0305432621389627,-0.8038986921310425
1780528317576699100,20.54569921875,-0.3775147199630737,-0.0867428630590438,-0.7440338730812073
1780528317586800600,20.555800537109373,-0.4214970171451568,-0.0134390350431203,-0.5229006409645081
1780528317596932400,20.565932373046877,-0.4239404797554016,0.1588249653577804,-0.2638937830924988
1780528317607033900,20.576033935546874,-0.3396410644054413,0.3237585723400116,-0.1197295859456062
1780528317617135000,20.586135009765623,-0.2284636050462722,0.3762930035591125,-0.1820378452539444
1780528317627236400,20.596236328125,-0.1417207419872284,0.2797762751579284,-0.3310889601707458
1780528317667672000,20.636672119140623,0.0048869219608604,0.4117231667041778,-0.5057964324951172
1780528317677773600,20.646773681640624,0.0561996027827262,0.5155702829360962,-0.2553416788578033
1780528317708108000,20.67710791015625,0.3262020349502563,0.4300491213798523,-0.4019493460655212
1780528317728310500,20.697310546875,0.5619960427284241,0.3628539443016052,-0.5400048494338989
1780528317748513300,20.71751318359375,0.6731734871864319,0.3738495409488678,-0.1954768747091293
1780528317758614500,20.727614501953123,0.8063421249389648,0.3323107063770294,-0.1527163088321685
1780528317768746500,20.73774658203125,0.9187413454055786,0.2052507251501083,-0.1881465017795562
1780528317778847700,20.74784765625,1.0580185651779177,0.1637118905782699,-0.2675589919090271
1780528317789010200,20.75801025390625,1.19607412815094,0.1930334120988845,-0.371406078338623
1780528317799111400,20.768111328125,1.2962560653686523,0.1160643994808197,-0.3188716471195221
1780528317809212700,20.778212646484373,1.4049900770187378,-0.0232128798961639,-0.1539380401372909
1780528317819314000,20.78831396484375,1.447750687599182,-0.0952949747443199,0.0928515195846557
1780528317829415400,20.79841552734375,1.4880677461624146,0.0378736443817615,0.2431243658065796
1780528317839516700,20.8085166015625,1.5845844745635986,0.2199114859104156,0.2199114859104156
1780528317849648400,20.8186484375,1.7348573207855225,0.3481931984424591,0.0623082555830478
1780528317859750000,20.82875,1.847256541252136,0.3188716471195221,-0.0855211317539215
1780528317869851100,20.83885107421875,1.910786509513855,0.1685988008975982,-0.2541199326515198
1780528317930520000,20.89952001953125,1.9083430767059328,-0.067195177078247,-0.1966986060142517
1780528317940621300,20.909621337890623,1.7861700057983398,0.0439822971820831,-0.0073303831741213
1780528317970864400,20.939864501953124,1.8643606901168823,-0.0696386396884918,-0.6939429044723511
1780528318011117000,20.980116943359373,0.96883225440979,-0.171042263507843,0.0965167060494422
1780528318091775000,21.06077490234375,-0.1123992055654525,0.1453859210014343,-0.2064724564552307
1780528318162270500,21.1312705078125,-0.8796459436416626,0.0635299831628799,-0.0879645943641662
1780528318172372000,21.1413720703125,-0.978606104850769,-0.0244346093386411,-0.130725160241127
1780528318182473200,21.15147314453125,-1.1936306953430176,-0.1050688251852989,-0.0598647929728031
1780528318192513500,21.161513427734373,-1.4147639274597168,-0.1600466966629028,0.1270599663257599
1780528318202553900,21.171553955078124,-1.568701982498169,-0.2028072625398636,0.2895501255989074
1780528318212655000,21.181655029296877,-1.5821410417556765,-0.2003637999296188,0.2785545587539673
1780528318242898000,21.21189794921875,-1.5613715648651123,-0.4948008358478546,-0.2956587672233581
1780528318252999400,21.22199951171875,-1.7140878438949585,-0.66584312915802,-0.1600466966629028
1780528318263070200,21.2320703125,-1.7348573207855225,-0.5852088928222656,0.0293215326964855
1780528318273141000,21.24214111328125,-1.7238616943359375,-0.3787364661693573,0.1795943826436996
1780528318283181300,21.25218139648437,-1.7996090650558472,-0.2724458873271942,0.5082398653030396
1780528318293282600,21.262282470703123,-1.6945401430130005,-0.2822197377681732,0.7269296646118164
1780528318303383800,21.2723837890625,-1.5454890727996826,-0.3506366610527038,0.5351179838180542
1780528318313454600,21.28245458984375,-1.590693116188049,-0.3762930035591125,0.3726277947425842
1780528318323495000,21.292494873046877,-1.745852828025818,-0.3726277947425842,0.4007275998592376
1780528318333596200,21.30259619140625,-1.920560359954834,-0.342084527015686,0.7574729323387146
1780528318353707300,21.322707275390623,-1.9425514936447144,-0.167377084493637,1.5845844745635986
1780528318363778000,21.332778076171877,-1.7214182615280151,-0.2101376503705978,1.4501941204071045
1780528318373848800,21.342848876953123,-1.4269812107086182,-0.3005456924438476,0.7843509912490845
1780528318383889200,21.35288916015625,-1.1154398918151855,-0.4899139404296875,-0.0219911485910415
1780528318393960000,21.3629599609375,-1.10444438457489,-0.675616979598999,-0.3433062732219696
1780528318404061400,21.3730615234375,-1.10444438457489,-0.675616979598999,-0.3433062732219696
1780528318414132200,21.38313232421875,-1.3671164512634275,-0.5766568183898926,0.8197811841964722
1780528318424203000,21.393203125,-1.23394775390625,-0.4776966273784637,0.7782423496246338
1780528318434273800,21.403273681640623,-1.0238101482391355,-0.3335324227809906,0.2089159190654754
1780528318444344600,21.413344482421877,-0.5852088928222656,-0.1771509200334549,-0.4911356568336487
1780528318474587400,21.44358740234375,-0.3555235862731933,-0.5351179838180542,-0.1661553531885147
1780528318524880400,21.49388037109375,0.2150245606899261,0.2223549485206604,-0.911410927772522
1780528318585458000,21.5544580078125,-0.0696386396884918,0.2663372457027435,0.7195992469787598
1780528318645821700,21.61482177734375,0.4031710624694824,-0.0574213340878486,-0.2577851414680481
1780528318676034000,21.645033935546877,0.098960168659687,0.0207694191485643,0.8051204085350037
1780528318716286700,21.68528662109375,0.9370672702789308,-0.0232128798961639,-0.2675589919090271
1780528318726327000,21.6953271484375,1.0335839986801147,-0.0232128798961639,-0.2700024247169494
1780528318776650500,21.745650390625,0.6145304441452026,-0.1062905490398407,0.598647952079773
1780528318786690800,21.75569091796875,0.6817256212234497,-0.261450320482254,0.1527163088321685
1780528318806862800,21.77586279296875,0.7061602473258972,-0.1966986060142517,-0.0427605658769607
1780528318816964000,21.785964111328123,0.636521577835083,-0.2321287989616394,0.2247984111309051
1780528318827035000,21.796034912109373,0.5913175344467163,-0.2345722615718841,0.4776966273784637
1780528318837136400,21.80613647460937,0.5693264007568359,-0.271224170923233,0.6340781450271606
1780528318847207200,21.816207275390624,0.5900958180427551,-0.3176499307155609,0.6609562039375305
1780528318857308400,21.826308349609373,0.608421802520752,-0.2553416788578033,0.5290092825889587
1780528318867409700,21.83640966796875,0.6352998614311218,-0.2150245606899261,0.4825835525989532
1780528318877511000,21.846510986328123,0.6475171446800232,-0.2834414839744568,0.4948008358478546
1780528318887551200,21.85655126953125,0.5729916095733643,-0.4202753007411957,0.5265658497810364
1780528318917824800,21.88682470703125,0.4581489264965057,-0.304210901260376,0.7623597979545593
1780528318927926000,21.896926025390623,0.5681046843528748,-0.2773328125476837,0.8295549750328064
1780528318938027300,21.90702734375,0.5913175344467163,-0.2919935882091522,0.7550294399261475
1780528318958169000,21.927169189453124,0.4129449129104614,-0.3298672437667846,0.4007275998592376
1780528318968270300,21.937270263671877,0.4214970171451568,-0.351858377456665,0.0757472887635231
1780528318988442400,21.9574423828125,0.3604104816913605,-0.5167919993400574,-0.3005456924438476
1780528318998544000,21.9675439453125,0.3494149148464203,-0.5253441333770752,-0.2394591718912124
1780528319018746400,21.987746337890623,0.4447098970413208,-0.3591887652873993,0.090408056974411
1780528319028847600,21.99784765625,0.504574716091156,-0.3005456924438476,0.1661553531885147
1780528319129616600,22.09861669921875,0.2492330223321914,-0.3579670190811157,0.1918116807937622
1780528319139687400,22.1086875,0.2761110961437225,-0.3677408695220947,0.0757472887635231
1780528319159890200,22.12889013671875,0.2150245606899261,-0.1649336218833923,0.0610865242779254
1780528319169991400,22.138991455078123,0.1844813078641891,-0.1050688251852989,0.2932153046131134
1780528319240456700,22.20945678710937,0.3090978264808655,-0.1734857261180877,-0.1197295859456062
1780528319260628700,22.229628662109373,0.2651155292987823,-0.1026253625750541,0.058643065392971
1780528319270730000,22.23972998046875,0.2883284091949463,-0.0940732508897781,0.0623082555830478
1780528319280770300,22.249770263671877,0.2773328125476837,-0.0842994004487991,0.0024434609804302
1780528319290841000,22.259841064453123,0.2602286040782928,-0.051312681287527,-0.067195177078247
1780528319300942300,22.2699423828125,0.2553416788578033,-0.0476474873721599,-0.0659734457731247
1780528319361306000,22.33030615234375,0.1649336218833923,-0.0012217304902151,-0.2871066629886627
1780528319371407600,22.34040771484375,0.1343903541564941,0.0158824957907199,-0.3445279896259308
1780528319381508900,22.3505087890625,0.117286130785942,-0.0085521135479211,-0.3213151097297668
1780528319391579600,22.36057958984375,0.0830776765942573,-0.0122173046693205,-0.2883284091949463
1780528319401620000,22.370619873046877,0.0378736443817615,0.0061086523346602,-0.2064724564552307
1780528319411721200,22.38072119140625,0.0268780700862407,0.0525344125926494,-0.117286130785942
1780528319462075100,22.4310751953125,0.0610865242779254,0.0879645943641662,-0.2223549485206604
1780528319502358500,22.471358642578124,0.0806342139840126,0.098960168659687,-0.1514945775270462
1780528319512459800,22.481459716796877,0.0684169083833694,0.1160643994808197,-0.2602286040782928
1780528319522530600,22.491530517578123,0.0965167060494422,0.1026253625750541,-0.3530801236629486
1780528319532601300,22.501601318359373,0.090408056974411,0.0806342139840126,-0.3640756905078888
1780528319542672100,22.511672119140623,0.0427605658769607,0.1368338167667389,-0.2895501255989074
1780528319552773400,22.5217734375,-0.0036651915870606,0.2150245606899261,-0.1539380401372909
1780528319562844200,22.53184423828125,-0.0439822971820831,0.2724458873271942,-0.0097738439217209
1780528319583016400,22.552016357421877,-0.0928515195846557,0.3371976017951965,0.0818559452891349
1780528319593117700,22.56211767578125,-0.0879645943641662,0.3665191531181335,-0.0036651915870606
1780528319603188500,22.5721884765625,-0.1368338167667389,0.3665191531181335,-0.1453859210014343
1780528319613289700,22.582289794921877,-0.197920337319374,0.3787364661693573,-0.2431243658065796
1780528319623360500,22.592360595703123,-0.1966986060142517,0.361632227897644,-0.2528982162475586
1780528319633462000,22.6024619140625,-0.1930334120988845,0.3310889601707458,-0.1722639948129654
1780528319643532800,22.61253271484375,-0.2138028293848037,0.361632227897644,-0.0268780700862407
1780528319653634000,22.622634033203123,-0.1857030391693115,0.4679227769374847,0.067195177078247
1780528319734383600,22.703383544921877,-0.4190535545349121,0.2590068578720093,-0.0916297882795333
1780528319744454400,22.713454345703123,-0.4337143301963806,0.2382374405860901,-0.1563815027475357
1780528319754525200,22.723525146484373,-0.4373795092105865,0.2260201424360275,-0.2492330223321914
1780528319784676600,22.753676513671877,-0.3860668241977691,0.2797762751579284,0.0244346093386411
1780528319845315000,22.814315185546874,-0.7195992469787598,0.1001818999648094,-0.2883284091949463
1780528319855416300,22.824416259765623,-0.8087855577468872,0.1233947798609733,-0.2932153046131134
1780528319865517600,22.834517578125,-0.9199630618095398,0.1453859210014343,-0.0219911485910415
1780528319875618800,22.844618896484373,-0.9749409556388856,0.2553416788578033,0.1148426681756973
1780528319885750800,22.854750732421877,-1.009149432182312,0.4007275998592376,0.1954768747091293
1780528319895852000,22.86485205078125,-0.996932089328766,0.4459316432476043,0.147829383611679
1780528319905953500,22.87495361328125,-0.95783668756485,0.3701843321323395,-0.0708603709936142
1780528319926125600,22.89512548828125,-0.9431759119033812,0.2015855312347412,-0.3127630054950714
1780528319966561300,22.935561279296877,-0.8833111524581909,0.2235766798257827,-0.0659734457731247
1780528319986764000,22.955763916015623,-0.7709119319915771,0.0598647929728031,-0.4080579876899719
1780528319996865300,22.965865234375,-0.7391469478607178,0.1148426681756973,-0.4764748811721802
1780528320006966500,22.975966552734373,-0.6890559792518616,0.1539380401372909,-0.4581489264965057
1780528320017068000,22.98606811523437,-0.6377432942390442,0.1857030391693115,-0.4202753007411957
1780528320027169300,22.996169189453123,-0.6450737118721008,0.2247984111309051,-0.3139847218990326
1780528320037270500,23.0062705078125,-0.6328563690185547,0.2602286040782928,-0.2040289938449859
1780528320047371800,23.016371826171877,-0.5937610268592834,0.2590068578720093,-0.1209513172507286
1780528320067605000,23.03660498046875,-0.4838052690029144,0.2406809031963348,-0.0842994004487991
1780528320077706200,23.046706298828123,-0.4459316432476043,0.1991420686244964,-0.1099557429552078
1780528320087807700,23.056807861328124,-0.4288274049758911,0.2064724564552307,-0.1502728462219238
1780528320097909000,23.066908935546877,-0.4153883755207062,0.3200933933258056,-0.1795943826436996
1780528320108010200,23.07701025390625,-0.361632227897644,0.3995058834552765,-0.1258382350206375
1780528320118111700,23.08711181640625,-0.3115412890911102,0.3555235862731933,-0.0574213340878486
1780528320128243500,23.097243408203123,-0.2919935882091522,0.2700024247169494,0.0476474873721599
1780528320138344700,23.1073447265625,-0.3176499307155609,0.2736676335334778,0.0879645943641662
1780528320168679200,23.13767919921875,-0.2345722615718841,0.475253164768219,0.0647517144680023
1780528320229317600,23.198317626953123,0.2101376503705978,0.5583308339118958,0.0452040284872055
1780528320239449600,23.20844970703125,0.3481931984424591,0.5253441333770752,-0.0696386396884918
1780528320249489700,23.21848974609375,0.4447098970413208,0.5412266254425049,-0.2895501255989074
1780528320259591200,23.228591064453123,0.4911356568336487,0.5583308339118958,-0.3567453026771545
1780528320269692400,23.2386923828125,0.6389650702476501,0.5485569834709167,-0.3836233615875244
1780528320279793700,23.248793701171877,0.8283332586288452,0.5070181488990784,-0.5277875661849976
1780528320289895200,23.258895263671874,0.9187413454055786,0.4373795092105865,-0.6035348773002625
1780528320299996400,23.268996337890623,0.9944885969161988,0.3689626157283783,-0.442266434431076
1780528320310097700,23.27909765625,1.0983357429504397,0.2846632003784179,-0.2993239760398865
1780528320320138000,23.289137939453123,1.1496484279632568,0.2883284091949463,-0.167377084493637
1780528320330208800,23.299208740234373,1.2718214988708496,0.3225368559360504,-0.058643065392971
1780528320340310000,23.30931005859375,1.4575244188308716,0.3481931984424591,-0.1185078546404838
1780528320350380800,23.319380859375,1.5222761631011963,0.3054326176643371,-0.117286130785942
1780528320430977800,23.399977783203123,1.8179349899291992,0.0842994004487991,-0.7061602473258972
1780528320441018000,23.41001806640625,1.7983872890472412,0.1698205322027206,-0.4508185386657715
1780528320451119400,23.420119384765623,1.835039138793945,0.147829383611679,-0.2602286040782928
1780528320491402800,23.46040283203125,1.4147639274597168,0.0378736443817615,-0.1857030391693115
1780528320501473500,23.4704736328125,1.441641926765442,0.1356120854616165,-0.3775147199630737
