Time (s),Acc_X,Acc_Y,Acc_Z,Gyro_X,Gyro_Y,Gyro_Z,activity_label
5.128270833,-0.826431427,9.70821167,-0.845741272,0.01821501553,-8.94065015e-05,-0.01793093234,5
5.148313333,-0.8602610779,9.685458984,-0.9848020935,0.02448575571,-0.01816914231,-0.01664327644,5
5.168355333,-0.8562194824,9.698930969,-0.9125024414,0.02873255685,-0.03728464991,-0.00864443928,5
5.188397333,-0.8207432556,9.725425873,-0.8271798706,0.02330834605,-0.03454883397,-0.006588661112,5
5.208440333,-0.8321195984,9.764644318,-0.8262817383,0.01795100607,-0.02400897071,-0.01203246228,5
5.228482333,-0.8378077698,9.70940918,-0.8535250854,0.01500852406,-0.002717871685,-0.02202322707,5
5.248524333,-0.79215271,9.697733459,-0.9069639587,0.01242944598,0.01706157811,-0.02347675338,5
5.268566333,-0.7918533325,9.745783539,-0.9265731812,0.02183179185,0.02014083415,-0.01553197298,5
5.288609333,-0.8535250854,9.712253265,-0.8893006897,0.03115324676,0.007930101827,-0.01118246466,5
5.308651333,-0.8391549683,9.668544159,-0.858614502,0.02306174673,0.01057141833,-0.01145324297,5
5.328693333,-0.7885601807,9.694739685,-0.8701405334,0.01560974121,0.01862164214,-0.01664740406,5
5.348736333,-0.8445437622,9.724827118,-0.8957373047,0.01520644221,0.03558470309,-0.01962390356,5
5.368778333,-0.8896000671,9.688003693,-0.8863069153,0.01763905212,0.04515151307,-0.01644413732,5
5.388820333,-0.8919950867,9.707463226,-0.9059161377,0.01635078527,0.03156838194,-0.01488900278,5
5.408862333,-0.8620573425,9.731263733,-0.9428892517,0.02117110789,0.01699183509,-0.01169587299,5
5.428905333,-0.8376580811,9.726174316,-0.9195378113,0.01838539541,0.01162377745,-0.009488993324,5
5.448947333,-0.860710144,9.731862488,-0.9412426758,0.01918876357,0.01714598387,-0.008915980347,5
5.468989333,-0.9304650879,9.675878906,-1.004111938,0.01686441898,0.01421936788,-0.009590542875,5
5.489032333,-0.9267228699,9.666149139,-0.9821076965,0.0152920261,0.0122558875,-0.008864847943,5
5.509074333,-0.9148974609,9.730515289,-0.9533674622,0.01732221618,0.006605923176,-0.008634201251,5
5.529116333,-0.8896000671,9.738299103,-0.9675878906,0.01920625009,0.001819638768,-0.007404007018,5
5.549158333,-0.8473878479,9.703122253,-0.9595046997,0.01734272204,-0.01075442508,-0.003682320239,5
5.569201333,-0.8298742676,9.713151398,-0.9273216248,0.01271504536,-0.01465548016,-0.003417986445,5
5.589243333,-0.8602610779,9.728719025,-0.987197113,0.008546205238,-0.001589366701,-0.004462510347,5
5.609285333,-0.8514294434,9.739496613,-0.9741741943,0.006953198463,0.007967331447,-0.005734018981,5
5.629328333,-0.846789093,9.739047546,-0.9804611206,0.006796923466,0.003646102268,-0.001583153382,5
5.649370333,-0.8786727905,9.705966339,-1.001716919,0.0106261503,-0.01537707634,0.002030476462,5
5.669412333,-0.8918453979,9.651629333,-0.9704319763,0.01222328283,-0.02119740471,-0.0004117761273,5
5.689454333,-0.8851094055,9.676477661,-0.9747729492,0.01011012681,-0.00150020048,-0.003993177786,5
5.709497333,-0.9286688232,9.716594238,-0.9945318604,0.007078474388,0.005566348787,-0.006059891079,5
5.729539333,-0.9208850098,9.712103577,-0.9859996033,0.005908661988,-0.006493026856,-0.00220062118,5
5.749581333,-0.9005273438,9.752818909,-1.03898941,0.004919954576,-0.0225565508,0.002382446313,5
5.769624333,-0.9252259827,9.683962097,-1.107696533,0.007379304618,-0.04126359522,0.006539424881,5
5.789666333,-0.9370513916,9.687404938,-1.060245209,0.00786555279,-0.04441004992,0.003780838568,5
5.809708333,-0.9247769165,9.751920776,-0.9918374634,0.004056602716,-0.03375441954,0.0004093938041,5
5.829750333,-0.8421487427,9.717492371,-0.9795629883,-0.0001358522568,-0.02717094123,0.001234340714,5
5.849793333,-0.8491841125,9.695937195,-1.029858398,0.004531800747,-0.0400518775,0.005993141793,5
5.869835333,-0.8593629456,9.68710556,-1.02027832,0.008262719959,-0.03460204229,0.007464690134,5
5.889877333,-0.8038284302,9.710457001,-1.000070343,0.005192787386,-0.01523406059,0.007425974123,5
5.909920333,-0.769100647,9.715097351,-0.9785151672,0.003976974171,-0.008276223205,0.005542903207,5
5.929962333,-0.8002359009,9.749675446,-0.9431886292,-0.0008140446153,-0.007859615609,0.005989493337,5
5.950004333,-0.8406518555,9.685758362,-0.9416917419,-0.003101922106,-0.002901414875,0.007808784954,5
5.970046333,-0.8391549683,9.697134705,-0.965791626,-0.004437480122,0.001613713102,0.004430229776,5
5.990089333,-0.833915863,9.704619141,-0.9916877747,-0.007195315324,0.01941406354,0.00275029568,5
6.010131333,-0.8469387817,9.720486145,-0.9892927551,-0.01264440175,0.03827891871,0.00562275853,5
6.030173333,-0.8845106506,9.708361359,-0.9830058289,-0.01046865061,0.0258555226,0.00740701519,5
6.050216333,-0.9168434143,9.690249023,-1.015937347,-0.008359275758,0.003164375667,0.009487393312,5
6.070258333,-0.900377655,9.703421631,-1.00980011,-0.007515339181,0.004405043554,0.008525818586,5
6.090300333,-0.9072633362,9.713750153,-0.9867480469,-0.01167430822,0.02123581246,0.0008752618451,5
6.110342333,-0.887504425,9.69653595,-1.011895752,-0.01029466651,0.02162529528,0.0008651756216,5
6.130385333,-0.8861572266,9.704918518,-1.012195129,-0.008649711497,0.003207735484,0.005507116206,5
6.150427,-0.856967926,9.696086884,-0.9740245056,-0.005416004453,-0.005818040576,0.00716561405,5
6.170469,-0.8117619324,9.716893616,-0.9294172668,-0.006429701112,-0.00260993978,0.006773715839,5
6.190512,-0.808768158,9.711055756,-0.9616003418,-0.004454346839,0.01425561495,0.007919595577,5
6.210554,-0.8376580811,9.689650269,-0.9731263733,-0.004343159031,0.02318231575,0.00566149503,5
6.230596,-0.8294252014,9.7210849,-0.9779164124,-0.005130717997,0.02374857105,0.002256360138,5
6.250638,-0.867146759,9.699829102,-0.9578581238,-0.008389867842,0.01772895083,0.005575343966,5
6.270681,-0.9180409241,9.666897583,-0.9081614685,-0.00631664088,0.01407862827,0.002162685152,5
6.290723,-0.853225708,9.741891632,-0.8696914673,-0.008321824484,0.01469689328,0.001708977274,5
6.310765,-0.7656578064,9.769134979,-0.9497749329,-0.01583800092,0.01480148919,0.002693032613,5
6.330807,-0.803379364,9.7011763,-0.9696835327,-0.01191863511,0.01968430355,0.008207662031,5
6.35085,-0.8647517395,9.657018127,-0.9457333374,-0.003273979295,0.0196925737,0.00998252444,5
6.370892,-0.8884025574,9.681866455,-0.9665400696,-0.002049592091,0.01951275766,0.006101508625,5
6.390934,-0.8431965637,9.727820892,-0.9303153992,-0.005743891932,0.01332660858,0.006819073111,5
6.410977,-0.8337661743,9.739496613,-0.8795709229,-0.01312626339,0.007761015091,0.01023866981,5
6.431019,-0.8544232178,9.714648285,-0.9000782776,-0.01360916439,0.0001637921669,0.01117184293,5
6.451061,-0.8731343079,9.674681396,-0.943787384,-0.008175697178,-0.01318607386,0.009874014184,5
6.471103,-0.8367599487,9.698182526,-0.900377655,-0.006267534569,-0.009528673254,0.005506398622,5
6.491146,-0.7635621643,9.737850037,-0.880019989,-0.008006080985,0.01252122968,0.007622155361,5
6.511188,-0.7641609192,9.749376068,-0.9098080444,-0.001528792549,0.008327804506,0.01116330177,5
6.53123,-0.8303233337,9.698481903,-0.9276210022,0.005334252957,-0.01204144675,0.01086657494,5
6.551273,-0.8584648132,9.691446533,-0.9574090576,0.007655446883,-0.01637627929,0.008235706016,5
6.571315,-0.8869056702,9.710157623,-0.9521699524,0.003705100622,-0.005376295187,0.0001035288442,5
6.591357,-0.8506809998,9.702224121,-0.9039701843,-0.003520570695,0.003565006657,-0.001040367177,5
6.611399,-0.7836204529,9.727222137,-0.8699908447,-0.003719331929,-0.003457872197,0.00582082849,5
6.631442,-0.7616162109,9.792336731,-0.9509724426,0.00274037919,-0.0275448449,0.01555888355,5
6.651484,-0.8155041504,9.696985016,-0.9889933777,0.004000738729,-0.04015139863,0.01827815548,5
6.671526,-0.8214916992,9.690847778,-0.9048683167,0.002369916067,-0.01910822093,0.01323933899,5
6.691568,-0.8113128662,9.698332214,-0.8803193665,-0.001929252408,0.004223277327,0.008514204994,5
6.711611,-0.8282276917,9.689051514,-0.9589059448,-0.00926455576,0.008627206087,0.006575792097,5
6.731653,-0.8473878479,9.726174316,-0.9955796814,-0.009044862352,0.006592012942,0.002973401686,5
6.751695,-0.8171507263,9.676777039,-0.9696835327,-0.001471278025,0.007320941892,-0.001073083142,5
6.771738,-0.7954458618,9.72228241,-0.9717791748,-0.003385344055,0.0007184217684,0.001015842659,5
6.79178,-0.7806266785,9.767039337,-0.9193881226,-0.003724205308,0.004230737686,0.006571093574,5
6.811822,-0.7685018921,9.738299103,-0.9523196411,-0.0009045999032,-0.01326006185,0.01265993528,5
6.831864,-0.807121582,9.682764587,-0.9562115479,-0.000563653186,-0.02985668555,0.01877563447,5
6.851907,-0.8265811157,9.666298828,-0.9789642334,-0.004964775406,-0.01704926975,0.007669653744,5
6.871949,-0.7984396362,9.689799957,-0.9042695618,-0.008907613344,0.001526623033,0.002870484954,5
6.891991,-0.7447013855,9.752818909,-0.8903485107,-0.006077292375,-6.597768515e-05,0.0005123233423,5
6.912033,-0.7490423584,9.761800232,-0.9038204956,0.001638806192,-0.006825573742,0.00316063175,5
6.932076,-0.7650590515,9.703421631,-0.9380992126,0.007521783933,-0.01195098367,0.004081593361,5
6.952118,-0.7714956665,9.690548401,-0.9310638428,0.006262862124,-0.0008985241875,0.0002673300914,5
6.97216,-0.749790802,9.739047546,-0.8663983154,0.0007992457831,0.01622306928,0.001083889045,5
6.992203,-0.7571255493,9.721833344,-0.8903485107,0.002027831972,0.008593397215,0.001834360068,5
7.012245,-0.8223898315,9.715546417,-0.938997345,0.003789965762,-0.008569546975,0.00111163035,5
7.032287,-0.8390052795,9.706265717,-0.9458830261,-0.0001732707024,-0.01060826052,-0.000589649193,5
7.052329,-0.8062234497,9.727222137,-0.9283694458,0.0004845398944,-0.007677532732,-0.0004538707435,5
7.072372,-0.8108638,9.709708557,-0.8638536072,0.0002455471549,-0.003165731207,-0.0004912575241,5
7.092414,-0.7744894409,9.72228241,-0.8652008057,0.004368760623,-0.003632457927,0.0008580023423,5
7.112456,-0.7469467163,9.710606689,-0.9436376953,0.005787177011,-0.00538587803,0.002161019016,5
7.132498,-0.7376660156,9.718091125,-0.9595046997,0.01129799522,-0.008610898629,-0.0003684684634,5
7.152541458,-0.7602690125,9.710007935,-0.8750802612,0.009744457901,-0.002320193686,-0.002872719197,5
7.172583458,-0.8134085083,9.70821167,-0.8918453979,0.007735839579,0.00702144485,-0.0006210331339,5
7.192625458,-0.832868042,9.703721008,-0.9644444275,0.009951323271,-0.01675658859,0.001430133474,5
7.212668458,-0.8075706482,9.701775055,-0.9669891357,0.009714008309,-0.02350149862,0.0005194463301,5
7.232710458,-0.8138575745,9.659712524,-0.902024231,0.007822648622,-0.007479916792,-0.004453010391,5
7.252752458,-0.7711962891,9.717492371,-0.8675958252,0.003407003125,0.01299140509,-0.007811557036,5
7.272794458,-0.7225474548,9.77602066,-0.9090596008,0.002824410331,0.01718148217,-0.002438260475,5
7.292837458,-0.7753875732,9.744885406,-1.009201355,0.004589917138,0.0006703578401,0.004117522854,5
7.312879458,-0.8409512329,9.664053497,-0.9792636108,0.008213086054,-0.0007887203246,0.006745778956,5
7.332921458,-0.8343649292,9.693242798,-0.9547146606,-0.0009662534576,0.01753056049,0.002841405105,5
7.352964458,-0.852177887,9.725425873,-0.9238787842,-0.002415625378,0.02868846804,-0.00257780985,5
7.373006458,-0.8509803772,9.718540192,-0.9572593689,-0.0007295405958,0.01915791258,-0.004691992886,5
7.393048458,-0.8625064087,9.68366272,-1.044228516,0.002462185919,0.007726451382,-0.006305034272,5
7.413090458,-0.8726852417,9.693991241,-1.071920929,0.004557595588,-0.01672242209,-0.007030615583,5
7.433133458,-0.8427474976,9.72452774,-1.019679565,0.004264755175,-0.0143193258,-0.00277851033,5
7.453175458,-0.7670050049,9.732161865,-0.993633728,0.002636650344,-0.002659158781,-0.001966862241,5
7.473217458,-0.7780819702,9.739496613,-1.037492523,0.005798390135,-0.005596079864,-0.00398354046,5
7.493259458,-0.8041278076,9.705217896,-1.039438477,0.009239104576,-0.02512409352,-0.0009903167374,5
7.513302458,-0.7744894409,9.710457001,-0.9416917419,0.005482874811,-0.02452021465,-0.003760373686,5
7.533344458,-0.7499404907,9.723479919,-0.927171936,-0.0004442462232,0.004203757737,-0.006204932928,5
7.553386458,-0.772842865,9.721234589,-0.9794132996,-0.002879841253,0.01606649347,-0.005288796965,5
7.573429458,-0.8167016602,9.697583771,-0.9768685913,0.0008947713068,0.00484440662,-0.005183796398,5
7.593471458,-0.7982899475,9.698032837,-0.936302948,0.0008123922162,-0.01189757325,-0.001275790622,5
7.613513458,-0.7679031372,9.726623383,-0.8991801453,0.001098104985,-0.01920441538,0.00184747891,5
7.633555458,-0.7759863281,9.716893616,-0.8729846191,-0.0009245038964,-0.005450854544,-0.004094016273,5
7.653598458,-0.7948471069,9.696086884,-0.9144483948,-0.0003466252238,0.004589603748,-0.009137667716,5
7.673640458,-0.8137078857,9.715696106,-0.9375004578,-0.001581336139,0.005080141593,-0.009202372283,5
7.693682458,-0.7848179626,9.76554245,-0.9291178894,0.001734707272,-0.003721736372,-0.003531470895,5
7.713725458,-0.7970924377,9.701026611,-0.9187893677,0.005623206031,-0.01093197335,-0.001130166929,5
7.733767458,-0.8346643066,9.672436066,-0.9101074219,0.007309261244,-0.003970656544,-0.003413326573,5
7.753809458,-0.8464897156,9.722432098,-0.93256073,0.004230656661,0.002995030954,-0.008192672394,5
7.773851458,-0.789458313,9.735005951,-0.9087602234,-0.0008642617613,0.002072950825,-0.01161314733,5
7.793894458,-0.7673043823,9.715995483,-0.887504425,0.006499493495,-0.00163741596,-0.006227088161,5
7.813936458,-0.8235873413,9.686955872,-0.8987310791,0.009225273505,0.003398098983,-0.002716380171,5
7.833978458,-0.8327183533,9.691446533,-0.9728269958,0.006303725764,0.003321289318,-0.002046110574,5
7.854020458,-0.8117619324,9.715845795,-0.9565109253,0.005660970695,-0.003194973804,-0.004845072515,5
7.874063458,-0.826431427,9.725276184,-0.9092092896,0.005942377262,-8.088536561e-06,-0.001918161754,5
7.894105458,-0.8499325562,9.722731476,-0.8963360596,0.007444711402,-0.002797822934,-0.001874400768,5
7.914147458,-0.8563691711,9.688901825,-0.9589059448,0.006305605173,-0.008199097589,-0.0022368317,5
7.934190458,-0.8515791321,9.720785522,-0.9795629883,0.003233390395,-0.001514752861,-0.00297030271,5
7.954232458,-0.8581654358,9.747579803,-0.9849517822,0.0005495732184,0.005191674456,-0.001175527228,5
7.974274458,-0.850531311,9.721384277,-1.025367737,0.0008956872625,-0.006174105685,0.00155886123,5
7.994316458,-0.8777746582,9.7011763,-1.036893768,0.004371866584,-0.01458962169,0.001427214826,5
8.014359458,-0.8915460205,9.686057739,-1.016236725,0.002010717755,-0.008748326451,-0.002702593571,5
8.034401458,-0.8737330627,9.715546417,-0.9849517822,0.001737582148,0.003263352439,-0.003161072033,5
8.054443458,-0.8369096375,9.702224121,-0.9753717041,0.004926186986,-0.0003483272158,-0.003349375213,5
8.074486458,-0.7975415039,9.702224121,-1.031654663,0.004332354758,-0.01217913628,-0.005051869433,5
8.094528458,-0.7981402588,9.687854004,-1.009650421,0.01038061455,-0.007595231291,-0.003013571724,5
8.114570458,-0.830173645,9.711205444,-1.004411316,0.009549701586,-0.00299098203,-0.005779243074,5
8.134612458,-0.8303233337,9.698332214,-0.9315129089,0.005769032985,0.004188974388,-0.003346529091,5
8.154655333,-0.8080197144,9.721833344,-0.9184899902,-0.002223078627,0.002999617485,-0.0009642008226,5
8.174697333,-0.812510376,9.725575562,-0.9385482788,-0.004007759504,0.002804199234,-0.001231197035,5
8.194739333,-0.7936495972,9.745783539,-0.9836045837,-0.007176886778,0.008213888854,-0.003053467255,5
8.214781333,-0.8342152405,9.665400696,-0.9880952454,-0.003518280806,0.01190510206,-0.00323491497,5
8.234824333,-0.8744815063,9.711504822,-0.98989151,0.001881730976,0.02159854025,-0.005564596504,5
8.254866333,-0.8478369141,9.718839569,-1.007554779,0.002273499733,0.01230304502,-0.00383654004,5
8.274908333,-0.8267308044,9.711504822,-0.9999206543,0.007330310065,-0.006401133724,-0.0009744409472,5
8.294951333,-0.880019989,9.691745911,-0.9809101868,0.005693043116,-0.009173289873,-0.0006997827441,5
8.314993333,-0.8625064087,9.704170074,-0.9596543884,-0.0009500877932,0.009658851661,-0.003515242832,5
8.335035333,-0.8592132568,9.723779297,-0.9725276184,-0.006155387498,0.01321624685,-0.003623823402,5
8.355077333,-0.8406518555,9.705666962,-1.006656647,-0.006563134957,0.003617145587,-0.001189624425,5
8.375120333,-0.8399034119,9.726024628,-0.9662406921,-0.001222200459,-0.002946224064,0.003729104996,5
8.395162333,-0.8282276917,9.675280151,-0.9723779297,0.004949371796,-0.009566157125,0.002921250183,5
8.415204333,-0.8592132568,9.676777039,-0.999022522,0.005018713418,-0.004357500933,0.0003008351196,5
8.435246333,-0.8881031799,9.704768829,-0.9849517822,0.002117946045,0.008393697441,-0.004938999191,5
8.455289333,-0.8729846191,9.727671204,-0.9398954773,-0.003376821987,0.01723534614,-0.007539828308,5
8.475331333,-0.8611592102,9.705217896,-0.9725276184,-0.003951300867,-0.0003899964504,0.0003320786636,5
8.495373333,-0.8669970703,9.709558868,-0.9999206543,-0.002018928528,-0.01057259832,0.004289869219,5
8.515416333,-0.8517288208,9.712552643,-0.9801617432,1.977360807e-05,-0.00524466252,0.00302466494,5
8.535458333,-0.8481362915,9.710157623,-0.975970459,-0.0003040742595,-0.007290860172,0.002720018616,5
8.555500333,-0.8643026733,9.714797974,-0.9810598755,-0.001354542328,-0.006012049504,0.0001364324708,5
8.575542333,-0.8415499878,9.696985016,-0.9720785522,-0.001816033153,-0.006278624758,-0.001816868549,5
8.595585333,-0.8330177307,9.688003693,-0.9771679688,0.001211333787,-0.005002116319,-0.001134110382,5
8.615627333,-0.8313711548,9.715396729,-0.97701828,0.002114785137,-0.001775571611,8.754199371e-06,5
8.635669333,-0.8213420105,9.715845795,-0.9669891357,0.0008248022059,-0.002332423348,0.0009811352938,5
8.655712333,-0.8175997925,9.694290619,-0.9470805359,0.001891754335,-0.005609588698,0.003603455145,5
8.675754333,-0.8336164856,9.714199219,-0.9635462952,-0.00315067498,-0.004092119634,0.003246591659,5
8.695796333,-0.8298742676,9.71868988,-0.9785151672,-0.007802428678,0.00104466686,0.002130237408,5
8.715838333,-0.8478369141,9.707313538,-0.9530680847,-0.006289850455,0.003557685297,0.003045953112,5
8.735881333,-0.8445437622,9.708960114,-0.9680369568,-0.004138742574,0.004575393628,0.002442450961,5
8.755923333,-0.8434959412,9.724078674,-0.9842033386,-0.0008863485418,0.002250057179,0.002663460094,5
8.775965333,-0.8313711548,9.708960114,-0.9883946228,0.00181090855,-0.002398935612,0.001810426475,5
8.796007333,-0.8723858643,9.680369568,-1.005608826,0.004840903915,-0.01182248909,-0.0002342921216,5
8.816050333,-0.8881031799,9.703870697,-0.9587562561,0.0007141840179,-0.0005192854442,-0.002213738859,5
8.836092333,-0.8562194824,9.719438324,-0.9590556335,-0.002203007694,0.008493926376,-0.003188859206,5
8.856134333,-0.8292755127,9.712402954,-0.9765692139,0.0002319924533,-0.003335984889,-0.0005100129638,5
8.876177333,-0.8144563293,9.713600464,-0.9951306152,0.001889800304,-0.01240769494,0.005459773354,5
8.896219333,-0.8273295593,9.705217896,-0.9707313538,0.0001504276879,-0.01888896152,0.004726854153,5
8.916261333,-0.8625064087,9.719588013,-0.9737251282,-0.0015252335,-0.0142361531,0.004174781032,5
8.936303333,-0.9141490173,9.723180542,-0.9839039612,-0.00681338273,-0.01031692419,0.002859617118,5
8.956346333,-0.8767268372,9.706864471,-0.9836045837,-0.004924678244,-0.01709139347,0.001346984063,5
8.976388333,-0.826431427,9.692194977,-0.9946815491,5.467841402e-05,-0.01659611613,0.0003632991575,5
8.996430333,-0.8101153564,9.697434082,-0.9894424438,-8.562556468e-05,-0.003626859747,-0.00245530461,5
9.016472333,-0.8442443848,9.708061981,-0.9750723267,0.00188460853,-0.003958768211,0.0006314513739,5
9.036515333,-0.833915863,9.714797974,-0.9765692139,0.00471407501,-0.009176303633,0.004143395461,5
9.056557333,-0.8219407654,9.717492371,-0.9843530273,0.001721650362,-0.01687704585,0.004492651671,5
9.076599333,-0.8081694031,9.709858246,-0.9696835327,-0.003036850831,-0.02253385261,0.00315401447,5
9.096642333,-0.7906558228,9.723030853,-0.9240284729,-0.006102753803,-0.01035666279,0.003126079682,5
9.116684333,-0.7577243042,9.729617157,-0.9050180054,-0.008490323089,0.01116467919,0.0005163615569,5
9.136726333,-0.7893086243,9.711055756,-0.9343569946,-0.004525789991,0.02155425772,-0.000502374256,5
9.156768625,-0.7927514648,9.663604431,-0.9457333374,-0.0002835057676,0.0215167515,-0.002913882257,5
9.176811625,-0.7827223206,9.696835327,-0.9250762939,-0.002489474369,0.02302878164,0.002254280495,5
9.196853625,-0.7686515808,9.741442566,-0.9348060608,-0.009280285798,0.02398138866,0.003038649214,5
9.216895625,-0.7771838379,9.734407196,-0.9379495239,-0.009760509245,0.03157581389,0.004501214717,5
9.236938625,-0.8553213501,9.669142914,-1.006956024,-0.01000276767,0.03188193217,0.002611075994,5
9.256980625,-0.8822653198,9.710157623,-0.9819580078,-0.007837191224,0.03299127892,-1.410511322e-05,5
9.277022625,-0.873583374,9.75970459,-0.9623487854,-0.01165534835,0.02775604278,0.002437531482,5
9.297064625,-0.8581654358,9.734257507,-1.002615051,-0.01398245431,0.01197893452,0.007409791462,5
9.317107625,-0.9141490173,9.7011763,-1.044078827,-0.0131474454,-0.009834892116,0.00893348828,5
9.337149625,-0.9385482788,9.708511047,-0.9900411987,-0.01803746074,-0.01046585664,0.007904924452,5
9.357191625,-0.8436456299,9.710756378,-0.9530680847,-0.02287405543,0.0006300127134,0.007215543184,5
9.377233625,-0.816252594,9.709259491,-0.940045166,-0.0206812229,-0.01228996366,0.002140128752,5
9.397276625,-0.8053253174,9.687854004,-0.9524693298,-0.006612739991,-0.02939675003,0.002148654312,5
9.417318625,-0.7593708801,9.660311279,-1.003513184,0.002218700713,-0.02819864079,0.0023627833,5
9.437360625,-0.7509883118,9.70581665,-0.9508227539,0.002774042077,0.0006408449262,-2.370285802e-05,5
9.457403625,-0.7750881958,9.734706573,-0.9142987061,-0.00369956973,0.0285654217,0.0005898894742,5
9.477445625,-0.7933502197,9.72228241,-0.9563612366,-0.007837990299,0.02598929778,0.0006591419224,5
9.497487625,-0.8312214661,9.728719025,-0.9810598755,-0.009467534721,0.01482205745,0.000609426992,5
9.517529625,-0.873583374,9.744286652,-0.9309141541,-0.01534101088,0.02469479293,-0.0009290471207,5
9.537572625,-0.876277771,9.740245056,-0.9283694458,-0.02323574759,0.03032345138,-0.0003908390645,5
9.557614625,-0.8747808838,9.699529724,-0.9858499146,-0.02278312482,0.02441341802,-0.002242615214,5
9.577656625,-0.8753796387,9.677675171,-0.9960287476,-0.01577474922,0.01073329058,0.003261339851,5
9.597698625,-0.8180488586,9.728419647,-0.9428892517,-0.01420207415,0.001113624545,0.005743089132,5
9.617741625,-0.7580236816,9.747280426,-0.9256750488,-0.01413377374,-0.002634112258,0.01241380908,5
9.637783625,-0.8029302979,9.72692276,-0.9644444275,-0.0154336784,-0.002820539754,0.01533269975,5
9.657825625,-0.8373587036,9.731263733,-0.9632469177,-0.02010822855,0.00613481598,0.01635896415,5
9.677868625,-0.8336164856,9.72931778,-0.9455836487,-0.02687523328,0.01398157515,0.0147886863,5
9.697910625,-0.809815979,9.709858246,-0.9198371887,-0.03216893226,0.01439335197,0.01461317763,5
9.717952625,-0.8095166016,9.728868713,-0.9357041931,-0.03724859282,0.005716253072,0.0155253699,5
9.737994625,-0.8349636841,9.695787506,-0.903072052,-0.03014954366,-0.004955967888,0.01562047936,5
9.758037625,-0.8502319336,9.700876923,-0.8990304565,-0.02563072927,-0.005818839651,0.01361472532,5
9.778079625,-0.8500822449,9.747430115,-0.9216334534,-0.02304010279,-0.008720296435,0.01250723563,5
9.798121625,-0.8300239563,9.701924744,-0.9033714294,-0.02272886783,-0.01248665899,0.01293689944,5
9.818164625,-0.8146060181,9.694440308,-0.9051676941,-0.01423840038,-0.0184450224,0.01222991571,5
9.838206625,-0.8147557068,9.680219879,-0.9177415466,-0.01180171501,-0.01412496902,0.006641169079,5
9.858248625,-0.8066725159,9.711953888,-0.8918453979,-0.01274106372,0.01124881674,-0.0001904335804,5
9.878290625,-0.8050259399,9.726773071,-0.8610095215,-0.01798062213,0.01811406761,-0.002169204643,5
9.898333625,-0.7569758606,9.757010193,-0.8565188599,-0.01761653088,-0.002023851499,0.006039832253,5
9.918375625,-0.7634124756,9.721384277,-0.8545729065,-0.01087471284,-0.02063046768,0.01152026001,5
9.938417625,-0.789458313,9.722881165,-0.8807684326,-0.01461959444,-0.02070279419,0.01100204978,5
9.958459625,-0.8175997925,9.761650543,-0.8074209595,-0.02215773612,-0.001737023238,0.007913565263,5
9.978502625,-0.7595205688,9.741442566,-0.7587721252,-0.02786796167,0.0143259624,0.0041401661,5
9.998544625,-0.7619155884,9.714947662,-0.8045768738,-0.02650278248,0.01127993315,0.008931028657,5
10.01858663,-0.7656578064,9.699080658,-0.8646020508,-0.02377383225,0.005567907356,0.01206686161,5
10.03862962,-0.8008346558,9.730964355,-0.8451425171,-0.02298810892,0.003426579759,0.01420981158,5
10.05867162,-0.7982899475,9.729766846,-0.8003855896,-0.0272606276,-0.0003891149536,0.01483196951,5
10.07871363,-0.7885601807,9.755513306,-0.8337661743,-0.0323876366,0.009404253215,0.01182057057,5
10.09875562,-0.7473957825,9.724078674,-0.7882608032,-0.03101081215,0.01898132265,0.01019295678,5
10.11879863,-0.7667056274,9.728719025,-0.8324189758,-0.02772204578,0.004306164104,0.01122508757,5
10.13884062,-0.7753875732,9.717492371,-0.8674461365,-0.02232922427,-0.01390739717,0.0136555396,5
10.15888208,-0.758921814,9.725575562,-0.8110134888,-0.01646687277,-0.008054500446,0.009603522718,5
10.17892508,-0.7756869507,9.708960114,-0.7821235657,-0.01782030053,-0.004474333487,0.01148641948,5
10.19896708,-0.7798782349,9.72452774,-0.8220904541,-0.01645639539,-0.006772868335,0.007375956979,5
10.21900908,-0.7809260559,9.740095367,-0.8283773804,-0.01958641782,-0.01156168059,0.005601273384,5
10.23905108,-0.7863148499,9.731263733,-0.8083190918,-0.01970628649,-0.008249964565,0.004329724237,5
10.25909408,-0.7441026306,9.726024628,-0.7476951599,-0.02041984722,-0.003122786526,0.005037980154,5
10.27913608,-0.7277865601,9.792187042,-0.7542814636,-0.02178127132,-0.0001664161682,0.007713460363,5
10.29917808,-0.7361691284,9.77602066,-0.7482939148,-0.02082206309,0.02286386862,0.004868122283,5
10.31922108,-0.7520361328,9.727970581,-0.746048584,-0.01770358719,0.04995298386,-0.0008309751283,5
10.33926308,-0.7918533325,9.733808441,-0.770148468,-0.0003011373337,0.07061867416,0.004448124673,5
10.35930508,-0.7593708801,9.743238831,-0.8081694031,-0.01488984376,0.0393634066,0.006193729583,5
10.37934708,-0.6718029785,9.738897858,-0.8422984314,-0.02033246681,0.009235534817,0.01114822458,5
10.39939008,-0.6718029785,9.742789764,-0.6882687378,0.0008528998587,0.04750921577,0.001448242925,5
10.41943208,-0.6379733276,9.765692139,-0.6033952332,-0.003584130434,0.09424522519,-0.007476259023,5
10.43947408,-0.6435118103,9.684111786,-0.8385562134,-0.0207246542,0.05821100622,0.0003010502551,5
10.45951608,-0.7228468323,9.656868439,-0.9107061768,0.001639286522,0.02410889044,0.002634863369,5
10.47955908,-0.7929011536,9.726024628,-0.7878117371,0.01478925627,0.05064802989,-0.005147743504,5
10.49960108,-0.7934999084,9.765093384,-0.7047344971,0.004810941871,0.08394499868,-0.009487166069,5
10.51964308,-0.6740483093,9.711953888,-0.6938072205,-0.003569420893,0.07584032416,-0.002916644793,5
10.53968608,-0.6744973755,9.708960114,-0.8385562134,0.002098920755,0.03605990484,-0.0005930417683,5
10.55972808,-0.7909552002,9.756411438,-0.7761360168,0.008069170639,0.03843055665,-0.0101491753,5
10.57977008,-0.7649093628,9.729916534,-0.6586303711,0.003961403854,0.06706394255,-0.01217141189,5
10.59981208,-0.7089257812,9.699529724,-0.8478369141,-0.01060859859,0.03863474354,-0.006805227604,5
10.61985508,-0.7232958984,9.749226379,-0.8168513489,-0.008992921561,-0.0003725076094,-0.0006829032209,5
10.63989708,-0.7680528259,9.736053772,-0.716559906,-0.006748142652,0.008600747213,-0.001561213983,5
10.65993908,-0.7994874573,9.728269958,-0.6991960144,-0.01063876413,0.01634530723,-0.002358513186,5
10.67998208,-0.7966433716,9.74219101,-0.7158114624,-0.004120402038,0.008850019425,-0.002960438607,5
10.70002408,-0.7300318909,9.716145172,-0.7352709961,-0.002729034517,-0.004544924479,0.00163033593,5
10.72006608,-0.7420069885,9.744136963,-0.7571255493,-0.001188910799,-0.005654392298,0.001316813868,5
10.74010808,-0.7607180786,9.761351166,-0.6804849243,-0.01121685654,-0.002397816163,0.0009048739448,5
10.76015108,-0.7698490906,9.707762604,-0.7926017761,-0.01522376947,0.000607498223,-0.0001330110244,5
10.78019308,-0.7788304138,9.752369843,-0.7261399841,0.002811547834,0.002097934019,0.001724045142,5
10.80023508,-0.7143145752,9.722581787,-0.6786886597,-0.0008351085708,0.004130372312,0.001561809797,5
10.82027808,-0.732127533,9.730515289,-0.7107220459,-0.0008395290934,0.0007735800464,-0.0006754137576,5
10.84032008,-0.7565267944,9.721384277,-0.7292834473,0.009446121752,0.0002825816628,-0.000112635782,5
10.86036208,-0.7861651611,9.702673187,-0.7297325134,0.002483366756,0.006058915518,0.0007592327893,5
10.88040408,-0.7873626709,9.727970581,-0.773890686,0.006411964539,0.00810241513,-0.005412526429,5
10.90044708,-0.7682025146,9.749226379,-0.7411088562,0.007203048095,-0.0002837488428,-0.004224190023,5
10.92048908,-0.7740403748,9.724976807,-0.7277865601,0.005401444621,-0.008483526297,0.0006588930264,5
10.94053108,-0.8075706482,9.702224121,-0.7658074951,0.004574950784,-0.03321252018,0.005320412107,5
10.96057408,-0.7411088562,9.743238831,-0.7517367554,0.01262225211,-0.02351043932,0.00480816979,5
10.98061608,-0.6819818115,9.763895874,-0.7319778442,0.00761232106,-0.007563607767,0.002176946495,5
11.00065808,-0.6789880371,9.681716766,-0.7354206848,0.009334136732,-0.005851702765,0.003353182226,5
11.02070008,-0.7518864441,9.723928986,-0.7926017761,0.02187943459,-0.02649476752,0.004459428601,5
11.04074308,-0.7815248108,9.693392487,-0.8129594421,0.02796199732,-0.01498479396,-0.005109724589,5
11.06078508,-0.8192463684,9.731862488,-0.7614665222,0.02085726894,0.01500774361,-0.01922175102,5
11.08082708,-0.7610174561,9.796078949,-0.7222480774,0.006323662587,0.01992680132,-0.01732609421,5
11.10086908,-0.7255412292,9.753717041,-0.8039781189,0.0007519933861,-0.01169586554,-0.005065167323,5
11.12091208,-0.7671546936,9.704170074,-0.8890013123,0.01189466659,-0.03636410087,0.001153828343,5
11.14095433,-0.783021698,9.756261749,-0.8170010376,0.01786275767,-0.0361444056,0.003179098014,5
11.16099633,-0.7141648865,9.756561127,-0.6586303711,0.0005529308692,-0.03705221787,0.005785050802,5
11.18103933,-0.6776408386,9.731114044,-0.688717804,0.00205955049,-0.04466563836,0.008203465492,5
11.20108133,-0.7183561707,9.741442566,-0.7893086243,0.002016683575,-0.03876682371,0.005514956545,5
11.22112333,-0.7271878052,9.729018402,-0.765358429,-0.001654528314,-0.0009754276834,-0.002450108761,5
11.24116533,-0.6813830566,9.756411438,-0.7541317749,-0.01134403236,0.0005373838358,0.004296976142,5
11.26120833,-0.707428894,9.719588013,-0.8167016602,0.001403253525,-0.0105211176,0.005968347192,5
11.28125033,-0.7617658997,9.761351166,-0.7545808411,0.004227062687,0.009509970434,-0.002910835901,5
11.30129233,-0.6981481934,9.740694122,-0.7149133301,-0.005419349298,0.01954141632,-0.004383664578,5
11.32133533,-0.6659651184,9.691446533,-0.8780740356,0.002507424913,0.007620444521,-0.001487509813,5
11.34137733,-0.7399113464,9.691596222,-0.8851094055,0.01455484517,0.02703296393,-0.008363574743,5
11.36141933,-0.8009843445,9.723330231,-0.7592211914,0.007069153711,0.04165777564,-0.009201355278,5
11.38146133,-0.7640112305,9.73979599,-0.8508306885,0.00189914892,0.0292390082,-0.008123791777,5
11.40150433,-0.7366181946,9.753717041,-0.8325686646,0.007990891114,0.02144785225,-0.007648799103,5
11.42154633,-0.7593708801,9.721983032,-0.8175997925,0.0004428178072,0.01868734695,-0.007896173745,5
11.44158833,-0.7878117371,9.717043304,-0.8161029053,-0.001022595214,0.02027552016,-0.004551742692,5
11.46163133,-0.7967930603,9.729617157,-0.8360115051,0.001994375372,0.01457942091,0.0005274049472,5
11.48167333,-0.7617658997,9.765392761,-0.7613168335,-0.003998172469,0.004071331117,0.004187270533,5
11.50171533,-0.7532336426,9.749376068,-0.7872129822,-0.01310903393,0.005160501227,0.004139549565,5
11.52175733,-0.793200531,9.735305328,-0.7683522034,-0.006406106055,0.008345646784,0.007062034216,5
11.54180033,-0.8002359009,9.716893616,-0.8210426331,-0.007008236367,-0.0171763096,0.009917161427,5
11.56184233,-0.7613168335,9.736951904,-0.762664032,-0.01679671183,-0.0246469304,0.0111085102,5
11.58188433,-0.7899073792,9.720935211,-0.7445516968,-0.01503207348,0.004412339535,0.006529887207,5
11.60192733,-0.7815248108,9.725126495,-0.712817688,-0.01271961723,0.02223981731,-0.0007228334434,5
11.62196933,-0.7307803345,9.716594238,-0.7644602966,0.0002418388613,0.01098453533,0.004296207801,5
11.64201133,-0.6545887756,9.757459259,-0.6923103333,-0.0008305811789,-0.008296469226,0.01061655767,5
11.66205333,-0.6842271423,9.746681671,-0.7494914246,0.0005037942901,0.01336483844,0.00201482838,5
11.68209633,-0.7547305298,9.696985016,-0.7448510742,0.004554143175,0.0410390608,-0.008940415457,5
11.70213833,-0.7610174561,9.714498596,-0.843046875,0.005832914263,0.01590047963,-0.006931277458,5
11.72218033,-0.7432044983,9.758806458,-0.7659571838,0.005050681531,0.00281457277,0.0003838774282,5
11.74222333,-0.7854167175,9.764494629,-0.7842192078,-0.00513561815,-0.003513269126,0.003014192451,5
11.76226533,-0.8014334106,9.700727234,-0.8089178467,0.001885708654,-0.02206825279,0.001374338171,5
11.78230733,-0.7559280396,9.713899841,-0.8003855896,0.009010607377,-0.03332574666,0.0007585450076,5
11.80234933,-0.7072792053,9.739047546,-0.7566764832,0.007175545208,-0.005431752186,-0.003058227245,5
11.82239233,-0.6430627441,9.738448792,-0.7107220459,-0.003197190817,-0.004017964471,0.001106376294,5
11.84243433,-0.6836283875,9.723629608,-0.8809181213,0.006873411126,-0.01225738972,0.004057191778,5
11.86247633,-0.7553292847,9.724378052,-0.8014334106,0.003640831448,-0.0004105982371,-0.001458883286,5
11.88251933,-0.733175354,9.751771088,-0.7426057434,-0.001105623553,0.01174827665,-0.007806375623,5
11.90256133,-0.6948550415,9.733209686,-0.7647596741,-0.007357456721,0.003072032006,-0.007284412626,5
11.92260333,-0.7141648865,9.706864471,-0.8108638,-0.003948807251,-0.007968878374,-0.000483766431,5
11.94264533,-0.7461982727,9.723330231,-0.8000862122,0.003765944857,-0.01398430113,0.002907072194,5
11.96268833,-0.7143145752,9.746681671,-0.7743397522,-0.004106276669,-0.006563918199,0.002473151544,5
11.98273033,-0.6890171814,9.772877197,-0.7710466003,-0.0248667486,-0.006261394359,0.01023629028,5
12.00277233,-0.6915618896,9.793085175,-0.793200531,-0.03648458049,-0.02446954325,0.01834902167,5
12.02281533,-0.7042854309,9.733658752,-0.818946991,-0.04351120815,-0.0489814952,0.03118073568,5
12.04285733,-0.7117698669,9.692644043,-0.8259823608,-0.0319628045,-0.05992801487,0.03232133389,5
12.06289933,-0.7957452393,9.753417664,-0.732127533,-0.01581107639,0.01731916331,0.01545718499,5
12.08294233,-0.7604187012,9.722432098,-0.6451583862,-0.03653620556,0.0590749979,0.005656519905,5
12.10298433,-0.693507843,9.727820892,-0.789458313,-0.04927803576,0.02775988169,0.01092986204,5
12.12302633,-0.6837780762,9.724078674,-0.8018824768,-0.03143050522,-0.00161306886,0.01664783433,5
12.14306833,-0.716559906,9.743238831,-0.8089178467,-0.01219873689,-0.004078350496,0.01327327732,5
12.16311133,-0.7704478455,9.736203461,-0.7478448486,-0.002523065079,0.03001717106,5.67745883e-05,5
12.18315333,-0.7596702576,9.730664978,-0.7051835632,-0.0002171583474,0.04686899111,-0.007463492453,5
12.20319533,-0.7559280396,9.712402954,-0.7821235657,0.00611443026,0.0571934022,-0.01524951309,5
12.22323733,-0.7978408813,9.710606689,-0.7768844604,0.007261886261,0.0577483885,-0.02113732696,5
12.24328033,-0.8422984314,9.723180542,-0.8270301819,0.005741107278,0.04333646968,-0.02019785345,5
12.26332233,-0.8647517395,9.710606689,-0.8553213501,0.01113437209,0.01027380675,-0.01776250452,5
12.28336433,-0.8562194824,9.762099609,-0.7231462097,0.01783360541,0.01324937679,-0.01460206322,5
12.30340733,-0.7801776123,9.765692139,-0.743354187,0.006423105486,0.008482789621,-0.008570319042,5
12.32344933,-0.8255332947,9.722581787,-0.7887098694,0.011502943,-0.01490922179,-0.005614177324,5
12.34349133,-0.8268804932,9.68246521,-0.7447013855,0.01563195325,-0.01462593582,-0.006966713816,5
12.36353433,-0.8208929443,9.729467468,-0.7247927856,0.01472055726,0.00795667246,-0.01506859902,5
12.38357633,-0.7671546936,9.730964355,-0.7402107239,0.01390680205,0.01380562969,-0.01480537932,5
12.40361833,-0.7494914246,9.730964355,-0.7667056274,0.0096550202,-0.005789567716,-0.004568004515,5
12.42366033,-0.7650590515,9.730515289,-0.7854167175,0.01702304557,-0.02961993776,0.003179430263,5
12.44370333,-0.8402027893,9.717043304,-0.7506889343,0.0234062355,-0.02673879825,0.001928842743,5
12.46374533,-0.8316705322,9.737700348,-0.69620224,0.01662633196,-0.01300825831,-0.005311375484,5
12.48378733,-0.7464976501,9.741292877,-0.6710545349,0.008363058791,-0.00264350744,-0.006093213335,5
12.50383033,-0.7363188171,9.720935211,-0.7307803345,0.01443160325,-0.008627364412,-0.003315536305,5
12.52387233,-0.769100647,9.700278168,-0.8855584717,0.01808923483,-0.02295471355,-0.001344981138,5
12.54391433,-0.7753875732,9.737850037,-0.8096662903,0.0192748215,-0.01973524131,-0.0008185470942,5
12.56395633,-0.7927514648,9.739047546,-0.7414082336,0.01357610989,-0.009497458115,-0.002256872831,5
12.58399933,-0.8099656677,9.75970459,-0.7496411133,0.009911971167,-0.01688422263,-0.002050334821,5
12.60404133,-0.7957452393,9.736502838,-0.765358429,0.01002445351,-0.02876916714,0.0001128327567,5
12.62408333,-0.7327262878,9.722432098,-0.7726931763,0.009556421079,-0.03662783653,0.005748265889,5
12.64412633,-0.7339237976,9.717342682,-0.8331674194,0.01342310943,-0.02608818747,0.00329211494,5
12.66416833,-0.7813751221,9.723928986,-0.7689509583,0.02069928497,-0.0166807957,-0.0005429259036,5
12.68421033,-0.7634124756,9.728569336,-0.7804769897,0.01661337353,-0.02509090304,0.002576805884,5
12.70425233,-0.6969506836,9.743687897,-0.7271878052,0.01186445821,-0.03884078935,0.008433232084,5
12.72429533,-0.6649172974,9.776918793,-0.773890686,0.006011798978,-0.03884606063,0.007509762887,5
12.74433733,-0.752485199,9.730215912,-0.8249345398,0.01266572345,-0.01148953196,-0.0006289228331,5
12.76437933,-0.7818241882,9.692494354,-0.8084687805,0.01414293423,0.01732354984,-0.00874658674,5
12.78442233,-0.6941065979,9.767039337,-0.7945477295,0.002179402858,0.009696584195,0.00124005042,5
12.80446433,-0.6997947693,9.732311554,-0.7960446167,0.01129726693,-0.003575013019,0.009415955283,5
12.82450633,-0.7966433716,9.733658752,-0.8946894836,0.012022499,-0.02207277901,0.006939812098,5
12.84454933,-0.802331543,9.720785522,-0.8370593262,0.01194105018,-0.004656845704,-0.002057858976,5
12.86459133,-0.7457492065,9.733658752,-0.7797285461,0.003842111444,0.020017609,-0.01003296115,5
12.88463333,-0.7271878052,9.729467468,-0.8175997925,0.004777413793,0.00324608502,-0.0088478541,5
12.90467533,-0.7512876892,9.730515289,-0.8554710388,0.01042561419,-0.005744956899,0.001573744463,5
12.92471833,-0.8077203369,9.731862488,-0.8867559814,0.0116123464,-0.01808879152,0.005045855418,5
12.94476033,-0.7900570679,9.743388519,-0.8024812317,0.01568916626,-0.009920322336,0.00235107122,5
12.96480233,-0.7295828247,9.748927002,-0.7509883118,0.005652067717,0.01339363866,-0.003747935174,5
12.98484533,-0.7391629028,9.725126495,-0.8265811157,0.008158794604,0.01457063295,-0.008328137919,5
13.00488733,-0.7873626709,9.690997467,-0.8384065247,0.01052714325,0.0128829889,-0.00682345219,5
13.02492933,-0.7900570679,9.692045288,-0.8499325562,0.01995367929,0.02117038704,-0.005181135144,5
13.04497133,-0.789458313,9.751621399,-0.8193960571,0.01739900559,0.02692515962,-0.005178851075,5
13.06501433,-0.7647596741,9.719138947,-0.8122109985,0.005039015785,0.01770805195,-0.007494486868,5
13.08505633,-0.7667056274,9.717043304,-0.8363108826,0.01266979892,0.005533066113,-0.00636755256,5
13.10509833,-0.7658074951,9.714797974,-0.8461903381,0.0152366776,0.005120139569,-0.006119579077,5
13.12514133,-0.7897576904,9.71285202,-0.8677455139,0.01603136398,0.007669317536,-0.008178735152,5
13.14518346,-0.7843688965,9.723330231,-0.8167016602,0.0086572133,-0.004099586979,-0.00365778571,5
13.16522546,-0.7517367554,9.748328247,-0.8029302979,0.008549109101,-0.01041785628,0.003914533183,5
13.18526746,-0.7336244202,9.731114044,-0.7875123596,0.008624456823,-0.01122780424,0.006062219851,5
13.20531046,-0.7515870667,9.738448792,-0.8032296753,0.008038775995,0.001646693796,0.003103111405,5
13.22535246,-0.784069519,9.746681671,-0.8888516235,0.003923126496,0.008924313821,0.001415732666,5
13.24539446,-0.7444020081,9.657616882,-0.8363108826,0.006215761881,-0.01017741486,-5.774595775e-05,5
13.26543746,-0.736917572,9.773925018,-0.8337661743,-0.004406079184,0.002219752409,0.004228449427,5
13.28547946,-0.6978488159,9.753717041,-0.8437953186,-0.004406798631,-0.003397448454,0.009805858135,5
13.30552146,-0.7743397522,9.727671204,-0.8851094055,0.01080033928,-0.004064229317,0.00808217749,5
13.32556446,-0.8476872253,9.7011763,-0.8574169922,0.008637009189,0.005570361856,0.001072919462,5
13.34560646,-0.7924520874,9.712103577,-0.8536747742,-0.005673983134,0.004269503523,-0.001905995421,5
13.36564846,-0.7450007629,9.732161865,-0.856967926,-0.002786690602,-0.005130510777,-0.001807289897,5
13.38569046,-0.7659571838,9.726473694,-0.8967851257,0.004812781699,-0.009527252987,0.00208542007,5
13.40573346,-0.7896080017,9.751322021,-0.9168434143,0.01193418168,0.0002245656215,0.002543847542,5
13.42577546,-0.7816744995,9.713750153,-0.8632548523,0.01206811052,-0.004276625812,0.00387181947,5
13.44581746,-0.7274871826,9.718839569,-0.8277786255,0.001791317947,-0.01498765592,0.006521348841,5
13.46586046,-0.7643106079,9.735455017,-0.8297245789,-0.001473378623,0.007092454471,0.0007201475091,5
13.48590246,-0.8086184692,9.733359375,-0.844094696,-0.002882405184,0.02777991071,-0.0044969148,5
13.50594446,-0.7864645386,9.724228363,-0.93256073,-0.002150292043,0.01752265543,0.002234436804,5
13.52598746,-0.750838623,9.736203461,-0.9331594849,0.000149036292,-0.003254983574,0.01041132584,5
13.54602946,-0.7649093628,9.728569336,-0.8830137634,-0.005360546056,-0.01225861628,0.008734195493,5
13.56607146,-0.84948349,9.721384277,-0.867146759,-0.001488371985,0.004309511278,0.003501334693,5
13.58611346,-0.8577163696,9.730814667,-0.8608598328,0.0004667961039,0.006009810604,0.0009651742876,5
13.60615646,-0.796942749,9.72228241,-0.8988807678,-0.003363167867,-0.007112489548,0.004570866004,5
13.62619846,-0.7481442261,9.730515289,-0.8921447754,0.002601344604,-0.01633027941,0.008116748184,5
13.64624046,-0.752485199,9.70701416,-0.9087602234,0.002460455988,-0.01123388298,0.007677873597,5
13.66628346,-0.7900570679,9.710606689,-0.8508306885,0.01070080232,0.008949045092,0.00291108503,5
13.68632546,-0.7506889343,9.732012177,-0.8713380432,0.004050968215,0.01200789213,-0.0003478720319,5
13.70636746,-0.7568261719,9.75386673,-0.8722361755,0.002561071422,0.008048974909,0.002914468991,5
13.72641046,-0.7574249268,9.68710556,-0.8259823608,0.004098452162,-0.009219158441,0.004327792674,5
13.74645246,-0.7568261719,9.717642059,-0.8616082764,0.005041698925,0.01187635027,0.0002328371629,5
13.76649446,-0.7592211914,9.775122528,-0.8265811157,0.00723905582,0.03157334775,-0.001557276584,5
13.78653646,-0.7023394775,9.735754395,-0.8506809998,0.003532903735,-0.00218403386,0.00531538669,5
13.80657946,-0.7580236816,9.68710556,-0.9358538818,0.00659982767,-0.02112931944,0.005236961879,5
13.82662146,-0.826431427,9.718240814,-0.909508667,0.003361527808,0.00465493137,-0.001859939191,5
13.84666346,-0.7789801025,9.769134979,-0.772842865,0.004482994787,0.03154636919,-0.009301403537,5
13.86670646,-0.6786886597,9.745933228,-0.7447013855,0.002889170079,0.01550708152,-0.002646168228,5
13.88674846,-0.6713539124,9.713750153,-0.9401948547,0.0001387295779,-0.02442744188,0.01110556349,5
13.90679046,-0.7427554321,9.708361359,-0.9210346985,0.01226003841,-0.0351379104,0.01129490416,5
13.92683246,-0.8178991699,9.718839569,-0.8261320496,0.004707997665,-0.004763720557,0.005182054825,5
13.94687546,-0.7813751221,9.758656769,-0.7815248108,-0.003994167782,0.02367157675,-0.0005923558492,5
13.96691746,-0.7191046143,9.754016418,-0.7842192078,-0.008842809126,0.0144747654,0.002684499137,5
13.98695946,-0.6734495544,9.707313538,-0.9509724426,-0.004776196554,-0.01537182741,0.00938194897,5
14.00700246,-0.7235952759,9.70581665,-0.8878038025,0.001107649761,-0.01323184744,0.008404867724,5
14.02704446,-0.7520361328,9.730664978,-0.8289761353,-0.007736618165,0.00967624411,0.008638588712,5
14.04708646,-0.7804769897,9.696685638,-0.8659492493,-0.02113755792,0.01146619208,0.001300986856,5
14.06712946,-0.7869136047,9.755363617,-0.8536747742,-0.01825585589,0.008079404011,0.002611385658,5
14.08717146,-0.6858737183,9.726324005,-0.8655001831,-0.00622233795,-0.006711151917,0.00652189739,5
14.10721346,-0.7280859375,9.773326263,-0.8990304565,0.003914870787,0.002054157201,0.002651971998,5
14.12725646,-0.7279362488,9.691895599,-0.8684939575,0.01393236779,-0.001018856652,0.002281195018,5
14.14730283,-0.7261399841,9.717791748,-0.9503736877,0.01010587625,-0.01705661044,0.006092162337,5
14.16734483,-0.7265890503,9.746082916,-0.8622070313,0.009734534658,-0.02292243578,0.004417413846,5
14.18738683,-0.7619155884,9.77377533,-0.786763916,-0.00315461494,-0.001980660949,-0.0002168174833,5
14.20742983,-0.7140151978,9.772877197,-0.8259823608,-0.01149072777,-0.007899051532,0.003170009935,5
14.22747183,-0.6776408386,9.674831085,-0.8659492493,-0.004721397534,-0.01664102077,0.005819155835,5
14.24751383,-0.7132667542,9.744586029,-0.9201365662,-0.002151187975,0.005500133149,-0.003795380937,5
14.26755683,-0.7102729797,9.761800232,-0.8319699097,-0.0008918517269,0.02273627371,0.0002220389433,5
14.28759883,-0.7173083496,9.723330231,-0.8695417786,0.001348417136,0.003138078377,0.00576987071,5
14.30764083,-0.7307803345,9.702523499,-0.8737330627,-0.000174669316,-0.02336634323,0.01088773832,5
14.32768383,-0.7126679993,9.754615173,-0.889151001,-0.004841212183,-0.0104231555,0.005040061194,5
14.34772583,-0.7214996338,9.744885406,-0.8080197144,-0.001605354249,0.01914860494,-0.002789067803,5
14.36776783,-0.7288343811,9.738897858,-0.8307723999,-0.009075665846,0.009464083239,-0.003854776965,5
14.38780983,-0.6863227844,9.692344666,-0.8985813904,-0.001290437067,-0.01098322775,0.005824426189,5
14.40785283,-0.7023394775,9.696236572,-0.9081614685,0.008700812235,-0.01441920735,0.007495527156,5
14.42789483,-0.7679031372,9.746232605,-0.8761280823,0.003977489658,0.02640105784,-0.004857739899,5
14.44793683,-0.7086264038,9.743538208,-0.7776329041,-0.01520936098,0.02410795167,-0.0009642976802,5
14.46797983,-0.6753955078,9.743987274,-0.896635437,-0.01698441058,-0.01194354612,0.009849664755,5
14.48802183,-0.7333250427,9.714199219,-0.9089099121,-0.002759090625,-0.0175847318,0.006062464789,5
14.50806383,-0.7978408813,9.723180542,-0.8767268372,-0.003170780838,0.018720828,-0.00271863956,5
14.52810683,-0.7491920471,9.726773071,-0.8140072632,-0.005721760914,0.01672871411,-0.000419516582,5
14.54814883,-0.6979985046,9.723779297,-0.8719367981,-0.00564752752,-0.002315317746,0.003716628533,5
14.56819083,-0.7361691284,9.72572525,-0.9656419373,0.0008695009165,-0.009798431769,0.002142960904,5
14.58823283,-0.7482939148,9.729617157,-0.8777746582,-0.006319301203,-0.01413029432,0.002159713535,5
14.60827583,-0.7469467163,9.754315796,-0.8170010376,-0.01368877292,-0.01239187084,0.004516751505,5
14.62831783,-0.7352709961,9.756112061,-0.7786807251,-0.008354311809,-0.0009924988262,0.00137099158,5
14.64835983,-0.7182064819,9.736802216,-0.8737330627,-0.009607941844,-0.008392564952,0.002269324148,5
14.66840283,-0.7009922791,9.686806183,-0.8930429077,-0.008496017195,-0.01821288094,0.005874195136,5
14.68844483,-0.7226971436,9.735305328,-0.8556207275,-0.01048352756,-0.02437559515,0.005103209987,5
14.70848683,-0.7286846924,9.754615173,-0.8249345398,-0.01337874681,-0.010660531,0.002872657264,5
14.72852983,-0.763711853,9.760453033,-0.8613088989,-0.01263018418,0.008750154637,0.004126393236,5
14.74857183,-0.7620652771,9.682016144,-0.9116043091,-0.01747059636,-0.01183903031,0.002889590571,5
14.76861383,-0.698896637,9.769284668,-0.8696914673,-0.01652346179,-0.006300232839,0.006062302273,5
14.78865583,-0.7113208008,9.757608948,-0.7833210754,-0.01150212344,0.0006375445519,0.004701887723,5
14.80869883,-0.7632627869,9.685608673,-0.9177415466,-0.009406358004,-0.01787502319,0.009611456655,5
14.82874083,-0.784069519,9.671388245,-0.9033714294,-0.004092659801,-0.02328615636,-0.001245281659,5
14.84878283,-0.7734416199,9.750423889,-0.8174501038,-0.00905027613,0.004147728439,-0.008163342252,5
14.86882583,-0.6393205261,9.735904083,-0.742306366,-0.01038112026,0.006730530877,-0.002438094933,5
14.88886783,-0.6471043396,9.764644318,-0.8768765259,-0.01087922789,-0.01706769131,0.006096115801,5
14.90890983,-0.7050338745,9.720186768,-0.8768765259,-0.00745048048,-0.02583572082,0.00827355776,5
14.92895283,-0.7511380005,9.72931778,-0.843046875,-0.00809908472,-0.007548455615,0.002354915719,5
14.94899483,-0.7545808411,9.75386673,-0.7018904114,-0.01753102243,0.01772489958,-0.000832300866,5
14.96903683,-0.7123686218,9.768835602,-0.7694000244,-0.02946605161,0.01272231713,0.0001067728736,5
14.98907883,-0.6788383484,9.724378052,-0.8348139954,-0.0181469433,-0.01490384899,0.008366268128,5
15.00912183,-0.7057823181,9.693841553,-0.8602610779,-0.01129412372,-0.007701778784,0.005750097334,5
15.02916383,-0.7631130981,9.732311554,-0.8047265625,-0.005831233226,0.01494438946,-0.001787784044,4
15.04920583,-0.742306366,9.754764862,-0.732127533,-0.01403392106,0.01558163762,-0.001399941044,4
15.06924883,-0.7164102173,9.740544434,-0.8108638,-0.0178032089,-0.00213339692,0.002011748031,4
15.08929083,-0.7644602966,9.707912292,-0.8726852417,-0.006747758947,-0.01888731122,-0.001560644479,4
15.10933283,-0.7499404907,9.712702332,-0.7677534485,-0.01152253337,-0.007123758085,-0.002951617585,4
15.12937583,-0.6581813049,9.775870972,-0.7622149658,-0.02764390036,-0.02082045563,0.007775546517,4
15.14941358,-0.6653663635,9.760752411,-0.7807763672,-0.01989926584,-0.0426408574,0.01682668179,4
15.16945558,-0.7499404907,9.799372101,-0.7903564453,-0.0198148191,-0.0163673237,0.01624551229,4
15.18949858,-0.8008346558,9.740394745,-0.8002359009,-0.02124563418,0.005882867612,0.005758081563,4
15.20954058,-0.7842192078,9.736951904,-0.7714956665,-0.02493558824,0.000707609579,0.005274006631,4
15.22958258,-0.7081773376,9.679471436,-0.9125024414,-0.0410970524,-0.02942928672,0.01264189929,4
15.24962458,-0.7554789734,9.762548676,-0.8666976929,-0.03791828454,-0.04462847114,0.01505892072,4
15.26966758,-0.8598120117,9.823471985,-0.9062155151,-0.06001258269,-0.03528252989,0.01265850477,4
15.28970958,-0.8803193665,9.879156189,-0.9213340759,-0.06631490588,-0.03367912024,0.0227796603,4
15.30975158,-0.8030799866,9.871072998,-0.8527766418,-0.1063368022,-0.0728315413,0.05107036978,4
15.32979458,-0.6351292419,9.725874939,-1.170565796,-0.1313425004,-0.09105882049,0.07713507861,4
15.34983658,-0.8140072632,9.752070465,-1.172212372,-0.117393747,-0.08711568266,0.08887380362,4
15.36987858,-1.074315948,9.730814667,-1.076710968,-0.1352177858,-0.05258292332,0.07599914074,4
15.38992158,-0.9442364502,9.717492371,-1.020577698,-0.1893955469,-0.03770561516,0.05331944674,4
15.40996358,-0.822689209,9.804311829,-1.048569489,-0.2238271683,-0.0720892325,0.04986030981,4
15.43000558,-0.7963439941,9.805958405,-0.9577084351,-0.2304955721,-0.09631122649,0.06365485489,4
15.45004858,-0.8201445007,9.720186768,-0.9147477722,-0.233545512,-0.1266028732,0.07883552462,4
15.47009058,-0.7729925537,9.680219879,-1.129700775,-0.242012158,-0.135411337,0.08874136209,4
15.49013258,-0.703686676,9.70581665,-1.152303772,-0.2569015622,-0.124181807,0.09008648247,4
15.51017458,-0.7725434875,9.707762604,-1.034049683,-0.2822920978,-0.07352085412,0.07121839374,4
15.53021758,-0.9225315857,9.746981049,-0.9590556335,-0.3636982739,0.003534256015,0.04421074688,4
15.55025958,-0.8243357849,9.639654236,-0.8611592102,-0.4627270103,0.01382616069,0.04733739048,4
15.57030158,-0.679586792,9.674831085,-0.9663903809,-0.5501635075,-0.01082968339,0.07807695121,4
15.59034458,-0.6740483093,9.578431549,-1.022823029,-0.5998249054,0.01717641763,0.1146735549,4
15.61038658,-0.8149053955,9.547745361,-1.179247742,-0.5989182591,0.03275931999,0.09838528186,4
15.63042858,-1.013542328,9.472601624,-1.375489655,-0.6328386664,-0.007062452845,0.06595539302,4
15.65047158,-1.081501007,9.437724152,-1.391057281,-0.7059332728,-0.04024640471,0.03712369874,4
15.67051358,-1.056502991,9.432185669,-1.187031555,-0.8212977648,-0.08781598508,0.009861966595,4
15.69055558,-1.002315674,9.390272827,-0.9984237671,-0.9218807817,-0.09667160362,-0.02542803809,4
15.71059858,-1.107546844,9.194779358,-0.9021739197,-0.9656466842,-0.07913265377,-0.09540979564,4
15.73064058,-1.109642487,8.685089264,-0.8845106506,-1.039589763,-0.09136661887,-0.265450716,4
15.75068258,-1.126557312,8.041128387,-1.152004395,-1.288222909,-0.2980504632,-0.5399902463,4
15.77072458,-1.030606842,7.897277527,-1.217867432,-1.679475904,-0.450065881,-0.8532171845,4
15.79076758,-1.460961914,8.17420166,0.5505551147,-1.86649096,0.3736059964,-0.8918555379,4
15.81080958,-2.321821747,8.557404785,2.588417358,-1.773073792,0.8182426691,-0.6016768813,4
15.83085158,-1.745370483,8.492140503,1.903292084,-1.682077527,0.0370792523,-0.3353252709,4
15.85089458,-0.7337741089,8.686586151,1.453477478,-1.701121092,-0.7711462379,-0.1282673031,4
15.87093658,-0.9237290955,9.009913788,2.924767914,-1.871161103,-0.4959186912,0.0804104954,4
15.89097858,-1.240620117,9.206155701,3.24225769,-2.126373291,0.1072461605,0.1844015121,4
15.91102158,-1.178499298,8.692124634,3.880829773,-2.290108204,0.1418022513,0.197872445,4
15.93106358,-1.050814819,8.11342804,4.391567688,-2.241853714,-0.4999997914,0.1484309733,4
15.95110558,-0.8976832581,7.008425903,3.95372818,-2.108385801,-0.6067564487,0.1062461361,4
15.97114858,-0.9250762939,5.38594986,3.157982941,-2.234901905,-0.3394236863,0.1489769965,4
15.99119058,-0.8036787415,4.166884918,2.923271027,-2.63507247,-0.1811373979,0.04288217425,4
16.01123258,0.1832189941,3.800895996,5.585484924,-2.857980251,-0.7676149011,-0.06726018339,4
16.03127558,0.8000862122,6.557713165,7.202272797,-2.444217205,-0.5777890086,-0.03621634468,4
16.05131758,0.2767744446,7.651338959,5.310656433,-2.393134832,0.03379478678,0.2348940969,4
16.07135958,-0.5292993164,6.207142181,5.162015533,-2.577168226,0.1927807778,0.339645505,4
16.09140158,-0.4061054993,4.169429626,6.559060364,-2.664708853,-0.006987214554,0.1700364947,4
16.11144458,-0.4845423889,4.16194519,7.576644287,-2.418507814,-0.2111819386,-0.01576795243,4
16.13148658,-1.074016571,4.579277344,7.414082336,-2.056882381,-0.6969481707,-0.02819816209,4
16.15153233,-1.193917236,5.111271057,7.885452118,-1.754113674,-0.7076524496,0.02862883918,4
16.17157533,-0.642613678,5.954168243,9.124126282,-1.81848526,-0.8198709488,0.1688334495,4
16.19161733,-0.28081604,6.883286133,8.491841125,-1.840306282,-0.3912543356,0.2035644501,4
16.21165933,-0.2866539001,6.459816742,8.363258514,-2.239527941,0.0727962777,0.1233500689,4
16.23170233,0.3152444458,4.751868439,8.028554535,-2.253283501,0.1326459944,0.1055750921,4
16.25174433,-0.5453160095,4.890779572,11.54159912,-2.003156662,-0.1587667763,0.2726227343,4
16.27178633,-1.300196228,4.43812088,10.22852966,-1.841853738,-0.3433021307,0.12534751,4
16.29182933,-1.138831787,3.94085495,9.430688782,-1.938552618,-0.3528492153,-0.1112001985,4
16.31187133,0.2582130432,4.026027832,9.292226715,-1.964658022,-0.2166985869,-0.07877635211,4
16.33191333,0.7852670288,3.266806641,9.397158508,-1.90837729,-0.2449059337,0.1033700034,4
16.35195633,0.29368927,2.302212524,9.058562622,-1.782453418,-0.3703817129,0.1216715053,4
16.37199833,0.04116439819,1.759291534,8.40352478,-1.842863321,-0.5470462441,-0.003482757369,4
16.39204033,-0.3995191956,2.012415161,8.92429184,-1.85315156,-0.6175885201,-0.1559510082,4
16.41208233,0.1064286804,1.375789032,8.869505768,-1.803801537,-0.7725256085,-0.1259530485,4
16.43212533,1.121467896,0.9089099121,8.920998688,-1.814394951,-0.7451816201,-0.02433286607,4
16.45216733,1.332379303,0.2179467773,8.716374207,-1.820646882,-0.7376104593,0.008586091921,4
16.47220933,1.245859222,-0.527353363,8.621770935,-1.732982874,-0.7590199709,-0.01227599848,4
16.49225233,1.044976959,-0.3112028503,8.616382141,-1.645105481,-0.8256629705,0.007848585024,4
16.51229433,0.4007167053,-0.8499325562,8.526568909,-1.589800477,-0.7775661945,0.06731876731,4
16.53233633,1.325044556,-1.919009399,8.809031525,-1.653655648,-0.6310940385,0.000575319631,4
16.55237933,2.492616577,-2.892884216,9.424551544,-1.472401738,-0.3336404562,0.01517099328,4
16.57242133,2.063159637,-4.544848938,11.25030487,-1.209428549,-0.3872419298,0.1984070987,4
16.59246333,2.340233459,-5.362748108,11.63470551,-0.9097168446,-0.6115981936,0.08391667902,4
16.61250633,2.714455261,-6.205495605,12.12822922,-0.4852803349,-0.7310422659,-0.04434428364,4
16.63254833,3.467090149,-6.850055237,12.98789154,0.06521050632,-0.8060193658,-0.0167153161,4
16.65259033,4.474046173,-6.950047302,13.99694321,0.3239626288,-0.811758697,-0.04345180839,4
16.67263233,5.029541016,-6.885381775,14.63850906,0.7222334743,-0.8945482373,-0.04613216966,4
16.69267533,5.423222351,-5.511838074,15.17319717,1.041798711,-1.004460573,-0.04713318124,4
16.71271733,5.644911346,-5.121300201,12.29588058,1.028156757,-1.029653788,-0.1180347651,4
16.73275933,5.610333252,-4.163591766,10.75737991,0.9730826616,-0.9360489249,-0.1557050347,4
16.75280233,4.971312103,-3.161276093,9.138047333,0.5979161859,-0.6446722746,-0.08784309775,4
16.77284433,3.994144135,-2.472258911,8.070916443,0.1657001525,-0.3592562377,0.03085787408,4
16.79288633,3.324436798,-2.164349213,6.922953644,-0.1570548266,-0.2623212337,0.08805702627,4
16.81292933,3.180585938,-2.071392517,7.780969391,-0.2159891278,-0.06745953858,0.01824661158,4
16.83297133,2.706072693,-1.303639069,10.07779312,0.1447900236,0.284757942,0.01824965328,4
16.85301333,2.327809296,-0.675844574,8.205187225,0.003414676758,-0.09935797751,0.08605198562,4
16.87305633,1.852697296,-0.04101470947,6.83568512,-0.2000418156,-0.146191448,0.1847499758,4
16.89309833,2.041454773,-0.1020877075,7.366032257,-0.2405857444,-0.05179046839,0.3137840033,4
16.91314033,1.80898819,-0.5266049194,8.115224304,-0.2029859871,0.01870415919,0.4485764205,4
16.93318333,1.837878113,-0.9339079285,8.310717773,-0.1709052473,-0.05159624666,0.5073792338,4
16.95322533,2.251168671,-1.585652618,8.797206116,-0.2010436356,-0.2168631256,0.4115308821,4
16.97326733,3.037333832,-2.315085754,9.518855438,-0.1912032068,-0.2808042467,0.1916593164,4
16.99330933,3.959715729,-3.175197144,10.00833755,-0.1484048814,-0.1919321865,0.04092872888,4
17.01335233,4.411326599,-3.985761566,10.23930725,-0.02342221886,-0.04613211751,0.05987611413,4
17.03339433,4.447102203,-4.277355194,10.21056702,0.1420335472,0.09298936278,0.1169949844,4
17.05343633,3.9654039,-3.671415253,9.902807007,0.09814514965,-0.05236321688,0.1636014879,4
17.07347933,2.964884491,-2.811902618,9.432634735,-0.008079951629,-0.1321504265,0.164960742,4
17.09352133,3.139271851,-2.931803284,9.846074982,0.03593931347,-0.06369506568,0.09957184643,4
17.11356333,3.645519104,-3.312012634,9.62513443,0.1261042058,0.02435991913,-0.02027483657,4
17.13360633,3.8472995,-2.935994568,9.262588348,0.1463481188,0.06845871359,-0.1626922488,4
17.1536455,3.273692322,-1.787582703,8.929231567,0.07745160162,0.05922473222,-0.2030138373,4
17.1736875,2.659519501,-0.6746470642,8.505911865,0.01075247768,0.09280150384,-0.1554394662,4
17.1937305,2.456691284,-0.439486084,8.193960571,-0.02677045204,0.1010177955,-0.09822386503,4
17.2137725,2.553240509,-0.7402107239,8.171806641,-0.05638156086,0.1008502096,-0.07901521027,4
17.2338145,2.59410553,-0.8095166016,8.564440155,-0.04513714835,0.1455204785,-0.06211831048,4
17.2538575,2.596201172,-0.8120613098,9.133257294,-0.01436368003,0.1438215077,-0.04252826795,4
17.2738995,2.942131805,-0.9506730652,9.059161377,-0.04859048501,0.02834218368,-0.03770798072,4
17.2939415,3.049159241,-1.355281677,8.907676392,-0.1288401186,0.04573482648,-0.03587547317,4
17.3139845,3.083587646,-1.610500946,9.338181152,-0.1185360923,0.04918733984,-0.04375703633,4
17.3340265,3.263064423,-1.799108734,9.773925018,-0.05336151272,-0.06438331306,-0.05242287368,4
17.3540685,3.317551117,-1.879341888,9.785301361,-0.00259349402,-0.1114864871,-0.05006985739,4
17.3741105,3.313958588,-1.97155014,9.547745361,0.009362846613,-0.08733913302,-0.0399251245,4
17.3941535,3.37458252,-2.029030609,9.297166443,0.004298624583,-0.04425086081,-0.02881114371,4
17.4141955,3.415896606,-2.04878952,9.145831146,0.01115784515,-0.02100946568,-0.0261385981,4
17.4342375,3.307222595,-1.976789246,9.024134216,0.01251010876,-0.008189650252,-0.02671053633,4
17.4542805,3.189866638,-1.940564575,8.93477005,0.00226060464,-0.01062610652,-0.02813800424,4
17.4743225,3.074756012,-1.838327179,8.909921722,-0.006881557405,-0.0009241420776,-0.04048789665,4
17.4943645,3.077151031,-1.742376709,8.968450012,-0.007433772087,0.01454442553,-0.05166462064,4
17.5144075,3.12415329,-1.722019043,9.14538208,-0.01617505588,0.02910649031,-0.0677376613,4
17.5344495,3.242407379,-1.711241455,9.239536285,-0.01495090686,0.01531519368,-0.09029339999,4
17.5544915,3.325933685,-1.69896698,9.30105835,-0.001396544976,-0.001938026398,-0.09681522846,4
17.5745345,3.242108002,-1.771116943,9.190737762,-0.007659971248,0.00697976537,-0.09667219967,4
17.5945765,3.291355591,-1.877096558,9.06110733,-0.01858410798,0.006115812808,-0.09491321445,4
17.6146185,3.215014343,-1.8592836,9.025331726,-0.01359803881,0.01381315943,-0.08394568413,4
17.6346615,3.053649902,-1.804347839,9.028924255,-0.005048946477,0.01272226963,-0.05708615854,4
17.6547035,2.916535034,-1.864073639,9.092092896,0.0001196304802,-0.006968136877,-0.04045335203,4
17.6747455,2.930456085,-1.907932434,9.170529785,0.004170952365,-0.01911846362,-0.03953631967,4
17.6947885,3.051254883,-1.881287842,9.150172119,0.01012154669,-0.02709551901,-0.04085444286,4
17.7148305,3.152294769,-1.807940369,9.07757309,0.007781178225,-0.02693971246,-0.04291898757,4
17.7348725,3.273991699,-1.764830017,9.029972076,0.005312791094,-0.02390455827,-0.04489036649,4
17.7549155,3.366649017,-1.750908966,9.067693634,-0.005065810867,-0.01094237156,-0.04059396684,4
17.7749575,3.438050537,-1.834135895,9.130562897,-0.004477448761,-0.001599155832,-0.03770201281,4
17.7949995,3.395389252,-1.77156601,9.224866791,0.005780009553,0.01324201562,-0.03549784422,4
17.8150415,3.292852478,-1.711989899,9.243428192,0.01412434783,0.002581720706,-0.01815976761,4
17.8350845,3.057242432,-1.710792389,9.16648819,0.01148494333,-0.001673654653,-0.004137943499,4
17.8551265,3.048560486,-1.841919708,9.112151184,0.008385566995,0.00269755302,0.001722804504,4
17.8751685,3.131637726,-1.820214844,9.078920288,0.005254415795,0.003669780912,0.001514600473,4
17.8952115,3.201841736,-1.783990173,9.091045074,0.004587632604,0.0003377259709,0.001956097316,4
17.9152535,3.218008118,-1.767374725,9.070238342,0.003754212521,0.000613350654,-0.001058622729,4
17.9352955,3.250640259,-1.78084671,9.065298615,0.001436836901,0.004253210034,-0.004146466032,4
17.9553385,3.268602905,-1.728605347,9.101972351,-0.0005061982665,0.003501507919,-0.008581426926,4
17.9753805,3.227887573,-1.712289276,9.057365112,-0.004680371843,-0.001531883143,-0.008101582527,4
17.9954225,3.171155548,-1.753603363,9.057814178,-0.008289445192,-0.003255344462,-0.005219889805,4
18.0154655,3.171903992,-1.786834259,9.086704102,-0.004986005835,0.001723786816,-0.006961586419,4
18.0355075,3.194057922,-1.810634766,9.138496399,-0.001926479395,0.005591548048,-0.007552318275,4
18.0555495,3.211721191,-1.802551575,9.153165894,-0.001536627533,0.002534219995,-0.007413175888,4
18.0755925,3.216810608,-1.811383209,9.167236633,0.002599351574,-0.001170930453,-0.007286256179,4
18.0956345,3.243155823,-1.787732391,9.128167877,0.004913354758,-0.002493468113,-0.007459834684,4
18.1156765,3.248544617,-1.770218811,9.113348694,0.004656066187,-0.0007852241397,-0.005970731378,4
18.1357195,3.22713913,-1.755998383,9.080417175,0.0003324861173,0.003292005975,-0.004867633805,4
18.15576088,3.207679596,-1.766925659,9.096433868,-0.003481834661,0.007841079496,-0.004484108649,4
18.17580287,3.192860413,-1.74806488,9.111702118,-0.004206560552,0.007313831244,0.0006270755548,4
18.19584588,3.198847961,-1.75510025,9.109756165,-0.003834029427,0.008177042007,0.002513849176,4
18.21588787,3.195704498,-1.744472351,9.126072235,-0.001576450421,0.006342667621,0.003067725571,4
18.23592988,3.182531891,-1.762584686,9.127718811,-0.002238698769,0.003308736021,0.002617338439,4
18.25597287,3.183729401,-1.786385193,9.115294647,-0.0005820882507,0.000302687753,0.004678655881,4
18.27601488,3.192860413,-1.798509979,9.083560638,-4.129693843e-05,0.004276171792,0.00517624151,4
18.29605687,3.199147339,-1.801653442,9.100325775,-0.001604074612,0.004156039096,0.004724956583,4
18.31609988,3.198548584,-1.779050446,9.09508667,-0.001578297466,0.004298169166,0.003360610921,4
18.33614187,3.214714966,-1.770667877,9.115144958,-9.95406881e-05,0.005626602098,0.002171883825,4
18.35618388,3.210823059,-1.747765503,9.111851807,-0.002390087815,0.003353659762,0.001902699471,4
18.37622587,3.213816833,-1.770218811,9.103469238,-0.002198340138,-0.0009207138792,0.001218267018,4
18.39626887,3.2142659,-1.788181458,9.12906601,0.003131824546,0.002946164925,-0.002561185742,4
18.41631087,3.234473877,-1.786235504,9.180259552,0.009096043184,0.007319121622,-0.007126087323,4
18.43635287,3.20483551,-1.741628265,9.187893677,0.008645055816,-0.0003368980251,-0.002030226635,4
18.45639588,3.171305237,-1.784888306,9.085656281,0.005639671348,-0.00220895512,0.002905394183,4
18.47643787,3.190465393,-1.804497528,9.043444061,0.003299347591,0.00295670866,0.002234291751,4
18.49647988,3.210523682,-1.79252243,9.093589783,0.0007867418462,0.005467600189,0.0003018733114,4
18.51652287,3.196452942,-1.779948578,9.118288422,-0.0003360642586,0.000916779507,-1.018866897e-05,4
18.53656488,3.187022552,-1.761836243,9.103618927,-0.0006192133296,-0.008411293849,0.001215920318,4
18.55660687,3.186423798,-1.769620056,9.084159393,-0.004286801443,-0.006188870408,0.002080141101,4
18.57664988,3.189417572,-1.757644958,9.102421417,-0.004471849184,-0.004758355208,0.002197200432,4
18.59669187,3.192261658,-1.775607605,9.108558655,-0.006533098407,-0.002516961657,0.002161056269,4
18.61673388,3.214864655,-1.784588928,9.113498383,-0.002194099594,-0.0003790813498,-0.00124794268,4
18.63677687,3.227588196,-1.76917099,9.145232391,0.0008108172333,-0.0007009641267,-0.003197962651,4
18.65681888,3.208128662,-1.762285309,9.153914337,0.003380484181,-0.004038982559,-0.002385106403,4
18.67686087,3.172502747,-1.790426788,9.110953674,0.002826304873,-0.001056116074,0.003162738169,4
18.69690388,3.191662903,-1.787133636,9.094338226,0.002202913864,0.002238030545,0.002070317511,4
18.71694587,3.187172241,-1.779349823,9.12427597,1.077633351e-05,0.003844878171,0.0009511061944,4
18.73698787,3.209924927,-1.768272858,9.126970367,-0.001091426471,0.001835198607,0.0003100375179,4
18.75703088,3.203638,-1.7703685,9.116791534,0.001753939781,-0.001150284894,0.00091758091,4
18.77707287,3.194207611,-1.773062897,9.116641846,0.0003894157708,0.0008036177605,0.0005217893049,4
18.79711488,3.195854187,-1.782343597,9.098379822,-0.00107582123,0.002120039193,0.0008811925072,4
18.81715787,3.202290802,-1.769769745,9.117839355,-0.0004374857526,0.00328158401,-0.0009400900453,4
18.83719988,3.212319946,-1.75749527,9.105265503,-0.001682862407,0.003377464833,0.002161546145,4
18.85724187,3.213667145,-1.764081573,9.127569122,0.0005036825314,-0.002266730182,0.0009361158591,4
18.87728488,3.194656677,-1.786085815,9.113498383,0.003004560247,-0.004876846448,0.0002347463742,4
18.89732687,3.178939362,-1.786834259,9.105864258,0.003337873612,-0.00519080041,0.002283681184,4
18.91736888,3.166365509,-1.797761536,9.078471222,-0.001104396302,-0.002643231768,0.001684714924,4
18.93741187,3.189866638,-1.770069122,9.131461029,0.0002003312111,0.001509887865,0.002077341778,4
18.95745388,3.197351074,-1.744172974,9.148076477,-0.0001139494125,-0.0002993736416,0.001502758707,4
18.97749587,3.212619324,-1.751358032,9.081165619,-0.001665673219,-0.004549511243,-0.0006955973804,4
18.99753888,3.197500763,-1.798809357,9.107361145,0.001495108125,-0.001208435744,-0.002713770606,4
19.01758087,3.223396912,-1.800156555,9.155411224,0.007945274003,0.002833814826,-0.009204622358,4
19.03762288,3.229983215,-1.768422546,9.210796051,0.01410355046,-0.001140697394,-0.003744282294,4
19.05766587,3.161874847,-1.749412079,9.117989044,0.006360240281,0.002208978403,0.003818454919,4
19.07770787,3.179238739,-1.805994415,9.021140442,0.0007970486768,0.003765898757,0.003332596039,4
19.09774987,3.219205627,-1.773661652,9.087602234,0.0017043876,0.006544907577,0.0004678335972,4
19.11779287,3.217559052,-1.763482819,9.130862274,7.850024849e-05,0.002489271108,0.0004493209999,4
19.13783488,3.197949829,-1.740879822,9.130413208,3.176322207e-05,-0.001344060525,0.0001350278035,4
19.15787671,3.183130646,-1.759890289,9.07637558,-0.0004805144854,-0.0006652544253,0.002417990472,4
19.17791971,3.185226288,-1.772763519,9.083560638,-0.002311935648,0.001279939897,0.001116647152,4
19.19796171,3.174748077,-1.777852936,9.115893402,-0.002521516522,0.004341141321,0.002993841888,4
19.21800371,3.182531891,-1.766177216,9.130263519,-0.00147176045,0.0001749617513,0.001147457166,4
19.23804671,3.205434265,-1.781445465,9.128916321,0.00156743871,-0.002288462128,-0.0002222065814,4
19.25808871,3.204985199,-1.771416321,9.13250885,0.002621970838,-0.003042345401,-0.0002756912727,4
19.27813071,3.185076599,-1.774260406,9.111253052,0.002188709565,-0.0008470788598,0.001641663956,4
19.29817271,3.200943604,-1.773212585,9.106912079,0.0006621506764,0.002445630496,-0.0008557275869,4
19.31821571,3.214714966,-1.778302002,9.12427597,0.0006737442454,0.004198396113,-0.0006080835592,4
19.33825771,3.200943604,-1.765578461,9.112001495,-0.001509408234,0.001164104789,-0.0004263664596,4
19.35829971,3.210823059,-1.771715698,9.107510834,-0.00121762231,0.003324504709,0.0002453853376,4
19.37834271,3.21187088,-1.771715698,9.12427597,0.0002181846648,0.003843511222,0.0003885608166,4
19.39838471,3.196452942,-1.777553558,9.130712585,0.001226350199,0.001534968615,-0.0005849138834,4
19.41842671,3.199147339,-1.774260406,9.107061768,0.001631745487,0.0009372858331,0.001982921036,4
19.43846971,3.190764771,-1.763183441,9.11260025,-0.0004598041996,0.002982546575,0.00619753357,4
19.45851171,3.184328156,-1.771266632,9.108259277,-0.0006386961322,0.004801044706,0.004997190554,4
19.47855371,3.189417572,-1.764979706,9.117090912,0.0002338625491,0.005109019112,0.002337046433,4
19.49859671,3.204685822,-1.783690796,9.118288422,-0.001495389966,0.002575091086,0.0006722901016,4
19.51863871,3.189716949,-1.758243713,9.115893402,0.0005176656414,-0.001850188244,0.0005773494486,4
19.53868071,3.206781464,-1.78443924,9.121731262,0.003913002554,-0.0006439555436,-0.002355918055,4
19.55872371,3.176095276,-1.775457916,9.131161652,0.001705435454,-0.002400663216,-0.001547320513,4
19.57876571,3.169958038,-1.792672119,9.123377838,0.001258975477,-0.002765751909,-0.0008321006317,4
19.59880771,3.166964264,-1.767374725,9.114845581,0.002074878197,0.001026755432,0.001230637543,4
19.61885071,3.179388428,-1.744023285,9.105415192,0.0004479011986,-0.002273739781,0.002408462577,4
19.63889271,3.214565277,-1.741927643,9.086704102,-0.003826845903,-0.004620896187,0.001406494528,4
19.65893471,3.217409363,-1.784888306,9.11499527,0.002250069287,0.0004292242229,-0.0009838689584,4
19.67897771,3.22474411,-1.793270874,9.181007996,0.008221426979,0.003693644889,-0.006043834612,4
19.69901971,3.250640259,-1.779050446,9.198970642,0.01222644001,-0.001327981241,-0.006337420084,4
19.71906171,3.16277298,-1.748813324,9.144933014,0.005135099404,0.001945436001,0.001751693781,4
19.73910471,3.149750061,-1.825004883,9.049730988,0.001727342955,0.006791457534,0.006126158871,4
19.75914671,3.202739868,-1.767225037,9.088350677,0.001180561376,0.005652399734,0.001477731159,4
19.77918871,3.194506989,-1.7504599,9.121880951,0.000773817068,0.001701924019,0.0006604511291,4
19.79923171,3.176095276,-1.737137604,9.107510834,-0.000616380712,-0.003795278724,0.002037438098,4
19.81927371,3.174748077,-1.755399628,9.100026398,-0.001222097548,-0.0009347451851,0.001246909145,4
19.83931571,3.180136871,-1.777104492,9.111851807,-0.002124438761,0.001818234334,0.0003584637307,4
19.85935871,3.171604614,-1.780996399,9.108259277,-0.004578942433,0.0006794449873,0.0006266855635,4
19.87940071,3.19196228,-1.780098267,9.130113831,-0.002260765061,-0.002550246194,-0.0003037338611,4
19.89944271,3.204236755,-1.785786438,9.136700134,0.001073280931,-0.0008729598485,-0.001810665941,4
19.91948571,3.211421814,-1.761237488,9.132808228,0.002812342253,-0.003573392518,-0.002076242352,4
19.93952771,3.18732193,-1.761237488,9.126371613,0.001373709762,-0.001399870962,-0.0005422525574,4
19.95956971,3.189866638,-1.766027527,9.102870483,0.001033893786,0.001504612621,-0.0015775098,4
19.97961271,3.202141113,-1.760189667,9.10676239,-0.0004529869184,0.006091845222,0.001225676155,4
19.99965471,3.208128662,-1.75510025,9.141490173,-0.001154916594,0.001603828277,0.002029106254,4
20.01969671,3.183579712,-1.76333313,9.111702118,-0.001123436261,0.0002105403692,0.003456296632,4
20.03973971,3.183430023,-1.770667877,9.094338226,-0.00105027901,0.0009893053211,0.002202523639,4
20.05978171,3.177442474,-1.765428772,9.119785309,-0.0007911636494,-0.0002180631272,0.001791140414,4
20.07982371,3.171005859,-1.76797348,9.125174103,-0.000567413168,-0.0003539668396,0.002367256675,4
20.09986671,3.174149323,-1.781595154,9.113348694,0.0007317563286,0.0008547846228,0.003135800594,4
20.11990871,3.169059906,-1.774410095,9.115444336,-0.000384011073,0.002135985997,0.002034211997,4
20.13995071,3.186274109,-1.787133636,9.130413208,-0.000944997184,2.932734787e-06,-0.0007914325688,4
20.15999637,3.189567261,-1.777104492,9.113947449,0.0005318946205,-0.001195443328,-0.0007180899847,4
20.18003838,3.184627533,-1.759441223,9.113348694,0.001473349985,-0.0009510605596,-0.000784002943,4
20.20008037,3.172802124,-1.765578461,9.12906601,-0.0002589498181,-0.001633302309,-2.530217171e-05,4
20.22012338,3.187172241,-1.772164764,9.116941223,-2.933014184e-05,0.0004866537638,-0.001517466968,4
20.24016537,3.188369751,-1.765728149,9.117539978,-0.0006187222898,0.001510345843,0.000363906147,4
20.26020738,3.179388428,-1.771715698,9.11963562,-9.293458425e-05,0.0003757828381,0.00196948275,4
20.28025037,3.201841736,-1.763033752,9.115294647,-0.002185805701,0.002018798608,0.0009615623858,4
20.30029238,3.207679596,-1.76797348,9.117390289,-0.001379711786,0.002201309893,0.001493590185,4
20.32033437,3.200344849,-1.770218811,9.116641846,0.000681280857,0.001481020823,0.0004005054943,4
20.34037737,3.193608856,-1.775308228,9.123078461,0.002356319921,-0.0009950706735,0.0001328676008,4
20.36041937,3.179837494,-1.770218811,9.130712585,0.002405018313,-0.0009657777846,-9.371130727e-05,4
20.38046237,3.158581696,-1.781146088,9.108558655,0.0007769162767,-0.001383745112,0.003944573458,4
20.40050438,3.169658661,-1.78204422,9.12203064,0.0005024606362,0.001138688764,0.001489230315,4
20.42054637,3.185375977,-1.747166748,9.117839355,-0.0003632274456,-0.001669203863,0.001445424627,4
20.44058938,3.185825043,-1.736538849,9.089099121,-0.002520548878,-0.005147009622,0.0006020932924,4
20.46063137,3.197051697,-1.783990173,9.108109589,0.0005075992085,-0.004643556196,-0.0006844685413,4
20.48067338,3.21067337,-1.790726166,9.145980835,0.006270786747,0.002081342274,-0.006733463611,4
20.50071637,3.245101776,-1.787732391,9.212891693,0.01163531654,0.00113204075,-0.009208248928,4
20.52075838,3.172802124,-1.750609589,9.179511108,0.006984416395,-0.003178101033,-0.0009087000508,4
20.54080037,3.150049438,-1.790726166,9.062454529,0.004635179415,0.005398145877,0.003886040533,4
20.56084338,3.19899765,-1.778302002,9.088500366,0.0005210214294,0.007325894199,0.00191388058,4
20.58088537,3.193010101,-1.73519165,9.12906601,0.003278575838,-0.001811674796,0.0009026895277,4
20.60092738,3.184627533,-1.741328888,9.120982819,0.004338334315,-0.004006319679,0.001254999428,4
20.62097037,3.169958038,-1.764680328,9.0880513,1.120613888e-06,-0.001499327831,0.001449868549,4
20.64101238,3.156336365,-1.770218811,9.077124023,-0.003259387566,0.001053045737,0.0002410598099,4
20.66105437,3.187920685,-1.762584686,9.093440094,-0.004868576769,0.00345483725,0.0005118155386,4
20.68109737,3.198847961,-1.766476593,9.163344727,-0.00143530895,0.0001746790949,-0.001431449084,4
20.70113937,3.19315979,-1.779200134,9.145980835,0.001406397787,-0.002751634922,-0.001492066309,4
20.72118137,3.21651123,-1.760189667,9.16529068,0.003220360028,-0.002611310687,-0.002455205424,4
20.74122438,3.196902008,-1.758992157,9.14657959,0.003290204098,-0.001791532617,-0.002270078519,4
20.76126637,3.18732193,-1.751956787,9.103768616,-0.0001409333199,0.002685183659,-0.002281041583,4
20.78130838,3.193309479,-1.76333313,9.100325775,0.0006687472342,0.005593298469,0.0003229528666,4
20.80135137,3.203188934,-1.758393402,9.12667099,-0.001329643885,0.004329279996,0.001027166378,4
20.82139338,3.186723175,-1.759740601,9.119186554,5.322135985e-05,0.00039502047,0.0004653984215,4
20.84143537,3.197949829,-1.764231262,9.114546204,0.002367401263,0.0004335248377,-0.00271663256,4
20.86147838,3.189267883,-1.7703685,9.109606476,0.0007540411316,0.002061501145,0.0007468662225,4
20.88152037,3.160527649,-1.763632507,9.114546204,-0.001106045675,0.001115529099,-0.0003894576803,4
20.90156238,3.177891541,-1.756896515,9.126371613,0.0002660772298,0.0005103892181,0.0005032490008,4
20.92160537,3.176694031,-1.768422546,9.124425659,0.0005920208059,-0.0003529144451,-0.0007871885318,4
20.94164738,3.1744487,-1.771715698,9.123078461,0.001237882185,0.0009852433577,-0.00250059017,4
20.96168937,3.186723175,-1.772464142,9.13250885,0.001613547094,0.0009901870508,-0.003415743355,4
20.98173238,3.191812592,-1.764979706,9.130263519,0.002380308695,-0.001306458376,-0.004217827693,4
21.00177437,3.199746094,-1.761237488,9.107660522,0.001893925946,-0.002992073074,-0.003078939626,4
21.02181637,3.179837494,-1.766326904,9.114695892,-0.0004347076174,0.0003478215076,-0.002522991272,4
21.04185938,3.203039246,-1.754351807,9.123228149,-0.0009430497885,0.0008408483118,-0.00353845465,4
21.06190137,3.183130646,-1.74581955,9.117090912,0.001067263423,0.002353943884,-0.002509762766,4
21.08194338,3.185076599,-1.74806488,9.108708344,0.0004826025106,0.0006642108783,-0.0005288023967,4
21.10198637,3.206781464,-1.752555542,9.116941223,-0.0004185140133,0.001206653891,-0.002674612449,4
21.12202838,3.201093292,-1.761686554,9.120234375,0.00095445232,0.002072293777,-0.001416181913,4
21.14207037,3.201242981,-1.767075348,9.122180328,0.004116244148,0.001864364604,-0.003023429541,4
21.1621105,3.19315979,-1.772913208,9.145681458,0.002236062428,0.002025113208,-0.002844270552,4
21.1821525,3.169209595,-1.771416321,9.137298889,0.002105034888,-0.001167750452,-0.002624293556,4
21.2021945,3.16157547,-1.753004608,9.116941223,0.004068735987,-0.002173065674,-0.001721302047,4
21.2222375,3.170556793,-1.747915192,9.111851807,0.0008210800588,-8.119735867e-05,-0.002130789449,4
21.2422795,3.18732193,-1.732497253,9.10556488,-0.002081454033,9.221420623e-05,-0.00355744129,4
21.2623215,3.20139267,-1.751058655,9.088500366,-0.004364395514,-0.003151529701,-0.001065207645,4
21.2823645,3.196752319,-1.773961029,9.134155426,0.00274162041,0.001014944864,-0.004880199209,4
21.3024065,3.198249207,-1.764680328,9.205257568,0.007377008442,0.005808714312,-0.008556003682,4
21.3224485,3.207679596,-1.757345581,9.206305389,0.005495609716,-0.003660827177,-0.004622485489,4
21.3424915,3.142714691,-1.74462204,9.094936981,0.005400652997,0.0001941004302,0.00508128386,4
21.3625335,3.173550568,-1.790426788,9.072184296,0.005995104555,0.004806294106,0.005541630089,4
21.3825755,3.206631775,-1.738634491,9.096583557,-0.0003793581855,-0.0002657528967,0.004506948404,4
21.4026185,3.172203369,-1.718725891,9.087153168,-0.003111470491,-9.269453585e-05,0.008050502278,4
21.4226605,3.146606598,-1.73878418,9.116492157,-0.004296912812,0.001685817959,0.00717216637,4
21.4427025,3.178490295,-1.755249939,9.106612701,-0.007166503463,0.00177808525,0.006871612743,4
21.4627455,3.190166016,-1.759141846,9.123826904,-0.005099375267,0.001111587742,0.005066046957,4
21.4827875,3.18732193,-1.774709473,9.141340485,-0.005727750249,0.000165423844,0.004998450167,4
21.5028295,3.191363525,-1.778751068,9.122479706,-0.004685423337,0.001837880118,0.001170007745,4
21.5228725,3.202590179,-1.771116943,9.126521301,-0.001509036636,0.001386591,-0.0004370615352,4
21.5429145,3.200644226,-1.750010834,9.143885193,-0.0006055952981,-0.001039562281,-0.002127741463,4
21.5629575,3.177592163,-1.755699005,9.116791534,0.0003709064331,-0.0001209296752,0.0006379969418,4
21.5829995,3.169958038,-1.75510025,9.116043091,-0.0009814538062,0.00496520428,0.003726714524,4
21.6030415,3.176244965,-1.756447449,9.145082703,-0.0005800358485,0.005078865215,0.003846247215,4
21.6230845,3.170407104,-1.744921417,9.137897644,-0.001295360969,-0.0007183039561,0.007273202762,4
21.6431265,3.178639984,-1.763033752,9.121581573,-0.001608265098,0.0004337930586,0.005059525371,4
21.6631685,3.183130646,-1.775757294,9.12203064,0.0009792519268,0.002103434876,0.005107001867,4
21.6832115,3.199147339,-1.774559784,9.113199005,-0.001988723641,0.002897595987,0.002941067796,4
21.7032535,3.188369751,-1.769320679,9.11843811,-0.001603267621,0.0004852619022,0.002626446541,4
21.7232955,3.187022552,-1.765129395,9.111851807,-0.001340226736,0.003169252072,0.00250078924,4
21.7433385,3.16861084,-1.757345581,9.111552429,-0.00148267136,0.003502172884,0.0008199505974,4
21.7633805,3.160228271,-1.754501495,9.124874725,-0.003477288643,0.003151002806,0.001774574164,4
21.7834225,3.164120178,-1.758094025,9.12427597,-0.001178306527,0.0006778647657,0.002403850202,4
21.8034655,3.168760529,-1.774859161,9.12547348,-0.0005286990199,0.0008170781657,0.003127445467,4
21.8235075,3.157683563,-1.751807098,9.118887177,-0.00126596936,-5.952082574e-06,0.002878884785,4
21.8435495,3.183280334,-1.763482819,9.130862274,-0.001700687222,0.001351890853,0.002452363027,4
21.8635925,3.176993408,-1.755998383,9.10915741,-0.002755271271,0.001288147643,0.0003667101264,4
21.8836345,3.20139267,-1.770218811,9.120084686,-0.001246573403,-0.001302832738,-0.001213136828,4
21.9036765,3.189716949,-1.787133636,9.131161652,0.0007567116991,-0.002101471415,-0.002441123594,4
21.9237195,3.168311462,-1.763183441,9.142687683,0.00340126222,-0.002461038064,-0.0006488533691,4
21.9437615,3.163222046,-1.770817566,9.110354919,0.001358274836,-0.002725016791,0.001064057229,4
21.9638035,3.16861084,-1.771416321,9.108259277,0.0005671015242,0.001018961193,0.004275653511,4
21.9838465,3.181933136,-1.728305969,9.123976593,-0.0001320301089,0.003580535995,0.003683808725,4
22.0038885,3.178340607,-1.734892273,9.116492157,-0.00400339812,-0.002216587542,0.002082480118,4
22.0239305,3.186723175,-1.762434998,9.097781067,-0.002463575685,-0.003424368333,0.001851378009,4
22.0439735,3.191812592,-1.797611847,9.141639862,0.004407905508,0.0002187124919,-0.002987071872,4
22.0640155,3.194057922,-1.782942352,9.189091187,0.006072450429,0.0008802954108,-0.007389776409,4
22.0840575,3.181783447,-1.764081573,9.200617218,0.008011951111,-0.003496019635,-0.002296968596,4
22.1041005,3.132086792,-1.754052429,9.090296631,0.004287786782,0.002089161426,0.004231770523,4
22.1241425,3.162323914,-1.797911224,9.067693634,0.00349422032,0.009305866435,0.004799017217,4
22.1441845,3.196752319,-1.736838226,9.122479706,-0.0006874753162,0.002418931574,0.0003028023057,4
22.16422825,3.168461151,-1.735940094,9.131461029,0.001733798068,-0.004696319811,0.001811814844,4
22.18427025,3.141966248,-1.740281067,9.101672974,-0.002629943658,-0.003305115737,0.00255387486,4
22.20431225,3.153043213,-1.760339355,9.093290405,-0.003106033662,0.001486151246,0.001420825138,4
22.22435525,3.191513214,-1.770817566,9.109456787,-0.00508023845,0.003111446276,0.0009269043803,4
22.24439725,3.184627533,-1.761686554,9.129515076,-0.004512687214,0.0008895013016,0.000518404413,4
22.26443925,3.191213837,-1.7796492,9.137448578,-0.0002804924734,-0.00205460377,-0.0005796747282,4
22.28448225,3.187471619,-1.775308228,9.142687683,-0.000514629297,-0.002251327969,-0.002503349213,4
22.30452425,3.18028656,-1.76093811,9.153465271,0.002317880979,-0.003616369795,-0.002419859637,4
22.32456625,3.171454926,-1.758243713,9.117689667,-0.0007724582683,0.0002922301646,-0.00144329411,4
22.34460925,3.181633759,-1.759291534,9.116342468,0.001091381419,0.00513880467,-0.000282243127,4
22.36465125,3.195704498,-1.749112701,9.14193924,-0.001576680923,0.004336013459,0.001867371844,4
22.38469325,3.168161774,-1.757944336,9.125623169,-0.0008429449517,-0.0011655204,0.001012909459,4
22.40473625,3.170856171,-1.758243713,9.10212204,0.0005701282062,0.001523473067,-0.001932280371,4
22.42477825,3.166515198,-1.763632507,9.125623169,0.001340777613,0.001114095328,-0.001120310742,4
22.44482025,3.16277298,-1.758842468,9.111702118,0.0001027085818,-0.0001434236765,-0.001216834877,4
22.46486325,3.174299011,-1.774410095,9.123228149,0.002245754236,-6.486056373e-05,-0.0004128266592,4
22.48490525,3.164718933,-1.77500885,9.105864258,0.001445962116,-0.0001843543723,-0.0006062472239,4
22.50494725,3.160527649,-1.758243713,9.140442352,-1.131230965e-05,-5.161738954e-05,-0.0006488533691,4
22.52499025,3.169658661,-1.767674103,9.134155426,0.0006680527003,-0.0001334878616,-0.001407592092,4
22.54503225,3.181184692,-1.76213562,9.132359161,0.002447808627,-0.001224343665,-0.001940903952,4
22.56507425,3.173101501,-1.761985931,9.127120056,0.001796070952,-0.000829060562,-0.003649070626,4
22.58511725,3.174149323,-1.750310211,9.131610718,0.0006168335676,0.0007040107157,-0.001891461434,4
22.60515925,3.175197144,-1.748513947,9.125024414,-6.520515308e-05,6.374670193e-05,-0.003525490873,4
22.62520225,3.186423798,-1.771116943,9.123228149,9.728549048e-05,0.0009700881783,-0.002636729507,4
22.64524425,3.192710724,-1.751956787,9.114845581,-0.002534664702,0.0002811662853,-0.003583927639,4
22.66528625,3.199596405,-1.762584686,9.122180328,-0.002585344482,0.0006894865073,-0.001595034031,4
22.68532925,3.170407104,-1.763931885,9.122928772,-0.0008132942021,-0.0003675348125,-0.0015627502,4
22.70537125,3.164868622,-1.772464142,9.123527527,0.001725442009,0.00161324325,-0.001647977624,4
22.72541325,3.160527649,-1.762285309,9.153016205,0.003023103811,0.0001797110308,-0.001673170133,4
22.74545625,3.162024536,-1.76677597,9.144933014,0.005313681439,-0.002474514302,-0.0005418721121,4
22.76549825,3.156186676,-1.754351807,9.148525543,0.006562686525,-0.002777062822,-0.001896922011,4
22.78554025,3.183430023,-1.775308228,9.102720795,0.0006166466046,0.001392382197,-0.003993821796,4
22.80558325,3.183879089,-1.725162506,9.100176086,-6.820401177e-05,0.001153200166,-0.006075825542,4
22.82562525,3.194506989,-1.744172974,9.119485931,0.0009234776953,-0.0001050862484,-0.005625871941,4
22.84566725,3.16741333,-1.76917099,9.201365662,0.006877870299,0.007097920869,-0.00854506623,4
22.86571025,3.198698273,-1.740131378,9.229207764,0.01244130358,0.001832952257,-0.01054362021,4
22.88575225,3.145558777,-1.728006592,9.160350952,0.00719960779,-0.008512292057,-0.002816207241,4
22.90579425,3.110681305,-1.762884064,9.004524994,0.007759261876,-0.001278754789,0.001795884222,4
22.92583725,3.157833252,-1.773961029,9.034013672,0.005340499803,0.0002076120581,0.000233983621,4
22.94587925,3.187621307,-1.715881805,9.087602234,-0.001413473859,-0.001606216189,-0.003658462549,4
22.96592125,3.203039246,-1.736838226,9.120234375,-0.003929413855,-0.002426773775,-0.005191199947,4
22.98596425,3.185226288,-1.732646942,9.137598267,-0.002484614728,-0.002432873473,-0.00164984609,4
23.00600625,3.175496521,-1.742526398,9.144483948,-0.001057761954,-0.002918687183,0.002567236545,4
23.02604825,3.160078583,-1.743723907,9.154363403,-0.002558436245,-0.001007322222,0.002384752501,4
23.04609125,3.175945587,-1.735341339,9.142837372,-0.003958629444,0.001281621633,0.001928983373,4
23.06613325,3.178639984,-1.769470367,9.098978577,-0.004441415425,-0.001704398077,0.001758614439,4
23.08617525,3.197351074,-1.746418304,9.102571106,-0.001597605413,0.001330868108,-0.0002366579138,4
23.10621825,3.202141113,-1.747166748,9.148375854,-0.001514788251,0.001720370958,-0.002735779621,4
23.12626025,3.193309479,-1.769620056,9.145681458,-0.001239970326,0.003115808591,-0.002911410062,4
23.14630225,3.171155548,-1.762584686,9.149124298,0.000744751771,0.002181864344,-0.001239779638,4
23.16634512,3.174897766,-1.757794647,9.116043091,0.0008499915712,-0.001982602756,-0.001365139382,4
23.18638713,3.153043213,-1.759590912,9.083710327,-0.001092632301,0.0003247910645,-0.001936759101,4
23.20642912,3.166664886,-1.751507721,9.10331955,-0.003179841442,0.005113586783,-0.003947858233,4
23.22647213,3.168161774,-1.759890289,9.144483948,-0.002219699323,0.004175174981,-0.002443500794,4
23.24651412,3.159629517,-1.738933868,9.163344727,-0.001142772147,-0.00235656742,-5.224579945e-05,4
23.26655612,3.153641968,-1.750310211,9.151070251,0.000803918927,-0.003784763627,0.0009446202312,4
23.28659913,3.162473602,-1.778751068,9.148974609,0.001950233476,-0.0004533147439,-0.001649151789,4
23.30664112,3.166515198,-1.748963013,9.125323792,0.0008111094357,0.0008049281314,-0.001834388589,4
23.32668313,3.163222046,-1.759590912,9.100774841,-0.002291943645,0.000873568235,-0.0009416821413,4
23.34672612,3.187172241,-1.737736359,9.088799744,-0.00304340804,0.001931052189,0.002586162649,4
23.36676813,3.181334381,-1.751358032,9.102571106,-0.006849092431,0.004147959873,0.004036383703,4
23.38681012,3.193908234,-1.736538849,9.135802002,-0.008184045553,0.006431991234,0.006240034476,4
23.40685313,3.181184692,-1.733545074,9.145232391,-0.00570521038,0.006716923788,0.01058110595,4
23.42689512,3.177592163,-1.730401611,9.157357178,-0.003443619004,0.003462299937,0.01118632406,4
23.44693713,3.159629517,-1.746717682,9.143585815,-0.004586105235,0.0008445698768,0.01127253473,4
23.46698012,3.140020294,-1.774260406,9.124725037,-0.003972726874,0.001598550007,0.01314935461,4
23.48702213,3.149600372,-1.799258423,9.123228149,-0.002254500054,0.002671087161,0.01139478944,4
23.50706412,3.17325119,-1.78443924,9.115144958,-0.0004601867404,0.005791651551,0.007500152104,4
23.52710713,3.194506989,-1.762884064,9.108109589,-0.006891959347,0.003556633135,0.005133535713,4
23.54714912,3.189267883,-1.760189667,9.105714569,-0.004622406326,-8.112937212e-05,0.004576677922,4
23.56719113,3.16621582,-1.780247955,9.156459045,0.003507978516,0.005220480263,0.0008893874474,4
23.58723412,3.18148407,-1.765129395,9.202862549,0.005374844186,0.005675722845,-0.003068260849,4
23.60727612,3.182232513,-1.729054413,9.213640137,0.008400427178,-0.005341799464,3.550574183e-05,4
23.62731812,3.130290527,-1.744472351,9.095236359,0.005128332414,-0.00331808487,0.00565588288,4
23.64736112,3.152743835,-1.791025543,9.051976318,0.001927665668,0.006537799723,0.007380058989,4
23.66740313,3.170107727,-1.776356049,9.112001495,-0.005436956882,0.003288986161,0.002781972522,4
23.68744512,3.178340607,-1.742676086,9.126521301,-0.006248992868,-0.003022497054,0.003126533236,4
23.70748813,3.155288544,-1.761387177,9.151369629,-0.002259480534,-0.005135228392,0.001584723708,4
23.72753012,3.16037796,-1.781445465,9.127419434,-0.0002678788733,-0.003797153477,-0.001917449292,4
23.74757213,3.160677338,-1.777852936,9.105714569,-0.003356782719,-0.000345475506,-0.002135400428,4
23.76761512,3.156785431,-1.768422546,9.13131134,-0.002531956648,0.001732240664,-0.002235993044,4
23.78765713,3.160228271,-1.769769745,9.132209473,-0.001509676455,0.003007779829,-0.002424901351,4
23.80769912,3.151696014,-1.764380951,9.160051575,0.00147507037,0.001441980479,-0.000499998685,4
23.82774213,3.172203369,-1.754950562,9.154064026,0.003509904724,-0.003379469737,-0.001797727309,4
23.84778412,3.152444458,-1.742376709,9.131910095,0.002071016468,-0.0006358679384,0.002372458577,4
23.86782613,3.152594147,-1.773961029,9.122629395,0.001549994806,0.003861298785,0.003837109078,4
23.88786912,3.164868622,-1.774859161,9.117839355,-0.0003903671168,0.00238432223,0.00355182495,4
23.90791113,3.172802124,-1.758543091,9.138795776,-0.0001040943898,0.0003022502642,0.002298334613,4
23.92795312,3.18268158,-1.761087799,9.138646088,0.001075333217,-1.419568434e-06,8.836854249e-06,4
23.94799612,3.15918045,-1.759740601,9.12203064,0.001638543443,7.2396826e-05,-0.001112602185,4
23.96803813,3.159479828,-1.758543091,9.114695892,-7.066316903e-05,0.00111305574,-0.002147842431,4
23.98808012,3.160976715,-1.755249939,9.112001495,0.0002508531325,-6.796931848e-05,0.0004087302368,4
24.00812313,3.144810333,-1.762884064,9.111253052,-0.001172440127,0.0008947697934,0.0005878871307,4
24.02816512,3.139571228,-1.769021301,9.136251068,-0.0001262885053,0.0005098739639,0.002784211421,4
24.04820713,3.145558777,-1.774559784,9.145232391,-0.002088824054,0.001300263917,0.004962057807,4
24.06825012,3.145558777,-1.76917099,9.144483948,-0.00086601777,-0.001492338255,0.003794507589,4
24.08829213,3.159330139,-1.766027527,9.129664764,0.001007163082,-0.0001405761577,0.003973240964,4
24.10833412,3.166066132,-1.764979706,9.116791534,-0.001293517184,0.002164517529,-0.0001850693952,4
24.12837713,3.176095276,-1.758243713,9.122928772,-0.002262268215,0.0002567458432,-0.001580207376,4
24.14841912,3.179388428,-1.777254181,9.109756165,0.002193715423,-0.002839722671,-0.000846978277,4
24.16846083,3.163222046,-1.774110718,9.13370636,0.00291381008,-0.0008885595016,-0.001606469508,4
24.18850383,3.14046936,-1.75749527,9.14657959,0.001391402096,-0.001788619906,0.0007478820626,4
24.20854583,3.141367493,-1.753603363,9.115743713,0.002302088775,-0.001186443958,0.002850614488,4
24.22858783,3.164718933,-1.748813324,9.135652313,0.0004759074654,0.0005634801928,0.002946665045,4
24.24863083,3.170107727,-1.751507721,9.106163635,-0.001619087299,0.000773838954,0.00234116707,4
24.26867283,3.168012085,-1.763931885,9.101672974,-0.00146287377,-0.001272769179,0.002157836687,4
24.28871483,3.168012085,-1.791773987,9.14074173,0.00317812711,-0.0006414349191,0.0007305019535,4
24.30875783,3.175346832,-1.776056671,9.164991302,0.006228715647,0.002853767714,-0.006448063068,4
24.32879983,3.183729401,-1.764231262,9.207053833,0.009932117537,-0.003976853564,-0.004632928874,4
24.34884183,3.11247757,-1.73758667,9.129365387,0.004375688266,-0.001207228517,0.001990695018,4
24.36888483,3.131637726,-1.782942352,9.046288147,-0.0009202910587,0.005775247235,0.002824856434,4
24.38892683,3.169508972,-1.744172974,9.092092896,-0.002952434821,0.003333361819,0.00135675713,4
24.40896883,3.155587921,-1.72935379,9.129515076,-0.001449000789,-0.003552033333,0.00106695923,4
24.42901183,3.140918427,-1.759740601,9.13954422,0.0002977836411,-0.004883603193,0.002928980161,4
24.44905383,3.139271851,-1.78084671,9.118737488,0.0006406294415,-0.0008175380062,0.002752569504,4
24.46909583,3.163072357,-1.76917099,9.114546204,-0.004547748249,0.0006287132856,0.001698486158,4
24.48913883,3.158881073,-1.760339355,9.135802002,-0.004034024663,0.001313145738,0.001645489247,4
24.50918083,3.180585938,-1.738335114,9.145082703,-0.001389239216,-0.001408605138,0.00138236885,4
24.52922283,3.176993408,-1.749711456,9.141041107,0.0003634670284,-0.001592953457,-0.0006403471343,4
24.54926583,3.179837494,-1.759441223,9.16289566,-0.0003859640565,-0.001762076048,-0.00166480476,4
24.56930783,3.161725159,-1.752106476,9.136849823,0.001408722834,-0.0001444842201,-0.001197093865,4
24.58934983,3.167563019,-1.764231262,9.117689667,-0.0002101953141,0.004558404442,0.0003919543233,4
24.60939283,3.178041229,-1.7703685,9.147926788,0.0005620070733,0.003971208818,0.001253117342,4
24.62943483,3.168910217,-1.758243713,9.141490173,0.000851260731,0.0008769077249,0.001215182478,4
24.64947683,3.15693512,-1.750310211,9.108408966,-3.877771087e-05,-0.0003280693199,-0.0001829080284,4
24.66951983,3.161874847,-1.760039978,9.111702118,0.001531363116,0.001810026122,-0.0008599855937,4
24.68956183,3.157384186,-1.747765503,9.137897644,-0.001521542901,-0.0003230252769,0.0003868779168,4
24.70960383,3.147205353,-1.7504599,9.124575348,-0.0005713200662,-0.0008488779422,0.002412761096,4
24.72964683,3.143612823,-1.762884064,9.109756165,-0.0007663329598,0.001033925219,0.00191898027,4
24.74968883,3.152145081,-1.771116943,9.133406982,-4.007015377e-07,0.001626067096,0.001321648713,4
24.76973083,3.144211578,-1.767823792,9.132808228,0.0006075815763,-0.0006767802406,0.000994672766,4
24.78977283,3.156336365,-1.764830017,9.133856049,-0.0002432011534,-0.0002331433352,0.001470207819,4
24.80981583,3.160527649,-1.75629776,9.128616943,-0.002527927281,0.0003370393533,0.0009674029425,4
24.82985783,3.183729401,-1.745969238,9.131461029,-0.001726848306,0.003194344928,-0.001612933818,4
24.84989983,3.174897766,-1.765728149,9.128018188,-0.002167414874,0.0004201878328,-0.001476127887,4
24.86994283,3.17325119,-1.755549316,9.144933014,0.002224466531,-0.002409224166,-0.00197913684,4
24.88998483,3.165467377,-1.777104492,9.142987061,0.002462127479,-0.0009960362222,0.0005245902576,4
24.91002683,3.150498505,-1.762884064,9.129515076,0.001201999141,-0.0006528121885,0.002660933882,4
24.93006983,3.146157532,-1.761237488,9.11379776,0.00223035994,0.001077408902,0.001621080097,4
24.95011183,3.153941345,-1.738634491,9.143436127,0.002564230701,0.00402968144,0.003367701313,4
24.97015383,3.167862396,-1.737287292,9.126072235,-0.001962717623,-0.001607817365,0.001675239764,4
24.99019683,3.153941345,-1.753303986,9.10092453,-0.002438915428,-0.003167750547,2.530706115e-05,4
25.01023883,3.175945587,-1.789528656,9.129365387,0.004916230217,0.0003084214404,-0.001552288886,4
25.03028083,3.178190918,-1.784139862,9.186845856,0.007136967964,0.0009912545793,-0.006963040214,5
25.05032383,3.206781464,-1.765578461,9.194929047,0.008616799489,0.0001627136953,-0.01138065848,5
25.07036583,3.194956055,-1.763782196,9.163045349,0.02063037083,-0.01127711497,-0.0004901054781,5
25.09040783,3.004552002,-1.767075348,9.113049316,0.007581947371,0.009993020445,0.01218334585,5
25.11045083,3.091670837,-1.742376709,8.935817871,-0.02549784072,0.0223604925,0.00835846737,5
25.13049283,3.215014343,-1.733844452,9.090296631,-0.01767767593,0.01337034628,0.004190717824,5
25.15053483,3.059487762,-1.684297485,9.305099945,0.001421025372,-0.002692126436,0.03172096983,5
25.17057796,2.954705658,-1.686393127,9.007219391,-0.04051730409,0.01293390244,0.04962489009,5
25.19061996,3.168461151,-1.749711456,8.892857208,-0.06414175034,0.0414868854,0.0441486761,5
25.21066196,3.26456131,-1.789678345,9.183552704,-0.01607840322,0.05658484623,0.01586689241,5
25.23070496,3.083737335,-1.620081024,9.746382294,0.108826153,-0.05389660969,0.02478299662,5
25.25074696,2.843636627,-1.047671356,10.01552261,0.1581919789,-0.1692362726,0.07257265598,5
25.27078896,3.235521698,-1.196761322,9.04598877,0.2504006922,-0.2476188391,0.02920852043,5
25.29083196,3.824546814,-1.813029785,10.58883041,0.4712179601,-0.2614224255,-0.01854610443,5
25.31087396,3.200494537,-1.661844177,9.417216797,0.2407379001,-0.3808770776,-0.001381946262,5
25.33091596,2.801424408,-1.282982025,6.872807922,-0.03306893259,-0.04358910769,0.0206052959,5
25.35095896,2.970273285,-0.8524772644,8.055797882,-0.04829196632,-0.02575660869,0.09521991014,5
25.37100096,2.916235657,-0.909508667,8.523425446,-0.1279242784,-0.2177205086,0.164001897,5
25.39104296,3.267704773,-1.75629776,8.207881622,-0.2151532024,0.07783978432,0.1234898865,5
25.41108596,3.799698486,-2.316432953,9.205856323,-0.1806870103,0.2177820206,0.1036056727,5
25.43112796,3.669169922,-1.850002899,9.553283844,-0.1771506965,0.1267368495,0.1211295873,5
25.45116996,3.532055054,-1.726809082,9.415869598,-0.1705920398,0.05826212838,0.1214725524,5
25.47121196,3.291654968,-2.133513336,9.000932465,-0.2257171422,0.09851960838,0.08371716738,5
25.49125496,3.178939362,-2.481539612,8.941356354,-0.2254543751,0.1405275613,0.005951646715,5
25.51129696,3.233725433,-2.48408432,9.173074493,-0.2088933289,0.1511483043,-0.04050688818,5
25.53133896,3.265908508,-2.15641571,9.123527527,-0.2167385221,0.1834658384,-0.05748993903,5
25.55138196,3.298091583,-2.085912323,9.076824646,-0.2314407676,0.2196270376,-0.09402851015,5
25.57142396,3.363056488,-2.455344086,8.923543396,-0.2775529325,0.2361741215,-0.1348890662,5
25.59146596,3.370840302,-2.696642303,9.061706085,-0.2557500899,0.2487745583,-0.1891015619,5
25.61150896,3.292403412,-2.600991211,9.328002319,-0.2061625868,0.2500223815,-0.2078466862,5
25.63155096,3.04451889,-2.576591949,9.627978516,-0.1665183008,0.1949332952,-0.2167497873,5
25.65159296,2.910996552,-2.627186737,9.560468903,-0.2126430124,0.0309853293,-0.250707984,5
25.67163596,2.731220398,-2.238445129,8.91366394,-0.3971449137,0.08284215629,-0.3629337251,5
25.69167796,3.216960297,-2.495909729,9.312584381,-0.4791406989,0.2648512721,-0.4502612352,5
25.71171996,3.28911026,-3.250340881,9.446855164,-0.4837359786,0.3253906369,-0.3940211833,5
25.73176296,3.651955719,-3.554807739,9.58651474,-0.4856896996,0.3223519623,-0.3561778069,5
25.75180496,3.936513977,-3.954027557,9.014254761,-0.4953558445,0.3002384901,-0.3781550825,5
25.77184696,3.674858093,-3.621269531,8.121361542,-0.5009524822,0.4359341264,-0.4494739175,5
25.79188996,3.920197906,-3.883075104,7.72019577,-0.4611919224,0.4981625378,-0.4722014368,5
25.81193196,3.215613098,-3.295097809,7.538773041,-0.307458967,0.634041369,-0.3895512223,5
25.83197396,3.294648743,-3.851041718,7.679929504,-0.1214709282,0.6189810634,-0.3336935937,5
25.85201696,3.632645874,-5.072950745,7.469317474,1.005502418e-05,0.2878239453,-0.2508131266,5
25.87205896,4.0251297,-5.502557373,8.454418945,-0.5226727128,0.3601644933,-0.2779432535,5
25.89210096,4.233496399,-6.032754822,10.59481796,-0.9420327544,0.6929836273,-0.2419256717,5
25.91214396,2.681374054,-4.516408081,11.31152756,-0.2926735878,0.6012168527,-0.007186713628,5
25.93218596,1.499132538,-3.877237244,11.79741714,0.2832424343,0.3006965518,0.06278137863,5
25.95222796,1.372795258,-4.128863983,12.7310257,0.432266295,0.5490153432,-0.157408759,5
25.97226996,2.800077209,-3.187920685,11.48905838,0.6449931264,0.5228213072,0.02681283653,5
25.99231296,2.957250366,-1.809736633,10.81905167,0.7399411201,0.7060805559,0.4057227671,5
26.01235496,2.580633545,-2.309098206,11.76538376,0.6109057665,0.9503886104,0.5770248175,5
26.03239696,1.739981689,-3.498674469,11.36960678,0.8904153705,0.8071234822,0.5591218472,5
26.05243996,1.584904175,-3.246448975,10.63238983,1.213754058,0.6309751868,0.5763855577,5
26.07248196,1.445543976,-4.027674408,9.461374969,1.55781436,0.5647716522,0.7120583653,5
26.09252396,1.953138428,-3.430566101,9.695937195,1.626583338,0.3677587211,0.8606138229,5
26.11256696,2.138602753,-3.545527039,9.707612915,1.784420729,0.3110882044,0.7299920321,5
26.13260896,0.9764195251,-3.384611664,9.186696167,2.068552017,-0.06535386294,0.4729541242,5
26.15265096,1.146914978,-1.099613342,9.730215912,2.206882,-0.1384031624,0.5319026113,5
26.17269408,1.286424866,-1.444346466,9.431287537,2.156805515,-0.1610958427,0.5428333879,5
26.19273608,1.395398254,-0.6885681152,10.64571213,1.956485152,0.05622137338,0.5032337308,5
26.21277808,1.863325195,0.195643158,11.45148651,2.058022022,0.3162638843,0.5750476718,5
26.23282108,1.555714874,0.9208850098,10.18332367,2.129297256,0.1229085922,0.5303569436,5
26.25286308,1.431473236,2.810854797,10.49811905,2.20186162,0.166111514,0.4579063356,5
26.27290508,1.042282562,3.291954346,10.22299118,2.317769766,0.1419418901,0.279609859,5
26.29294808,1.248553619,2.828218689,9.298962708,2.357363701,-0.05140996352,0.05563354492,5
26.31299008,1.277293854,2.751727753,9.413773956,2.306523085,-0.01607291214,-0.1797017902,5
26.33303208,3.00125885,3.392395477,8.624465332,2.221674681,0.316565603,-0.6348767877,5
26.35307408,3.295097809,4.552333374,9.090146942,2.161393404,0.3719598651,-0.8826956749,5
26.37311708,1.346150665,6.012397156,7.748187561,1.884394526,0.226103887,-0.8202002048,5
26.39315908,-1.938768311,6.288572845,7.502398682,1.653333187,0.3029987812,-0.5781385303,5
26.41320108,-2.042352905,5.587281189,8.177195435,1.635876179,0.08553662151,-0.2866542041,5
26.43324408,-0.86235672,4.475393372,7.826025696,1.676333547,0.05790320039,-0.1688477099,5
26.45328608,1.229692841,4.292174377,9.678124237,1.86910212,0.1729765236,-0.3835149705,5
26.47332808,1.99385376,4.53287384,8.289611664,1.9564991,0.05332884565,-0.6215149164,5
26.49337108,1.214873657,4.943170624,7.64879425,1.966524601,0.01624921151,-0.7747452259,5
26.51341308,0.3748205566,5.036875763,7.079677734,1.807427883,0.03155994788,-0.7794020772,5
26.53345508,-0.06900650024,5.135370941,6.776857452,1.650626779,0.1178235337,-0.6579535007,5
26.55349808,0.2389031982,5.711073761,6.683601379,1.588453293,0.1732880026,-0.5966291428,5
26.57354008,0.3920347595,6.312223663,6.444249115,1.597636342,0.2572367191,-0.5464954376,5
26.59358208,0.06137237549,6.60276947,5.783223724,1.503264427,0.2796062529,-0.4562257528,5
26.61362508,-0.3040177917,6.756948853,5.779331818,1.456321955,0.3590423167,-0.388181746,5
26.63366708,-0.6228547668,6.931934967,5.656736755,1.46599257,0.3462911546,-0.3462072015,5
26.65370908,-0.9027726746,6.750661926,5.58249115,1.477235198,0.3428247273,-0.3336293101,5
26.67375108,-1.04602478,6.68704422,5.612428894,1.459366918,0.2345061153,-0.315451175,5
26.69379408,-1.208886108,6.91052948,5.249134369,1.489610195,0.1327559501,-0.3185206354,5
26.71383608,-1.358275452,7.350015564,5.132526855,1.523817897,0.1046419218,-0.2838031054,5
26.73387808,-1.345402222,7.859256592,4.930896149,1.558492422,0.1045257524,-0.1873195767,5
26.75392108,-1.391805725,8.662037201,4.595892792,1.583064318,0.1584397703,-0.05615109578,5
26.77396308,-1.469494171,9.441616058,4.740941162,1.530199289,0.1716518104,0.198529467,5
26.79400508,-1.721120911,9.146429901,2.388582916,1.410954595,0.2699649632,0.3652531505,5
26.81404808,-0.953966217,9.381141815,3.356320496,1.396969795,0.756025672,0.1974343956,5
26.83409008,-0.8798703003,9.278605042,4.423750763,1.297338128,0.6449841261,0.02454854734,5
26.85413208,-1.698517914,8.940458221,3.139421539,1.348816872,0.3213820755,0.06144075096,5
26.87417508,-2.256707153,8.825497284,2.548300781,1.42622447,0.2102415711,0.1688946784,5
26.89421708,-2.210004272,8.35786972,1.89790329,1.411090255,0.287219137,0.230006218,5
26.91425908,-1.862277374,8.030799866,1.610650635,1.345555782,0.4173997939,0.145948872,5
26.93430208,-1.432371368,8.148604889,1.847757568,1.321363926,0.4311617911,-0.02855386585,5
26.95434408,-1.131347351,8.307274933,1.61588974,1.383944392,0.369462043,-0.07683238387,5
26.97438608,-1.226100311,7.976013794,1.06249054,1.363344312,0.3371033072,-0.002163944766,5
26.99442808,-1.232536926,7.60553421,0.9000782776,1.322635055,0.3164846897,0.07809403539,5
27.01447108,-1.300495605,7.383545837,0.5972579956,1.229810953,0.2907395959,0.1124859229,5
27.03451308,-1.315763855,7.818241882,0.712817688,1.184998512,0.4523360431,0.07916238159,5
27.05455508,-1.421743469,8.609346771,1.479523315,1.174577355,0.5514163375,0.05085548386,5
27.07459808,-1.017284546,9.344468079,0.9151968384,1.139032483,0.4177472293,0.03762815893,5
27.09464008,-0.5084925842,9.616302795,0.5390290833,1.001109838,0.3233154118,0.01592413522,5
27.11468208,-0.5135820007,9.623338165,0.07649093628,0.7823584676,0.3162853718,-0.01115969755,5
27.13472508,-1.206042023,9.509125671,0.0513432312,0.5978339911,0.3451800644,0.04509526864,5
27.15476708,-1.517693939,9.293573914,0.05448669434,0.4882350564,0.2403394133,0.04416529462,5
27.17480846,-1.368005219,9.223369904,-0.605640564,0.4444045722,-0.03393153846,0.03493167832,5
27.19485146,-1.336869965,9.249864807,-1.030606842,0.4623194635,-0.2132139057,0.02905776352,5
27.21489346,-1.093326416,9.428293762,-0.7942483521,0.4825436175,-0.1209280714,-0.01990503073,5
27.23493546,-0.905766449,9.496851196,-0.4670288086,0.4257498384,0.09968554229,-0.06743852794,5
27.25497746,-0.7917036438,9.618997192,-0.7412585449,0.3426600695,0.2681788802,-0.06756547838,5
27.27502046,-0.8093669128,9.817783813,-0.2142045593,0.2819508016,0.2542556226,-0.04271834344,5
27.29506246,-0.9448352051,9.851613464,-0.4323010254,0.1870257705,0.02973302454,0.01125464309,5
27.31510446,-1.203497314,9.858050079,-0.4173321533,0.1055982411,-0.06481843442,-0.02264135145,5
27.33514746,-1.057850189,9.852212219,0.1365161133,0.02198513597,0.02274817973,-0.08196658641,5
27.35518946,-0.579894104,9.640851746,-0.3125500488,0.0297583472,0.02218533866,-0.04857420921,5
27.37523146,-0.379460907,9.699080658,-0.7493417358,0.1356793493,0.06548459828,-0.009554474615,5
27.39527446,-0.4022135925,9.743837585,-0.7551795959,0.1752124578,0.1571662426,-0.001750662923,5
27.41531646,-0.9084608459,9.670639801,-0.5007087708,0.129441306,0.1741541326,0.002997448202,5
27.43535846,-1.231189728,9.73156311,-0.7927514648,0.07451856136,0.08856443316,-0.03043250553,5
27.45540146,-1.451681213,9.704918518,-0.8601113892,0.07489097863,0.06831993163,-0.06150212884,5
27.47544346,-1.46141098,9.679022369,-0.6526428223,0.07994708419,0.03878568485,-0.08798525482,5
27.49548546,-1.368903351,9.619745636,-0.7911048889,0.1010443419,0.03837597743,-0.08313070238,5
27.51552746,-1.247056732,9.578581238,-0.7494914246,0.1418065131,0.0265027564,-0.07330454886,5
27.53557046,-1.193168793,9.625733185,-0.8075706482,0.1532688588,0.03121106885,-0.06478121132,5
27.55561246,-1.294957123,9.752818909,-0.5758525085,0.1082707494,0.01071484853,-0.05898270383,5
27.57565446,-1.332229614,9.830357666,-0.5662724304,0.06696155667,-0.06286245584,-0.03948740661,5
27.59569746,-1.141825562,9.841883698,-0.6375242615,0.04833130911,-0.1231277138,-0.01402560249,5
27.61573946,-1.104852448,9.819280701,-0.6060896301,0.02115130983,-0.1285588741,-0.001729332376,5
27.63578146,-1.102307739,9.779912567,-0.637224884,0.02136116661,-0.1284092069,0.002802302362,5
27.65582446,-1.070274353,9.700427856,-0.7363188171,0.03414716199,-0.07515969127,0.01911912858,5
27.67586646,-1.06129303,9.68246521,-0.895587616,0.04719684273,-0.1287841499,0.02365346439,5
27.69590846,-1.366358643,9.67078949,-0.7485932922,0.06012228504,-0.1294253469,0.01680277474,5
27.71595146,-1.474134521,9.576784973,-0.6261479187,0.02671663277,-0.1156029105,-0.008829763159,5
27.73599346,-1.289119263,9.533973999,-0.9042695618,0.03275941685,-0.1184917986,-0.003886978142,5
27.75603546,-1.289119263,9.628128204,-0.7604187012,0.06767820567,-0.0559931919,0.007128575817,5
27.77607746,-1.24496109,9.641749878,-0.6409671021,0.04163302481,-0.06958996505,0.006533359177,5
27.79612046,-1.21801712,9.692494354,-0.7210505676,0.0395270586,-0.1163053364,0.01198513247,5
27.81616246,-1.351838837,9.721234589,-0.734223175,0.06200907379,-0.1012186632,-0.001101673115,5
27.83620446,-1.344504089,9.604327698,-0.7442523193,0.04714500532,-0.09924957156,-0.0139054656,5
27.85624746,-1.283880157,9.57483902,-0.8469387817,0.0432863161,-0.1151803508,-0.004863638431,5
27.87628946,-1.301393738,9.637708282,-0.8406518555,0.06356845051,-0.1183612123,0.01557865739,5
27.89633146,-1.273551636,9.727671204,-0.8460406494,0.06878192723,-0.1192570031,0.02781157941,5
27.91637446,-1.268761597,9.817933502,-0.8797206116,0.06632163376,-0.1729125082,0.03331635892,5
27.93641646,-1.235231323,9.764644318,-0.9680369568,0.07499431819,-0.2319212109,0.03496230394,5
27.95645846,-1.291364594,9.714348907,-0.9178912354,0.07257959247,-0.2281841785,0.03555903956,5
27.97650146,-1.102756805,9.738448792,-0.8765771484,0.03988902643,-0.2188283205,0.03712198883,5
27.99654346,-0.929866333,9.70701416,-0.8967851257,0.01321364194,-0.2215040177,0.04530311376,5
28.01658546,-0.8744815063,9.770033112,-0.8131091309,-0.001921802061,-0.1909636706,0.04572319984,5
28.03662746,-0.889151001,9.728868713,-0.6776408386,-0.01460983697,-0.1283754706,0.03096477687,5
28.05667046,-0.7250921631,9.541308746,-0.6472540283,-0.0008901208639,-0.1004491299,0.007283790037,5
28.07671246,-0.8427474976,9.631271667,-0.8855584717,0.02024853416,-0.1262810677,-0.0185569115,5
28.09675446,-0.9589059448,9.595046997,-0.9571096802,0.02541217208,-0.1462195963,-0.06207654998,5
28.11679746,-0.9358538818,9.627529449,-0.7578739929,0.03359293193,-0.1389455199,-0.1105900109,5
28.13683946,-1.07416626,9.693991241,-0.6497987366,0.05735268444,-0.08204632252,-0.1339660287,5
28.15688146,-1.107397156,9.766141205,-0.4936734009,0.09077046067,0.04138626903,-0.126476258,5
28.17692508,-0.9120533752,9.671987,-0.5438191223,0.1083384454,0.151901558,-0.1055844873,5
28.19696708,-0.8018824768,9.645192719,-0.9741741943,0.11083965,0.132149145,-0.05551746115,5
28.21700908,-0.8605604553,9.693392487,-1.130149841,0.1470067054,0.06567052007,-0.01302672736,5
28.23705108,-1.013991394,9.777367859,-0.8996292114,0.1780158877,0.03965885565,0.02628102154,5
28.25709408,-1.197809143,9.839189301,-0.7937992859,0.1359808445,0.07225222141,0.02630678564,5
28.27713608,-1.177301788,9.724827118,-0.8292755127,0.06773910671,0.1383926719,0.02881639823,5
28.29717808,-1.124910736,9.644743652,-0.8520281982,0.04040001705,0.1841413826,0.03870341927,5
28.31722108,-0.9463320923,9.562115479,-0.9563612366,0.03599804267,0.170899868,0.06153295934,5
28.33726308,-0.9927355957,9.646090851,-1.206042023,0.04536564648,0.1590318233,0.07265670598,5
28.35730508,-0.9369017029,9.669142914,-1.212927704,0.04219895229,0.1623240709,0.03611893579,5
28.37734808,-1.152303772,9.691296844,-1.227297821,0.01960769668,0.1721064895,0.019007558,5
28.39739008,-1.332379303,9.667496338,-1.160536652,0.01523729041,0.1787368208,-0.01221364923,5
28.41743208,-1.34794693,9.763746185,-1.329684906,0.0134965945,0.1508446336,-0.03050160035,5
28.43747408,-1.383273468,9.659413147,-1.488804016,0.02640117332,0.08940389007,-0.03218538687,5
28.45751708,-1.386716309,9.516759796,-1.543739777,0.03727053106,0.04254767299,-0.02852595039,5
28.47755908,-1.381028137,9.496701508,-1.622775421,0.02166811191,0.03631765768,-0.03275866434,5
28.49760108,-1.363813934,9.571845245,-1.550625458,0.0267638322,0.04657527432,-0.03843131289,5
28.51764408,-1.260379028,9.613907776,-1.30693222,0.04147955403,0.03906583786,-0.02530629002,5
28.53768608,-1.223705292,9.669442291,-1.392703857,0.02793566883,-0.003385703312,-0.006217903923,5
28.55772808,-1.256936188,9.707463226,-1.399140472,0.02866946533,-0.02943093702,-0.002729808912,5
28.57777108,-1.253343658,9.731712799,-1.267414398,0.01407786459,-0.01600421779,-0.00597989792,5
28.59781308,-1.183289337,9.720336456,-1.28118576,-0.01338886842,0.007518875878,-0.008036576211,5
28.61785508,-1.147214355,9.649234314,-1.281934204,-0.01766168885,0.02629397064,-0.001699399669,5
28.63789708,-1.158291321,9.618548126,-1.373094635,-0.01533329487,0.02530024201,0.00245513604,5
28.65794008,-1.178349609,9.631121979,-1.397493896,-0.007861460559,0.01760001481,0.001931570587,5
28.67798208,-1.219364319,9.613608398,-1.33627121,-0.008119458333,0.02697587013,0.005510609131,5
28.69802408,-1.303040314,9.650431824,-1.293609924,-0.01307416242,0.01918757521,0.005186865106,5
28.71806708,-1.398092651,9.635313263,-1.297801208,-0.0180134885,-9.549711831e-05,-0.002968724817,5
28.73810908,-1.38072876,9.656868439,-1.277443542,-0.01588377915,-0.009458174929,-0.005280486774,5
28.75815108,-1.309626617,9.727521515,-1.26247467,-0.01448392496,-0.02071114816,-0.007072375622,5
28.77819408,-1.293310547,9.720186768,-1.266815643,-0.01520238444,-0.02330194041,-0.0002496072557,5
28.79823608,-1.320553894,9.647438049,-1.288520508,-0.02156772837,-0.02969685383,0.001039063791,5
28.81827808,-1.314716034,9.641300812,-1.279688873,-0.02130833641,-0.04351013526,0.008670352399,5
28.83832008,-1.295705566,9.680219879,-1.246907043,-0.02233093604,-0.06350638717,0.02229910158,5
28.85836308,-1.336869965,9.64848587,-1.272952881,-0.02423264831,-0.0856667906,0.02853576653,5
28.87840508,-1.321302338,9.61809906,-1.218915253,-0.02192663401,-0.09671784937,0.02678187378,5
28.89844708,-1.290017395,9.65791626,-1.14077774,-0.01580336317,-0.0877243951,0.01801956259,5
28.91849008,-1.213825836,9.625583496,-1.029259644,-0.01484927628,-0.06891036034,0.009595418349,5
28.93853208,-1.129551086,9.654473419,-0.9951306152,-0.0258466769,-0.04571462795,0.002700527664,5
28.95857408,-1.100212097,9.673184509,-1.00740509,-0.02109223232,-0.02388677001,0.005262071267,5
28.97861708,-1.09632019,9.63920517,-1.113235016,-0.00958176516,-0.01112409681,0.005210606847,5
28.99865908,-1.114582214,9.631271667,-1.18059494,-0.001868931809,0.008133772761,0.004502272233,5
29.01870108,-1.09871521,9.595645752,-1.14901062,8.669914678e-05,0.01204979513,-0.003633185755,5
29.03874308,-1.102457428,9.626182251,-1.100661163,-0.004198102746,0.006812834181,-0.01187660266,5
29.05878608,-1.095871124,9.668095093,-1.035845947,-0.00030799862,0.03107168153,-0.01687355898,5
29.07882808,-1.172661438,9.645492096,-1.022823029,-0.00338193588,0.0329731442,-0.01703765988,5
29.09887008,-1.208886108,9.624236298,-1.071471863,-0.01779705845,0.03213487566,-0.02122804523,5
29.11891308,-1.164727936,9.632469177,-1.047671356,-0.02067778073,0.02577179484,-0.01756945811,5
29.13895508,-1.167572021,9.698781281,-0.9969268799,-0.01201723609,0.01514221542,-0.005685933866,5
29.15899671,-1.204096069,9.700128479,-0.9848020935,-0.007722415496,0.02893887088,-0.005244172178,5
29.17903871,-1.236279144,9.635013885,-1.072819061,-0.01691412181,0.01516462862,-0.004989534151,5
29.19908171,-1.209784241,9.603878632,-1.119072876,-0.009257381782,-0.00522209052,-0.004917716607,5
29.21912371,-1.162183228,9.604477386,-1.044827271,-0.003350812243,0.0007619331591,-0.004959555808,5
29.23916571,-1.153201904,9.65911377,-0.9839039612,-0.001447333721,0.02422414534,-0.001632691361,5
29.25920871,-1.11862381,9.693542175,-0.9822573853,-0.009605307132,0.03573676199,-0.004395781085,5
29.27925071,-1.082548828,9.694589996,-0.9737251282,-0.01648835465,0.03084840439,-0.003942611627,5
29.29929271,-1.125210114,9.764195251,-0.9406439209,-0.01239255536,0.03521265835,-0.005547132809,5
29.31933571,-1.139430542,9.691296844,-0.9398954773,-0.01417176891,0.04625404999,-0.008794240654,5
29.33937771,-1.183888092,9.656868439,-1.048868866,-0.01336281374,0.06401791424,-0.01198479347,5
29.35941971,-1.191971283,9.628577271,-1.062191162,-0.01372056641,0.07458735257,-0.01495305076,5
29.37946171,-1.160536652,9.655221863,-1.005309448,-0.01754908264,0.07606533915,-0.009428240359,5
29.39950471,-1.118174744,9.692644043,-0.9868977356,-0.02118965797,0.07260347158,-0.002174458466,5
29.41954671,-1.097368011,9.690997467,-1.001267853,-0.02521356195,0.06569759548,0.00285600638,5
29.43958871,-1.122366028,9.690099335,-1.034947815,-0.02192547172,0.05656699464,0.002905190224,5
29.45963171,-1.157692566,9.649533691,-1.025068359,-0.02049358562,0.05285007134,-0.002141120844,5
29.47967371,-1.216071167,9.638307037,-1.039438477,-0.01827415451,0.05037713423,-0.005307966843,5
29.49971571,-1.212628326,9.64264801,-1.056952057,-0.01609237865,0.0408728011,-0.003613310866,5
29.51975771,-1.21217926,9.632469177,-1.038390656,-0.01080876309,0.03369696438,-0.001638994087,5
29.53980071,-1.221459961,9.66375412,-1.035247192,-0.009253574535,0.03261763975,0.0001302573364,5
29.55984271,-1.224154358,9.691596222,-1.022523651,-0.01226365846,0.02998620458,0.004639192019,5
29.57988471,-1.240021362,9.665849762,-1.052910461,-0.01627491787,0.01082226913,0.006667735986,5
29.59992771,-1.29061615,9.660161591,-1.069675598,-0.01760358736,-0.01093043946,0.005106389523,5
29.61996971,-1.313368835,9.668993225,-1.047072601,-0.0195091404,-0.01645989157,0.006097602658,5
29.64001171,-1.264121246,9.702523499,-1.031355286,-0.01897511818,-0.02397575229,0.006834016182,5
29.66005471,-1.247655487,9.639504547,-1.051563263,-0.01052383985,-0.05016119778,0.01175363921,5
29.68009671,-1.30693222,9.625284119,-1.105600891,-0.01152901631,-0.05834751576,0.008883438073,5
29.70013871,-1.255888367,9.631121979,-1.089135132,-0.01370325685,-0.04690179229,-0.009078649804,5
29.72018071,-1.231938171,9.659862213,-1.015338593,-0.005363220349,-0.04997674376,-0.006142831873,5
29.74022371,-1.183888092,9.645791473,-1.009051666,-0.001250252593,-0.05869966745,0.001463489258,5
29.76026571,-1.203347626,9.655970306,-1.093326416,-0.005375115201,-0.07514935732,0.004466835409,5
29.78030771,-1.251547394,9.699380035,-1.054407349,-0.01182765421,-0.07550168037,0.004316500388,5
29.80035071,-1.185235291,9.700577545,-0.9258247375,-0.009458104149,-0.0426297076,0.004697578494,5
29.82039271,-1.116977234,9.678872681,-0.9162446594,-0.01808365807,-0.02975983918,0.003354714951,5
29.84043471,-1.114731903,9.627828827,-0.9858499146,-0.01155985426,-0.04865297303,0.009604919702,5
29.86047671,-1.12790451,9.633666687,-1.03898941,0.008129535243,-0.05413789675,0.01620699279,5
29.88051971,-1.149160309,9.667047272,-0.9782157898,0.01653693803,-0.03049219586,0.01179414056,5
29.90056171,-1.171164551,9.667047272,-0.9313632202,0.006416286342,-0.002768279752,0.008740993217,5
29.92060371,-1.174158325,9.676178284,-0.9204359436,-0.003880407894,-0.0103941923,0.007656204049,5
29.94064671,-1.159937897,9.680668945,-0.9409432983,-0.002551676938,-0.03868501261,0.008422878571,5
