time,seconds_elapsed,z,y,x
1781039510004281900,-1.54071826171875,0.08379705995321274,0.23702596127986908,0.040701430290937424
1781039510034585900,-1.5104140625,0.3902548849582672,0.42616790533065796,0.4141969084739685
1781039510054788400,-1.490211669921875,-0.07422025501728058,-0.42377370595932007,-0.7422025203704834
1781039510085000700,-1.459999267578125,0.16519992053508759,0.3495534360408783,-0.10534487664699554
1781039510095071700,-1.44992822265625,0.12689268589019775,0.2059013396501541,-0.31364041566848755
1781039510105142500,-1.439857421875,0.05985504388809204,0.0454898327589035,-0.2322375625371933
1781039510115243800,-1.429756103515625,0.10773907601833344,0.26575639843940735,-0.031124621629714966
1781039510125314600,-1.419685546875,0.19153612852096558,0.3064578175544739,0.05027823522686958
1781039510145486600,-1.399513427734375,0.1867477297782898,0.05985504388809204,-0.07182604819536209
1781039510155588000,-1.389411865234375,0.2059013396501541,-0.009576806798577309,-0.05746084079146385
1781039510165659000,-1.379341064453125,0.1843535304069519,0.004788403399288654,0.14365209639072418
1781039510185861400,-1.359138671875,-0.09816227108240128,0.031124621629714966,0.16998831927776337
1781039510195932200,-1.34906787109375,-0.2346317619085312,0.07900865375995636,0.17238251864910126
1781039510206033400,-1.338966552734375,-0.35434186458587646,0.12928688526153564,0.0933738648891449
1781039510216165400,-1.328834716796875,-0.48602294921875,0.10773907601833344,0.05027823522686958
1781039510226266600,-1.3187333984375,-0.304063618183136,0.07182604819536209,0.002394201699644327
1781039510256448500,-1.288551513671875,0.09576806426048279,0.019153613597154617,-0.090979665517807
1781039510266519300,-1.278480712890625,0.3208230137825012,-0.0694318488240242,-0.021547814831137657
1781039510286691600,-1.258308349609375,0.1364694982767105,0.10055647045373917,-0.20350714027881622
1781039510296731600,-1.248268310546875,0.08379705995321274,0.028730420395731926,-0.15562310814857483
1781039510306802700,-1.238197265625,0.06224924325942993,0.07900865375995636,-0.23942017555236816
1781039510316904000,-1.228095947265625,0.05746084079146385,0.08858546614646912,-0.09576806426048279
1781039510327005200,-1.217994873046875,0.014365210197865963,0.10773907601833344,-0.0454898327589035
1781039510347177200,-1.19782275390625,0.05506663769483566,0.09576806426048279,0.002394201699644327
1781039510357248300,-1.187751708984375,0.08140286058187485,0.1867477297782898,0.0933738648891449
1781039510367349500,-1.177650390625,0.15562310814857483,0.08619125932455063,0.0071826050989329815
1781039510377450800,-1.16754931640625,0.1867477297782898,0.040701430290937424,0.05027823522686958
1781039510387582700,-1.157417236328125,0.16519992053508759,-0.014365210197865963,0.09576806426048279
1781039510397653500,-1.147346435546875,0.2059013396501541,-0.07900865375995636,0.12449848651885986
1781039510407724300,-1.137275634765625,0.1412578970193863,-0.10773907601833344,0.1173158809542656
1781039510417795000,-1.127204833984375,0.10534487664699554,-0.021547814831137657,0.1628057211637497
1781039510427896300,-1.117103759765625,0.1149216815829277,-0.023942016065120697,0.08379705995321274
1781039510437997600,-1.10700244140625,0.09816227108240128,0.023942016065120697,0.07422025501728058
1781039510458169900,-1.086830078125,0.07422025501728058,0.043095629662275314,0.019153613597154617
1781039510468271000,-1.07672900390625,0.09576806426048279,0.05746084079146385,0.035913024097681046
1781039510478372400,-1.066627685546875,0.10773907601833344,-0.016759412363171577,0.1149216815829277
1781039510488443100,-1.056556884765625,0.15083470940589905,-0.031124621629714966,0.05985504388809204
1781039510498514000,-1.046486083984375,0.09576806426048279,-0.014365210197865963,0.1173158809542656
1781039510508584700,-1.036415283203125,0.10055647045373917,0.10773907601833344,0
1781039510518655500,-1.026344482421875,0.0071826050989329815,0.2561795711517334,-0.011971008032560349
1781039510528726500,-1.0162734375,-0.009576806798577309,0.31364041566848755,-0.11013327538967133
1781039510538827800,-1.006172119140625,-0.08379705995321274,0.33997663855552673,0.021547814831137657
1781039510569070600,-0.975929443359375,0.033518824726343155,0.05027823522686958,0.014365210197865963
1781039510579141400,-0.965858642578125,0.15562310814857483,-0.021547814831137657,0.026336219161748886
1781039510589243000,-0.955757080078125,0.1149216815829277,0.043095629662275314,-0.021547814831137657
1781039510599344000,-0.94565576171875,0.12210428714752197,0.15322890877723694,-0.016759412363171577
1781039510609445400,-0.9355546875,0.20350714027881622,0.1388636976480484,-0.08140286058187485
1781039510619546600,-0.925453369140625,0.14365209639072418,0.05267243832349777,0.004788403399288654
1781039510680093700,-0.86490625,0.05985504388809204,-0.026336219161748886,0.038307227194309235
1781039510690195000,-0.85480517578125,0.047884032130241394,-0.0071826050989329815,-0.0454898327589035
1781039510700265700,-0.844734375,-0.028730420395731926,-0.014365210197865963,-0.08858546614646912
1781039510710336500,-0.83466357421875,0.014365210197865963,0.026336219161748886,0.002394201699644327
1781039510730478000,-0.81452197265625,0.06224924325942993,-0.043095629662275314,-0.009576806798577309
1781039510740518400,-0.804481689453125,0.05506663769483566,-0.20350714027881622,0.028730420395731926
1781039510821206800,-0.723793212890625,0.009576806798577309,0.040701430290937424,-0.10295066982507706
1781039510831308300,-0.713691650390625,0,0.019153613597154617,-0.08140286058187485
1781039510841409500,-0.703590576171875,-0.028730420395731926,0.1628057211637497,-0.12210428714752197
1781039510851480300,-0.693519775390625,0.06703764945268631,0.2298433631658554,-0.1149216815829277
1781039510881784300,-0.663215576171875,0.033518824726343155,0.047884032130241394,-0.08858546614646912
1781039510891855000,-0.653144775390625,0.08379705995321274,0.10773907601833344,-0.033518824726343155
1781039510901926000,-0.64307421875,0,0.0694318488240242,-0.043095629662275314
1781039510912027100,-0.632972900390625,-0.07182604819536209,0.15322890877723694,-0.09576806426048279
1781039510922128400,-0.62287158203125,-0.08140286058187485,0.09576806426048279,-0.12210428714752197
1781039510932168700,-0.612831298828125,-0.06703764945268631,0.07661445438861847,-0.11013327538967133
1781039510942300700,-0.60269921875,-0.047884032130241394,0.002394201699644327,-0.08858546614646912
1781039510952432400,-0.592567626953125,-0.07182604819536209,-0.06224924325942993,-0.12689268589019775
1781039510962534000,-0.582466064453125,-0.090979665517807,0.033518824726343155,-0.07182604819536209
1781039510982766800,-0.562233154296875,-0.2561795711517334,0.040701430290937424,-0.20111294090747833
1781039510992868400,-0.552131591796875,-0.29209262132644653,0.2298433631658554,-0.2585737705230713
1781039511003000000,-0.542,-0.17717093229293823,0.17477671802043915,-0.35913026332855225
1781039511023172000,-0.521827880859375,-0.5099649429321289,0.22744916379451752,-0.43335050344467163
1781039511033304000,-0.511696044921875,-0.6919242739677429,0.1843535304069519,-0.4118026793003082
1781039511043405300,-0.5015947265625,-0.9241618514060974,0.09816227108240128,-0.6631938815116882
1781039511053476000,-0.49152392578125,-1.1420341730117798,0.038307227194309235,-0.8475474119186401
1781039511063577600,-0.48142236328125,-1.479616641998291,0.016759412363171577,-0.993593692779541
1781039511073678800,-0.471321044921875,-1.742978811264038,-0.004788403399288654,-1.1252747774124146
1781039511103982800,-0.44101708984375,-2.233790159225464,0.1843535304069519,-0.26575639843940735
1781039511114084000,-0.430916015625,-2.2457611560821533,0.019153613597154617,-0.011971008032560349
1781039511124185300,-0.420814697265625,-2.360682964324951,-0.07900865375995636,-0.026336219161748886
1781039511154489300,-0.3905107421875,-2.7485435009002686,0.10534487664699554,-0.3902548849582672
1781039511164590600,-0.380409423828125,-2.96162748336792,0.26575639843940735,-0.3926490843296051
1781039511194894600,-0.35010546875,-2.8802247047424316,-0.19393034279346466,-1.036689281463623
1781039511215127800,-0.3298720703125,-2.47560453414917,-1.1492167711257935,-0.871489405632019
1781039511225259500,-0.319740478515625,-2.360682964324951,-1.436521053314209,-0.629675030708313
1781039511235361000,-0.309638916015625,-1.987187385559082,-1.316810965538025,-0.2753331959247589
1781039511245462300,-0.299537841796875,-1.742978811264038,-1.1180921792984009,-0.2513911724090576
1781039511255563500,-0.2894365234375,-1.7764976024627686,-0.871489405632019,-0.363918662071228
1781039511265664800,-0.279335205078125,-1.8770540952682495,-0.8307880163192749,-0.751779317855835
1781039511275766300,-0.269233642578125,-2.0374655723571777,-0.8643068075180054,-1.01753568649292
1781039511285898000,-0.25910205078125,-2.1308395862579346,-0.933738648891449,-1.1204863786697388
1781039511295999200,-0.249000732421875,-2.051830768585205,-0.8954314589500427,-1.403002142906189
1781039511306131200,-0.238868896484375,-2.190694570541382,-1.0678139925003052,-1.50355863571167
1781039511316232400,-0.228767578125,-2.166752576828003,-1.1875240802764893,-1.580173134803772
1781039511326333700,-0.218666259765625,-2.0590133666992188,-1.403002142906189,-1.5203180313110352
1781039511346536400,-0.198463623046875,-1.7070658206939697,-1.8722656965255737,-1.2856862545013428
1781039511356637700,-0.1883623046875,-1.8794482946395874,-2.070984363555908,-1.0606313943862915
1781039511366739200,-0.1782607421875,-1.3263877630233765,-2.1164743900299072,-1.3407529592514038
1781039511376810000,-0.16818994140625,-1.0438719987869263,-2.367865562438965,-1.8363527059555054
1781039511396982000,-0.14801806640625,-2.0805611610412598,-2.956839084625244,-2.169146776199341
1781039511407052800,-0.137947265625,-2.734178304672241,-2.7676970958709717,-2.2026655673980713
1781039511417123600,-0.12787646484375,-3.2106244564056396,-2.298433542251587,-2.2026655673980713
1781039511427194400,-0.1178056640625,-3.780444383621216,-1.8339585065841675,-2.274491548538208
1781039511437265200,-0.10773486328125,-4.350264549255371,-1.357512354850769,-2.3487119674682617
1781039511447366700,-0.09763330078125,-4.704606533050537,-1.048660397529602,-2.513911724090576
1781039511457437400,-0.0875625,-5.147533416748047,-1.0319008827209473,-2.6862943172454834
1781039511467508200,-0.07749169921875,-5.1810526847839355,-0.9385270476341248,-3.0406360626220703
1781039511477579000,-0.0674208984375,-5.264849662780762,-1.036689281463623,-3.332728862762451
1781039511487710700,-0.057289306640625,-5.154716491699219,-1.139639973640442,-3.7660791873931885
1781039511497781500,-0.047218505859375,-4.900930881500244,-1.0965443849563599,-4.177882194519043
1781039511507883000,-0.037116943359375,-4.819528102874756,-1.137245774269104,-4.489128112792969
1781039511517953800,-0.027046142578125,-4.771644115447998,-1.1540051698684692,-4.817133903503418
1781039511528055000,-0.016945068359375,-4.173093795776367,-1.357512354850769,-5.104437828063965
1781039511538095400,-0.006904541015625,-3.8139634132385254,-1.8339585065841675,-5.418078422546387
1781039511548196600,0.003196533203125,-2.9233202934265137,-2.387019157409668,-5.767632007598877
1781039511558267400,0.013267333984375,-1.699883222579956,-3.0406360626220703,-6.133944988250732
1781039511568338200,0.023338134765625,-0.9840168952941895,-3.818751811981201,-6.457161903381348
1781039511578409000,0.033408935546875,-0.4692635238170624,-4.144362926483154,-6.62236213684082
1781039511588479700,0.043479736328125,0.18914192914962769,-4.1180267333984375,-6.648698329925537
1781039511618692000,0.073692138671875,1.7693150043487549,-3.624821424484253,-5.95677375793457
1781039511628763100,0.08376318359375,1.8363527059555054,-3.866635799407959,-5.501875400543213
1781039511638834000,0.093833984375,2.2194249629974365,-4.268861770629883,-5.185841083526611
1781039511648935200,0.10393505859375,2.425326347351074,-4.546588897705078,-4.8937482833862305
1781039511659006000,0.114005859375,2.612074136734009,-4.728548526763916,-4.522646903991699
1781039511669107200,0.124107177734375,2.3989901542663574,-4.620809078216553,-3.713406801223755
1781039511679208700,0.134208740234375,2.403778553009033,-4.405331134796143,-3.35667085647583
1781039511689310000,0.14431005859375,2.31758713722229,-4.371812343597412,-3.098097085952759
1781039511699411200,0.1544111328125,2.166752576828003,-4.357447147369385,-2.8802247047424316
1781039511709482000,0.16448193359375,2.0207061767578125,-4.481945514678955,-2.7317841053009033
1781039511719552800,0.174552734375,1.9847931861877441,-4.637568473815918,-2.432508945465088
1781039511729593000,0.184593017578125,1.920149803161621,-4.881777286529541,-2.1308395862579346
1781039511739694300,0.1946943359375,1.821987509727478,-5.015852451324463,-1.7334020137786865
1781039511749765000,0.20476513671875,1.8531121015548706,-5.2049946784973145,-1.5275006294250488
1781039511820383000,0.275383056640625,1.4053963422775269,-6.44279670715332,-0.20350714027881622
1781039511830484200,0.285484130859375,1.139639973640442,-6.478709697723389,0.028730420395731926
1781039511840555000,0.295554931640625,0.7469909191131592,-6.672640323638916,0.16998831927776337
1781039511850625800,0.305625732421875,0.3280056416988373,-6.718130111694336,0.31364041566848755
1781039511860696600,0.315696533203125,0.08379705995321274,-6.868964672088623,0.5363011956214905
1781039511880807700,0.3358076171875,-0.10295066982507706,-7.146692276000977,0.8619126081466675
1781039511890848000,0.345847900390625,-0.15562310814857483,-7.173028469085693,0.9002198576927185
1781039511900949200,0.35594921875,-0.14365209639072418,-7.343016624450684,1.0319008827209473
1781039511911050500,0.366050537109375,-0.08619125932455063,-7.299921035766602,1.0007762908935547
1781039511921121500,0.37612158203125,-0.2106897532939911,-6.981492042541504,0.9792284965515137
1781039511931161600,0.38616162109375,-0.40701428055763245,-6.696582317352295,1.0342950820922852
1781039511941263000,0.39626318359375,-0.6153098344802856,-6.485892295837402,1.2401964664459229
1781039511951364400,0.4063642578125,-0.7445967197418213,-6.344634532928467,1.558625340461731
1781039511961404700,0.41640478515625,-0.8188169598579407,-6.107608318328857,1.8052281141281128
1781039511971475500,0.426475341796875,-0.7613561153411865,-6.076483726501465,1.9177556037902832
1781039511981576700,0.43657666015625,-0.6751648783683777,-5.92325496673584,1.8148049116134644
1781039511991678000,0.446677978515625,-0.6823474764823914,-5.671864032745361,1.656787633895874
1781039512001779500,0.456779541015625,-0.9289502501487732,-5.456385612487793,1.4077905416488647
1781039512011850200,0.466850341796875,-1.0606313943862915,-5.0014872550964355,1.0247182846069336
1781039512021951500,0.476951416015625,-1.1444283723831177,-4.570530891418457,0.6272808313369751
1781039512032022300,0.487022216796875,-1.256955862045288,-3.9432501792907715,0.29209262132644653
1781039512042123500,0.49712353515625,-1.3455413579940796,-3.4763808250427246,0.002394201699644327
1781039512052163800,0.507163818359375,-1.237802267074585,-3.1292216777801514,-0.1843535304069519
1781039512062265300,0.517265380859375,-1.0199298858642578,-2.8562827110290527,-0.38067805767059326
1781039512072336100,0.527336181640625,-0.7852981686592102,-2.7006595134735107,-0.6560112833976746
1781039512082407000,0.537406982421875,-0.569819986820221,-2.542642116546631,-0.9002198576927185
1781039512092508200,0.547508056640625,-0.49559974670410156,-2.3702597618103027,-1.2401964664459229
1781039512102579000,0.557578857421875,-0.38307225704193115,-2.1930887699127197,-1.2952631711959839
1781039512112649700,0.567649658203125,-0.2561795711517334,-1.8363527059555054,-1.2497732639312744
1781039512122690000,0.57768994140625,-0.23942017555236816,-1.6112977266311646,-0.9911994934082031
1781039512132821800,0.58782177734375,-0.05506663769483566,-1.3982137441635132,-1.1468225717544556
1781039512142892500,0.597892578125,0.33518823981285095,-1.3096283674240112,-1.501164436340332
1781039512163064800,0.61806494140625,0.5386953949928284,-0.8379706144332886,-2.7006595134735107
1781039512173105200,0.628105224609375,0.5889736413955688,-0.5386953949928284,-3.1292216777801514
1781039512183176000,0.638176025390625,0.6129156351089478,-0.12689268589019775,-3.1531636714935303
1781039512193277200,0.648277099609375,0.7254431247711182,0.22505496442317963,-3.112462282180786
1781039512233621500,0.68862158203125,1.6424223184585571,1.5107412338256836,-3.3901896476745605
1781039512263864300,0.7188642578125,1.2880805730819702,3.512293815612793,-2.87064790725708
1781039512284006000,0.739005859375,0.6584054827690125,5.070919036865234,-2.27209734916687
1781039512304147500,0.7591474609375,-0.12210428714752197,6.909666061401367,-1.2641384601593018
1781039512334360000,0.789360107421875,-0.8355764150619507,7.642292022705078,-0.1843535304069519
1781039512374673700,0.829673583984375,-0.3423708379268646,5.583278179168701,-0.002394201699644327
1781039512384714000,0.8397138671875,-0.15801730751991272,5.228936672210693,-0.023942016065120697
1781039512394815200,0.849815185546875,-0.035913024097681046,4.90571928024292,-0.05267243832349777
1781039512404947200,0.859947265625,0.021547814831137657,4.623203277587891,-0.10773907601833344
1781039512415018000,0.87001806640625,0.272938996553421,4.326322555541992,-0.17717093229293823
1781039512425088800,0.8800888671875,0.3208230137825012,4.017470359802246,-0.2513911724090576
1781039512435129000,0.890129150390625,0.395043283700943,3.5745432376861572,-0.033518824726343155
1781039512445230300,0.900230224609375,0.44771572947502136,3.114856481552124,0.043095629662275314
1781039512525766100,0.98076611328125,2.123656988143921,-0.828393816947937,0.730231523513794
1781039512535867400,0.990867431640625,2.341529369354248,-1.6376339197158813,0.6560112833976746
1781039512566141000,1.021140869140625,2.0254945755004883,-2.4420857429504395,0.5123591423034668
1781039512586343700,1.04134375,1.7286136150360107,-3.205836057662964,0.038307227194309235
1781039512596383700,1.0513837890625,1.9752163887023926,-4.264073371887207,-0.5051765441894531
1781039512616556000,1.07155615234375,2.1068975925445557,-7.086836814880371,-1.048660397529602
1781039512626657300,1.0816572265625,2.2433669567108154,-7.659051418304443,-0.689530074596405
1781039512636697600,1.091697509765625,2.43011474609375,-7.536946773529053,0.002394201699644327
1781039512646768400,1.101768310546875,2.6192567348480225,-7.029376029968262,0.7015010714530945
1781039512677011200,1.13201123046875,3.0310592651367188,-6.2392897605896,2.298433542251587
1781039512687082200,1.142082275390625,3.0597896575927734,-6.380547523498535,2.5953147411346436
1781039512697183500,1.15218359375,2.5522189140319824,-6.785167694091797,2.7700912952423096
1781039512707254300,1.162254150390625,2.1571757793426514,-6.921637058258057,2.9520506858825684
1781039512717294600,1.172294677734375,2.252943754196167,-6.828263282775879,3.069366693496704
1781039512727365400,1.182365478515625,2.27209734916687,-6.746860504150391,3.335123062133789
1781039512737436200,1.192436279296875,1.922544002532959,-6.643909931182861,3.5673606395721436
1781039512747537400,1.202537353515625,1.8579005002975464,-6.418854713439941,3.7277719974517822
1781039512757638700,1.212638671875,1.821987509727478,-6.265625953674316,3.7038300037384033
1781039512777780500,1.232780517578125,1.5059528350830078,-6.476315498352051,3.6727054119110107
1781039512787881700,1.2428818359375,1.1971008777618408,-6.145915985107422,3.4811692237854004
1781039512838266000,1.29326611328125,-0.07661445438861847,-5.058948040008545,3.6320040225982666
1781039512939065900,1.39406591796875,-1.2641384601593018,-6.88332986831665,-1.1444283723831177
1781039512959207400,1.41420751953125,-2.140416383743286,-6.466738700866699,-2.5091233253479004
1781039512969247700,1.424247802734375,-2.056619167327881,-6.646304130554199,-3.1316158771514893
1781039512979349000,1.434348876953125,-1.7908629179000854,-7.304709434509277,-3.7038300037384033
1781039512999521000,1.45452099609375,-0.7326257228851318,-6.921637058258057,-4.994304656982422
1781039513009561300,1.464561279296875,-0.8331822156906128,-6.536170482635498,-5.7125654220581055
1781039513019662600,1.47466259765625,-0.8092401623725891,-6.155492782592773,-6.323086738586426
1781039513029764000,1.48476416015625,-1.0223240852355957,-6.258443355560303,-7.33583402633667
1781039513049905700,1.50490576171875,-1.9584569931030273,-6.3302693367004395,-8.87051773071289
1781039513060007000,1.5150068359375,-2.341529369354248,-6.011840343475342,-8.971074104309082
1781039513070047200,1.525047119140625,-2.410961151123047,-6.445190906524658,-8.923190116882324
1781039513080148500,1.5351484375,-2.427720546722412,-7.184999465942383,-8.741230010986328
1781039513090219300,1.54521923828125,-2.2816741466522217,-7.481880187988281,-8.69095230102539
1781039513100320800,1.55532080078125,-2.382230758666992,-7.151480674743652,-8.686163902282715
1781039513110422000,1.565422119140625,-2.8107926845550537,-6.236895561218262,-8.473079681396484
1781039513120523300,1.575523193359375,-3.6152446269989014,-5.604825973510742,-8.226476669311523
1781039513150735600,1.605735595703125,-3.5194764137268066,-4.821922302246094,-6.1985883712768555
1781039513160806400,1.615806396484375,-2.846705913543701,-4.517858505249023,-6.1267619132995605
1781039513180978700,1.635978759765625,-1.9632453918457031,-3.5266590118408203,-6.435614109039307
1781039513201120300,1.656120361328125,-2.209848165512085,-2.38462495803833,-6.102819919586182
1781039513211221500,1.666221435546875,-2.1045033931732178,-1.8411411046981812,-5.765237808227539
1781039513221292300,1.676292236328125,-2.0853497982025146,-1.8363527059555054,-5.17626428604126
1781039513231363000,1.686363037109375,-1.9033904075622559,-1.292868971824646,-4.594472885131836
1781039513241464300,1.69646435546875,-1.5873557329177856,-0.5674257874488831,-3.928884983062744
1781039513251565800,1.70656591796875,-1.3215993642807007,-0.2298433631658554,-3.270479440689087
1781039513261667000,1.7166669921875,-0.7709329724311829,-0.033518824726343155,-2.875436305999756
1781039513271768300,1.726768310546875,-0.14365209639072418,-0.31842881441116333,-2.669534921646118
1781039513281869800,1.736869873046875,0.4596867263317108,-0.730231523513794,-2.6360161304473877
1781039513291971000,1.74697119140625,0.6105214357376099,-0.7589619159698486,-2.2361843585968018
1781039513302072300,1.757072265625,0.31603461503982544,-0.8188169598579407,-1.6112977266311646
1781039513322305500,1.777305419921875,1.2042834758758545,0.05746084079146385,-0.15322890877723694
1781039513332406800,1.78740673828125,1.6927006244659424,-0.3663128614425659,0.10055647045373917
1781039513342508000,1.797508056640625,1.944091796875,-0.9768342971801758,0.363918662071228
1781039513362710800,1.817710693359375,1.0462661981582642,-0.7805097699165344,1.3455413579940796
1781039513372873200,1.827873291015625,0.5650315880775452,-0.033518824726343155,1.6424223184585571
1781039513382974500,1.837974365234375,-0.10534487664699554,0.40222588181495667,2.1284453868865967
1781039513393075700,1.84807568359375,-0.6057330369949341,0.45489832758903503,2.4612393379211426
1781039513443613000,1.898613037109375,-0.21308395266532898,0.7757213711738586,1.8171991109848022
1781039513453744600,1.90874462890625,0.0454898327589035,1.577778935432434,1.4652514457702637
1781039513544717600,1.999717529296875,2.5091233253479004,1.173158884048462,2.164358377456665
1781039513564920300,2.01992041015625,2.33913516998291,1.53707754611969,2.4396915435791016
1781039513640695300,2.0956953125,0.9840168952941895,-0.8212111592292786,3.07415509223938
1781039513676065300,2.131065185546875,-0.043095629662275314,2.0159177780151367,1.8962076902389526
1781039513686197000,2.141197021484375,-0.08379705995321274,2.3511061668395996,1.8507179021835327
1781039513696298500,2.151298583984375,0.29209262132644653,2.142810583114624,1.6280571222305298
1781039513706399700,2.161399658203125,0.33758243918418884,1.3742717504501343,1.4867992401123047
1781039513726633000,2.181633056640625,0.395043283700943,-0.2106897532939911,1.9249382019042969
1781039513736764700,2.1917646484375,0.1604115068912506,-0.5051765441894531,1.8387469053268433
1781039513746866200,2.2018662109375,-0.2059013396501541,-0.4118026793003082,1.7405846118927002
1781039513756967400,2.211967529296875,-0.7924807667732239,-0.26815059781074524,1.7118542194366455
1781039513767068700,2.222068603515625,-0.9241618514060974,-0.11252748221158981,1.6352397203445435
1781039513777170000,2.232169921875,-1.1037269830703735,-0.48602294921875,1.290474772453308
1781039513787271400,2.242271484375,-1.0773907899856567,-0.3256114423274994,1.2976573705673218
1781039513797342200,2.25234228515625,-0.9433154463768005,-1.0678139925003052,1.0079588890075684
1781039513817514200,2.27251416015625,-0.7206547260284424,-1.316810965538025,0.6631938815116882
1781039513837686300,2.292686279296875,-0.4620809257030487,-0.912190854549408,-0.26096799969673157
1781039513847757000,2.302757080078125,-0.38546648621559143,-0.8188169598579407,-1.05105459690094
1781039513857858600,2.312858642578125,-0.569819986820221,-0.7015010714530945,-1.7621324062347412
1781039513867899000,2.32289892578125,-0.6224924325942993,-0.5219359993934631,-2.3295583724975586
1781039513877969700,2.3329697265625,-0.8667010068893433,-0.304063618183136,-2.518700122833252
1781039513888040400,2.34304052734375,-1.1204863786697388,-0.3016694188117981,-2.6168625354766846
1781039513928354000,2.38335400390625,-1.0845733880996704,1.0031704902648926,-2.3965959548950195
1781039513968698400,2.423698486328125,-0.8044517636299133,-0.05985504388809204,-3.7469255924224854
1781039514029123000,2.484123046875,-2.279279947280884,1.455674648284912,-5.243301868438721
1781039514119821300,2.5748212890625,-4.244919776916504,3.1268274784088135,-4.393360137939453
1781039514210489000,2.665489013671875,-2.497152328491211,2.5258827209472656,-2.8131868839263916
1781039514270975000,2.72597509765625,-0.8834604024887085,-0.6177040338516235,-5.023035049438477
1781039514291208200,2.746208251953125,-0.15801730751991272,-1.9488801956176758,-4.141968727111816
1781039514301309400,2.756309326171875,0.5817909836769104,-2.889801502227783,-3.35667085647583
1781039514311410700,2.76641064453125,0.8930372595787048,-3.6128504276275635,-2.607285737991333
1781039514321481500,2.7764814453125,1.0606313943862915,-4.218583583831787,-2.027888774871826
1781039514331521800,2.786521728515625,1.2090718746185303,-4.369418144226074,-1.886630892753601
1781039514392068600,2.847068603515625,0.7445967197418213,-3.5027170181274414,-3.064578056335449
1781039514402139400,2.857139404296875,0.8690952062606812,-3.861847400665283,-3.0119056701660156
1781039514412241000,2.867240966796875,1.357512354850769,-4.338293552398682,-3.004723072052002
1781039514422342100,2.877342041015625,1.5442601442337036,-4.570530891418457,-2.7222073078155518
1781039514432443400,2.887443359375,1.7118542194366455,-4.537012100219727,-2.518700122833252
1781039514442514200,2.89751416015625,1.5729905366897583,-4.568136692047119,-2.166752576828003
1781039514452615700,2.90761572265625,1.3431471586227417,-4.338293552398682,-1.968033790588379
1781039514462686500,2.9176865234375,1.2401964664459229,-4.508281707763672,-1.800439715385437
1781039514472757200,2.92775732421875,1.1444283723831177,-4.6255974769592285,-1.7908629179000854
1781039514482828000,2.937828125,1.235408067703247,-4.967968463897705,-1.7405846118927002
1781039514492929300,2.94792919921875,1.4484920501708984,-5.439626216888428,-1.7597382068634033
1781039514503000000,2.958,1.702277421951294,-5.8657941818237305,-1.8148049116134644
1781039514513070800,2.96807080078125,2.121262788772583,-6.404489517211914,-1.8387469053268433
1781039514523141600,2.9781416015625,2.2888567447662354,-6.732495307922363,-1.9321208000183105
1781039514533212400,2.98821240234375,2.3535003662109375,-6.8378400802612305,-2.0231003761291504
1781039514543283200,2.998283203125,2.4803929328918457,-7.1251444816589355,-1.9967641830444336
1781039514553384700,3.008384765625,2.719813108444214,-7.2783732414245605,-2.013523578643799
1781039514563455500,3.01845556640625,3.313575267791748,-7.682993412017822,-1.8746598958969116
1781039514623910700,3.07891064453125,4.745307922363281,-7.898471355438232,0.181959331035614
1781039514633981400,3.0889814453125,4.855441093444824,-7.826645374298096,0.2585737705230713
1781039514664194000,3.119194091796875,5.540182590484619,-7.311892032623291,0.7948749661445618
1781039514684335600,3.139335693359375,4.9583916664123535,-6.449979305267334,1.2425906658172607
1781039514694436900,3.149436767578125,5.023035049438477,-6.370970726013184,1.0199298858642578
1781039514734750500,3.18975048828125,5.0254292488098145,-6.057330131530762,1.0031704902648926
1781039514765024000,3.22002392578125,4.692635536193848,-5.7125654220581055,1.5825673341751099
1781039514805276700,3.260276611328125,3.0119056701660156,-4.230554580688477,1.8267759084701538
1781039514815347500,3.270347412109375,2.5546131134033203,-3.622427225112915,1.6903064250946045
1781039514825418200,3.280418212890625,2.0183119773864746,-3.136404275894165,1.45806884765625
1781039514835519500,3.29051953125,1.525106430053711,-2.432508945465088,1.2737152576446533
1781039514845590500,3.300590576171875,1.0319008827209473,-1.8315643072128296,1.0079588890075684
1781039514855661300,3.310661376953125,0.4596867263317108,-1.2330138683319092,0.6368576288223267
1781039514865732000,3.320732177734375,-0.09576806426048279,-0.6248866319656372,0.19393034279346466
1781039514885873700,3.340873779296875,-1.3886369466781616,0.3711012601852417,-0.9552865028381348
1781039514906076200,3.361076171875,-2.0614075660705566,0.629675030708313,-1.6950948238372803
1781039514916147000,3.37114697265625,-2.188300371170044,0.4572925269603729,-1.7381904125213623
1781039514926218000,3.381218017578125,-2.073378562927246,0.014365210197865963,-1.6831238269805908
1781039514936288800,3.391288818359375,-2.0398597717285156,-0.4836287498474121,-1.6041151285171509
1781039514946359600,3.401359619140625,-1.6735470294952393,-0.8212111592292786,-1.4676456451416016
1781039514956430300,3.411430419921875,-1.1755530834197998,-1.3958195447921753,-1.3766659498214722
1781039514966501000,3.421501220703125,-1.0414776802062988,-1.9584569931030273,-1.259350061416626
1781039514976602400,3.431602294921875,-1.1037269830703735,-2.0446481704711914,-1.1540051698684692
1781039515006876000,3.4618759765625,-1.3742717504501343,-1.2689268589019775,-2.363077163696289
1781039515027078400,3.482078369140625,-2.0805611610412598,-1.5059528350830078,-3.1866824626922607
1781039515037179600,3.4921796875,-2.3104045391082764,-1.766920804977417,-3.620033025741577
1781039515047250700,3.502250732421875,-2.382230758666992,-2.054224967956543,-3.9217023849487305
1781039515057321500,3.512321533203125,-2.425326347351074,-2.2601263523101807,-4.127603530883789
1781039515067361500,3.522361572265625,-2.2697031497955322,-2.3367409706115723,-4.390965938568115
1781039515077463000,3.532463134765625,-2.229001760482788,-2.516305923461914,-4.4532151222229
1781039515097574100,3.55257421875,-2.0901381969451904,-2.5785553455352783,-4.434061527252197
1781039515107645000,3.56264501953125,-2.073378562927246,-2.4229321479797363,-4.388571739196777
1781039515117715700,3.5727158203125,-2.0901381969451904,-2.2170307636260986,-4.383783340454102
1781039515127756000,3.582756103515625,-2.276885747909546,-1.8986018896102905,-4.481945514678955
1781039515137857300,3.592857177734375,-2.4588451385498047,-1.8076223134994507,-4.395754337310791
1781039515147928000,3.602927978515625,-2.449268341064453,-1.8555063009262085,-4.316745758056641
1781039515157998800,3.612998779296875,-2.408566951751709,-1.7142484188079834,-4.108449935913086
1781039515168039200,3.6230390625,-2.315192937850952,-1.5849615335464478,-4.027047157287598
1781039515178110000,3.63310986328125,-2.0685901641845703,-1.8267759084701538,-3.976768970489502
1781039515198251500,3.65325146484375,-1.9919757843017578,-2.4181437492370605,-3.552995204925537
1781039515208291800,3.663291748046875,-1.98958158493042,-2.4444799423217773,-3.292027235031128
1781039515218423600,3.673423583984375,-1.702277421951294,-2.1930887699127197,-3.1531636714935303
1781039515228494600,3.68349462890625,-1.6065093278884888,-1.7334020137786865,-3.1675288677215576
1781039515238565400,3.6935654296875,-1.3958195447921753,-1.5107412338256836,-3.2776620388031006
1781039515248575000,3.703574951171875,-1.5634137392044067,-1.2976573705673218,-3.4811692237854004
1781039515258707000,3.71370703125,-1.6136919260025024,-0.9313444495201111,-3.6727054119110107
1781039515268808200,3.72380810546875,-1.7860745191574097,-0.8451532125473022,-3.713406801223755
1781039515278879000,3.73387890625,-1.6208745241165161,-0.9744400978088379,-3.754108190536499
1781039515319223300,3.774223388671875,-2.918531894683838,-0.912190854549408,-2.38462495803833
1781039515329263600,3.784263671875,-3.19865345954895,-0.1173158809542656,-1.9823989868164062
1781039515339395300,3.794395263671875,-3.0597896575927734,0.40701428055763245,-1.7334020137786865
1781039515349466000,3.804466064453125,-2.9664158821105957,0.27054479718208313,-1.256955862045288
1781039515359567400,3.8145673828125,-2.0901381969451904,-0.05985504388809204,-0.7374141216278076
1781039515369638100,3.82463818359375,-1.4484920501708984,-1.0223240852355957,-0.5841852426528931
1781039515379709200,3.834709228515625,-0.7757213711738586,-1.5059528350830078,-0.4620809257030487
1781039515389810400,3.844810546875,-0.019153613597154617,-1.6184803247451782,-0.08140286058187485
1781039515399911700,3.85491162109375,0.4908113479614258,-0.9169792532920837,0.49799394607543945
1781039515440256000,3.895256103515625,-1.259350061416626,3.7876269817352295,1.6424223184585571
1781039515450357200,3.905357177734375,-1.4317326545715332,4.285621166229248,1.5610195398330688
1781039515460428000,3.915427978515625,-1.5969325304031372,4.663905143737793,1.723825216293335
1781039515470498800,3.925498779296875,-1.659181833267212,4.932055473327637,1.843535304069519
1781039515480600000,3.93560009765625,-1.6424223184585571,4.989516258239746,2.2242133617401123
1781039515490671000,3.945671142578125,-1.2737152576446533,4.8602294921875,2.319981336593628
1781039515500772400,3.9557724609375,-1.0773907899856567,4.5394062995910645,2.205059766769409
1781039515520914000,3.975913818359375,-1.745373010635376,5.109226226806641,1.2952631711959839
1781039515530984700,3.985984619140625,-2.3080103397369385,5.612008571624756,0.9385270476341248
1781039515541086000,3.9960859375,-3.004723072052002,5.940014362335205,0.5841852426528931
1781039515571329000,4.0263291015625,-3.624821424484253,5.458779811859131,-0.10295066982507706
1781039515581430300,4.03643017578125,-3.6607344150543213,4.78122091293335,-0.42616790533065796
1781039515591531500,4.046531494140625,-3.9049429893493652,4.639962673187256,-0.6272808313369751
1781039515601632800,4.0566328125,-3.797203779220581,4.489128112792969,-0.6129156351089478
1781039515611703800,4.066703857421875,-3.9432501792907715,4.278438568115234,-0.4692635238170624
1781039515621805000,4.07680517578125,-4.129997730255127,4.158728122711182,-0.5889736413955688
1781039515631875800,4.086875732421875,-4.065354347229004,4.005499362945557,-0.45489832758903503
1781039515641977000,4.09697705078125,-4.307168960571289,3.758896589279175,-0.038307227194309235
1781039515652078300,4.107078369140625,-3.998316764831543,3.5649664402008057,0.27054479718208313
1781039515662179800,4.117179931640625,-3.5194764137268066,3.155557870864868,0.3902548849582672
1781039515672281000,4.127281005859375,-2.8634653091430664,2.298433542251587,0.1867477297782898
1781039515682382300,4.13738232421875,-2.4013843536376953,1.3551181554794312,-0.009576806798577309
1781039515692453000,4.147453125,-2.4205379486083984,0.4405331015586853,-0.20350714027881622
1781039515712656000,4.16765576171875,-2.31758713722229,-0.8786720037460327,0.10055647045373917
1781039515803598300,4.258598388671875,0.9672574996948242,-0.1604115068912506,0.040701430290937424
1781039515864106200,4.319106201171875,0.44532153010368347,0.47644615173339844,-0.4165911078453064
1781039515874207500,4.32920751953125,0.9169792532920837,0.3734954595565796,0.038307227194309235
1781039515884308700,4.339308837890625,1.7118542194366455,0.07182604819536209,0.3687070608139038
1781039515894440700,4.349440673828125,2.030282974243164,-0.19871874153614044,0
1781039515904542000,4.3595419921875,1.9584569931030273,-0.4189853072166443,-0.1867477297782898
1781039515914643200,4.369643310546875,1.5538369417190552,-0.3734954595565796,-0.1173158809542656
1781039515924744400,4.379744384765625,0.7805097699165344,-0.035913024097681046,0.05267243832349777
1781039515934846000,4.389845947265625,-0.05027823522686958,0.19871874153614044,0.2106897532939911
1781039515965180400,4.420180419921875,0.14844051003456116,0.5913678407669067,0.20350714027881622
1781039515975281700,4.43028173828125,0.8619126081466675,0.5650315880775452,0.5051765441894531
1781039515985383000,4.4403828125,1.1563993692398071,0.1867477297782898,0.6607996821403503
1781039515995515000,4.450514892578125,1.8411411046981812,0.6248866319656372,0.26815059781074524
1781039516005616000,4.4606162109375,2.250549554824829,0.002394201699644327,0.30885201692581177
1781039516015717400,4.47071728515625,2.1308395862579346,0.10295066982507706,0.6871358752250671
1781039516025819000,4.48081884765625,1.5945383310317993,0.2801215946674347,0.8930372595787048
1781039516035920100,4.490920166015625,1.3623007535934448,0.30885201692581177,1.0055646896362305
1781039516046021400,4.501021484375,0.8092401623725891,0.31842881441116333,1.280897855758667
1781039516056122600,4.51112255859375,0.40462008118629456,0.33279404044151306,1.558625340461731
1781039516096558600,4.55155859375,0.31124621629714966,0.7541735172271729,1.290474772453308
1781039516106690300,4.561690185546875,0.38307225704193115,1.0079588890075684,1.2952631711959839
1781039516116822300,4.571822265625,0.45010992884635925,1.3096283674240112,1.4293384552001953
1781039516126862600,4.581862548828125,0.790086567401886,1.8602946996688843,1.4269442558288574
1781039516136994300,4.591994384765625,1.1085153818130493,2.497152328491211,1.5275006294250488
1781039516147095600,4.602095458984375,1.5729905366897583,2.75812029838562,1.3120225667953491
1781039516157166300,4.612166259765625,1.8052281141281128,2.626439332962036,1.4077905416488647
1781039516167206700,4.62220654296875,1.7980455160140991,2.6384103298187256,1.6831238269805908
1781039516177338600,4.632338623046875,1.7381904125213623,2.849100112915039,1.8387469053268433
1781039516187439900,4.64243994140625,1.7597382068634033,2.87064790725708,1.8507179021835327
1781039516207551000,4.662551025390625,1.3000515699386597,3.2369606494903564,1.742978811264038
1781039516237763300,4.692763427734375,-0.05506663769483566,3.8379054069519043,1.9823989868164062
1781039516247834000,4.702834228515625,-0.090979665517807,3.818751811981201,1.7764976024627686
1781039516257935400,4.712935302734375,-0.16759411990642548,3.5482068061828613,1.7142484188079834
1781039516298249200,4.753249267578125,1.7166426181793213,2.5522189140319824,2.5929205417633057
1781039516308350500,4.7633505859375,1.9249382019042969,2.3582887649536133,2.650381326675415
1781039516318452000,4.773451904296875,2.0159177780151367,2.2864625453948975,2.8802247047424316
1781039516328492000,4.783491943359375,1.968033790588379,2.094926595687866,3.2106244564056396
1781039516338593500,4.793593505859375,1.900996208190918,1.965639591217041,3.2968156337738037
1781039516348694800,4.80369482421875,1.8722656965255737,1.7860745191574097,3.4620156288146973
1781039516358765600,4.813765625,2.1045033931732178,1.7717092037200928,3.6080620288848877
1781039516368866800,4.82386669921875,1.9823989868164062,1.843535304069519,3.4979286193847656
1781039516378937600,4.8339375,1.9345149993896484,1.920149803161621,3.2824504375457764
1781039516389039000,4.8440390625,1.723825216293335,2.1499931812286377,2.8586769104003906
1781039516409211100,4.864211181640625,1.5705963373184204,2.5546131134033203,2.1499931812286377
1781039516419282000,4.874281982421875,1.5203180313110352,2.5546131134033203,1.800439715385437
1781039516429383200,4.884383056640625,1.577778935432434,2.4444799423217773,1.7597382068634033
1781039516439484700,4.894484619140625,1.886630892753601,2.2433669567108154,1.8363527059555054
1781039516489899500,4.9448994140625,0.0933738648891449,2.4420857429504395,1.4484920501708984
1781039516500031500,4.955031494140625,-0.47165772318840027,2.427720546722412,1.6184803247451782
1781039516570588200,5.025588134765625,1.194706678390503,1.1276689767837524,1.4963760375976562
1781039516580659000,5.035658935546875,1.170764684677124,1.2473790645599365,1.4389152526855469
1781039516590699300,5.04569921875,0.7781155705451965,1.3766659498214722,1.3192051649093628
1781039516631043300,5.086043212890625,-1.721431016921997,3.4404678344726562,0.5770025849342346
1781039516641144800,5.096144775390625,-1.9776105880737305,2.7676970958709717,0.08140286058187485
1781039516651215600,5.106215576171875,-1.0271124839782715,1.1420341730117798,-0.3208230137825012
1781039516661316900,5.11631689453125,-0.17477671802043915,-1.3096283674240112,-0.6129156351089478
1781039516671448600,5.126448486328125,0.8978256583213806,-3.3303346633911133,-0.6153098344802856
1781039516681550000,5.136550048828125,1.5729905366897583,-4.019864559173584,-0.24181437492370605
1781039516691620900,5.146620849609375,1.9704279899597168,-3.5458126068115234,0.31842881441116333
1781039516701691600,5.156691650390625,1.8411411046981812,-2.408566951751709,0.507570743560791
1781039516721833200,5.176833251953125,0.5793967843055725,-0.40222588181495667,0.4812345504760742
1781039516752045600,5.207045654296875,-1.6304513216018677,1.05105459690094,0.49320554733276367
1781039516772217600,5.227217529296875,-1.1109095811843872,0.24420857429504395,-0.05746084079146385
1781039516782288400,5.237288330078125,-1.1899182796478271,-0.9313444495201111,-0.6177040338516235
1781039516792390000,5.247389892578125,-1.2497732639312744,-1.5658079385757446,-0.7996633648872375
1781039516802460700,5.257460693359375,-1.4437036514282227,-1.4867992401123047,-0.5363011956214905
1781039516812562000,5.26756201171875,-1.7741034030914307,-1.2234370708465576,-0.33518823981285095
1781039516822663200,5.2776630859375,-2.164358377456665,-0.7805097699165344,-0.608127236366272
1781039516832734000,5.28773388671875,-2.585737943649292,-0.47405192255973816,-0.9792284965515137
1781039516842805000,5.297804931640625,-2.8658595085144043,-0.21308395266532898,-1.6879122257232666
1781039516852875800,5.307875732421875,-3.292027235031128,0.15322890877723694,-2.2912509441375732
1781039516862946600,5.317946533203125,-3.399766445159912,0.8092401623725891,-2.7892448902130127
1781039516873017300,5.328017333984375,-3.711012601852417,1.4389152526855469,-3.1747114658355713
1781039516923371300,5.378371337890625,-3.380612850189209,2.9161376953125,-4.474762916564941
1781039516983857200,5.438857177734375,-3.5266590118408203,5.7341132164001465,-2.123656988143921
1781039516993958400,5.44895849609375,-3.2082302570343018,6.1985883712768555,-1.7573440074920654
1781039517004029200,5.459029296875,-2.360682964324951,6.66785192489624,-1.50355863571167
1781039517014100000,5.469099853515625,-1.4053963422775269,6.900089263916016,-1.5538369417190552
1781039517024201500,5.479201416015625,-0.7015010714530945,6.739677906036377,-1.6136919260025024
1781039517034272300,5.489272216796875,-0.5674257874488831,6.090848922729492,-1.7980455160140991
1781039517044312300,5.499312255859375,-0.5817909836769104,5.353435039520264,-2.1715409755706787
1781039517054413800,5.509413818359375,-0.1867477297782898,4.434061527252197,-2.7916390895843506
1781039517084656600,5.53965673828125,-0.5722141861915588,0.11013327538967133,-4.108449935913086
1781039517094758000,5.5497578125,-0.5267243981361389,-1.235408067703247,-4.754884719848633
1781039517104859400,5.559859375,-0.42377370595932007,-1.434126853942871,-5.080495834350586
1781039517114991000,5.5699912109375,-0.7924807667732239,-1.194706678390503,-4.752490520477295
1781039517125062000,5.580061767578125,-0.9074024558067322,-0.4141969084739685,-4.027047157287598
1781039517135163400,5.590163330078125,-1.0462661981582642,0,-3.2632968425750732
1781039517145264600,5.6002646484375,-1.2737152576446533,-0.8212111592292786,-3.162740468978882
1781039517155335400,5.61033544921875,-1.1659762859344482,-1.4460978507995605,-3.7828385829925537
1781039517175477000,5.63047705078125,-0.14604631066322327,-1.9823989868164062,-5.781997203826904
1781039517195618600,5.65061865234375,0.811634361743927,-2.935291290283203,-6.387730121612549
1781039517205689300,5.660689453125,0.8523358106613159,-3.308786630630493,-5.781997203826904
1781039517215790600,5.67079052734375,0.8020575642585754,-3.4141316413879395,-4.714183330535889
1781039517225892000,5.68089208984375,0.8068459630012512,-3.3470940589904785,-3.799597978591919
1781039517235963000,5.690962890625,0.8212111592292786,-3.4404678344726562,-2.9927520751953125
1781039517316560000,5.771559814453125,0.1604115068912506,-5.054159641265869,-1.9776105880737305
1781039517346772200,5.801772216796875,0.24420857429504395,-5.628767967224121,-0.8858546018600464
1781039517356843000,5.811843017578125,0.3663128614425659,-5.832275390625,-0.38546648621559143
1781039517366883300,5.82188330078125,0.3734954595565796,-6.186617374420166,0.035913024097681046
1781039517376984600,5.831984619140625,0.3663128614425659,-6.464344501495361,0.5099649429321289
1781039517387085800,5.8420859375,0.2298433631658554,-6.476315498352051,0.8643068075180054
1781039517397126100,5.852126220703125,0.040701430290937424,-6.540958881378174,1.2186486721038818
1781039517407197000,5.862197021484375,-0.14844051003456116,-6.5265936851501465,1.522712230682373
1781039517417267700,5.872267822265625,-0.3974374830722809,-6.3518171310424805,1.4748282432556152
1781039517427338500,5.88233837890625,-0.6344634294509888,-6.335057735443115,1.2976573705673218
1781039517437378800,5.89237890625,-0.6823474764823914,-6.375759124755859,0.9648633003234863
1781039517447449600,5.90244970703125,-0.7326257228851318,-6.490680694580078,0.6991068720817566
1781039517457550800,5.91255078125,-0.7254431247711182,-6.627150535583496,0.4141969084739685
1781039517467652400,5.92265234375,-0.7996633648872375,-6.864176273345947,0.2106897532939911
1781039517477723100,5.93272314453125,-0.8044517636299133,-7.050923824310303,0.004788403399288654
1781039517487763500,5.942763427734375,-0.7374141216278076,-7.187393665313721,0.016759412363171577
1781039517497834200,5.952834228515625,-0.7038952708244324,-7.273584842681885,0.05746084079146385
1781039517538178300,5.99317822265625,0.1604115068912506,-7.970297336578369,2.056619167327881
1781039517558320000,6.013320068359375,-0.24420857429504395,-7.510610580444336,2.0805611610412598
1781039517568360200,6.023360107421875,-0.6153098344802856,-6.936002254486084,1.9608511924743652
1781039517578431000,6.033430908203125,-0.8571242094039917,-6.464344501495361,1.824381709098816
1781039517588532500,6.043532470703125,-0.8571242094039917,-6.090848922729492,1.98958158493042
1781039517598603300,6.053603271484375,-0.4908113479614258,-5.899312973022461,2.0374655723571777
1781039517608643600,6.0636435546875,-0.08858546614646912,-5.947196960449219,2.013523578643799
1781039517618744800,6.073744873046875,0.2944868206977844,-5.815515995025635,1.843535304069519
1781039517628815600,6.083815673828125,0.40222588181495667,-5.5760955810546875,1.5705963373184204
1781039517638886400,6.093886474609375,0.33039984107017517,-5.058948040008545,1.338358759880066
1781039517648987600,6.103987548828125,0.15801730751991272,-4.446032524108887,1.1779472827911377
1781039517659058400,6.114058349609375,-0.033518824726343155,-3.648763418197632,1.1013327836990356
1781039517679200300,6.1342001953125,0.1412578970193863,-2.537853717803955,0.7541735172271729
1781039517689271000,6.14427099609375,0.5722141861915588,-2.2457611560821533,0.37828385829925537
1781039517699341800,6.154341796875,0.9313444495201111,-1.9081788063049316,-0.43095630407333374
1781039517709412600,6.16441259765625,0.871489405632019,-1.3718775510787964,-0.9409212470054626
1781039517719513900,6.174513916015625,0.7757213711738586,-0.9528923034667969,-1.2713210582733154
1781039517729584600,6.184584716796875,0.768538773059845,-0.5147533416748047,-1.4700398445129395
1781039517739655400,6.194655517578125,0.8164227604866028,-0.1364694982767105,-1.5179238319396973
1781039517749756700,6.204756591796875,0.8810662031173706,0.07900865375995636,-1.335964560508728
1781039517759858200,6.214858154296875,1.0797849893569946,0.17717093229293823,-1.1779472827911377
1781039517769929000,6.224928955078125,1.1779472827911377,0.35434186458587646,-1.0965443849563599
1781039517780060700,6.235060791015625,1.170764684677124,0.6919242739677429,-0.9074024558067322
1781039517790162000,6.245161865234375,1.1516109704971313,0.9816226959228516,-0.7589619159698486
1781039517800263400,6.255263427734375,1.2449848651885986,1.3407529592514038,-0.7852981686592102
1781039517810364700,6.26536474609375,1.3311761617660522,1.316810965538025,-0.706289529800415
1781039517890992000,6.3459921875,0.49320554733276367,0.1628057211637497,-0.1843535304069519
1781039517901123800,6.356123779296875,0.4812345504760742,-0.2777273952960968,-0.10534487664699554
1781039517961671000,6.4166708984375,0.8403648138046265,-1.3096283674240112,-0.730231523513794
1781039517971772200,6.426772216796875,0.5650315880775452,-1.213860273361206,-1.1013327836990356
1781039517981873400,6.436873291015625,0.43335050344467163,-1.2976573705673218,-1.4460978507995605
1781039518042451000,6.497450927734375,0.8595184087753296,-3.620033025741577,-2.6455929279327393
1781039518052552200,6.50755224609375,0.7709329724311829,-3.00711727142334,-2.5977089405059814
1781039518062653400,6.5176533203125,0.37828385829925537,-2.3965959548950195,-2.38462495803833
1781039518072755000,6.5277548828125,0.028730420395731926,-2.343923568725586,-2.2601263523101807
1781039518082856200,6.537856201171875,0.040701430290937424,-2.3582887649536133,-2.389413356781006
1781039518092957400,6.54795751953125,0.31842881441116333,-2.7485435009002686,-2.911349296569824
1781039518103058700,6.55805859375,0.47884035110473633,-3.428496837615967,-3.3901896476745605
1781039518113160200,6.56816015625,0.47165772318840027,-3.974374771118164,-3.3518824577331543
1781039518153504300,6.608504150390625,-0.6272808313369751,-2.6168625354766846,-2.7269957065582275
1781039518224274700,6.679274658203125,-0.5554547905921936,-2.300827741622925,-3.0406360626220703
1781039518234376000,6.6893759765625,-0.7948749661445618,-2.0015525817871094,-2.959233283996582
1781039518244507600,6.699507568359375,-1.1779472827911377,-1.3718775510787964,-2.9233202934265137
1781039518254609200,6.709609130859375,-1.161187767982483,-0.4572925269603729,-2.9903578758239746
1781039518274811600,6.729811767578125,-1.3718775510787964,0.9768342971801758,-2.875436305999756
1781039518295014400,6.750014404296875,-2.1930887699127197,2.0590133666992188,-2.3511061668395996
1781039518305115600,6.76011572265625,-2.3535003662109375,1.920149803161621,-1.6903064250946045
1781039518315217000,6.770216796875,-2.6862943172454834,2.0446481704711914,-1.1803414821624756
1781039518325257200,6.78025732421875,-2.7700912952423096,2.3965959548950195,-0.9265560507774353
1781039518355622100,6.8106220703125,-3.0550012588500977,3.4332852363586426,-1.1180921792984009
1781039518365693000,6.82069287109375,-3.550601005554199,3.287238836288452,-1.4077905416488647
1781039518375825000,6.830824951171875,-3.914519786834717,2.918531894683838,-1.5107412338256836
1781039518416230100,6.871230224609375,-4.000710964202881,1.3982137441635132,-0.5793967843055725
1781039518426331400,6.881331298828125,-3.7852327823638916,1.292868971824646,-0.43095630407333374
1781039518436433000,6.891432861328125,-3.552995204925537,1.4748282432556152,-0.7661445140838623
1781039518446503700,6.901503662109375,-3.2082302570343018,1.678335428237915,-1.2832920551300049
1781039518456605000,6.91160498046875,-3.308786630630493,1.4891934394836426,-1.8938134908676147
1781039518466736600,6.921736572265625,-3.773261785507202,1.1013327836990356,-2.1787235736846924
1781039518476838100,6.931838134765625,-4.51067590713501,1.0319008827209473,-2.2026655673980713
1781039518486939400,6.941939453125,-4.908113479614258,0.8571242094039917,-1.8387469053268433
1781039518497040600,6.95204052734375,-4.881777286529541,0.6033388376235962,-1.2306196689605713
1781039518567780400,7.0227802734375,-0.8259995579719543,-2.3726539611816406,-0.13407529890537262
1781039518628418800,7.083418701171875,0.30885201692581177,-1.577778935432434,-0.48602294921875
1781039518719422200,7.174422119140625,-0.9983820915222168,0.2346317619085312,1.6208745241165161
1781039518729523700,7.184523681640625,-0.4908113479614258,1.4508862495422363,0.646434485912323
1781039518739625000,7.194625,-0.47405192255973816,1.1300631761550903,-0.2537853717803955
1781039518749665300,7.204665283203125,-0.569819986820221,0.24420857429504395,-0.7398083209991455
1781039518759766500,7.2147666015625,-0.7709329724311829,-0.21547815203666687,-0.31124621629714966
1781039518769837300,7.22483740234375,-0.7350199222564697,-0.06464344263076782,0.31124621629714966
1781039518779908000,7.234908203125,-0.6320692300796509,0.4357447028160095,0.5602431893348694
1781039518790009300,7.24500927734375,-0.7661445140838623,0.9409212470054626,0.5219359993934631
1781039518800080400,7.255080322265625,-0.8619126081466675,1.6136919260025024,0.07900865375995636
1781039518810151200,7.265151123046875,-0.9983820915222168,1.8938134908676147,-0.35434186458587646
1781039518830292700,7.285292724609375,-1.0893617868423462,1.5753847360610962,0.011971008032560349
1781039518840363500,7.295363525390625,-0.3663128614425659,1.292868971824646,0.2753331959247589
1781039518850464800,7.30546484375,0.4141969084739685,1.1851298809051514,0.5674257874488831
1781039518860535600,7.31553564453125,0.8882488012313843,1.1109095811843872,0.8379706144332886
1781039518870575900,7.325575927734375,1.2473790645599365,1.0079588890075684,1.0079588890075684
1781039518880677000,7.335677001953125,1.556231141090393,0.6320692300796509,1.1635819673538208
1781039518890778600,7.345778564453125,1.3455413579940796,-0.023942016065120697,1.1540051698684692
1781039518910920200,7.365920166015625,1.0749965906143188,-0.7422025203704834,1.3982137441635132
1781039518920991000,7.375990966796875,0.9840168952941895,-0.5626373887062073,1.3263877630233765
1781039518931061800,7.386061767578125,1.3766659498214722,-0.23702596127986908,1.235408067703247
1781039518941132500,7.396132568359375,1.6065093278884888,-0.004788403399288654,1.070208191871643
1781039518991547600,7.446547607421875,0.4692635238170624,0.1173158809542656,1.601720929145813
1781039519031769600,7.48676953125,0.6823474764823914,1.7741034030914307,0.4812345504760742
1781039519072114000,7.527114013671875,0.9959878921508789,0.6488286852836609,0.9433154463768005
1781039519082184700,7.537184814453125,0.6727706789970398,0.44532153010368347,1.1228805780410767
1781039519092255500,7.54725537109375,0.6607996821403503,0.5578489899635315,1.072602391242981
1781039519102326300,7.557326171875,0.6847416758537292,0.7541735172271729,0.9481038451194763
1781039519122498600,7.57749853515625,0.9050082564353943,0.3902548849582672,0.8164227604866028
1781039519132569300,7.5875693359375,0.8259995579719543,0.23942017555236816,0.8236053586006165
1781039519142640000,7.59764013671875,0.7972691655158997,0.019153613597154617,0.9768342971801758
1781039519152711000,7.6077109375,0.6033388376235962,-0.019153613597154617,1.0007762908935547
1781039519162781700,7.61778173828125,0.5889736413955688,0.1412578970193863,1.0893617868423462
1781039519172883000,7.627883056640625,0.7254431247711182,0.35913026332855225,0.9409212470054626
1781039519182984200,7.637984130859375,0.8307880163192749,0.45010992884635925,0.9074024558067322
1781039519203156500,7.658156494140625,0.9145850539207458,0.727837324142456,1.1228805780410767
1781039519213227300,7.668227294921875,0.8475474119186401,0.8020575642585754,1.0558429956436157
1781039519223298000,7.678298095703125,0.8595184087753296,0.8738836050033569,1.115697979927063
1781039519233399300,7.6883994140625,0.9385270476341248,0.9433154463768005,1.2114660739898682
1781039519243470000,7.698469970703125,1.0558429956436157,0.8882488012313843,1.237802267074585
1781039519253571600,7.708571533203125,1.158793568611145,0.7493851184844971,1.2258312702178955
1781039519263642400,7.718642333984375,1.1276689767837524,0.871489405632019,1.41257905960083
1781039519283814400,7.738814453125,1.0127472877502441,0.7015010714530945,1.5969325304031372
1781039519303986400,7.758986328125,1.1516109704971313,0.7996633648872375,2.3367409706115723
1781039519324128000,7.7791279296875,1.647210717201233,0.9768342971801758,2.6791117191314697
1781039519334229500,7.7892294921875,1.8986018896102905,1.0007762908935547,2.6839001178741455
1781039519344300300,7.79930029296875,2.2816741466522217,1.1348515748977661,2.583343744277954
1781039519354371000,7.80937109375,2.473210334777832,0.811634361743927,2.322375535964966
1781039519364441900,7.81944189453125,2.473210334777832,0.5339069962501526,2.5258827209472656
1781039519384644400,7.839644287109375,1.941697597503662,0.7852981686592102,2.674323320388794
1781039519394745900,7.849745849609375,1.7525556087493896,0.8810662031173706,2.319981336593628
1781039519404755500,7.85975537109375,1.6112977266311646,0.9002198576927185,2.0398597717285156
1781039519414857000,7.86985693359375,1.6711528301239014,0.871489405632019,1.7501614093780518
1781039519424927700,7.879927734375,1.6328455209732056,0.9888052940368652,1.659181833267212
1781039519435029000,7.890029052734375,1.7621324062347412,1.2545616626739502,1.6328455209732056
1781039519445038800,7.900038818359375,1.8363527059555054,1.237802267074585,1.400607943534851
1781039519455170600,7.910170654296875,1.7908629179000854,0.9720458984375,1.3455413579940796
1781039519465271800,7.920271728515625,1.599326729774475,0.8379706144332886,1.280897855758667
1781039519475373300,7.930373291015625,1.2641384601593018,0.6847416758537292,1.139639973640442
1781039519485444000,7.940444091796875,0.8858546018600464,0.5937620401382446,1.036689281463623
1781039519495545300,7.95054541015625,0.5195417404174805,0.6512228846549988,0.811634361743927
1781039519505646600,7.960646484375,0.23942017555236816,0.6440402865409851,0.689530074596405
1781039519515778600,7.970778564453125,0.40222588181495667,0.5195417404174805,0.4189853072166443
1781039519525819000,7.98081884765625,0.47884035110473633,0.05027823522686958,0.2801215946674347
1781039519616547600,8.071547607421875,0.7493851184844971,-2.765302896499634,-0.10534487664699554
1781039519656861200,8.111861083984374,-0.2106897532939911,-1.8100165128707886,-0.038307227194309235
1781039519666962700,8.121962646484375,-0.42856210470199585,-1.5945383310317993,-0.10295066982507706
1781039519677064000,8.13206396484375,-0.5267243981361389,-1.4532804489135742,-0.11971008777618408
1781039519687104300,8.142104248046875,-0.7086837291717529,-1.158793568611145,-0.08619125932455063
1781039519697205500,8.15220556640625,-0.8331822156906128,-0.646434485912323,-0.004788403399288654
1781039519707276300,8.1622763671875,-0.8523358106613159,0.021547814831137657,0.07661445438861847
1781039519757661000,8.212660888671875,-0.2849099934101105,2.3367409706115723,-0.9050082564353943
1781039519777772000,8.23277197265625,-1.1540051698684692,2.3774423599243164,-1.1994950771331787
1781039519787873300,8.242873291015625,-1.460463047027588,2.896984100341797,-1.1228805780410767
1781039519828217300,8.28321728515625,-3.1052796840667725,4.908113479614258,-1.7980455160140991
1781039519888581000,8.3435810546875,-2.427720546722412,4.481945514678955,-1.3934253454208374
1781039519898713000,8.353713134765625,-1.742978811264038,4.292803764343262,-1.3048399686813354
1781039519908814300,8.363814453125,-1.2689268589019775,4.2760443687438965,-1.1635819673538208
1781039519918915600,8.37391552734375,-1.1252747774124146,4.525041103363037,-1.1851298809051514
1781039519928956000,8.383955810546874,-0.8427590131759644,5.154716491699219,-1.070208191871643
1781039519939057400,8.394057373046875,-0.8212111592292786,5.839457988739014,-0.9768342971801758
1781039519949128200,8.404128173828125,-0.7422025203704834,6.428431510925293,-0.8140285611152649
1781039519969269800,8.424269775390625,-1.0654197931289673,7.010222434997559,-0.7158663272857666
1781039519979340500,8.434340576171875,-1.381454348564148,6.979097843170166,-0.8092401623725891
1781039519989411300,8.444411376953125,-1.6615760326385498,6.751648902893066,-0.871489405632019
1781039519999543000,8.45454296875,-2.0374655723571777,6.524199485778809,-1.1276689767837524
1781039520009613800,8.46461376953125,-2.3965959548950195,6.258443355560303,-1.1204863786697388
1781039520019684900,8.474684814453125,-2.779668092727661,5.995080947875977,-1.2306196689605713
1781039520029755600,8.484755615234375,-3.2632968425750732,5.477933406829834,-1.4245500564575195
1781039520049897200,8.504897216796875,-2.5665841102600098,4.707000732421875,-2.4899697303771973
1781039520059998500,8.51499853515625,-1.5634137392044067,4.211400985717773,-3.397372245788574
1781039520070069200,8.5250693359375,-0.524330198764801,3.4811692237854004,-4.206612586975098
1781039520090210800,8.5452109375,-0.5889736413955688,2.492363929748535,-4.970362663269043
1781039520100281600,8.555281494140624,-0.6560112833976746,2.58813214302063,-5.382165431976318
1781039520110352400,8.565352294921874,-0.8954314589500427,2.8993782997131348,-5.48272180557251
1781039520120392700,8.575392822265625,-1.2952631711959839,3.0861260890960693,-5.659893035888672
1781039520130463500,8.58546337890625,-1.601720929145813,2.583343744277954,-5.868188381195068
1781039520140503800,8.59550390625,-1.6639702320098877,2.0207061767578125,-6.40927791595459
1781039520150605000,8.60560498046875,-0.8307880163192749,1.1971008777618408,-6.830657482147217
1781039520211091000,8.666091064453125,2.736572504043579,-1.9800047874450684,-7.283161640167236
1781039520281678000,8.736677978515624,2.0183119773864746,-2.911349296569824,-2.8586769104003906
1781039520291779600,8.746779541015625,2.3080103397369385,-2.9233202934265137,-3.0095114707946777
1781039520301880800,8.756880859375,2.5043349266052246,-3.162740468978882,-3.179499864578247
1781039520311951600,8.76695166015625,2.5043349266052246,-3.397372245788574,-3.177105665206909
1781039520322022400,8.7770224609375,2.6168625354766846,-3.6607344150543213,-3.00711727142334
1781039520332093200,8.78709326171875,2.7317841053009033,-3.821146011352539,-2.827552318572998
1781039520342164000,8.7971640625,3.004723072052002,-4.041412353515625,-2.6001031398773193
1781039520352234800,8.80723486328125,3.090914487838745,-3.9432501792907715,-2.456450939178467
1781039520362336000,8.8173359375,3.0813376903533936,-3.883395195007324,-2.276885747909546
1781039520372407000,8.827406982421875,2.999934673309326,-3.928884983062744,-2.0925323963165283
1781039520382477800,8.837477783203125,2.8107926845550537,-4.048594951629639,-2.0638017654418945
1781039520402619400,8.857619384765625,2.6815059185028076,-4.606443881988525,-2.1308395862579346
1781039520412720600,8.867720703125,2.7126305103302,-4.927267074584961,-2.255337953567505
1781039520422822000,8.87782177734375,2.6575639247894287,-5.078101634979248,-2.341529369354248
1781039520473328600,8.92832861328125,2.6192567348480225,-6.2201361656188965,-2.2601263523101807
1781039520513672700,8.968672607421874,3.272873640060425,-6.528987884521484,-1.1348515748977661
1781039520543915800,8.998915771484375,3.021482467651367,-6.449979305267334,0.11013327538967133
1781039520574158600,9.02915869140625,3.35667085647583,-6.402095317840576,2.229001760482788
1781039520604401700,9.059401611328125,3.177105665206909,-5.947196960449219,2.762908697128296
1781039520644745700,9.099745849609375,2.1523873805999756,-4.19224739074707,3.397372245788574
1781039520695283000,9.150282958984375,1.6735470294952393,-3.5960910320281982,2.473210334777832
1781039520715485400,9.1704853515625,1.6663644313812256,-3.4811692237854004,2.279279947280884
1781039520725617400,9.180617431640625,1.9847931861877441,-3.603273630142212,2.185906171798706
1781039520735718700,9.19071875,2.097320795059204,-3.773261785507202,1.9919757843017578
1781039520745850600,9.2008505859375,2.099714994430542,-3.9264907836914062,1.7190368175506592
1781039520755951900,9.210951904296875,2.10210919380188,-3.971980571746826,1.4221558570861816
1781039520766083600,9.22108349609375,1.9847931861877441,-4.0749311447143555,1.0534487962722778
1781039520776185000,9.23118505859375,1.7764976024627686,-3.952826976776123,0.8307880163192749
1781039520786316800,9.24131689453125,1.5897499322891235,-3.8331170082092285,0.4429273009300232
1781039520796418000,9.25141796875,1.280897855758667,-3.4380736351013184,0.2753331959247589
1781039520806488800,9.26148876953125,1.213860273361206,-3.1004912853240967,-0.040701430290937424
1781039520816620800,9.271620849609375,1.1085153818130493,-2.765302896499634,-0.3974374830722809
1781039520836823300,9.2918232421875,0.42377370595932007,-1.9488801956176758,-1.3215993642807007
1781039520846955300,9.301955322265625,0.2106897532939911,-1.7142484188079834,-1.8100165128707886
1781039520857087000,9.3120869140625,-0.07900865375995636,-1.5418659448623657,-2.1332337856292725
1781039520867188500,9.3221884765625,-0.1867477297782898,-1.3742717504501343,-2.2218191623687744
1781039520877320200,9.3323203125,-0.2561795711517334,-1.2545616626739502,-1.9297266006469727
1781039520887452200,9.3424521484375,-0.2106897532939911,-1.0773907899856567,-1.436521053314209
1781039520897553400,9.352553466796875,-0.1388636976480484,-1.0678139925003052,-0.9624691009521484
1781039520978394400,9.433394287109374,-0.4836287498474121,-0.5171475410461426,-1.6855180263519287
1781039520998597000,9.45359716796875,-0.8044517636299133,-0.7206547260284424,-1.8387469053268433
1781039521008698400,9.463698486328125,-0.9026140570640564,-0.689530074596405,-1.98958158493042
1781039521018830300,9.473830322265625,-1.0893617868423462,-0.751779317855835,-2.099714994430542
1781039521028931600,9.483931640625,-1.235408067703247,-0.7110779285430908,-2.1140801906585693
1781039521039032800,9.49403271484375,-0.5746083855628967,-1.335964560508728,-2.557007312774658
1781039521049134300,9.50413427734375,-0.23702596127986908,-2.5091233253479004,-3.2369606494903564
1781039521059235600,9.514235595703125,0.33039984107017517,-3.514688014984131,-4.0078935623168945
1781039521069306400,9.524306396484375,0.6057330369949341,-3.7469255924224854,-4.242525577545166
1781039521079438000,9.53443798828125,0.3663128614425659,-3.4380736351013184,-4.132391929626465
1781039521089539600,9.54453955078125,-0.4118026793003082,-2.8131868839263916,-3.936067581176758
1781039521099640800,9.554640869140625,-1.0678139925003052,-2.4229321479797363,-3.751713991165161
1781039521109742000,9.5647421875,-1.4987702369689941,-2.1739351749420166,-3.641580820083618
1781039521140076500,9.59507666015625,0.2346317619085312,-5.058948040008545,-2.849100112915039
1781039521150177800,9.605177734375,0.19153612852096558,-4.965574264526367,-2.786850690841675
1781039521170411000,9.625410888671874,0.033518824726343155,-3.804386615753174,-3.0119056701660156
1781039521180512500,9.635512451171875,-0.14844051003456116,-3.5170822143554688,-2.983175277709961
1781039521190613800,9.64561376953125,-0.2298433631658554,-3.1890766620635986,-2.889801502227783
1781039521200776000,9.65577587890625,0.019153613597154617,-3.514688014984131,-2.8131868839263916
1781039521261414400,9.716414306640624,-0.9481038451194763,-2.4013843536376953,-2.612074136734009
1781039521322022400,9.7770224609375,-1.6400281190872192,-0.706289529800415,-2.456450939178467
1781039521332154000,9.787154052734374,-1.8938134908676147,-0.5027823448181152,-2.5043349266052246
1781039521342225200,9.79722509765625,-1.9752163887023926,-0.14604631066322327,-2.43011474609375
1781039521352356900,9.80735693359375,-2.583343744277954,-0.07422025501728058,-2.4420857429504395
1781039521362427600,9.817427734375,-2.9472622871398926,0.2585737705230713,-2.252943754196167
1781039521372529000,9.82752880859375,-3.3303346633911133,0.7709329724311829,-1.699883222579956
1781039521392762000,9.84776220703125,-3.514688014984131,2.2146365642547607,-1.1803414821624756
1781039521402802400,9.857802490234375,-3.7684733867645264,2.0901381969451904,-0.9433154463768005
1781039521412903700,9.867903564453124,-3.8522706031799316,1.8387469053268433,-1.0055646896362305
1781039521463257900,9.9182578125,-3.2800562381744385,1.5921441316604614,-1.8339585065841675
1781039521483399400,9.9383994140625,-3.955221176147461,2.0398597717285156,-1.1228805780410767
1781039521493531100,9.94853125,-4.41969633102417,2.296039342880249,-0.7876923680305481
1781039521553986600,10.008986572265625,-3.1890766620635986,2.786850690841675,-0.9624691009521484
1781039521564027000,10.01902685546875,-2.940079689025879,2.9328970909118652,-1.1085153818130493
1781039521574128000,10.029128173828125,-3.2345664501190186,2.5115175247192383,-1.2234370708465576
1781039521584199000,10.039198974609375,-3.308786630630493,2.3104045391082764,-1.434126853942871
1781039521604340500,10.059340576171875,-3.44765043258667,2.406172752380371,-1.900996208190918
1781039521614441700,10.069441650390624,-3.4332852363586426,2.583343744277954,-2.051830768585205
1781039521624512500,10.079512451171874,-3.383007049560547,2.564189910888672,-2.0805611610412598
1781039521634614000,10.089614013671875,-3.0358476638793945,2.365471363067627,-2.03507137298584
1781039521644684800,10.099684814453125,-3.1723172664642334,2.3032219409942627,-1.8315643072128296
1781039521654755600,10.109755615234375,-3.0789434909820557,2.628833532333374,-1.867477297782898
1781039521664856800,10.11985693359375,-3.6750996112823486,2.557007312774658,-1.7549498081207275
1781039521674958000,10.1299580078125,-3.428496837615967,1.9728221893310547,-1.7286136150360107
1781039521685059600,10.1400595703125,-3.423708438873291,1.05105459690094,-1.2497732639312744
1781039521695160800,10.150160888671875,-2.808398485183716,-0.05506663769483566,-0.48602294921875
1781039521735444000,10.19044384765625,-0.4572925269603729,-1.601720929145813,-0.6057330369949341
1781039521745545500,10.20054541015625,-0.45250412821769714,-1.0678139925003052,-1.0223240852355957
1781039521755646700,10.210646728515625,-0.5793967843055725,-0.7924807667732239,-1.3239935636520386
1781039521765687000,10.22068701171875,-0.6105214357376099,-1.357512354850769,-1.5921441316604614
1781039521775788300,10.230788330078125,-0.22026655077934265,-2.2409727573394775,-1.3623007535934448
1781039521785859000,10.240859130859375,0.6033388376235962,-2.2385785579681396,-1.194706678390503
1781039521795929900,10.250929931640625,1.599326729774475,-2.0925323963165283,-1.482010841369629
1781039521806031000,10.261031005859374,2.0853497982025146,-2.612074136734009,-1.5059528350830078
1781039521846406000,10.301406005859375,0.6799532771110535,-2.051830768585205,-0.22505496442317963
1781039521856476700,10.3114765625,0.6703764796257019,-2.6024973392486572,-0.08858546614646912
1781039521866547500,10.32154736328125,0.17956513166427612,-2.9257144927978516,0.0454898327589035
1781039521876649000,10.33164892578125,-0.12928688526153564,-3.0526070594787598,0.19393034279346466
1781039521906891800,10.361891845703125,-1.2258312702178955,-2.9233202934265137,0.23702596127986908
1781039521967438600,10.4224384765625,1.6519991159439087,-0.933738648891449,-0.33758243918418884
1781039521977540000,10.4325400390625,2.0638017654418945,-0.871489405632019,-0.031124621629714966
1781039521987611000,10.44261083984375,2.410961151123047,-0.6727706789970398,0.507570743560791
1781039521997712100,10.452712158203125,2.516305923461914,-0.19871874153614044,0.828393816947937
1781039522007783000,10.462782958984375,2.073378562927246,-0.10534487664699554,0.993593692779541
1781039522017884200,10.47288427734375,1.5873557329177856,-0.06464344263076782,0.9289502501487732
1781039522027955000,10.482954833984374,1.0965443849563599,-0.10534487664699554,0.7757213711738586
1781039522038025700,10.493025634765624,0.6991068720817566,-0.14844051003456116,0.6584054827690125
1781039522048096500,10.503096435546874,0.5961562395095825,-0.3734954595565796,0.790086567401886
1781039522058136800,10.51313671875,0.33039984107017517,-0.4165911078453064,0.9193734526634216
1781039522068238300,10.52323828125,0.4357447028160095,-0.16759411990642548,1.0462661981582642
1781039522078309000,10.53330908203125,0.7015010714530945,0.4884171485900879,1.015141487121582
1781039522088380000,10.5433798828125,0.8403648138046265,0.9289502501487732,0.9648633003234863
1781039522098450700,10.55345068359375,1.0031704902648926,1.0223240852355957,1.0127472877502441
1781039522118592300,10.57359228515625,1.0127472877502441,1.5083470344543457,1.139639973640442
1781039522128663000,10.5836630859375,1.278503656387329,1.821987509727478,1.070208191871643
1781039522138733800,10.59373388671875,1.400607943534851,1.8291701078414917,0.9289502501487732
1781039522148804600,10.6038046875,1.5729905366897583,1.7525556087493896,0.9959878921508789
1781039522158875400,10.61387548828125,1.5107412338256836,1.6112977266311646,1.2042834758758545
1781039522168946200,10.6239462890625,1.3766659498214722,1.4077905416488647,1.5322890281677246
1781039522179017000,10.634016845703124,1.3742717504501343,1.2521674633026123,1.9345149993896484
1781039522189087700,10.644087646484374,1.113303780555725,1.2473790645599365,2.1523873805999756
1781039522199158500,10.654158447265624,0.8451532125473022,1.5610195398330688,2.2625205516815186
1781039522259644400,10.71464453125,0.9433154463768005,2.671929121017456,1.357512354850769
1781039522289918000,10.74491796875,0.17956513166427612,2.5665841102600098,1.6687586307525635
1781039522320191200,10.775191162109374,0.6967126727104187,2.5474305152893066,1.414973258972168
1781039522350403800,10.80540380859375,1.2665326595306396,2.2385785579681396,0.5793967843055725
1781039522370636800,10.82563671875,0.304063618183136,2.3535003662109375,0.33039984107017517
1781039522380738300,10.83573828125,-0.3064578175544739,2.382230758666992,0.3926490843296051
1781039522390809000,10.84580908203125,-0.7661445140838623,2.343923568725586,0.5961562395095825
1781039522400879900,10.8558798828125,-0.8954314589500427,2.631227731704712,0.9169792532920837
1781039522410981000,10.865981201171875,-0.6751648783683777,2.956839084625244,1.2306196689605713
1781039522421113000,10.876113037109375,-0.3016694188117981,3.339911460876465,1.292868971824646
1781039522431214300,10.88621435546875,0.07182604819536209,3.2800562381744385,1.2306196689605713
1781039522451356000,10.90635595703125,0.751779317855835,2.7676970958709717,0.8906430602073669
1781039522461426700,10.9164267578125,0.9074024558067322,2.4181437492370605,0.9002198576927185
1781039522471528000,10.92652783203125,0.7924807667732239,1.845929503440857,1.3192051649093628
1781039522481629400,10.93662939453125,0.5722141861915588,1.6496049165725708,1.7717092037200928
1781039522491730700,10.946730712890625,0.47644615173339844,1.7884687185287476,2.252943754196167
1781039522501801500,10.956801513671875,0.6488286852836609,2.0614075660705566,2.432508945465088
1781039522511872300,10.966872314453125,0.7996633648872375,2.3056161403656006,2.365471363067627
1781039522521912600,10.97691259765625,1.01753568649292,2.5929205417633057,2.2026655673980713
1781039522542084600,10.997084716796875,1.290474772453308,2.248155355453491,1.577778935432434
1781039522552155400,11.0071552734375,1.0749965906143188,2.1763293743133545,1.2832920551300049
1781039522562134800,11.017134765625,0.9193734526634216,2.190694570541382,1.4269442558288574
1781039522572236000,11.027236083984375,1.01753568649292,2.0925323963165283,1.4748282432556152
1781039522582306800,11.037306884765625,1.0127472877502441,1.987187385559082,1.5490485429763794
1781039522592408000,11.047407958984374,0.9864110946655273,2.030282974243164,1.7405846118927002
1781039522602448400,11.057448486328125,1.0295066833496094,2.073378562927246,1.8626888990402222
1781039522612549600,11.067549560546874,1.2258312702178955,2.0638017654418945,1.8100165128707886
1781039522652924400,11.10792431640625,1.2210428714752197,1.534683346748352,1.6735470294952393
1781039522683198000,11.138197998046875,0.3998316824436188,1.280897855758667,1.5107412338256836
1781039522693299200,11.14829931640625,0.08858546614646912,1.2186486721038818,1.5538369417190552
1781039522723542300,11.178542236328125,0.7134721279144287,1.3120225667953491,0.6727706789970398
1781039522733643500,11.1886435546875,0.7038952708244324,0.9816226959228516,0.9361328482627869
1781039522743714300,11.19871435546875,0.6584054827690125,0.7757213711738586,0.8619126081466675
1781039522763856000,11.21885595703125,0.6105214357376099,0.08858546614646912,0.8858546018600464
1781039522784028000,11.23902783203125,0.06703764945268631,-0.18914192914962769,1.0965443849563599
1781039522794129400,11.24912939453125,-0.26336219906806946,-0.40940847992897034,1.0295066833496094
1781039522804200200,11.2592001953125,-0.38546648621559143,-0.2585737705230713,1.278503656387329
1781039522814301400,11.269301513671875,-0.507570743560791,0.181959331035614,1.1563993692398071
1781039522824372200,11.279372314453125,-0.31364041566848755,0.5363011956214905,0.8978256583213806
1781039522834443000,11.289443115234375,0,0.730231523513794,0.5985504388809204
1781039522844513800,11.299513671875,0.004788403399288654,0.3064578175544739,0.40701428055763245
1781039522864686000,11.31968603515625,0.05506663769483566,-0.5482721924781799,0.4357447028160095
1781039522874756900,11.3297568359375,0.047884032130241394,-0.272938996553421,0.24660277366638184
1781039522884827600,11.33982763671875,-0.19871874153614044,0.004788403399288654,0.14844051003456116
1781039522894898400,11.3498984375,-0.3064578175544739,0.38546648621559143,0.06224924325942993
1781039522925141200,11.380141357421875,-0.8690952062606812,1.4532804489135742,-0.395043283700943
1781039522935212000,11.3902119140625,-0.7733271718025208,1.4772224426269531,-0.5219359993934631
1781039522965455000,11.420455078125,0.5482721924781799,-1.3838485479354858,-0.8212111592292786
1781039522995728400,11.450728271484374,-0.9600749015808105,-1.0414776802062988,-0.524330198764801
1781039523005830000,11.460829833984375,-1.8602946996688843,-0.14604631066322327,-0.7015010714530945
1781039523015931100,11.47093115234375,-2.5977089405059814,1.1635819673538208,-0.9648633003234863
1781039523096528100,11.551528076171875,-3.095702886581421,1.8483237028121948,-4.98472785949707
1781039523167176200,11.62217626953125,-3.138798475265503,5.542576789855957,-3.598485231399536
1781039523227692500,11.682692626953125,-2.0590133666992188,5.056553840637207,-1.6879122257232666
1781039523237824500,11.692824462890625,-1.7477672100067139,4.235342979431152,-1.723825216293335
1781039523247925800,11.70292578125,-1.7046716213226318,3.421314239501953,-1.7812861204147339
1781039523257996500,11.71299658203125,-1.4389152526855469,2.7485435009002686,-1.7956513166427612
1781039523268067300,11.7230673828125,-1.1109095811843872,2.513911724090576,-1.965639591217041
1781039523278168600,11.73316845703125,-1.05105459690094,2.454056739807129,-2.2697031497955322
1781039523288270000,11.74327001953125,-0.912190854549408,2.5546131134033203,-2.75812029838562
1781039523298371300,11.753371337890625,-1.1803414821624756,2.6862943172454834,-3.045424461364746
1781039523318543400,11.77354345703125,-2.03507137298584,2.801215887069702,-3.3446998596191406
1781039523328644600,11.78364453125,-2.2170307636260986,2.6623523235321045,-3.5482068061828613
1781039523338746000,11.79374609375,-2.4660277366638184,2.1954829692840576,-3.603273630142212
1781039523348847400,11.803847412109375,-2.9975404739379883,1.5969325304031372,-3.907337188720703
1781039523358948600,11.813948486328124,-3.1459810733795166,0.40222588181495667,-4.369418144226074
1781039523369050000,11.824050048828125,-3.2369606494903564,-1.0773907899856567,-5.008669853210449
1781039523379151400,11.8341513671875,-2.889801502227783,-1.9297266006469727,-5.6910176277160645
1781039523389283000,11.844282958984374,-2.2649147510528564,-1.9943699836730957,-6.155492782592773
1781039523399384600,11.854384521484375,-1.3862427473068237,-2.1332337856292725,-5.9088897705078125
1781039523449921500,11.904921630859375,-0.17477671802043915,-3.002328872680664,-3.5051112174987793
1781039523460022800,11.915022705078124,-0.0694318488240242,-3.603273630142212,-3.287238836288452
1781039523470124300,11.925124267578125,-0.15801730751991272,-4.175487995147705,-3.469198226928711
1781039523490357200,11.945357177734374,0.1149216815829277,-4.7836151123046875,-3.711012601852417
1781039523530762800,11.9857626953125,0.49799394607543945,-5.149928092956543,-2.6216509342193604
1781039523540864000,11.995864013671875,0.7086837291717529,-5.185841083526611,-2.5282769203186035
1781039523550965200,12.00596533203125,0.8164227604866028,-5.374982833862305,-2.3343467712402344
1781039523561005600,12.016005615234375,0.9481038451194763,-5.494692802429199,-2.2697031497955322
1781039523571137300,12.02613720703125,1.1037269830703735,-5.60722017288208,-2.22660756111145
1781039523581238800,12.03623876953125,1.1779472827911377,-5.801150798797607,-2.2673089504241943
1781039523591340000,12.046340087890625,1.237802267074585,-5.995080947875977,-2.3295583724975586
1781039523601410800,12.056410888671875,1.3287819623947144,-6.440402507781982,-2.142810583114624
1781039523621613600,12.076613525390625,1.7405846118927002,-7.132327079772949,-1.5442601442337036
1781039523631714800,12.08671484375,1.9608511924743652,-7.4986395835876465,-1.1540051698684692
1781039523641785600,12.09678564453125,2.166752576828003,-7.769184589385986,-0.8475474119186401
1781039523651917300,12.106917236328124,2.365471363067627,-7.920019149780273,-0.5291185975074768
1781039523662049300,12.11704931640625,2.4827871322631836,-7.943961143493652,-0.38546648621559143
1781039523672150500,12.127150634765625,2.698265314102173,-7.845798969268799,-0.2753331959247589
1781039523682221300,12.13722119140625,2.7557260990142822,-7.6997528076171875,-0.29209262132644653
1781039523702454500,12.15745458984375,2.786850690841675,-7.644686222076416,-0.1867477297782898
1781039523722626600,12.17762646484375,2.851494312286377,-7.587224960327148,0.21308395266532898
1781039523732758500,12.187758544921875,2.920926094055176,-7.644686222076416,0.4381389021873474
1781039523742859800,12.19785986328125,3.047818660736084,-7.759607791900635,0.7015010714530945
1781039523752961000,12.2079609375,3.2345664501190186,-7.850587368011475,1.0678139925003052
1781039523763031800,12.21803173828125,3.3925838470458984,-7.977479934692383,1.2330138683319092
1781039523773163800,12.228163818359375,3.4380736351013184,-8.001421928405762,1.5298948287963867
1781039523793335800,12.248335693359374,3.426102638244629,-7.920019149780273,1.766920804977417
1781039523803437300,12.258437255859375,3.404554843902588,-7.888894557952881,1.9823989868164062
1781039523843873000,12.298873046875,3.464409828186035,-8.006210327148438,2.123656988143921
1781039523894288100,12.3492880859375,3.0095114707946777,-7.747636795043945,1.170764684677124
1781039523914429700,12.3694296875,2.7461493015289307,-7.189787864685059,0.569819986820221
1781039523924470000,12.379469970703125,2.6647465229034424,-6.92881965637207,0.22505496442317963
1781039523944672500,12.399672607421875,2.4181437492370605,-6.447585105895996,-0.4884171485900879
1781039523954773800,12.409773681640624,2.1763293743133545,-6.1267619132995605,-0.646434485912323
1781039523964844500,12.419844482421874,2.03507137298584,-5.8657941818237305,-0.8882488012313843
1781039523974946000,12.429946044921875,1.9081788063049316,-5.501875400543213,-0.8427590131759644
1781039523985016800,12.440016845703125,1.7741034030914307,-5.288791656494141,-0.629675030708313
1781039523995118000,12.4501181640625,1.6376339197158813,-4.845864295959473,-0.40222588181495667
1781039524005188900,12.46018896484375,1.6041151285171509,-4.668693542480469,-0.11013327538967133
1781039524015290000,12.4702900390625,1.625662922859192,-4.412513732910156,0.038307227194309235
1781039524035432000,12.490431884765625,1.400607943534851,-3.998316764831543,-0.047884032130241394
1781039524055634400,12.510634521484375,1.1348515748977661,-3.203441858291626,-0.22505496442317963
1781039524075745500,12.53074560546875,1.558625340461731,-3.1292216777801514,-0.5171475410461426
1781039524085846800,12.5408466796875,2.4205379486083984,-3.5266590118408203,-1.015141487121582
1781039524095948300,12.5509482421875,2.6455929279327393,-3.713406801223755,-1.5514427423477173
1781039524106049500,12.561049560546875,2.315192937850952,-3.6152446269989014,-1.9991583824157715
1781039524116120300,12.571120361328125,1.7956513166427612,-3.002328872680664,-2.3774423599243164
1781039524126191000,12.581191162109375,1.2713210582733154,-2.209848165512085,-2.806004285812378
1781039524156403500,12.611403564453125,0.9600749015808105,-1.1300631761550903,-3.4165258407592773
1781039524166504700,12.621504638671874,1.292868971824646,-1.1013327836990356,-3.2968156337738037
1781039524176575700,12.63157568359375,1.8339585065841675,-1.2665326595306396,-3.112462282180786
1781039524186646500,12.641646484375,2.434903144836426,-1.45806884765625,-2.9448680877685547
1781039524196747800,12.651747802734375,2.892195701599121,-1.522712230682373,-2.894589900970459
1781039524226929700,12.6819296875,2.738966703414917,-1.0342950820922852,-2.121262788772583
1781039524237031000,12.692031005859375,2.631227731704712,-0.8188169598579407,-1.6903064250946045
1781039524287476500,12.7424765625,2.494758129119873,-1.4676456451416016,-0.47644615173339844
1781039524327820800,12.78282080078125,2.6647465229034424,-1.1875240802764893,0.07900865375995636
1781039524337952500,12.792952392578124,2.140416383743286,-0.8092401623725891,0.42616790533065796
1781039524358094000,12.813093994140624,1.235408067703247,0.2059013396501541,1.1013327836990356
1781039524368164900,12.823164794921874,1.0127472877502441,0.6631938815116882,1.1180921792984009
1781039524378236000,12.83323583984375,0.9241618514060974,0.4572925269603729,1.0031704902648926
1781039524388306700,12.843306640625,0.8738836050033569,0.090979665517807,1.0127472877502441
1781039524398377500,12.85337744140625,0.9481038451194763,-0.14604631066322327,0.9145850539207458
1781039524408448300,12.8634482421875,0.730231523513794,-0.1843535304069519,0.7541735172271729
1781039524418549500,12.873549560546875,0.47884035110473633,0.15322890877723694,1.0749965906143188
1781039524428620300,12.883620361328125,0.12928688526153564,0.7541735172271729,1.4987702369689941
1781039524438691000,12.893691162109375,0.15322890877723694,1.400607943534851,1.8052281141281128
1781039524448761900,12.903761962890625,-0.047884032130241394,1.5969325304031372,2.126051187515259
1781039524499115800,12.95411572265625,-0.31364041566848755,2.1499931812286377,2.427720546722412
1781039524509247700,12.964247802734375,-0.5386953949928284,2.43011474609375,2.7126305103302
1781039524519318500,12.974318603515625,-0.9576807022094727,2.3582887649536133,3.294421434402466
1781039524529419800,12.984419677734374,-1.3503297567367554,2.6360161304473877,3.56017804145813
1781039524539490600,12.994490478515624,-1.5634137392044067,2.911349296569824,3.399766445159912
1781039524569703200,13.024703125,-2.1140801906585693,4.546588897705078,2.9281086921691895
1781039524579774000,13.03477392578125,-2.3798365592956543,4.941632270812988,2.75812029838562
1781039524589875200,13.044875244140625,-2.410961151123047,4.817133903503418,2.3798365592956543
1781039524599946000,13.054946044921875,-2.829946517944336,4.141968727111816,2.030282974243164
1781039524610016800,13.065016845703125,-3.883395195007324,3.7469255924224854,1.8531121015548706
1781039524620057000,13.07505712890625,-3.466804027557373,3.706224203109741,1.6328455209732056
1781039524630158300,13.085158447265625,-3.28963303565979,3.0190882682800293,1.2832920551300049
1781039524640229000,13.09522900390625,-3.07415509223938,2.540247917175293,1.115697979927063
1781039524650300000,13.1052998046875,-2.8419175148010254,2.03507137298584,0.9385270476341248
1781039524670441500,13.12544140625,-2.935291290283203,3.069366693496704,1.4939818382263184
1781039524680451300,13.135451416015625,-3.095702886581421,3.6367924213409424,1.8746598958969116
1781039524690552600,13.145552490234374,-3.514688014984131,3.622427225112915,2.1356279850006104
1781039524700623400,13.155623291015624,-3.201047658920288,3.1076738834381104,2.051830768585205
1781039524720704000,13.1757041015625,-2.169146776199341,1.4245500564575195,1.8722656965255737
1781039524730805200,13.18580517578125,-1.8411411046981812,0.7350199222564697,1.6089035272598267
1781039524740906800,13.19590673828125,-1.4987702369689941,0.35434186458587646,1.2449848651885986
1781039524750947000,13.205947021484375,-1.3120225667953491,0.2585737705230713,1.1276689767837524
1781039524761017900,13.216017822265625,-1.2090718746185303,0.2585737705230713,1.0869675874710083
1781039524781220400,13.236220458984375,-1.2449848651885986,0.0454898327589035,0.45489832758903503
1781039524791260700,13.2462607421875,-1.3982137441635132,-0.009576806798577309,0.09576806426048279
1781039524801301000,13.256301025390625,-1.2713210582733154,-0.05027823522686958,-0.3878606855869293
1781039524811402200,13.26640234375,-1.0414776802062988,0.2322375625371933,-0.7637503147125244
1781039524821473000,13.27647314453125,-1.2186486721038818,0.3208230137825012,-0.9576807022094727
1781039524831543800,13.286543701171874,-1.338358759880066,0.395043283700943,-0.646434485912323
1781039524922181000,13.37718115234375,-2.008735179901123,1.036689281463623,1.1803414821624756
1781039524952393500,13.4073935546875,-1.6112977266311646,1.2449848651885986,1.0989385843276978
1781039524962433800,13.417433837890625,-1.3096283674240112,0.545877993106842,1.37906014919281
1781039524982636300,13.43763623046875,-0.7924807667732239,0.7613561153411865,1.5322890281677246
1781039524992707300,13.447707275390625,-0.6871358752250671,1.5131354331970215,1.139639973640442
1781039525002808600,13.45780859375,-0.6512228846549988,2.03507137298584,0.5602431893348694
1781039525012879400,13.46787939453125,-0.47165772318840027,2.1523873805999756,0.181959331035614
1781039525022950100,13.4779501953125,-0.4213795065879822,1.6519991159439087,0.15083470940589905
1781039525033051400,13.488051513671875,-0.689530074596405,1.3215993642807007,0.2968810200691223
1781039525043153000,13.49815283203125,-0.5674257874488831,1.0127472877502441,0.507570743560791
1781039525053223700,13.5082236328125,0.31364041566848755,0.016759412363171577,0.8930372595787048
1781039525063294500,13.51829443359375,0.44771572947502136,-0.40462008118629456,0.35913026332855225
1781039525093537300,13.548537353515625,0.2801215946674347,0.6416460275650024,0.15801730751991272
1781039525103608000,13.558608154296875,0.33997663855552673,1.2042834758758545,0.0933738648891449
1781039525113678800,13.568678955078125,0.44771572947502136,1.335964560508728,0.10773907601833344
1781039525133881600,13.588881591796875,0.7637503147125244,1.192312479019165,0.42856210470199585
1781039525214539500,13.66953955078125,0.19871874153614044,0.6775590777397156,1.843535304069519
1781039525264924000,13.719923828125,0.49799394607543945,1.5107412338256836,2.604891538619995
1781039525274994700,13.72999462890625,1.1276689767837524,0.9265560507774353,2.33913516998291
1781039525285096200,13.74009619140625,1.6089035272598267,0.38307225704193115,2.126051187515259
1781039525295136500,13.750136474609375,2.0470423698425293,0.5171475410461426,1.3742717504501343
1781039525305207300,13.760207275390625,2.1954829692840576,0.395043283700943,1.2330138683319092
1781039525315308500,13.77030859375,2.0039467811584473,0.15801730751991272,1.3886369466781616
1781039525345582000,13.80058203125,-0.1388636976480484,0.26815059781074524,1.6663644313812256
1781039525355652900,13.81065283203125,-0.7350199222564697,0.7852981686592102,1.742978811264038
1781039525365693000,13.82069287109375,-0.44771572947502136,1.2090718746185303,2.0231003761291504
1781039525375764000,13.830763916015625,0.6847416758537292,1.5418659448623657,1.8339585065841675
1781039525385834800,13.840834716796875,1.460463047027588,2.516305923461914,1.7956513166427612
1781039525395936000,13.85093603515625,2.806004285812378,1.4915876388549805,2.0805611610412598
1781039525416108000,13.87110791015625,3.598485231399536,1.8770540952682495,2.207453966140747
1781039525426209500,13.88120947265625,2.319981336593628,2.80361008644104,2.4899697303771973
1781039525436310800,13.891310791015625,1.6328455209732056,3.485957622528076,2.1140801906585693
1781039525446412000,13.901412109375,1.6424223184585571,3.555389642715454,1.161187767982483
1781039525456482800,13.91148291015625,2.2673089504241943,2.5450363159179688,0.1388636976480484
1781039525466553600,13.9215537109375,3.8067808151245117,1.3718775510787964,0.2346317619085312
1781039525476594000,13.931593994140625,3.375824451446533,-0.4213795065879822,1.1348515748977661
1781039525486695200,13.941695068359374,3.3016040325164795,-0.05267243832349777,1.4221558570861816
1781039525496766000,13.951765869140624,2.427720546722412,0.7398083209991455,1.8124107122421265
1781039525506836700,13.961836669921874,1.3503297567367554,1.699883222579956,1.6974890232086182
1781039525527039500,13.98203955078125,2.695871114730835,2.896984100341797,0.3280056416988373
1781039525537171200,13.992171142578124,2.8778305053710938,3.1914708614349365,-0.7326257228851318
1781039525547242200,14.0022421875,2.655169725418091,1.5490485429763794,-0.9792284965515137
1781039525557313000,14.01231298828125,2.097320795059204,-1.3455413579940796,-0.5626373887062073
1781039525567383800,14.0223837890625,1.5514427423477173,-3.7229835987091064,-0.07900865375995636
1781039525577485000,14.032485107421875,0.49559974670410156,-4.671087741851807,0.18914192914962769
1781039525587586300,14.04258642578125,1.8052281141281128,-4.857835292816162,0.0454898327589035
1781039525597687800,14.052687744140625,2.3343467712402344,-3.555389642715454,-0.1388636976480484
1781039525607789000,14.0627890625,2.6599581241607666,-1.0199298858642578,-0.7661445140838623
1781039525627991600,14.082991455078124,2.0231003761291504,-0.3471592366695404,-0.6751648783683777
1781039525648224800,14.103224853515625,1.6639702320098877,-2.4660277366638184,1.1851298809051514
1781039525658295600,14.113295654296875,1.8195933103561401,-2.7485435009002686,1.9105730056762695
1781039525718903600,14.173903564453125,1.6065093278884888,1.048660397529602,0.9552865028381348
1781039525769288000,14.224287841796874,-0.3447650372982025,0.21308395266532898,0.2298433631658554
1781039525779358700,14.234358642578124,-0.586579442024231,0.035913024097681046,0.38067805767059326
1781039525819764200,14.27476416015625,-0.20111294090747833,-1.1875240802764893,0.8020575642585754
1781039525870301200,14.32530126953125,0.1628057211637497,-2.0470423698425293,-0.3423708379268646
1781039525940949500,14.395949462890625,-0.7350199222564697,0.5003881454467773,-0.5841852426528931
1781039525951050800,14.40605078125,-1.0678139925003052,1.778891921043396,-0.6129156351089478
1781039525961152000,14.416152099609375,-1.4772224426269531,2.9161376953125,-0.5506663918495178
1781039525971253200,14.426253173828124,-2.2026655673980713,3.883395195007324,-0.5530605912208557
1781039525991456000,14.4464560546875,-3.97916316986084,6.172252178192139,-1.5059528350830078
1781039526041962500,14.49696240234375,-7.965508937835693,10.201693534851074,-1.8555063009262085
1781039526052064000,14.50706396484375,-6.959944248199463,10.335768699645996,-1.1252747774124146
1781039526112671700,14.567671630859374,-4.034229755401611,10.912771224975586,-1.941697597503662
1781039526132874500,14.58787451171875,-4.630385875701904,9.835380554199219,-2.7078421115875244
1781039526142975700,14.597975830078125,-5.413290023803711,9.100360870361328,-2.959233283996582
1781039526153077000,14.608076904296874,-6.074089527130127,8.820239067077637,-3.0765492916107178
1781039526163147800,14.618147705078124,-6.7492547035217285,8.415618896484375,-2.9448680877685547
1781039526183350500,14.6383505859375,-7.400477409362793,7.65186882019043,-2.6623523235321045
1781039526193451800,14.64845166015625,-7.259219646453857,6.919242858886719,-2.47560453414917
1781039526203553300,14.65855322265625,-6.557718276977539,6.236895561218262,-2.300827741622925
1781039526213654500,14.668654541015625,-5.353435039520264,6.165069580078125,-2.6001031398773193
1781039526223786200,14.6787861328125,-4.242525577545166,5.7987565994262695,-2.8802247047424316
1781039526233857000,14.68885693359375,-2.9927520751953125,4.697423934936523,-3.4979286193847656
1781039526243897300,14.6988974609375,-2.499546527862549,2.9520506858825684,-4.517858505249023
1781039526253998600,14.70899853515625,-1.8291701078414917,0.7637503147125244,-5.446808815002441
1781039526264069600,14.719069580078125,-0.667982280254364,-0.8786720037460327,-6.325480937957764
1781039526334565000,14.789565185546875,1.1563993692398071,1.644816517829895,-6.308721542358398
1781039526364838700,14.819838623046875,1.1540051698684692,0.4141969084739685,-11.638214111328125
1781039526385010700,14.8400107421875,2.190694570541382,-2.1523873805999756,-13.749900817871094
1781039526395081500,14.85008154296875,2.7772738933563232,-3.6942532062530518,-12.837709426879883
1781039526405152300,14.86015234375,3.272873640060425,-4.888959884643555,-10.824186325073242
1781039526415223000,14.87022314453125,3.6128504276275635,-5.518634796142578,-8.865729331970215
1781039526425263400,14.880263427734375,3.8714241981506348,-5.822698593139648,-7.453149795532227
1781039526435334100,14.890334228515625,4.194641590118408,-5.743690013885498,-6.327875137329102
1781039526445435400,14.900435302734374,4.438849925994873,-6.011840343475342,-5.513846397399902
1781039526455506200,14.910506103515624,4.63517427444458,-6.028599739074707,-4.8937482833862305
1781039526465546500,14.92054638671875,4.836287498474121,-5.851428985595703,-4.572925090789795
1781039526475648000,14.93064794921875,4.623203277587891,-5.623979568481445,-4.49870491027832
1781039526485749200,14.940749267578125,4.436455726623535,-5.262455463409424,-4.4532151222229
1781039526495820000,14.950820068359375,4.273650169372559,-5.106832027435303,-4.323928356170654
1781039526505890800,14.960890869140625,4.1874589920043945,-4.972756862640381,-4.120420932769775
1781039526526062800,14.981062744140624,3.7660791873931885,-5.020640850067139,-3.4308910369873047
1781039526536133600,14.991133544921874,3.7253777980804443,-5.023035049438477,-3.378218650817871
1781039526546204400,15.001204345703124,3.5027170181274414,-4.967968463897705,-3.2154128551483154
1781039526556336400,15.01133642578125,3.3207578659057617,-4.809951305389404,-3.0861260890960693
1781039526566407200,15.0214072265625,3.0837318897247314,-4.891354084014893,-2.80361008644104
1781039526576478000,15.03147802734375,2.8826189041137695,-4.963180065155029,-2.5258827209472656
1781039526586518300,15.041518310546875,2.7054479122161865,-5.207388877868652,-2.1356279850006104
1781039526596619500,15.05161962890625,2.6192567348480225,-5.468356609344482,-1.802833914756775
1781039526606690300,15.061690185546874,2.3319525718688965,-5.664681434631348,-1.3239935636520386
1781039526626862600,15.081862548828125,1.8052281141281128,-5.87776517868042,-0.4908113479614258
1781039526636933400,15.091933349609375,1.6089035272598267,-5.918466567993164,-0.13168109953403473
1781039526647004200,15.102004150390625,1.4317326545715332,-6.184223175048828,0.2537853717803955
1781039526657075000,15.112074951171875,1.278503656387329,-6.36378812789917,0.6512228846549988
1781039526667176200,15.12217626953125,1.1348515748977661,-6.581660270690918,0.9816226959228516
1781039526677277400,15.13227734375,1.01753568649292,-6.8162922859191895,1.1683704853057861
1781039526687317800,15.14231787109375,0.8451532125473022,-7.074865818023682,1.256955862045288
1781039526707490000,15.162489990234375,0.4189853072166443,-7.232883453369141,1.1994950771331787
1781039526737702400,15.192702392578125,0.3687070608139038,-6.8809356689453125,1.845929503440857
1781039526747742700,15.20274267578125,0.42377370595932007,-6.658275127410889,2.0877439975738525
1781039526798188300,15.253188232421875,0.4165911078453064,-5.355829238891602,1.5203180313110352
1781039526808259000,15.263259033203125,0.8140285611152649,-5.250484466552734,1.1420341730117798
1781039526818329900,15.273329833984375,1.3263877630233765,-5.123591423034668,0.9026140570640564
1781039526828400600,15.283400634765625,1.5179238319396973,-4.975151062011719,0.727837324142456
1781039526838441000,15.29344091796875,1.6112977266311646,-4.752490520477295,0.6536170840263367
1781039526848511700,15.30351171875,1.659181833267212,-4.520252704620361,0.6919242739677429
1781039526858582500,15.31358251953125,1.6543933153152466,-4.261679172515869,0.7445967197418213
1781039526868683800,15.323683837890625,1.6280571222305298,-4.144362926483154,0.7876923680305481
1781039526878693600,15.333693603515625,1.6089035272598267,-4.036623954772949,0.9457096457481384
1781039526888795000,15.343794921875,1.8267759084701538,-3.88818359375,1.0319008827209473
1781039526898896100,15.353896240234375,1.965639591217041,-3.6511576175689697,1.2042834758758545
1781039526908967000,15.363966796875,2.1140801906585693,-3.3638534545898438,1.2473790645599365
1781039526919037700,15.37403759765625,2.2673089504241943,-3.114856481552124,1.1061211824417114
1781039526929139200,15.38413916015625,2.1284453868865967,-2.9257144927978516,0.9361328482627869
1781039526949280800,15.40428076171875,1.8698714971542358,-2.250549554824829,0.42856210470199585
1781039526959321000,15.414321044921875,1.6615760326385498,-1.843535304069519,0.10055647045373917
1781039526969422300,15.42442236328125,1.5873557329177856,-1.3958195447921753,-0.15562310814857483
1781039526979462700,15.434462646484375,1.6136919260025024,-1.0271124839782715,-0.29209262132644653
1781039526989564000,15.44456396484375,1.577778935432434,-0.768538773059845,-0.3974374830722809
1781039526999634700,15.454634765625,1.599326729774475,-0.6751648783683777,-0.4908113479614258
1781039527009736000,15.46473583984375,1.7286136150360107,-0.5985504388809204,-0.507570743560791
1781039527019806700,15.474806640625,1.6831238269805908,-0.5099649429321289,-0.5650315880775452
1781039527029877500,15.48487744140625,1.6974890232086182,-0.49799394607543945,-0.545877993106842
1781039527039917800,15.494917724609374,1.656787633895874,-0.5386953949928284,-0.7422025203704834
1781039527050019300,15.505019287109375,1.5610195398330688,-0.49320554733276367,-1.1659762859344482
1781039527060120600,15.51512060546875,1.2761094570159912,-0.5147533416748047,-1.5083470344543457
1781039527070221800,15.525221923828125,1.0773907899856567,-0.31124621629714966,-1.944091796875
1781039527130738200,15.58573828125,0.44532153010368347,-1.1420341730117798,-5.449203014373779
1781039527191132400,15.64613232421875,-0.7350199222564697,-0.1364694982767105,-6.337451934814453
1781039527201203200,15.656203125,-0.6751648783683777,-0.10773907601833344,-6.270414352416992
1781039527211274000,15.66627392578125,-0.48602294921875,-0.586579442024231,-6.217741966247559
1781039527221345000,15.676344970703125,-0.4572925269603729,-1.1180921792984009,-6.200982570648193
1781039527231446300,15.6864462890625,-0.2082955539226532,-1.6160861253738403,-6.414066314697266
1781039527241486600,15.696486572265625,-0.17717093229293823,-1.9297266006469727,-6.478709697723389
1781039527261689000,15.716689208984375,-0.5219359993934631,-1.4772224426269531,-6.63433313369751
1781039527271760000,15.726759765625,-0.6105214357376099,-0.8786720037460327,-6.732495307922363
1781039527281830700,15.73683056640625,-0.8547300100326538,-0.3926490843296051,-6.821080684661865
1781039527291932200,15.74693212890625,-1.0103530883789062,-0.2346317619085312,-6.809109687805176
1781039527302033400,15.757033447265625,-1.0534487962722778,-0.40701428055763245,-6.9024834632873535
1781039527312104200,15.767104248046875,-1.01753568649292,-0.49559974670410156,-6.983886241912842
1781039527322205400,15.777205322265624,-0.9744400978088379,-1.1779472827911377,-6.756437301635742
1781039527332276200,15.787276123046874,-1.3072341680526733,-1.2952631711959839,-6.919242858886719
1781039527342316500,15.797316650390625,-1.558625340461731,-1.048660397529602,-7.132327079772949
1781039527372590000,15.827590087890625,-1.9393033981323242,-0.35913026332855225,-7.378929615020752
1781039527382660900,15.837660888671875,-2.164358377456665,-0.5626373887062073,-7.402871608734131
1781039527392731600,15.847731689453125,-2.0685901641845703,-0.8140285611152649,-7.436390399932861
1781039527402802400,15.857802490234375,-2.0590133666992188,-1.2258312702178955,-7.311892032623291
1781039527412903700,15.867903564453124,-2.164358377456665,-1.7549498081207275,-7.275979042053223
1781039527422944000,15.877944091796875,-2.298433542251587,-2.0805611610412598,-7.252037048339844
1781039527432984300,15.887984375,-2.564189910888672,-1.5945383310317993,-7.218518257141113
1781039527493500700,15.948500732421875,-2.5953147411346436,0.4692635238170624,-5.109226226806641
1781039527503602000,15.958601806640624,-2.4875755310058594,-0.3519476354122162,-4.967968463897705
1781039527513672700,15.968672607421874,-2.492363929748535,-0.950498104095459,-4.833893299102783
1781039527533845000,15.988844970703125,-2.5929205417633057,-0.26575639843940735,-4.228160381317139
1781039527564027000,16.01902685546875,-2.9305028915405273,1.3503297567367554,-4.077325344085693
1781039527574097700,16.02909765625,-3.00711727142334,1.4317326545715332,-4.163516521453857
1781039527584138000,16.039137939453123,-2.980781078338623,1.278503656387329,-4.302380561828613
1781039527594239200,16.0492392578125,-2.63362193107605,0.8571242094039917,-4.302380561828613
1781039527604340500,16.059340576171873,-2.762908697128296,0.2585737705230713,-4.273650169372559
1781039527614441700,16.069441650390626,-2.2864625453948975,-0.05267243832349777,-4.175487995147705
1781039527624512500,16.079512451171876,-1.8363527059555054,-0.28730419278144836,-4.077325344085693
1781039527634583600,16.08958349609375,-1.9536685943603516,-0.2801215946674347,-4.036623954772949
1781039527644654300,16.099654296875,-1.7693150043487549,0.13407529890537262,-4.07014274597168
1781039527654725000,16.10972509765625,-1.5179238319396973,0.42377370595932007,-3.936067581176758
1781039527664796000,16.1197958984375,-1.800439715385437,0.08140286058187485,-3.7469255924224854
1781039527684876300,16.139876220703126,-2.5689783096313477,-0.44532153010368347,-3.6343982219696045
1781039527694977800,16.149977783203123,-3.028665065765381,-0.9409212470054626,-3.6750996112823486
1781039527705079000,16.1600791015625,-3.5482068061828613,-0.9792284965515137,-3.603273630142212
1781039527715149800,16.17014990234375,-3.584120035171509,-0.7613561153411865,-3.73016619682312
1781039527735321900,16.19032177734375,-3.9815573692321777,-0.4692635238170624,-3.3638534545898438
1781039527745392600,16.200392578125,-4.010287761688232,-1.1468225717544556,-2.8107926845550537
1781039527755433000,16.210432861328126,-3.2848446369171143,-1.9129672050476074,-2.0853497982025146
1781039527765534500,16.220534423828123,-1.8722656965255737,-2.671929121017456,-1.802833914756775
1781039527785676000,16.240676025390623,-0.5770025849342346,-3.60566782951355,-2.231395959854126
1781039527795746800,16.250746826171873,-0.4668693244457245,-3.24414324760437,-2.5953147411346436
1781039527805817600,16.260817626953123,-0.5171475410461426,-2.580949544906616,-2.873042106628418
1781039527815888400,16.270888427734373,-1.0869675874710083,-2.276885747909546,-2.808398485183716
1781039527825959200,16.280959228515623,-0.8858546018600464,-2.3942017555236816,-2.8131868839263916
1781039527836030000,16.291030029296873,-0.5363011956214905,-3.1890766620635986,-2.6455929279327393
1781039527846100700,16.301100830078123,0.17238251864910126,-3.9839515686035156,-2.209848165512085
1781039527856202000,16.311201904296876,1.1468225717544556,-4.534617900848389,-1.7334020137786865
1781039527866303500,16.321303466796873,2.22660756111145,-5.0254292488098145,-1.3886369466781616
1781039527876374300,16.331374267578123,2.80361008644104,-5.097255229949951,-1.173158884048462
1781039527886475500,16.3414755859375,3.1076738834381104,-4.654327869415283,-1.3096283674240112
1781039527906617000,16.3616171875,3.098097085952759,-4.197035789489746,-1.7764976024627686
1781039527926819800,16.38181982421875,3.426102638244629,-4.532223701477051,-2.1092917919158936
1781039527936860200,16.391860107421873,3.507505416870117,-4.661510944366455,-1.7812861204147339
1781039527967164000,16.422163818359376,3.3638534545898438,-4.517858505249023,-1.1276689767837524
1781039527977234700,16.432234619140626,3.0550012588500977,-4.63517427444458,-1.0845733880996704
1781039527997468000,16.452468017578123,2.3989901542663574,-5.288791656494141,-0.14844051003456116
1781039528017609500,16.472609375,2.4899697303771973,-5.861005783081055,0.15322890877723694
1781039528027711000,16.4827109375,2.5761611461639404,-4.8051629066467285,0.42377370595932007
1781039528047852500,16.5028525390625,2.669534921646118,-2.889801502227783,0.7350199222564697
1781039528057953800,16.512953857421873,2.942473888397217,-3.028665065765381,0.5291185975074768
1781039528078095400,16.533095458984373,3.181894063949585,-3.179499864578247,0.4357447028160095
1781039528088227300,16.543227294921873,2.580949544906616,-2.782062292098999,0.47165772318840027
1781039528108429800,16.563429931640623,1.2521674633026123,-2.1811177730560303,0.23942017555236816
1781039528128632600,16.583632568359373,0.5219359993934631,-2.580949544906616,0.5746083855628967
1781039528138733800,16.59373388671875,0.3423708379268646,-2.808398485183716,0.8044517636299133
1781039528148835000,16.6038349609375,0.1364694982767105,-2.6791117191314697,0.9385270476341248
1781039528169037800,16.624037841796873,0.5817909836769104,-1.5131354331970215,1.213860273361206
1781039528179139000,16.63413916015625,1.0414776802062988,-1.0558429956436157,0.8403648138046265
1781039528199311000,16.65431103515625,1.8315643072128296,-0.9959878921508789,0.667982280254364
1781039528209412600,16.66441259765625,2.10210919380188,-1.1109095811843872,0.7805097699165344
1781039528219513900,16.674513916015623,2.1475989818573,-1.1300631761550903,0.8810662031173706
1781039528249817900,16.70481787109375,2.1523873805999756,-0.4884171485900879,1.036689281463623
1781039528300324400,16.755324462890623,1.0079588890075684,0.545877993106842,1.381454348564148
1781039528330598000,16.785597900390623,1.115697979927063,0.569819986820221,1.2856862545013428
1781039528391236400,16.846236328125,1.6304513216018677,-1.048660397529602,0.689530074596405
1781039528401337600,16.856337646484373,1.5897499322891235,-0.9576807022094727,0.5817909836769104
1781039528411438800,16.86643896484375,1.482010841369629,-0.8547300100326538,0.608127236366272
1781039528421540000,16.8765400390625,1.3239935636520386,-0.7829039692878723,0.7661445140838623
1781039528431641600,16.8866416015625,1.05105459690094,-0.545877993106842,0.7469909191131592
1781039528441712400,16.89671240234375,0.7015010714530945,-0.2298433631658554,1.0414776802062988
1781039528471985700,16.926985595703126,0.6823474764823914,0.4836287498474121,1.3407529592514038
1781039528502259200,16.95725927734375,1.580173134803772,-0.15322890877723694,1.8315643072128296
1781039528522370300,16.977370361328123,1.522712230682373,-0.5171475410461426,2.188300371170044
1781039528532471600,16.987471435546876,1.2689268589019775,-0.45010992884635925,2.319981336593628
1781039528542573000,16.997572998046873,1.3335703611373901,-0.4908113479614258,2.2864625453948975
1781039528552643800,17.007643798828123,1.5610195398330688,-0.47405192255973816,2.2026655673980713
1781039528562684000,17.017683837890626,1.9560627937316895,-0.5171475410461426,2.1571757793426514
1781039528572785400,17.027785400390623,2.1715409755706787,-0.6416460275650024,2.1811177730560303
1781039528582856200,17.037856201171873,2.3104045391082764,-0.751779317855835,2.2242133617401123
1781039528613068500,17.068068603515623,1.946485996246338,-0.19871874153614044,2.032677173614502
1781039528633240600,17.088240478515626,1.7094600200653076,0.2585737705230713,1.8794482946395874
1781039528643311400,17.098311279296876,1.6974890232086182,0.4213795065879822,1.7693150043487549
1781039528653412900,17.108412841796873,1.5897499322891235,0.5817909836769104,1.7477672100067139
1781039528663483600,17.118483642578123,1.5969325304031372,0.5051765441894531,1.599326729774475
1781039528673554400,17.128554443359373,1.3215993642807007,0.4165911078453064,1.338358759880066
1781039528683625200,17.138625244140623,1.01753568649292,0.6368576288223267,1.3479355573654175
1781039528703766800,17.158766845703123,0.7757213711738586,0.35913026332855225,0.950498104095459
1781039528713868000,17.168867919921876,0.507570743560791,0.7972691655158997,0.9840168952941895
1781039528723969500,17.178969482421873,0.05985504388809204,1.2880805730819702,0.8212111592292786
1781039528734070800,17.18907080078125,-0.4357447028160095,1.4053963422775269,0.7350199222564697
1781039528744141600,17.1991416015625,-0.5626373887062073,1.3862427473068237,0.4836287498474121
1781039528754212400,17.20921240234375,-0.6200982332229614,1.1994950771331787,0.16998831927776337
1781039528784486000,17.23948583984375,-0.8906430602073669,0.6200982332229614,-0.6512228846549988
1781039528875153400,17.3301533203125,-0.7469909191131592,-3.667917013168335,-3.780444383621216
1781039528905366000,17.360365966796873,-1.3407529592514038,-2.0638017654418945,-5.396530628204346
1781039528915467300,17.37046728515625,-1.8483237028121948,-2.4157495498657227,-5.829881191253662
1781039528955750400,17.41075048828125,-2.6455929279327393,-5.2696380615234375,-7.970297336578369
1781039528975861500,17.430861572265623,-2.4851813316345215,-9.260771751403809,-7.55131196975708
1781039528985901800,17.44090185546875,-2.070984363555908,-9.32541561126709,-7.546523571014404
1781039528996003000,17.451003173828123,-2.0183119773864746,-8.008605003356934,-7.352593421936035
1781039529006073900,17.461073974609373,-2.1978771686553955,-6.557718276977539,-6.981492042541504
1781039529016175000,17.471175048828126,-2.518700122833252,-5.104437828063965,-6.449979305267334
1781039529076539000,17.531538818359376,-2.940079689025879,0.9528923034667969,-5.240907669067383
1781039529096680700,17.5516806640625,-3.0142998695373535,1.3958195447921753,-5.051765441894531
1781039529106751500,17.56175146484375,-2.9472622871398926,1.5394717454910278,-5.008669853210449
1781039529116822300,17.571822265625,-1.7764976024627686,1.2713210582733154,-4.845864295959473
1781039529126923500,17.581923583984373,-0.7182605266571045,1.1348515748977661,-4.247313976287842
1781039529136994300,17.591994384765623,0.47405192255973816,1.2066776752471924,-3.00711727142334
1781039529147095600,17.602095458984376,1.3120225667953491,1.3407529592514038,-1.3766659498214722
1781039529157136000,17.612135986328123,1.702277421951294,1.479616641998291,0.10295066982507706
1781039529177277400,17.63227734375,1.4844050407409668,1.7621324062347412,1.8626888990402222
1781039529187379000,17.64237890625,0.5985504388809204,2.03507137298584,2.300827741622925
1781039529197449700,17.65244970703125,-0.4596867263317108,2.276885747909546,2.4636335372924805
1781039529207520500,17.6625205078125,-1.4676456451416016,2.655169725418091,2.43011474609375
1781039529217621800,17.672621826171873,-2.583343744277954,3.2082302570343018,2.22660756111145
1781039529227692500,17.682692626953123,-3.555389642715454,3.713406801223755,2.075772762298584
1781039529237702400,17.692702392578123,-4.367023944854736,4.321534156799316,1.9632453918457031
1781039529247803600,17.7028037109375,-4.865017890930176,4.659116744995117,1.920149803161621
1781039529308228400,17.763228271484376,-1.9057846069335938,1.7860745191574097,-1.9608511924743652
1781039529318299100,17.773299072265626,-1.8387469053268433,0.4620809257030487,-2.8610711097717285
1781039529328400600,17.783400634765623,-1.802833914756775,-0.6871358752250671,-3.529053211212158
1781039529338441000,17.79344091796875,-1.9321208000183105,-1.3287819623947144,-4.182670593261719
1781039529348542200,17.803542236328123,-2.1332337856292725,-1.7501614093780518,-4.707000732421875
1781039529358643500,17.8136435546875,-2.2840683460235596,-1.9249382019042969,-4.917690277099609
1781039529368714200,17.82371435546875,-2.8874073028564453,-2.2170307636260986,-4.999093055725098
1781039529378785000,17.833784912109376,-3.023876667022705,-2.719813108444214,-5.825092792510986
1781039529388855800,17.843855712890626,-2.9735984802246094,-3.8786067962646484,-7.041347026824951
1781039529398926600,17.853926513671876,-2.607285737991333,-4.989516258239746,-8.259995460510254
1781039529408997400,17.863997314453126,-1.721431016921997,-6.086060523986816,-9.023746490478516
1781039529419068400,17.874068359375,-0.5530605912208557,-7.036558628082275,-9.334992408752441
1781039529429169700,17.884169677734373,0.9744400978088379,-8.097189903259277,-9.39245319366455
1781039529439240400,17.894240478515623,2.3774423599243164,-9.074024200439453,-9.117119789123535
1781039529449311200,17.904311279296873,3.667917013168335,-9.974244117736816,-8.525752067565918
1781039529459382000,17.914382080078123,4.266467571258545,-10.38604736328125,-7.766790390014648
1781039529469483300,17.924483154296876,4.288015365600586,-10.417171478271484,-6.931213855743408
1781039529479554000,17.934553955078126,3.8977603912353516,-10.0580415725708,-6.268020153045654
1781039529489655600,17.944655517578123,3.533841609954834,-9.730035781860352,-5.681440830230713
1781039529499726300,17.954726318359373,3.1938650608062744,-9.11233139038086,-5.2696380615234375
1781039529509797000,17.964797119140623,3.047818660736084,-8.944737434387207,-4.932055473327637
1781039529519868000,17.974867919921873,2.937685489654541,-8.975862503051758,-4.704606533050537
1781039529529969200,17.98496923828125,2.9089550971984863,-9.32302188873291,-4.446032524108887
1781039529540040000,17.9950400390625,2.875436305999756,-9.718064308166504,-4.129997730255127
1781039529550141200,18.00514111328125,3.1675288677215576,-10.089165687561035,-3.9671921730041504
1781039529560242700,18.01524267578125,3.0765492916107178,-10.295066833496094,-3.5697548389434814
1781039529570313500,18.0253134765625,2.9712042808532715,-10.383652687072754,-3.272873640060425
1781039529580384300,18.03538427734375,2.9041666984558105,-10.467450141906738,-2.889801502227783
1781039529590455000,18.045455078125,2.9544448852539062,-10.579977035522461,-2.693476915359497
1781039529600525800,18.05552587890625,3.004723072052002,-10.764330863952637,-2.427720546722412
1781039529610596600,18.0655966796875,3.1651346683502197,-10.867281913757324,-1.9536685943603516
1781039529620667400,18.07566748046875,3.3303346633911133,-11.099518775939941,-1.4724340438842773
1781039529630707700,18.085707763671873,3.5697548389434814,-11.250353813171387,-0.8906430602073669
1781039529640809000,18.09580908203125,4.005499362945557,-11.32457447052002,0.13168109953403473
1781039529650879700,18.105879638671876,4.046200752258301,-11.305420875549316,0.5722141861915588
1781039529660950500,18.115950439453126,4.062960147857666,-11.276689529418945,0.9864110946655273
1781039529671052000,18.126052001953123,4.098873138427734,-11.305420875549316,1.3072341680526733
1781039529681153300,18.1361533203125,4.156333923339844,-11.319786071777344,1.3982137441635132
1781039529691254500,18.146254638671873,4.129997730255127,-11.374852180480957,1.45806884765625
1781039529701355800,18.156355712890626,3.801992416381836,-11.209651947021484,1.3527239561080933
1781039529711426800,18.1664267578125,3.5434184074401855,-10.970232009887695,1.0031704902648926
1781039529721467000,18.176466796875,3.0861260890960693,-10.764330863952637,0.706289529800415
1781039529731537700,18.18653759765625,2.9664158821105957,-10.582371711730957,0.45010992884635925
1781039529741639200,18.19663916015625,2.7030537128448486,-10.357316970825195,0.3471592366695404
1781039529751740400,18.206740478515623,2.561795711517334,-10.192116737365723,0.44771572947502136
1781039529852570400,18.3075703125,0.002394201699644327,-5.451597213745117,-1.580173134803772
1781039529923127000,18.378126953125,-0.4596867263317108,-3.5865142345428467,-2.2457611560821533
1781039529983613000,18.438613037109373,-1.1803414821624756,-1.623268723487854,-3.1890766620635986
