time,seconds_elapsed,z,y,x
1780565201262464300,0.15046435546875,9.094269752502441,1.6675699949264526,-3.2486090660095215
1780565201572375600,0.46037548828125,9.094536781311035,1.7221330404281616,-3.2192609310150146
1780565201582136300,0.47013623046875,9.102563858032227,1.7673029899597168,-3.1717450618743896
1780565201601661400,0.489661376953125,9.102563858032227,1.7673029899597168,-3.1717450618743896
1780565201621183200,0.509183349609375,9.112133026123047,1.7996070384979248,-3.1257688999176025
1780565201640702200,0.5287021484375,9.112133026123047,1.7996070384979248,-3.1257688999176025
1780565201660221000,0.548220947265625,9.106612205505371,1.8053950071334839,-3.1384971141815186
1780565201679741200,0.5677412109375,9.106612205505371,1.8053950071334839,-3.1384971141815186
1780565201699262700,0.5872626953125,9.095219612121582,1.780648946762085,-3.1853220462799072
1780565201718779100,0.606779052734375,9.095219612121582,1.780648946762085,-3.1853220462799072
1780565201738295000,0.626294921875,9.082442283630371,1.7333749532699585,-3.2472519874572754
1780565201757812700,0.645812744140625,9.082442283630371,1.7333749532699585,-3.2472519874572754
1780565201777333800,0.665333740234375,9.066914558410645,1.6778689622879028,-3.31900691986084
1780565201796855300,0.684855224609375,9.066914558410645,1.6778689622879028,-3.31900691986084
1780565201816373500,0.70437353515625,9.046445846557617,1.6311249732971191,-3.3972420692443848
1780565201835889400,0.723889404296875,9.046445846557617,1.6311249732971191,-3.3972420692443848
1780565201855403000,0.743403076171875,9.016068458557129,1.6085920333862305,-3.487541913986206
1780565201874915800,0.762915771484375,9.016068458557129,1.6085920333862305,-3.487541913986206
1780565201894432300,0.782432373046875,8.97295093536377,1.615975022315979,-3.593714952468872
1780565201913951500,0.801951416015625,8.97295093536377,1.615975022315979,-3.593714952468872
1780565201933470700,0.821470703125,8.912322044372559,1.6497490406036377,-3.7267749309539795
1780565201952988200,0.84098828125,8.912322044372559,1.6497490406036377,-3.7267749309539795
1780565201972507000,0.8605068359375,8.83082389831543,1.6954569816589355,-3.896404981613159
1780565201992028000,0.88002783203125,8.83082389831543,1.6954569816589355,-3.896404981613159
1780565202011547400,0.89954736328125,8.728960037231445,1.7298049926757812,-4.10524320602417
1780565202031068700,0.919068603515625,8.728960037231445,1.7298049926757812,-4.10524320602417
1780565202050590000,0.93858984375,8.612945556640625,1.7302809953689575,-4.343188762664795
1780565202070110000,0.95810986328125,8.612945556640625,1.7302809953689575,-4.343188762664795
1780565202089629200,0.977629150390625,8.487915992736816,1.6936349868774414,-4.596397876739502
1780565202109147100,0.997147216796875,8.487915992736816,1.6936349868774414,-4.596397876739502
1780565202128662800,1.016662841796875,8.334121704101562,1.6260859966278076,-4.892672061920166
1780565202148177700,1.036177734375,8.334121704101562,1.6260859966278076,-4.892672061920166
1780565202167699200,1.05569921875,8.334121704101562,1.6260859966278076,-4.892672061920166
1780565202187219200,1.07521923828125,8.158796310424805,1.55246102809906,-5.202297210693359
1780565202206733000,1.094733154296875,7.965558052062988,1.4860750436782837,-5.51193904876709
1780565202226247200,1.1142470703125,7.965558052062988,1.4860750436782837,-5.51193904876709
1780565202245762800,1.1337626953125,7.965558052062988,1.4860750436782837,-5.51193904876709
1780565202265278500,1.153278564453125,7.77566385269165,1.444964051246643,-5.78715181350708
1780565202284799200,1.17279931640625,7.77566385269165,1.444964051246643,-5.78715181350708
1780565202304317200,1.192317138671875,7.576053142547607,1.4327080249786377,-6.0490288734436035
1780565202323830300,1.211830322265625,7.576053142547607,1.4327080249786377,-6.0490288734436035
1780565202343345200,1.23134521484375,7.357358932495117,1.4494750499725342,-6.309380054473877
1780565202362862000,1.250862060546875,7.357358932495117,1.4494750499725342,-6.309380054473877
1780565202382383900,1.2703837890625,7.106800079345703,1.49037504196167,-6.5811967849731445
1780565202401908000,1.289907958984375,7.106800079345703,1.49037504196167,-6.5811967849731445
1780565202421429800,1.3094296875,6.810401916503906,1.5388950109481812,-6.876788139343262
1780565202440948700,1.32894873046875,6.810401916503906,1.5388950109481812,-6.876788139343262
1780565202460468500,1.348468505859375,6.482935905456543,1.5712169408798218,-7.1793317794799805
1780565202479990800,1.36799072265625,6.482935905456543,1.5712169408798218,-7.1793317794799805
1780565202499513900,1.387513916015625,6.14940881729126,1.573333978652954,-7.466549873352051
1780565202519038200,1.4070380859375,6.14940881729126,1.573333978652954,-7.466549873352051
1780565202538560500,1.426560546875,5.836716175079346,1.5492719411849976,-7.718321800231934
1780565202558081000,1.4460810546875,5.836716175079346,1.5492719411849976,-7.718321800231934
1780565202577603000,1.46560302734375,5.544175148010254,1.5206520557403564,-7.9366068840026855
1780565202597125400,1.48512548828125,5.544175148010254,1.5206520557403564,-7.9366068840026855
1780565202616651000,1.504651123046875,5.265665054321289,1.5098379850387573,-8.126078605651855
1780565202636176100,1.524176025390625,5.265665054321289,1.5098379850387573,-8.126078605651855
1780565202655695400,1.5436953125,4.992840766906738,1.532960057258606,-8.29226016998291
1780565202675213600,1.563213623046875,4.992840766906738,1.532960057258606,-8.29226016998291
1780565202694735000,1.582735107421875,4.720383167266846,1.5956389904022217,-8.438714981079102
1780565202714255000,1.602255126953125,4.720383167266846,1.5956389904022217,-8.438714981079102
1780565202733767700,1.621767578125,4.445034027099609,1.6949659585952759,-8.567890167236328
1780565202753283000,1.641282958984375,4.445034027099609,1.6949659585952759,-8.567890167236328
1780565202772800000,1.660800048828125,4.180156230926514,1.8157509565353394,-8.675789833068848
1780565202792311000,1.68031103515625,4.180156230926514,1.8157509565353394,-8.675789833068848
1780565202811822000,1.699822021484375,3.942560911178589,1.9377390146255493,-8.760215759277344
1780565202831333400,1.71933349609375,3.942560911178589,1.9377390146255493,-8.760215759277344
1780565202850846500,1.738846435546875,3.7366418838500977,2.0472419261932373,-8.825321197509766
1780565202870365200,1.758365234375,3.7366418838500977,2.0472419261932373,-8.825321197509766
1780565202889885700,1.7778857421875,3.5469470024108887,2.147361993789673,-8.879640579223633
1780565202909404400,1.797404296875,3.5469470024108887,2.147361993789673,-8.879640579223633
1780565202928929800,1.8169296875,3.3641910552978516,2.240178108215332,-8.927699089050293
1780565202948455200,1.836455078125,3.3641910552978516,2.240178108215332,-8.927699089050293
1780565202967979300,1.855979248046875,3.2121028900146484,2.3162200450897217,-8.964235305786133
1780565202987503400,1.87550341796875,3.2121028900146484,2.3162200450897217,-8.964235305786133
1780565203007018200,1.895018310546875,3.1374740600585938,2.359471082687378,-8.97937297821045
1780565203026530300,1.9145302734375,3.1374740600585938,2.359471082687378,-8.97937297821045
1780565203046050300,1.93405029296875,3.1374740600585938,2.359471082687378,-8.97937297821045
1780565203065575000,1.953574951171875,3.1547279357910156,2.3666698932647705,-8.971431732177734
1780565203085093000,1.973093017578125,3.189462900161743,2.3604729175567627,-8.960774421691895
1780565203104611600,1.992611572265625,3.236656904220581,2.34908390045166,-8.946834564208984
1780565203124131000,2.012131103515625,3.236656904220581,2.34908390045166,-8.946834564208984
1780565203143649500,2.0316494140625,3.332719087600708,2.320662021636963,-8.918940544128418
1780565203163168300,2.051168212890625,3.332719087600708,2.320662021636963,-8.918940544128418
1780565203182690300,2.070690185546875,3.432313919067383,2.295142889022827,-8.887718200683594
1780565203202213000,2.090213134765625,3.432313919067383,2.295142889022827,-8.887718200683594
1780565203221735000,2.10973486328125,3.534719944000244,2.289280891418457,-8.849007606506348
1780565203241252900,2.1292529296875,3.534719944000244,2.289280891418457,-8.849007606506348
1780565203260773400,2.1487734375,3.63248610496521,2.318789005279541,-8.801605224609375
1780565203280294400,2.16829443359375,3.63248610496521,2.318789005279541,-8.801605224609375
1780565203299814000,2.18781396484375,3.705673933029175,2.371717929840088,-8.756878852844238
1780565203319335200,2.207335205078125,3.705673933029175,2.371717929840088,-8.756878852844238
1780565203338851600,2.2268515625,3.754272937774658,2.4151880741119385,-8.724235534667969
1780565203358367700,2.24636767578125,3.754272937774658,2.4151880741119385,-8.724235534667969
1780565203377885200,2.26588525390625,3.7443931102752686,2.4352951049804688,-8.722892761230469
1780565203397406000,2.285406005859375,3.7443931102752686,2.4352951049804688,-8.722892761230469
1780565203416927700,2.304927734375,3.6536319255828857,2.4463999271392822,-8.758201599121094
1780565203436447000,2.324447021484375,3.6536319255828857,2.4463999271392822,-8.758201599121094
1780565203455964200,2.343964111328125,3.5047059059143066,2.467036008834839,-8.813101768493652
1780565203475480800,2.363480712890625,3.5047059059143066,2.467036008834839,-8.813101768493652
1780565203495001900,2.383001953125,3.367111921310425,2.4894020557403564,-8.860329627990723
1780565203514521900,2.40252197265625,3.367111921310425,2.4894020557403564,-8.860329627990723
1780565203534040800,2.422040771484375,3.273854970932007,2.4995229244232178,-8.892370223999023
1780565203553560300,2.441560302734375,3.273854970932007,2.4995229244232178,-8.892370223999023
1780565203573079800,2.461079833984375,3.1894989013671875,2.500901937484741,-8.922588348388672
1780565203592602600,2.4806025390625,3.1894989013671875,2.500901937484741,-8.922588348388672
1780565203612124400,2.50012451171875,3.066878080368042,2.5124640464782715,-8.962241172790527
1780565203631646700,2.519646728515625,3.066878080368042,2.5124640464782715,-8.962241172790527
1780565203651170000,2.539170166015625,2.89664888381958,2.546022891998291,-9.009283065795898
1780565203670693400,2.558693359375,2.89664888381958,2.546022891998291,-9.009283065795898
1780565203690214000,2.5782138671875,2.6995010375976562,2.5957629680633545,-9.056197166442871
1780565203709737200,2.5977373046875,2.6995010375976562,2.5957629680633545,-9.056197166442871
1780565203729262000,2.617261962890625,2.5142159461975098,2.645190954208374,-9.095146179199219
1780565203748781600,2.636781494140625,2.5142159461975098,2.645190954208374,-9.095146179199219
1780565203768302000,2.656302001953125,2.3460469245910645,2.6790730953216553,-9.130094528198242
1780565203787826000,2.675825927734375,2.3460469245910645,2.6790730953216553,-9.130094528198242
1780565203807345700,2.695345703125,2.184380054473877,2.6871631145477295,-9.167749404907227
1780565203826865200,2.714865234375,2.184380054473877,2.6871631145477295,-9.167749404907227
1780565203846388700,2.734388671875,2.0181140899658203,2.662856101989746,-9.212839126586914
1780565203865909200,2.7539091796875,2.0181140899658203,2.662856101989746,-9.212839126586914
1780565203885426400,2.773426513671875,1.9366979598999023,2.6430299282073975,-9.235994338989258
1780565203904941800,2.79294189453125,1.9366979598999023,2.6430299282073975,-9.235994338989258
1780565203924457700,2.812457763671875,1.7811599969863892,2.5987820625305176,-9.279751777648926
1780565203943976000,2.831975830078125,1.7811599969863892,2.5987820625305176,-9.279751777648926
1780565203963496000,2.851495849609375,1.6501610279083252,2.5695180892944336,-9.312065124511719
1780565203983016200,2.87101611328125,1.6501610279083252,2.5695180892944336,-9.312065124511719
1780565204002535000,2.890534912109375,1.589730978012085,2.5601511001586914,-9.32514762878418
1780565204022058200,2.910058349609375,1.589730978012085,2.5601511001586914,-9.32514762878418
1780565204041583900,2.929583984375,1.5908520221710205,2.559159994125366,-9.325228691101074
1780565204061108500,2.9491083984375,1.5908520221710205,2.559159994125366,-9.325228691101074
1780565204080631600,2.968631591796875,1.6074990034103394,2.5535900592803955,-9.323899269104004
1780565204100155100,2.988155029296875,1.6074990034103394,2.5535900592803955,-9.323899269104004
1780565204119680800,3.0076806640625,1.5942729711532593,2.547518014907837,-9.327832221984863
1780565204139206000,3.027205810546875,1.5942729711532593,2.547518014907837,-9.327832221984863
1780565204158731300,3.046731201171875,1.561290979385376,2.547682046890259,-9.33336353302002
1780565204178251300,3.066251220703125,1.561290979385376,2.547682046890259,-9.33336353302002
1780565204197764400,3.085764404296875,1.5298819541931152,2.5556819438934326,-9.336377143859863
1780565204217275400,3.105275390625,1.5298819541931152,2.5556819438934326,-9.336377143859863
1780565204236786200,3.1247861328125,1.4917550086975098,2.5713109970092773,-9.338255882263184
1780565204256301300,3.14430126953125,1.4917550086975098,2.5713109970092773,-9.338255882263184
1780565204275824400,3.163824462890625,1.4336919784545898,2.5936989784240723,-9.341158866882324
1780565204295348500,3.183348388671875,1.4336919784545898,2.5936989784240723,-9.341158866882324
1780565204314869500,3.202869384765625,1.3539249897003174,2.6243510246276855,-9.344499588012695
1780565204334386700,3.22238671875,1.3539249897003174,2.6243510246276855,-9.344499588012695
1780565204353904600,3.241904541015625,1.2594130039215088,2.6643879413604736,-9.346385955810547
1780565204373425200,3.261425048828125,1.2594130039215088,2.6643879413604736,-9.346385955810547
1780565204392948000,3.280947998046875,1.1641290187835693,2.7037880420684814,-9.34742259979248
1780565204412470000,3.300469970703125,1.1641290187835693,2.7037880420684814,-9.34742259979248
1780565204431990800,3.31999072265625,1.0998029708862305,2.7270638942718506,-9.348451614379883
1780565204451514400,3.339514404296875,1.0998029708862305,2.7270638942718506,-9.348451614379883
1780565204471039200,3.359039306640625,1.0877790451049805,2.7257609367370605,-9.350238800048828
1780565204490563000,3.37856298828125,1.0877790451049805,2.7257609367370605,-9.350238800048828
1780565204510087700,3.398087646484375,1.1269760131835938,2.7069919109344482,-9.351049423217773
1780565204529611800,3.41761181640625,1.1269760131835938,2.7069919109344482,-9.351049423217773
1780565204549140000,3.437139892578125,1.207461953163147,2.678030014038086,-9.349342346191406
1780565204568668000,3.45666796875,1.207461953163147,2.678030014038086,-9.349342346191406
1780565204588193300,3.476193359375,1.3165349960327148,2.636396884918213,-9.346450805664062
1780565204607717600,3.495717529296875,1.3165349960327148,2.636396884918213,-9.346450805664062
1780565204627242200,3.5152421875,1.4539870023727417,2.5787649154663086,-9.342156410217285
1780565204646765800,3.534765869140625,1.4539870023727417,2.5787649154663086,-9.342156410217285
1780565204666287000,3.554287109375,1.6037640571594238,2.509521961212158,-9.33650016784668
1780565204685807400,3.573807373046875,1.6037640571594238,2.509521961212158,-9.33650016784668
1780565204705330400,3.593330322265625,1.6759860515594482,2.472275972366333,-9.333751678466797
1780565204724856600,3.612856689453125,1.6759860515594482,2.472275972366333,-9.333751678466797
1780565204744380000,3.6323798828125,1.8078839778900146,2.3942410945892334,-9.32947826385498
1780565204763903700,3.65190380859375,1.8078839778900146,2.3942410945892334,-9.32947826385498
1780565204783427800,3.671427734375,1.9208049774169922,2.32191801071167,-9.325190544128418
1780565204802951000,3.690950927734375,1.9208049774169922,2.32191801071167,-9.325190544128418
1780565204822477600,3.7104775390625,2.0166079998016357,2.2690188884735107,-9.317985534667969
1780565204842002700,3.730002685546875,2.0166079998016357,2.2690188884735107,-9.317985534667969
1780565204861526000,3.749526123046875,2.0851759910583496,2.2395479679107666,-9.310018539428711
1780565204881050000,3.769050048828125,2.0851759910583496,2.2395479679107666,-9.310018539428711
1780565204900576800,3.78857666015625,2.1311628818511963,2.2215840816497803,-9.303908348083496
1780565204920104700,3.808104736328125,2.1311628818511963,2.2215840816497803,-9.303908348083496
1780565204939634400,3.827634521484375,2.17431902885437,2.2024478912353516,-9.298469543457031
1780565204959165200,3.847165283203125,2.17431902885437,2.2024478912353516,-9.298469543457031
1780565204978692400,3.8666923828125,2.227113962173462,2.186427116394043,-9.289752006530762
1780565204998216200,3.88621630859375,2.227113962173462,2.186427116394043,-9.289752006530762
1780565205017740000,3.905739990234375,2.272566080093384,2.1876370906829834,-9.27845287322998
1780565205037266400,3.925266357421875,2.272566080093384,2.1876370906829834,-9.27845287322998
1780565205056794000,3.944794189453125,2.28698992729187,2.208453893661499,-9.269972801208496
1780565205076322800,3.96432275390625,2.28698992729187,2.208453893661499,-9.269972801208496
1780565205095851300,3.983851318359375,2.2805869579315186,2.2349278926849365,-9.265204429626465
1780565205115378200,4.003378173828125,2.2805869579315186,2.2349278926849365,-9.265204429626465
1780565205134901200,4.0229013671875,2.2810521125793457,2.250875949859619,-9.261228561401367
1780565205154422000,4.042422119140625,2.2810521125793457,2.250875949859619,-9.261228561401367
1780565205173944000,4.061944091796875,2.298542022705078,2.2520909309387207,-9.256608009338379
1780565205193467600,4.081467529296875,2.298542022705078,2.2520909309387207,-9.256608009338379
1780565205212988700,4.10098876953125,2.3183369636535645,2.248289108276367,-9.252593994140625
1780565205232512800,4.1205126953125,2.3183369636535645,2.248289108276367,-9.252593994140625
1780565205252038400,4.140038330078125,2.3222789764404297,2.2526419162750244,-9.250547409057617
1780565205271564000,4.15956396484375,2.3222789764404297,2.2526419162750244,-9.250547409057617
1780565205291089700,4.179089599609375,2.3095951080322266,2.2741200923919678,-9.248467445373535
1780565205310612500,4.198612548828125,2.3095951080322266,2.2741200923919678,-9.248467445373535
1780565205330137600,4.2181376953125,2.288080930709839,2.3171439170837402,-9.243133544921875
1780565205349662000,4.237661865234375,2.288080930709839,2.3171439170837402,-9.243133544921875
1780565205369182200,4.25718212890625,2.256824016571045,2.381397008895874,-9.23448371887207
1780565205388698400,4.276698486328125,2.256824016571045,2.381397008895874,-9.23448371887207
1780565205408220700,4.296220703125,2.256824016571045,2.381397008895874,-9.23448371887207
1780565205427743200,4.3157431640625,2.2131669521331787,2.462857961654663,-9.223677635192871
1780565205447258000,4.335258056640625,2.1702539920806885,2.5497829914093018,-9.210245132446289
1780565205466775800,4.35477587890625,2.1702539920806885,2.5497829914093018,-9.210245132446289
1780565205486299600,4.374299560546875,2.1479599475860596,2.632430076599121,-9.1922025680542
1780565205505826600,4.39382666015625,2.1479599475860596,2.632430076599121,-9.1922025680542
1780565205525351200,4.41335107421875,2.145461082458496,2.671686887741089,-9.181452751159668
1780565205544880000,4.432880126953125,2.145461082458496,2.671686887741089,-9.181452751159668
1780565205564409300,4.452409423828125,2.1488139629364014,2.7449779510498047,-9.159022331237793
1780565205583935200,4.471935302734375,2.151489019393921,2.8106510639190674,-9.138452529907227
1780565205603457800,4.491457763671875,2.151489019393921,2.8106510639190674,-9.138452529907227
1780565205622980400,4.51098046875,2.151489019393921,2.8106510639190674,-9.138452529907227
1780565205642504200,4.530504150390625,2.156869888305664,2.8608338832855225,-9.121597290039062
1780565205662027500,4.550027587890625,2.156869888305664,2.8608338832855225,-9.121597290039062
1780565205681552600,4.569552734375,2.1793079376220703,2.892709970474243,-9.10619831085205
1780565205701079300,4.589079345703125,2.1793079376220703,2.892709970474243,-9.10619831085205
1780565205720604200,4.608604248046875,2.2024500370025635,2.9127659797668457,-9.094228744506836
1780565205740124200,4.628124267578125,2.2024500370025635,2.9127659797668457,-9.094228744506836
1780565205759645200,4.647645263671875,2.199404001235962,2.9252309799194336,-9.090965270996094
1780565205779169000,4.6671689453125,2.199404001235962,2.9252309799194336,-9.090965270996094
1780565205798691600,4.686691650390625,2.1772170066833496,2.9220900535583496,-9.097312927246094
1780565205818210800,4.7062109375,2.1772170066833496,2.9220900535583496,-9.097312927246094
1780565205837727500,4.7257275390625,2.1705100536346436,2.8852410316467285,-9.110668182373047
1780565205857244000,4.745243896484375,2.1705100536346436,2.8852410316467285,-9.110668182373047
1780565205876759800,4.764759765625,2.1992549896240234,2.8000330924987793,-9.130339622497559
1780565205896272600,4.784272705078125,2.1992549896240234,2.8000330924987793,-9.130339622497559
1780565205915787000,4.803787109375,2.2521591186523438,2.655855894088745,-9.160470008850098
1780565205935304200,4.82330419921875,2.2521591186523438,2.655855894088745,-9.160470008850098
1780565205954820400,4.8428203125,2.3239479064941406,2.4440250396728516,-9.20141315460205
1780565205974339000,4.862339111328125,2.3239479064941406,2.4440250396728516,-9.20141315460205
1780565205993859300,4.881859375,2.416524887084961,2.130368947982788,-9.255373001098633
1780565206013378000,4.9013779296875,2.416524887084961,2.130368947982788,-9.255373001098633
1780565206032897300,4.920897216796875,2.527177095413208,1.7157330513000488,-9.311800956726074
1780565206052419600,4.940419677734375,2.527177095413208,1.7157330513000488,-9.311800956726074
1780565206071945700,4.95994580078125,2.6314239501953125,1.2332910299301147,-9.359199523925781
1780565206091471400,4.979471435546875,2.6314239501953125,1.2332910299301147,-9.359199523925781
1780565206110996000,4.998995849609375,2.7038369178771973,0.7355139851570129,-9.390862464904785
1780565206130521600,5.018521484375,2.7038369178771973,0.7355139851570129,-9.390862464904785
1780565206150048800,5.038048828125,2.738187074661255,0.2181600034236908,-9.407164573669434
1780565206169574700,5.05757470703125,2.738187074661255,0.2181600034236908,-9.407164573669434
1780565206189097000,5.077096923828125,2.739773988723755,-0.33064499497413635,-9.403420448303223
1780565206208620500,5.09662060546875,2.739773988723755,-0.33064499497413635,-9.403420448303223
1780565206228146700,5.116146728515625,2.7305209636688232,-0.9096480011940002,-9.36785888671875
1780565206247673600,5.135673583984375,2.7305209636688232,-0.9096480011940002,-9.36785888671875
1780565206267199000,5.155198974609375,2.7305209636688232,-0.9096480011940002,-9.36785888671875
1780565206286722300,5.174722412109375,2.7209360599517822,-1.499284029006958,-9.294548988342285
1780565206306245600,5.19424560546875,2.718419075012207,-2.096069097518921,-9.179144859313965
1780565206325767000,5.213766845703125,2.718419075012207,-2.096069097518921,-9.179144859313965
1780565206345286000,5.233285888671875,2.719158887863159,-2.3947958946228027,-9.105554580688477
1780565206364807200,5.25280712890625,2.7207140922546387,-2.693557024002075,-9.021223068237305
1780565206384327000,5.272326904296875,2.7207140922546387,-2.693557024002075,-9.021223068237305
1780565206403843800,5.29184375,2.7243380546569824,-3.282021999359131,-8.823055267333984
1780565206423366000,5.311365966796875,2.7243380546569824,-3.282021999359131,-8.823055267333984
1780565206442889700,5.3308896484375,2.7158119678497314,-3.8580009937286377,-8.589539527893066
1780565206462413000,5.3504130859375,2.7158119678497314,-3.8580009937286377,-8.589539527893066
1780565206481930000,5.369929931640625,2.6885180473327637,-4.430747985839844,-8.31747055053711
1780565206501444900,5.38944482421875,2.6885180473327637,-4.430747985839844,-8.31747055053711
1780565206520965000,5.408965087890625,2.653186082839966,-5.005037784576416,-7.996885776519775
1780565206540489200,5.4284892578125,2.653186082839966,-5.005037784576416,-7.996885776519775
1780565206560017000,5.448016845703125,2.616234064102173,-5.582248210906982,-7.617992877960205
1780565206579540500,5.46754052734375,2.616234064102173,-5.582248210906982,-7.617992877960205
1780565206599062000,5.48706201171875,2.575597047805786,-6.168237209320068,-7.166528224945068
1780565206618585000,5.506585205078125,2.575597047805786,-6.168237209320068,-7.166528224945068
1780565206638108000,5.52610791015625,2.510867118835449,-6.782590866088867,-6.6130170822143555
1780565206657628200,5.545628173828125,2.510867118835449,-6.782590866088867,-6.6130170822143555
1780565206677150200,5.565150146484375,2.419080972671509,-7.424109935760498,-5.9220452308654785
1780565206696674300,5.58467431640625,2.419080972671509,-7.424109935760498,-5.9220452308654785
1780565206716190700,5.604190673828125,2.313594102859497,-8.044132232666016,-5.096979141235352
1780565206735704600,5.62370458984375,2.313594102859497,-8.044132232666016,-5.096979141235352
1780565206755221000,5.643220947265625,2.2202529907226562,-8.56786060333252,-4.207403182983398
1780565206774735600,5.662735595703125,2.2202529907226562,-8.56786060333252,-4.207403182983398
1780565206794250800,5.682250732421875,2.1342639923095703,-8.967809677124023,-3.3261559009552
1780565206813767400,5.701767333984375,2.1342639923095703,-8.967809677124023,-3.3261559009552
1780565206833285000,5.72128515625,2.051222085952759,-9.241352081298828,-2.5357229709625244
1780565206852803800,5.740803955078125,2.051222085952759,-9.241352081298828,-2.5357229709625244
1780565206872319000,5.760319091796875,1.97604501247406,-9.402427673339844,-1.9312169551849365
1780565206891833600,5.77983349609375,1.97604501247406,-9.402427673339844,-1.9312169551849365
1780565206911351800,5.799351806640625,1.9373760223388672,-9.463244438171387,-1.6533570289611816
1780565206930874600,5.81887451171875,1.9373760223388672,-9.463244438171387,-1.6533570289611816
1780565206950395000,5.838394775390625,1.9997780323028564,-9.433486938476562,-1.7464829683303833
1780565206969908000,5.857907958984375,1.9997780323028564,-9.433486938476562,-1.7464829683303833
1780565206989422800,5.8774228515625,2.158224105834961,-9.305866241455078,-2.186990976333618
1780565207008939800,5.896939697265625,2.158224105834961,-9.305866241455078,-2.186990976333618
1780565207028461600,5.916461669921875,2.3963370323181152,-9.055964469909668,-2.8787269592285156
1780565207047989000,5.935989013671875,2.3963370323181152,-9.055964469909668,-2.8787269592285156
1780565207067515600,5.955515625,2.3963370323181152,-9.055964469909668,-2.8787269592285156
1780565207087038000,5.975037841796875,2.6285810470581055,-8.67210865020752,-3.731632947921753
1780565207106559200,5.994559326171875,2.8101611137390137,-8.155651092529297,-4.650627136230469
1780565207126079500,6.01407958984375,2.8101611137390137,-8.155651092529297,-4.650627136230469
1780565207145595100,6.03359521484375,2.8101611137390137,-8.155651092529297,-4.650627136230469
1780565207165111800,6.05311181640625,2.92809796333313,-7.52406120300293,-5.554703235626221
1780565207184635400,6.072635498046875,2.966784954071045,-7.1750311851501465,-5.9797258377075195
1780565207204156200,6.09215625,2.966784954071045,-7.1750311851501465,-5.9797258377075195
1780565207223673600,6.111673583984375,3.010077953338623,-6.431310176849365,-6.754085063934326
1780565207243192000,6.131192138671875,3.010077953338623,-6.431310176849365,-6.754085063934326
1780565207262711000,6.1507109375,3.0423030853271484,-5.6625847816467285,-7.397264003753662
1780565207282230300,6.170230224609375,3.0423030853271484,-5.6625847816467285,-7.397264003753662
1780565207301748500,6.18974853515625,3.0657029151916504,-4.898246765136719,-7.915089130401611
1780565207321265000,6.209264892578125,3.0657029151916504,-4.898246765136719,-7.915089130401611
1780565207340778200,6.2287783203125,3.0830740928649902,-4.133345127105713,-8.333672523498535
1780565207360292600,6.248292724609375,3.0830740928649902,-4.133345127105713,-8.333672523498535
1780565207379811000,6.26781103515625,3.087796926498413,-3.36962890625,-8.668973922729492
1780565207399326200,6.287326171875,3.087796926498413,-3.36962890625,-8.668973922729492
1780565207418841600,6.306841552734375,3.0876340866088867,-2.6303908824920654,-8.921184539794922
1780565207438360600,6.326360595703125,3.0876340866088867,-2.6303908824920654,-8.921184539794922
1780565207457876500,6.34587646484375,3.076662063598633,-1.9396770000457764,-9.100098609924316
1780565207477393200,6.36539306640625,3.076662063598633,-1.9396770000457764,-9.100098609924316
1780565207496915000,6.3849150390625,3.0525119304656982,-1.3083959817886353,-9.220101356506348
1780565207516437500,6.4044375,3.0525119304656982,-1.3083959817886353,-9.220101356506348
1780565207535959000,6.423958984375,3.0223441123962402,-0.7466019988059998,-9.292364120483398
1780565207555481000,6.443481201171875,3.0223441123962402,-0.7466019988059998,-9.292364120483398
1780565207575000800,6.463000732421875,2.9937689304351807,-0.24720799922943115,-9.328248977661133
1780565207594519000,6.48251904296875,2.9937689304351807,-0.24720799922943115,-9.328248977661133
1780565207614038800,6.502038818359375,2.973647117614746,0.2071949988603592,-9.335657119750977
1780565207633557200,6.52155712890625,2.973647117614746,0.2071949988603592,-9.335657119750977
1780565207653078000,6.541078125,2.941679000854492,0.616104006767273,-9.327751159667969
1780565207672599300,6.560599365234375,2.941679000854492,0.616104006767273,-9.327751159667969
1780565207692118800,6.580118896484375,2.909027099609375,0.9608010053634644,-9.308835983276367
1780565207711638800,6.599638671875,2.909027099609375,0.9608010053634644,-9.308835983276367
1780565207731161000,6.6191611328125,2.898487091064453,1.2311949729919434,-9.280243873596191
1780565207750681000,6.63868115234375,2.898487091064453,1.2311949729919434,-9.280243873596191
1780565207770200000,6.658199951171875,2.924168109893799,1.421044945716858,-9.244990348815918
1780565207789720600,6.677720458984375,2.924168109893799,1.421044945716858,-9.244990348815918
1780565207809236200,6.697236328125,2.9559929370880127,1.564126968383789,-9.211709976196289
1780565207828750000,6.71675,2.9559929370880127,1.564126968383789,-9.211709976196289
1780565207848269800,6.736269775390625,2.9559929370880127,1.564126968383789,-9.211709976196289
1780565207867798000,6.755798095703125,2.93629789352417,1.663027048110962,-9.200678825378418
1780565207887325400,6.775325439453125,2.93629789352417,1.663027048110962,-9.200678825378418
1780565207906849800,6.794849853515625,2.8630669116973877,1.7312569618225098,-9.211167335510254
1780565207926375200,6.814375244140625,2.8630669116973877,1.7312569618225098,-9.211167335510254
1780565207945903000,6.833903076171875,2.762587070465088,1.7579230070114136,-9.236764907836914
1780565207965433600,6.85343359375,2.710987091064453,1.758334994316101,-9.251962661743164
1780565207984965600,6.872965576171875,2.6033248901367188,1.7392699718475342,-9.286421775817871
1780565208004494300,6.892494384765625,2.6033248901367188,1.7392699718475342,-9.286421775817871
1780565208024021800,6.912021728515625,2.6033248901367188,1.7392699718475342,-9.286421775817871
1780565208043547400,6.93154736328125,2.4891889095306396,1.7071820497512817,-9.323596954345703
1780565208063072800,6.95107275390625,2.4891889095306396,1.7071820497512817,-9.323596954345703
1780565208082600700,6.9706005859375,2.3768808841705322,1.6774849891662598,-9.358230590820312
1780565208102127600,6.990127685546875,2.3768808841705322,1.6774849891662598,-9.358230590820312
1780565208121652200,7.00965234375,2.266309976577759,1.6731840372085571,-9.386388778686523
1780565208141182500,7.029182373046875,2.266309976577759,1.6731840372085571,-9.386388778686523
1780565208160716800,7.048716796875,2.1361489295959473,1.7028499841690063,-9.411543846130371
1780565208180247000,7.0682470703125,2.1361489295959473,1.7028499841690063,-9.411543846130371
1780565208199775200,7.087775146484375,1.979308009147644,1.7530280351638794,-9.436590194702148
1780565208219300600,7.107300537109375,1.979308009147644,1.7530280351638794,-9.436590194702148
1780565208238820000,7.126820068359375,1.8228570222854614,1.806359052658081,-9.458025932312012
1780565208258339300,7.14633935546875,1.8228570222854614,1.806359052658081,-9.458025932312012
1780565208277860000,7.165860107421875,1.696187973022461,1.8557729721069336,-9.472013473510742
1780565208297378300,7.18537841796875,1.696187973022461,1.8557729721069336,-9.472013473510742
1780565208316898800,7.20489892578125,1.5992499589920044,1.908120036125183,-9.478474617004395
1780565208336419000,7.224419189453125,1.5992499589920044,1.908120036125183,-9.478474617004395
1780565208355939000,7.24393896484375,1.5044599771499634,1.9623470306396484,-9.48292064666748
1780565208375461400,7.26346142578125,1.5044599771499634,1.9623470306396484,-9.48292064666748
1780565208394981000,7.282981201171875,1.4186160564422607,2.013740062713623,-9.485377311706543
1780565208414504000,7.30250390625,1.4186160564422607,2.013740062713623,-9.485377311706543
1780565208434023700,7.322023681640625,1.3603949546813965,2.053347110748291,-9.4854154586792
1780565208453540000,7.3415400390625,1.3603949546813965,2.053347110748291,-9.4854154586792
1780565208473057500,7.3610576171875,1.3390649557113647,2.079163074493408,-9.482826232910156
1780565208492577500,7.38057763671875,1.3390649557113647,2.079163074493408,-9.482826232910156
1780565208512100600,7.4001005859375,1.3405250310897827,2.0984439849853516,-9.478370666503906
1780565208531622000,7.419621826171875,1.3405250310897827,2.0984439849853516,-9.478370666503906
1780565208551144400,7.43914453125,1.3514080047607422,2.1230781078338623,-9.47133731842041
1780565208570663400,7.458663330078125,1.3514080047607422,2.1230781078338623,-9.47133731842041
1780565208590181600,7.478181640625,1.366690993309021,2.1622159481048584,-9.460284233093262
1780565208609701000,7.497701171875,1.366690993309021,2.1622159481048584,-9.460284233093262
1780565208629217000,7.517217041015625,1.3733479976654053,2.2108070850372314,-9.448081970214844
1780565208648734000,7.53673388671875,1.3733479976654053,2.2108070850372314,-9.448081970214844
1780565208668253400,7.55625341796875,1.3767529726028442,2.2535080909729004,-9.437492370605469
1780565208687773000,7.57577294921875,1.3767529726028442,2.2535080909729004,-9.437492370605469
1780565208707285200,7.59528515625,1.400818943977356,2.277920961380005,-9.428084373474121
1780565208726797300,7.61479736328125,1.400818943977356,2.277920961380005,-9.428084373474121
1780565208746314000,7.63431396484375,1.4478930234909058,2.2883388996124268,-9.418445587158203
1780565208765829400,7.653829345703125,1.4478930234909058,2.2883388996124268,-9.418445587158203
1780565208785343700,7.67334375,1.471405029296875,2.291801929473877,-9.413957595825195
1780565208804858600,7.692858642578125,1.471405029296875,2.291801929473877,-9.413957595825195
1780565208824369000,7.712368896484375,1.5108939409255981,2.3000850677490234,-9.405678749084473
1780565208843882200,7.73188232421875,1.5108939409255981,2.3000850677490234,-9.405678749084473
1780565208863400400,7.751400390625,1.54134202003479,2.3132309913635254,-9.397510528564453
1780565208882916900,7.770916748046875,1.54134202003479,2.3132309913635254,-9.397510528564453
1780565208902436900,7.790436767578125,1.5793009996414185,2.3350648880004883,-9.385802268981934
1780565208921959400,7.80995947265625,1.5793009996414185,2.3350648880004883,-9.385802268981934
1780565208941481500,7.8294814453125,1.6205699443817139,2.365504026412964,-9.371134757995605
1780565208961003300,7.849003173828125,1.6205699443817139,2.365504026412964,-9.371134757995605
1780565208980527900,7.86852783203125,1.6548810005187988,2.4003589153289795,-9.35626220703125
1780565209000050400,7.888050537109375,1.6548810005187988,2.4003589153289795,-9.35626220703125
1780565209019567000,7.907567138671875,1.6954840421676636,2.4327170848846436,-9.340621948242188
1780565209039082000,7.92708203125,1.6954840421676636,2.4327170848846436,-9.340621948242188
1780565209058594300,7.94659423828125,1.7597620487213135,2.464695930480957,-9.320326805114746
1780565209078108000,7.96610791015625,1.7597620487213135,2.464695930480957,-9.320326805114746
1780565209097623800,7.985623779296875,1.833117961883545,2.5024759769439697,-9.296090126037598
1780565209117142300,8.005142333984375,1.833117961883545,2.5024759769439697,-9.296090126037598
1780565209136665900,8.024665771484376,1.8861340284347534,2.5478360652923584,-9.273134231567383
1780565209156189700,8.044189697265624,1.8861340284347534,2.5478360652923584,-9.273134231567383
1780565209175707600,8.063707763671875,1.919721007347107,2.592272996902466,-9.253907203674316
1780565209195225900,8.083225830078124,1.919721007347107,2.592272996902466,-9.253907203674316
1780565209214745000,8.1027451171875,1.9713280200958252,2.6213300228118896,-9.234851837158203
1780565209234265600,8.122265625,1.9713280200958252,2.6213300228118896,-9.234851837158203
1780565209253790200,8.141790283203125,2.065598964691162,2.630449056625366,-9.211625099182129
1780565209273311200,8.161311279296875,2.065598964691162,2.630449056625366,-9.211625099182129
1780565209292833800,8.180833740234375,2.1789278984069824,2.6314480304718018,-9.185192108154297
1780565209312360000,8.20035986328125,2.1789278984069824,2.6314480304718018,-9.185192108154297
1780565209331884000,8.219884033203124,2.2741000652313232,2.641263961791992,-9.15926742553711
1780565209351414300,8.239414306640626,2.2741000652313232,2.641263961791992,-9.15926742553711
1780565209370943700,8.25894384765625,2.3448879718780518,2.663804054260254,-9.134859085083008
1780565209390467800,8.2784677734375,2.3448879718780518,2.663804054260254,-9.134859085083008
1780565209409992200,8.2979921875,2.41025710105896,2.688800096511841,-9.110489845275879
1780565209429522700,8.317522705078124,2.41025710105896,2.688800096511841,-9.110489845275879
1780565209449053400,8.337053466796876,2.4840939044952393,2.7062671184539795,-9.085450172424316
1780565209468582000,8.356581787109375,2.4840939044952393,2.7062671184539795,-9.085450172424316
1780565209488110300,8.3761103515625,2.56050705909729,2.71372389793396,-9.061981201171875
1780565209507636200,8.39563623046875,2.56050705909729,2.71372389793396,-9.061981201171875
1780565209527160300,8.415160400390626,2.629326105117798,2.7211689949035645,-9.04001522064209
1780565209546684700,8.4346845703125,2.629326105117798,2.7211689949035645,-9.04001522064209
1780565209566209500,8.45420947265625,2.681593894958496,2.7390639781951904,-9.019233703613281
1780565209585735400,8.4737353515625,2.681593894958496,2.7390639781951904,-9.019233703613281
1780565209605262800,8.493262939453125,2.681593894958496,2.7390639781951904,-9.019233703613281
1780565209624789800,8.512789794921876,2.714337110519409,2.771791934967041,-8.999418258666992
1780565209644316200,8.532316162109375,2.7254059314727783,2.7921528816223145,-8.989773750305176
1780565209663846100,8.55184619140625,2.7254059314727783,2.7921528816223145,-8.989773750305176
1780565209683373800,8.571373779296875,2.735862970352173,2.83776593208313,-8.972298622131348
1780565209702901000,8.59090087890625,2.735862970352173,2.83776593208313,-8.972298622131348
1780565209722426600,8.610426513671875,2.729741096496582,2.8724100589752197,-8.963133811950684
1780565209741950000,8.629949951171875,2.729741096496582,2.8724100589752197,-8.963133811950684
1780565209761476400,8.649476318359374,2.710000991821289,2.884320020675659,-8.965299606323242
1780565209781002200,8.669002197265625,2.710000991821289,2.884320020675659,-8.965299606323242
1780565209800527000,8.688527099609376,2.6719250679016113,2.8764688968658447,-8.979239463806152
1780565209820052500,8.708052490234374,2.6719250679016113,2.8764688968658447,-8.979239463806152
1780565209839577900,8.727577880859375,2.606884002685547,2.8703770637512207,-9.000282287597656
1780565209859095000,8.747094970703126,2.606884002685547,2.8703770637512207,-9.000282287597656
1780565209878611200,8.766611083984374,2.5040550231933594,2.8751299381256104,-9.027918815612793
1780565209898128000,8.7861279296875,2.5040550231933594,2.8751299381256104,-9.027918815612793
1780565209917642000,8.80564208984375,2.375454902648926,2.8783299922943115,-9.061590194702148
1780565209937157600,8.82515771484375,2.375454902648926,2.8783299922943115,-9.061590194702148
1780565209956673000,8.844673095703126,2.25081205368042,2.8612918853759766,-9.09872817993164
1780565209976192500,8.864192626953125,2.25081205368042,2.8612918853759766,-9.09872817993164
1780565209995716600,8.883716552734375,2.1434459686279297,2.8142940998077393,-9.139223098754883
1780565210015238000,8.90323779296875,2.1434459686279297,2.8142940998077393,-9.139223098754883
1780565210034755800,8.922755859375,2.0485639572143555,2.7342870235443115,-9.18515396118164
1780565210054276000,8.942276123046875,2.0485639572143555,2.7342870235443115,-9.18515396118164
1780565210073797600,8.961797607421875,1.9635180234909058,2.6201820373535156,-9.236841201782227
1780565210093320000,8.98131982421875,1.9635180234909058,2.6201820373535156,-9.236841201782227
1780565210112840000,9.00083984375,1.897202968597412,2.4484479427337646,-9.297618865966797
1780565210132355000,9.02035498046875,1.897202968597412,2.4484479427337646,-9.297618865966797
1780565210151874800,9.039874755859374,1.8618799448013306,2.1840410232543945,-9.370344161987305
1780565210171393800,9.059393798828125,1.8618799448013306,2.1840410232543945,-9.370344161987305
1780565210190913800,9.078913818359375,1.8606740236282349,1.7993940114974976,-9.451988220214844
1780565210210439000,9.09843896484375,1.8606740236282349,1.7993940114974976,-9.451988220214844
1780565210229961700,9.117961669921876,1.875480055809021,1.2970260381698608,-9.531018257141113
1780565210249481200,9.137481201171875,1.875480055809021,1.2970260381698608,-9.531018257141113
1780565210269001500,9.15700146484375,1.886612057685852,0.706188976764679,-9.590723991394043
1780565210288528100,9.176528076171875,1.886612057685852,0.706188976764679,-9.590723991394043
1780565210308060400,9.196060302734375,1.891855001449585,0.07636500149965286,-9.615354537963867
1780565210327584000,9.215583984375,1.891855001449585,0.07636500149965286,-9.615354537963867
1780565210347103700,9.235103759765625,1.8735439777374268,-0.5590729713439941,-9.602983474731445
1780565210366625800,9.254625732421875,1.8735439777374268,-0.5590729713439941,-9.602983474731445
1780565210386151000,9.27415087890625,1.8735439777374268,-0.5590729713439941,-9.602983474731445
1780565210405679400,9.293679443359375,1.8471189737319946,-1.1939990520477295,-9.550000190734863
1780565210425205200,9.313205322265626,1.830744981765747,-1.5162700414657593,-9.507328987121582
1780565210444728600,9.332728515625,1.830744981765747,-1.5162700414657593,-9.507328987121582
1780565210464254500,9.35225439453125,1.7719199657440186,-2.1774840354919434,-9.38929557800293
1780565210483780900,9.37178076171875,1.7719199657440186,-2.1774840354919434,-9.38929557800293
1780565210503307500,9.3913076171875,1.7003769874572754,-2.8553709983825684,-9.219304084777832
1780565210522833700,9.410833740234375,1.7003769874572754,-2.8553709983825684,-9.219304084777832
1780565210542357200,9.430357177734376,1.6026819944381714,-3.534877061843872,-8.998669624328613
1780565210561879800,9.4498798828125,1.6026819944381714,-3.534877061843872,-8.998669624328613
1780565210581400000,9.469400146484375,1.4980449676513672,-4.212286949157715,-8.720808029174805
1780565210600922600,9.488922607421875,1.4980449676513672,-4.212286949157715,-8.720808029174805
1780565210620448000,9.508447998046876,1.393530011177063,-4.900636196136475,-8.371488571166992
1780565210639968800,9.52796875,1.393530011177063,-4.900636196136475,-8.371488571166992
1780565210659480600,9.54748046875,1.28329598903656,-5.607728958129883,-7.933885097503662
1780565210678994400,9.566994384765625,1.28329598903656,-5.607728958129883,-7.933885097503662
1780565210698515000,9.586514892578125,1.1677440404891968,-6.3164520263671875,-7.401270866394043
1780565210718036000,9.606035888671874,1.1677440404891968,-6.3164520263671875,-7.401270866394043
1780565210737555500,9.625555419921875,1.0424230098724365,-6.995462894439697,-6.783570766448975
1780565210757074700,9.64507470703125,1.0424230098724365,-6.995462894439697,-6.783570766448975
1780565210776589300,9.66458935546875,0.8957480192184448,-7.624870777130127,-6.090892791748047
1780565210796103000,9.68410302734375,0.8957480192184448,-7.624870777130127,-6.090892791748047
1780565210815615000,9.703614990234374,0.7193920016288757,-8.18960189819336,-5.334125995635986
1780565210835124500,9.72312451171875,0.7193920016288757,-8.18960189819336,-5.334125995635986
1780565210854639000,9.74263916015625,0.5260819792747498,-8.677019119262695,-4.524662971496582
1780565210874157800,9.76215771484375,0.5260819792747498,-8.677019119262695,-4.524662971496582
1780565210893672000,9.781671875,0.34118300676345825,-9.072690963745117,-3.689157009124756
1780565210913182200,9.80118212890625,0.34118300676345825,-9.072690963745117,-3.689157009124756
1780565210932692200,9.820692138671875,0.1905820071697235,-9.364340782165527,-2.883193016052246
1780565210952201700,9.84020166015625,0.1905820071697235,-9.364340782165527,-2.883193016052246
1780565210971713300,9.85971337890625,0.15081800520420074,-9.553984642028809,-2.1768391132354736
1780565210991223600,9.8792236328125,0.15081800520420074,-9.553984642028809,-2.1768391132354736
1780565211010731000,9.89873095703125,0.23704899847507477,-9.653935432434082,-1.6689330339431763
1780565211030238500,9.918238525390626,0.23704899847507477,-9.653935432434082,-1.6689330339431763
1780565211049749500,9.93774951171875,0.4845240116119385,-9.685450553894043,-1.413254976272583
1780565211069264600,9.9572646484375,0.4845240116119385,-9.685450553894043,-1.413254976272583
1780565211088777500,9.976777587890625,0.7721160054206848,-9.6691255569458,-1.3970839977264404
1780565211108280800,9.99628076171875,0.7721160054206848,-9.6691255569458,-1.3970839977264404
1780565211127785700,10.01578564453125,1.0104650259017944,-9.617027282714844,-1.591148018836975
1780565211147302000,10.035302001953125,1.0104650259017944,-9.617027282714844,-1.591148018836975
1780565211166821600,10.054821533203125,1.1382659673690796,-9.522391319274902,-2.0170300006866455
1780565211186341400,10.07434130859375,1.1382659673690796,-9.522391319274902,-2.0170300006866455
1780565211205852400,10.093852294921875,1.1382659673690796,-9.522391319274902,-2.0170300006866455
1780565211225357000,10.113357177734375,1.205575942993164,-9.340658187866211,-2.709001064300537
1780565211244860700,10.132860595703125,1.205575942993164,-9.340658187866211,-2.709001064300537
1780565211264364300,10.1523642578125,1.2838289737701416,-9.016324043273926,-3.6190710067749023
1780565211283872800,10.171872802734375,1.2838289737701416,-9.016324043273926,-3.6190710067749023
1780565211303381000,10.191381103515624,1.3917180299758911,-8.52896499633789,-4.62167501449585
1780565211322887700,10.2108876953125,1.3917180299758911,-8.52896499633789,-4.62167501449585
1780565211342396400,10.230396484375,1.4962860345840454,-7.901949882507324,-5.600027084350586
1780565211361905400,10.249905517578124,1.4962860345840454,-7.901949882507324,-5.600027084350586
1780565211381416000,10.269416015625,1.5736730098724365,-7.182890892028809,-6.478395938873291
1780565211400928500,10.288928466796875,1.5736730098724365,-7.182890892028809,-6.478395938873291
1780565211420442000,10.308442138671875,1.6168429851531982,-6.417197227478027,-7.228097915649414
1780565211439954700,10.32795458984375,1.6168429851531982,-6.417197227478027,-7.228097915649414
1780565211459468000,10.347468017578125,1.6420249938964844,-5.62290096282959,-7.856636047363281
1780565211478980400,10.36698046875,1.6420249938964844,-5.62290096282959,-7.856636047363281
1780565211498493000,10.386492919921874,1.6700650453567505,-4.7976179122924805,-8.3805570602417
1780565211518003700,10.406003662109375,1.6700650453567505,-4.7976179122924805,-8.3805570602417
1780565211537516000,10.42551611328125,1.7007110118865967,-3.933811902999878,-8.813212394714355
1780565211557033700,10.44503369140625,1.7007110118865967,-3.933811902999878,-8.813212394714355
1780565211576550100,10.464550048828125,1.681447982788086,-3.0380539894104004,-9.16422176361084
1780565211596070400,10.4840703125,1.681447982788086,-3.0380539894104004,-9.16422176361084
1780565211615592700,10.5035927734375,1.5795999765396118,-2.148466110229492,-9.430214881896973
1780565211635110400,10.5231103515625,1.5795999765396118,-2.148466110229492,-9.430214881896973
1780565211654628400,10.54262841796875,1.4136580228805542,-1.3253469467163086,-9.6065092086792
1780565211674147000,10.56214697265625,1.4136580228805542,-1.3253469467163086,-9.6065092086792
1780565211693663200,10.581663330078126,1.2782880067825317,-0.6272810101509094,-9.696003913879395
1780565211713180400,10.601180419921874,1.2782880067825317,-0.6272810101509094,-9.696003913879395
1780565211732696800,10.62069677734375,1.2510639429092407,-0.052212998270988464,-9.71967601776123
1780565211752212500,10.64021240234375,1.2510639429092407,-0.052212998270988464,-9.71967601776123
1780565211771729000,10.65972900390625,1.333616018295288,0.42073699831962585,-9.699712753295898
1780565211791246000,10.67924609375,1.333616018295288,0.42073699831962585,-9.699712753295898
1780565211810764300,10.698764404296876,1.475767970085144,0.8285629749298096,-9.652750015258789
1780565211830284300,10.7182841796875,1.475767970085144,0.8285629749298096,-9.652750015258789
1780565211849802800,10.737802734375,1.6354769468307495,1.16007399559021,-9.592677116394043
1780565211869315300,10.7573154296875,1.6354769468307495,1.16007399559021,-9.592677116394043
1780565211888824600,10.776824462890625,1.7917569875717163,1.4061369895935059,-9.53165054321289
1780565211908334300,10.796334228515626,1.7917569875717163,1.4061369895935059,-9.53165054321289
1780565211927851000,10.81585107421875,1.9529260396957397,1.57280695438385,-9.473772048950195
1780565211947372000,10.8353720703125,1.9529260396957397,1.57280695438385,-9.473772048950195
1780565211966889500,10.854889404296875,2.1155290603637695,1.6935429573059082,-9.417879104614258
1780565211986403800,10.87440380859375,2.1155290603637695,1.6935429573059082,-9.417879104614258
1780565212005920500,10.89392041015625,2.1155290603637695,1.6935429573059082,-9.417879104614258
1780565212025443300,10.913443359375,2.2656049728393555,1.7911139726638794,-9.364770889282227
1780565212044966700,10.932966552734374,2.2656049728393555,1.7911139726638794,-9.364770889282227
1780565212064485000,10.952485107421875,2.3901329040527344,1.8586699962615967,-9.320547103881836
1780565212084002000,10.972001953125,2.3901329040527344,1.8586699962615967,-9.320547103881836
1780565212103521000,10.99152099609375,2.4897708892822266,1.8729000091552734,-9.291570663452148
1780565212123038500,11.01103857421875,2.4897708892822266,1.8729000091552734,-9.291570663452148
1780565212162073300,11.0500732421875,2.5923080444335938,1.8141289949417114,-9.275175094604492
1780565212181592800,11.0695927734375,2.7157111167907715,1.6967699527740479,-9.262066841125488
1780565212201112300,11.0891123046875,2.7157111167907715,1.6967699527740479,-9.262066841125488
1780565212220630800,11.108630859375,2.8508620262145996,1.56912100315094,-9.243940353393555
1780565212240148000,11.12814794921875,2.8508620262145996,1.56912100315094,-9.243940353393555
1780565212259666200,11.147666259765625,2.9586520195007324,1.4812099933624268,-9.224553108215332
1780565212279181800,11.167181884765625,2.9586520195007324,1.4812099933624268,-9.224553108215332
1780565212298698800,11.18669873046875,3.0011990070343018,1.4557889699935913,-9.214851379394531
1780565212318210300,11.206210205078126,3.0011990070343018,1.4557889699935913,-9.214851379394531
1780565212337717000,11.225717041015624,2.9737091064453125,1.4853709936141968,-9.219040870666504
1780565212357234700,11.245234619140625,2.9737091064453125,1.4853709936141968,-9.219040870666504
1780565212376754700,11.264754638671874,2.904762029647827,1.549146056175232,-9.230520248413086
1780565212396270600,11.2842705078125,2.904762029647827,1.549146056175232,-9.230520248413086
1780565212415785000,11.303784912109375,2.8250110149383545,1.6365729570388794,-9.240180969238281
1780565212435304000,11.323303955078124,2.8250110149383545,1.6365729570388794,-9.240180969238281
1780565212454827300,11.3428271484375,2.743251085281372,1.7550209760665894,-9.243078231811523
1780565212474349300,11.362349365234374,2.743251085281372,1.7550209760665894,-9.243078231811523
1780565212493868300,11.381868408203125,2.6422929763793945,1.9143660068511963,-9.240859985351562
1780565212513383200,11.401383056640626,2.6422929763793945,1.9143660068511963,-9.240859985351562
1780565212532895000,11.42089501953125,2.5129919052124023,2.1023190021514893,-9.236077308654785
1780565212552405800,11.44040576171875,2.5129919052124023,2.1023190021514893,-9.236077308654785
1780565212571920400,11.45992041015625,2.3930490016937256,2.278472900390625,-9.226151466369629
1780565212591435500,11.479435546875,2.3930490016937256,2.278472900390625,-9.226151466369629
1780565212610948400,11.4989482421875,2.329335927963257,2.4035019874572754,-9.21072006225586
1780565212630461700,11.518461669921875,2.329335927963257,2.4035019874572754,-9.21072006225586
1780565212649979600,11.537979736328126,2.318490982055664,2.477565050125122,-9.193817138671875
1780565212669502200,11.557502197265626,2.318490982055664,2.477565050125122,-9.193817138671875
1780565212689027300,11.57702734375,2.3032639026641846,2.5259039402008057,-9.184486389160156
1780565212708551400,11.596551513671875,2.3032639026641846,2.5259039402008057,-9.184486389160156
1780565212728072700,11.61607275390625,2.255204916000366,2.570950984954834,-9.183913230895996
1780565212747586600,11.635586669921874,2.255204916000366,2.570950984954834,-9.183913230895996
1780565212767098400,11.655098388671876,2.192257881164551,2.611588954925537,-9.187687873840332
1780565212786616600,11.674616455078125,2.192257881164551,2.611588954925537,-9.187687873840332
1780565212806133000,11.694133056640625,2.192257881164551,2.611588954925537,-9.187687873840332
1780565212825650200,11.713650146484374,2.1279940605163574,2.6324269771575928,-9.196846008300781
1780565212845166300,11.733166259765625,2.099318027496338,2.631563901901245,-9.203680038452148
1780565212864685600,11.752685546875,2.075287103652954,2.6230781078338623,-9.211548805236816
1780565212884211200,11.772211181640625,2.075287103652954,2.6230781078338623,-9.211548805236816
1780565212903731200,11.791731201171874,2.0499019622802734,2.5913169384002686,-9.226211547851562
1780565212923246300,11.811246337890625,2.0499019622802734,2.5913169384002686,-9.226211547851562
1780565212942766800,11.830766845703126,2.0516390800476074,2.5567240715026855,-9.235471725463867
1780565212962292000,11.8502919921875,2.0516390800476074,2.5567240715026855,-9.235471725463867
1780565212981813500,11.8698134765625,2.053895950317383,2.5345749855041504,-9.241074562072754
1780565213001331500,11.88933154296875,2.053895950317383,2.5345749855041504,-9.241074562072754
1780565213020852200,11.908852294921875,2.0385379791259766,2.5200600624084473,-9.248440742492676
1780565213040372000,11.9283720703125,2.0385379791259766,2.5200600624084473,-9.248440742492676
1780565213059889700,11.9478896484375,2.023822069168091,2.50007700920105,-9.257092475891113
1780565213079411500,11.967411376953125,2.023822069168091,2.50007700920105,-9.257092475891113
1780565213098934500,11.9869345703125,2.033777952194214,2.4707250595092773,-9.262788772583008
1780565213118448600,12.00644873046875,2.033777952194214,2.4707250595092773,-9.262788772583008
1780565213137961700,12.025961669921875,2.0582211017608643,2.44372296333313,-9.26455307006836
1780565213157475600,12.0454755859375,2.0582211017608643,2.44372296333313,-9.26455307006836
1780565213176991200,12.0649912109375,2.051561117172241,2.431022882461548,-9.269370079040527
1780565213196510500,12.084510498046875,2.051561117172241,2.431022882461548,-9.269370079040527
1780565213216024600,12.104024658203125,2.003654956817627,2.4244489669799805,-9.281561851501465
1780565213235541000,12.123541015625,2.003654956817627,2.4244489669799805,-9.281561851501465
1780565213255062000,12.14306201171875,1.947443962097168,2.405522108078003,-9.298436164855957
1780565213274578400,12.162578369140626,1.947443962097168,2.405522108078003,-9.298436164855957
1780565213294093800,12.18209375,1.926684021949768,2.3718440532684326,-9.31140422821045
1780565213313607200,12.201607177734376,1.926684021949768,2.3718440532684326,-9.31140422821045
1780565213333118700,12.22111865234375,1.9251149892807007,2.3408079147338867,-9.319579124450684
1780565213352634000,12.240634033203126,1.9251149892807007,2.3408079147338867,-9.319579124450684
1780565213372152000,12.260152099609375,1.9083149433135986,2.326037883758545,-9.326728820800781
1780565213391670300,12.279670166015626,1.9083149433135986,2.326037883758545,-9.326728820800781
1780565213411186200,12.299186279296874,1.8911939859390259,2.3283181190490723,-9.329647064208984
1780565213430705000,12.318704833984375,1.8911939859390259,2.3283181190490723,-9.329647064208984
1780565213450222300,12.338222412109374,1.9003809690475464,2.3410398960113525,-9.32459545135498
1780565213469737500,12.357737548828124,1.9003809690475464,2.3410398960113525,-9.32459545135498
1780565213489254000,12.37725390625,1.9265819787979126,2.35093092918396,-9.316726684570312
1780565213508770300,12.396770263671876,1.9265819787979126,2.35093092918396,-9.316726684570312
1780565213528289500,12.41628955078125,1.941372036933899,2.344681978225708,-9.315231323242188
1780565213547808300,12.435808349609376,1.941372036933899,2.344681978225708,-9.315231323242188
1780565213567327000,12.455326904296875,1.950477957725525,2.325429916381836,-9.318154335021973
1780565213586848800,12.474848876953125,1.950477957725525,2.325429916381836,-9.318154335021973
1780565213606369500,12.49436962890625,1.975635051727295,2.3218750953674316,-9.313739776611328
1780565213625888500,12.513888427734376,1.975635051727295,2.3218750953674316,-9.313739776611328
1780565213645406500,12.533406494140625,1.9916239976882935,2.3350839614868164,-9.307029724121094
1780565213664927200,12.55292724609375,1.9916239976882935,2.3350839614868164,-9.307029724121094
1780565213684447500,12.572447509765626,2.0192999839782715,2.3927369117736816,-9.28640079498291
1780565213703964200,12.591964111328124,2.0192999839782715,2.3927369117736816,-9.28640079498291
1780565213723481900,12.61148193359375,2.0283188819885254,2.432239055633545,-9.274164199829102
1780565213743000800,12.631000732421874,2.0283188819885254,2.432239055633545,-9.274164199829102
1780565213762518800,12.650518798828125,2.037416934967041,2.396852970123291,-9.281380653381348
1780565213782036700,12.67003662109375,2.0576090812683105,2.2693099975585938,-9.308945655822754
1780565213801556500,12.689556396484376,2.0576090812683105,2.2693099975585938,-9.308945655822754
1780565213821076200,12.709076171875,2.0576090812683105,2.2693099975585938,-9.308945655822754
1780565213840595200,12.72859521484375,2.063509941101074,2.0539979934692383,-9.357510566711426
1780565213860113700,12.74811376953125,2.063509941101074,2.0539979934692383,-9.357510566711426
1780565213879634400,12.767634521484375,2.027008056640625,1.76521897315979,-9.42418384552002
1780565213899154400,12.787154541015624,2.027008056640625,1.76521897315979,-9.42418384552002
1780565213918674400,12.80667431640625,1.95250403881073,1.3799539804458618,-9.503865242004395
1780565213938193000,12.82619287109375,1.95250403881073,1.3799539804458618,-9.503865242004395
1780565213957714400,12.84571435546875,1.8819910287857056,0.9199820160865784,-9.573491096496582
1780565213977239600,12.865239501953125,1.8819910287857056,0.9199820160865784,-9.573491096496582
1780565213996763000,12.884762939453125,1.8403990268707275,0.397706001996994,-9.617420196533203
1780565214016285700,12.90428564453125,1.8403990268707275,0.397706001996994,-9.617420196533203
1780565214035802400,12.92380224609375,1.8193869590759277,-0.16069599986076355,-9.628292083740234
1780565214055316200,12.943316162109374,1.8193869590759277,-0.16069599986076355,-9.628292083740234
1780565214074829800,12.962829833984374,1.8096189498901367,-0.7361699938774109,-9.60329818725586
1780565214094346500,12.982346435546875,1.8096189498901367,-0.7361699938774109,-9.60329818725586
1780565214113869600,13.00186962890625,1.8216760158538818,-1.3109229803085327,-9.53954792022705
1780565214133390000,13.02139013671875,1.8216760158538818,-1.3109229803085327,-9.53954792022705
1780565214152907800,13.04090771484375,1.8649849891662598,-1.8697459697723389,-9.437472343444824
1780565214172430300,13.060430419921875,1.8649849891662598,-1.8697459697723389,-9.437472343444824
1780565214191954000,13.079953857421875,1.9161440134048462,-2.4118359088897705,-9.303302764892578
1780565214211474400,13.099474365234375,1.9161440134048462,-2.4118359088897705,-9.303302764892578
1780565214230992600,13.11899267578125,1.9458680152893066,-2.960913896560669,-9.137099266052246
1780565214250512000,13.138511962890625,1.9458680152893066,-2.960913896560669,-9.137099266052246
1780565214270034000,13.158033935546875,1.9485780000686646,-3.557537078857422,-8.92115306854248
1780565214289555200,13.17755517578125,1.9485780000686646,-3.557537078857422,-8.92115306854248
1780565214309081900,13.197081787109376,1.9188389778137207,-4.191863059997559,-8.647908210754395
1780565214328609000,13.216609130859375,1.9188389778137207,-4.191863059997559,-8.647908210754395
1780565214348131000,13.236131103515625,1.9188389778137207,-4.191863059997559,-8.647908210754395
1780565214367654400,13.255654296875,1.857058048248291,-4.850406169891357,-8.310528755187988
1780565214387177000,13.275177001953125,1.7612659931182861,-5.5152459144592285,-7.906959056854248
1780565214406695000,13.29469482421875,1.7612659931182861,-5.5152459144592285,-7.906959056854248
1780565214426212000,13.314212158203125,1.6815119981765747,-6.173264026641846,-7.423161029815674
1780565214445730800,13.333730712890626,1.6815119981765747,-6.173264026641846,-7.423161029815674
1780565214465247500,13.35324755859375,1.6586049795150757,-6.493401050567627,-7.150158882141113
1780565214484764400,13.372764404296875,1.6586049795150757,-6.493401050567627,-7.150158882141113
1780565214504285200,13.39228515625,1.6422899961471558,-7.081052780151367,-6.572790145874023
1780565214523805700,13.4118056640625,1.6422899961471558,-7.081052780151367,-6.572790145874023
1780565214543326500,13.431326416015626,1.6692010164260864,-7.537654876708984,-6.036349773406982
1780565214562844200,13.45084423828125,1.6692010164260864,-7.537654876708984,-6.036349773406982
1780565214582364000,13.470364013671874,1.708981990814209,-7.813167095184326,-5.663372993469238
1780565214601885700,13.4898857421875,1.708981990814209,-7.813167095184326,-5.663372993469238
1780565214621404200,13.509404052734375,1.759889006614685,-7.870079040527344,-5.568181991577148
1780565214640923400,13.52892333984375,1.759889006614685,-7.870079040527344,-5.568181991577148
1780565214660444200,13.548444091796876,1.81072998046875,-7.703421115875244,-5.780879020690918
1780565214679964400,13.56796435546875,1.81072998046875,-7.703421115875244,-5.780879020690918
1780565214699478300,13.587478271484375,1.8250550031661987,-7.307441234588623,-6.269807815551758
1780565214718991000,13.6069912109375,1.8250550031661987,-7.307441234588623,-6.269807815551758
1780565214738509300,13.62650927734375,1.7708569765090942,-6.723895072937012,-6.906033039093018
1780565214758026000,13.64602587890625,1.7708569765090942,-6.723895072937012,-6.906033039093018
1780565214777540600,13.66554052734375,1.657120943069458,-6.011773109436035,-7.559929847717285
1780565214797054500,13.685054443359375,1.657120943069458,-6.011773109436035,-7.559929847717285
1780565214816569900,13.70456982421875,1.5697089433670044,-5.261125087738037,-8.117670059204102
1780565214836088600,13.724088623046875,1.5697089433670044,-5.261125087738037,-8.117670059204102
1780565214855604200,13.743604248046875,1.5417380332946777,-4.524048805236816,-8.55546760559082
1780565214875122700,13.763122802734374,1.5417380332946777,-4.524048805236816,-8.55546760559082
1780565214894644700,13.782644775390626,1.5505069494247437,-3.8281619548797607,-8.887130737304688
1780565214914165200,13.802165283203125,1.5505069494247437,-3.8281619548797607,-8.887130737304688
1780565214933685500,13.821685546875,1.5624979734420776,-3.1705689430236816,-9.140355110168457
1780565214953205000,13.841205078125,1.5624979734420776,-3.1705689430236816,-9.140355110168457
1780565214972725000,13.86072509765625,1.5606859922409058,-2.533618927001953,-9.33729362487793
1780565214992245800,13.880245849609375,1.5606859922409058,-2.533618927001953,-9.33729362487793
1780565215011763000,13.899762939453124,1.549381971359253,-1.9160610437393188,-9.485153198242188
1780565215031278800,13.91927880859375,1.549381971359253,-1.9160610437393188,-9.485153198242188
1780565215050800600,13.938800537109374,1.518921971321106,-1.3304810523986816,-9.589717864990234
1780565215070322200,13.958322265625,1.518921971321106,-1.3304810523986816,-9.589717864990234
1780565215089840000,13.977840087890625,1.5053009986877441,-0.7921040058135986,-9.651249885559082
1780565215109358000,13.997358154296874,1.5053009986877441,-0.7921040058135986,-9.651249885559082
1780565215128875800,14.016875732421875,1.5135979652404785,-0.3031339943408966,-9.677660942077637
1780565215148392400,14.036392333984375,1.5135979652404785,-0.3031339943408966,-9.677660942077637
1780565215167913200,14.055913330078125,1.5332070589065552,0.15554000437259674,-9.678071975708008
1780565215187432000,14.075431884765624,1.5332070589065552,0.15554000437259674,-9.678071975708008
1780565215206951200,14.094951171875,1.5423280000686646,0.6027609705924988,-9.659083366394043
1780565215226474000,14.114473876953125,1.5423280000686646,0.6027609705924988,-9.659083366394043
1780565215245994500,14.133994384765625,1.5423280000686646,0.6027609705924988,-9.659083366394043
1780565215265513500,14.153513427734374,1.5494860410690308,1.0309940576553345,-9.621649742126465
1780565215285028900,14.17302880859375,1.5634820461273193,1.229025959968567,-9.596094131469727
1780565215304543700,14.192543701171875,1.5874630212783813,1.4150949716567993,-9.566474914550781
1780565215324060000,14.212059814453125,1.5874630212783813,1.4150949716567993,-9.566474914550781
1780565215343583200,14.231583251953126,1.6644539833068848,1.750324010848999,-9.497681617736816
1780565215363108600,14.251108642578124,1.6644539833068848,1.750324010848999,-9.497681617736816
1780565215382630700,14.270630615234374,1.7649379968643188,2.0319740772247314,-9.423166275024414
1780565215402154800,14.29015478515625,1.7649379968643188,2.0319740772247314,-9.423166275024414
1780565215421674000,14.309674072265626,1.8408759832382202,2.2652149200439453,-9.35521125793457
1780565215441191700,14.329191650390625,1.8408759832382202,2.2652149200439453,-9.35521125793457
1780565215460709000,14.348709228515625,1.8819559812545776,2.4293100833892822,-9.305733680725098
1780565215480219000,14.368218994140625,1.8819559812545776,2.4293100833892822,-9.305733680725098
1780565215499729700,14.387729736328126,1.9127850532531738,2.5302109718322754,-9.272501945495605
1780565215519244300,14.407244384765624,1.9127850532531738,2.5302109718322754,-9.272501945495605
1780565215538762000,14.426761962890625,1.9781639575958252,2.5643460750579834,-9.249378204345703
1780565215558282500,14.446282470703125,1.9781639575958252,2.5643460750579834,-9.249378204345703
1780565215577803300,14.46580322265625,2.0826499462127686,2.528872013092041,-9.236199378967285
1780565215597324300,14.48532421875,2.0826499462127686,2.528872013092041,-9.236199378967285
1780565215616843300,14.50484326171875,2.192984104156494,2.4474940299987793,-9.232583045959473
1780565215636359400,14.524359375,2.192984104156494,2.4474940299987793,-9.232583045959473
1780565215655878000,14.5438779296875,2.2656099796295166,2.3661611080169678,-9.236248970031738
1780565215675396600,14.563396728515626,2.2656099796295166,2.3661611080169678,-9.236248970031738
1780565215694917000,14.582917236328125,2.2740979194641113,2.317370891571045,-9.246527671813965
1780565215714435800,14.602435791015624,2.2740979194641113,2.317370891571045,-9.246527671813965
1780565215733950200,14.6219501953125,2.2361159324645996,2.30891489982605,-9.257898330688477
1780565215753470500,14.641470458984376,2.2361159324645996,2.30891489982605,-9.257898330688477
1780565215772990700,14.66099072265625,2.1883280277252197,2.3286499977111816,-9.264372825622559
1780565215792512000,14.680511962890625,2.1883280277252197,2.3286499977111816,-9.264372825622559
1780565215812034000,14.700033935546875,2.1557819843292236,2.374094009399414,-9.260467529296875
1780565215831551000,14.719551025390626,2.1557819843292236,2.374094009399414,-9.260467529296875
1780565215851073000,14.739072998046876,2.1293890476226807,2.4516170024871826,-9.246365547180176
1780565215870594600,14.758594482421875,2.1293890476226807,2.4516170024871826,-9.246365547180176
1780565215890109700,14.778109619140626,2.09716796875,2.5567939281463623,-9.225220680236816
1780565215909629200,14.797629150390625,2.09716796875,2.5567939281463623,-9.225220680236816
1780565215929148000,14.81714794921875,2.0681989192962646,2.6704189777374268,-9.199533462524414
1780565215948667100,14.836667236328125,2.0681989192962646,2.6704189777374268,-9.199533462524414
1780565215968192300,14.856192138671876,2.0557210445404053,2.774461030960083,-9.17149829864502
1780565215987720400,14.875720458984375,2.0557210445404053,2.774461030960083,-9.17149829864502
1780565216007244500,14.89524462890625,2.055032968521118,2.859368085861206,-9.145537376403809
1780565216026766300,14.914766357421875,2.053605079650879,2.8963329792022705,-9.1342191696167
1780565216046287000,14.934287109375,2.053605079650879,2.8963329792022705,-9.1342191696167
1780565216065808100,14.95380810546875,2.053605079650879,2.8963329792022705,-9.1342191696167
1780565216085328100,14.973328125,2.0546109676361084,2.9510068893432617,-9.116476058959961
1780565216104848600,14.9928486328125,2.0546109676361084,2.9510068893432617,-9.116476058959961
1780565216124366300,15.012366455078125,2.059485912322998,2.98067307472229,-9.105717658996582
1780565216143881500,15.031881591796875,2.059485912322998,2.98067307472229,-9.105717658996582
1780565216163400200,15.051400146484376,2.079011917114258,2.9903249740600586,-9.098113059997559
1780565216182923800,15.070923828125,2.110222101211548,2.9908909797668457,-9.090739250183105
1780565216202447400,15.090447265625,2.110222101211548,2.9908909797668457,-9.090739250183105
1780565216221969000,15.109968994140624,2.110222101211548,2.9908909797668457,-9.090739250183105
1780565216241492700,15.12949267578125,2.163006067276001,2.983988046646118,-9.080595970153809
1780565216261019000,15.149018798828125,2.163006067276001,2.983988046646118,-9.080595970153809
1780565216280543000,15.16854296875,2.2437920570373535,2.960252046585083,-9.068754196166992
1780565216300065300,15.188065185546876,2.2437920570373535,2.960252046585083,-9.068754196166992
1780565216319587000,15.207587158203125,2.3449079990386963,2.907823085784912,-9.060131072998047
1780565216339111000,15.22711083984375,2.3449079990386963,2.907823085784912,-9.060131072998047
1780565216358636300,15.24663623046875,2.449354887008667,2.825066089630127,-9.058677673339844
1780565216378159600,15.26615966796875,2.449354887008667,2.825066089630127,-9.058677673339844
1780565216397679000,15.28567919921875,2.5476770401000977,2.7330000400543213,-9.05980396270752
1780565216417200400,15.305200439453126,2.5476770401000977,2.7330000400543213,-9.05980396270752
1780565216436721000,15.324720947265625,2.633765935897827,2.659914016723633,-9.056938171386719
1780565216456239000,15.344239013671874,2.633765935897827,2.659914016723633,-9.056938171386719
1780565216475762200,15.36376220703125,2.7015368938446045,2.6108100414276123,-9.051262855529785
1780565216495287800,15.383287841796875,2.7015368938446045,2.6108100414276123,-9.051262855529785
1780565216514813700,15.402813720703126,2.752908945083618,2.5651960372924805,-9.048826217651367
1780565216534333400,15.42233349609375,2.752908945083618,2.5651960372924805,-9.048826217651367
1780565216553852000,15.441851806640624,2.8016679286956787,2.5026469230651855,-9.051376342773438
1780565216573375500,15.46137548828125,2.8016679286956787,2.5026469230651855,-9.051376342773438
1780565216592897800,15.480897705078124,2.8580920696258545,2.4274630546569824,-9.054210662841797
1780565216612415000,15.5004150390625,2.8580920696258545,2.4274630546569824,-9.054210662841797
1780565216631936000,15.51993603515625,2.9172170162200928,2.36161208152771,-9.05276870727539
1780565216651464000,15.5394638671875,2.9172170162200928,2.36161208152771,-9.05276870727539
1780565216670992100,15.5589921875,2.9635870456695557,2.330099105834961,-9.045870780944824
1780565216690516500,15.5785166015625,2.9635870456695557,2.330099105834961,-9.045870780944824
1780565216710038000,15.5980380859375,2.9944140911102295,2.3383429050445557,-9.033583641052246
1780565216729556200,15.61755615234375,2.9944140911102295,2.3383429050445557,-9.033583641052246
1780565216749072400,15.637072265625,2.9855809211730957,2.3596560955047607,-9.030965805053711
1780565216768594000,15.656593994140625,2.9855809211730957,2.3596560955047607,-9.030965805053711
1780565216788120800,15.676120849609376,2.9299368858337402,2.3604979515075684,-9.048951148986816
1780565216807646000,15.69564599609375,2.9299368858337402,2.3604979515075684,-9.048951148986816
1780565216827170300,15.71517041015625,2.8878118991851807,2.35453200340271,-9.064034461975098
1780565216846693400,15.734693359375,2.7919459342956543,2.357611894607544,-9.093222618103027
1780565216866217000,15.754217041015625,2.7919459342956543,2.357611894607544,-9.093222618103027
1780565216885741800,15.773741943359376,2.7919459342956543,2.357611894607544,-9.093222618103027
1780565216905267000,15.793266845703124,2.6633009910583496,2.4110751152038574,-9.117759704589844
1780565216924790800,15.812790771484375,2.6633009910583496,2.4110751152038574,-9.117759704589844
1780565216944310300,15.832310302734374,2.513917922973633,2.5013608932495117,-9.135830879211426
1780565216963827200,15.8518271484375,2.513917922973633,2.5013608932495117,-9.135830879211426
1780565216983346700,15.8713466796875,2.351783037185669,2.5641300678253174,-9.161568641662598
1780565217002866000,15.890865966796875,2.351783037185669,2.5641300678253174,-9.161568641662598
1780565217022379500,15.910379638671875,2.2314939498901367,2.5565600395202637,-9.193717002868652
1780565217041891000,15.92989111328125,2.2314939498901367,2.5565600395202637,-9.193717002868652
1780565217061408500,15.949408447265625,2.1435799598693848,2.4744389057159424,-9.2370023727417
1780565217080929300,15.96892919921875,2.1435799598693848,2.4744389057159424,-9.2370023727417
1780565217100447200,15.988447265625,2.0657970905303955,2.330773115158081,-9.291930198669434
1780565217119963600,16.007963623046876,2.0657970905303955,2.330773115158081,-9.291930198669434
1780565217139480300,16.027480224609373,2.0223889350891113,2.1317079067230225,-9.349103927612305
1780565217159001300,16.04700146484375,2.0223889350891113,2.1317079067230225,-9.349103927612305
1780565217178519600,16.06651953125,2.027730941772461,1.8727890253067017,-9.403243064880371
1780565217198033400,16.086033447265624,2.027730941772461,1.8727890253067017,-9.403243064880371
1780565217217554000,16.105553955078125,2.071475028991699,1.5293519496917725,-9.455689430236816
1780565217237079600,16.12507958984375,2.071475028991699,1.5293519496917725,-9.455689430236816
1780565217256598800,16.144598876953125,2.099842071533203,1.099892020225525,-9.508990287780762
1780565217276114700,16.16411474609375,2.099842071533203,1.099892020225525,-9.508990287780762
1780565217295633700,16.183633544921875,2.083178997039795,0.5907589793205261,-9.557791709899902
1780565217315153400,16.2031533203125,2.083178997039795,0.5907589793205261,-9.557791709899902
1780565217334673000,16.2226728515625,2.022027015686035,0.017590999603271484,-9.58911418914795
1780565217354189000,16.24218896484375,2.022027015686035,0.017590999603271484,-9.58911418914795
1780565217373703400,16.261703369140626,1.9355629682540894,-0.6041889786720276,-9.587937355041504
1780565217393219600,16.281219482421875,1.9355629682540894,-0.6041889786720276,-9.587937355041504
1780565217412735500,16.300735595703124,1.8212389945983887,-1.2752180099487305,-9.544469833374023
1780565217432253400,16.32025341796875,1.8212389945983887,-1.2752180099487305,-9.544469833374023
1780565217451773000,16.33977294921875,1.6748789548873901,-1.9980700016021729,-9.446824073791504
1780565217471293400,16.35929345703125,1.6748789548873901,-1.9980700016021729,-9.446824073791504
1780565217490815200,16.378815185546873,1.5355600118637085,-2.7531700134277344,-9.279122352600098
1780565217510333200,16.398333251953126,1.5355600118637085,-2.7531700134277344,-9.279122352600098
1780565217529848800,16.417848876953126,1.4075729846954346,-3.5030128955841064,-9.043652534484863
1780565217549368300,16.437368408203124,1.4075729846954346,-3.5030128955841064,-9.043652534484863
1780565217568891600,16.4568916015625,1.2847590446472168,-4.21184778213501,-8.754982948303223
1780565217588418000,16.47641796875,1.2847590446472168,-4.21184778213501,-8.754982948303223
1780565217607943000,16.49594287109375,1.2847590446472168,-4.21184778213501,-8.754982948303223
1780565217627462700,16.515462646484377,1.1344640254974365,-4.872212886810303,-8.427013397216797
1780565217646981600,16.534981689453126,0.986257016658783,-5.484885215759277,-8.061223983764648
1780565217666508500,16.554508544921877,0.986257016658783,-5.484885215759277,-8.061223983764648
1780565217686036000,16.574035888671876,0.986257016658783,-5.484885215759277,-8.061223983764648
1780565217705559300,16.593559326171874,0.8616780042648315,-6.058564186096191,-7.654496192932129
1780565217725080300,16.613080322265624,0.7891600131988525,-6.336552143096924,-7.434065818786621
1780565217744605200,16.632605224609375,0.6993880271911621,-6.610659122467041,-7.20069694519043
1780565217764131000,16.652131103515625,0.6993880271911621,-6.610659122467041,-7.20069694519043
1780565217783658200,16.671658203125,0.43118399381637573,-7.149023056030273,-6.689210891723633
1780565217803185200,16.69118505859375,0.43118399381637573,-7.149023056030273,-6.689210891723633
1780565217822710500,16.71071044921875,0.04677499830722809,-7.654352188110352,-6.119534969329834
1780565217842233600,16.730233642578124,0.04677499830722809,-7.654352188110352,-6.119534969329834
1780565217861755100,16.749755126953126,-0.384333997964859,-8.109627723693848,-5.488733768463135
1780565217881278700,16.76927880859375,-0.384333997964859,-8.109627723693848,-5.488733768463135
1780565217900800800,16.78880078125,-0.7860249876976013,-8.500476837158203,-4.812905788421631
1780565217920320800,16.80832080078125,-0.7860249876976013,-8.500476837158203,-4.812905788421631
1780565217939845600,16.827845703125,-1.1183949708938599,-8.817383766174316,-4.128306865692139
1780565217959374600,16.84737451171875,-1.1183949708938599,-8.817383766174316,-4.128306865692139
1780565217978898000,16.86689794921875,-1.363590955734253,-9.048712730407715,-3.5073370933532715
1780565217998420500,16.88642041015625,-1.363590955734253,-9.048712730407715,-3.5073370933532715
1780565218017944800,16.90594482421875,-1.5166840553283691,-9.19023323059082,-3.0461909770965576
1780565218037463800,16.9254638671875,-1.5166840553283691,-9.19023323059082,-3.0461909770965576
1780565218056979700,16.944979736328126,-1.5902800559997559,-9.236749649047852,-2.8624210357666016
1780565218076498400,16.96449853515625,-1.5902800559997559,-9.236749649047852,-2.8624210357666016
1780565218096019200,16.984019287109376,-1.6104730367660522,-9.18933391571045,-3.0004210472106934
1780565218115541200,17.003541259765626,-1.6104730367660522,-9.18933391571045,-3.0004210472106934
1780565218135059500,17.0230595703125,-1.5886059999465942,-9.03279972076416,-3.453238010406494
1780565218154578200,17.042578125,-1.5886059999465942,-9.03279972076416,-3.453238010406494
1780565218174101500,17.0621015625,-1.502755045890808,-8.7621431350708,-4.123901844024658
1780565218193626000,17.081626220703125,-1.502755045890808,-8.7621431350708,-4.123901844024658
1780565218213149400,17.1011494140625,-1.3602290153503418,-8.372734069824219,-4.907861232757568
1780565218232673000,17.120673095703125,-1.3602290153503418,-8.372734069824219,-4.907861232757568
1780565218252199400,17.140199462890624,-1.1959309577941895,-7.878048896789551,-5.704916954040527
1780565218271725000,17.15972509765625,-1.1959309577941895,-7.878048896789551,-5.704916954040527
1780565218291243800,17.179243896484376,-1.0493890047073364,-7.292758941650391,-6.461767196655273
1780565218310763800,17.198763671875,-1.0493890047073364,-7.292758941650391,-6.461767196655273
1780565218330286300,17.218286376953124,-0.9187679886817932,-6.631193161010742,-7.157033920288086
1780565218349806000,17.23780615234375,-0.9187679886817932,-6.631193161010742,-7.157033920288086
1780565218369322200,17.257322265625,-0.7819120287895203,-5.913699150085449,-7.775394916534424
1780565218388838100,17.276838134765626,-0.7819120287895203,-5.913699150085449,-7.775394916534424
1780565218408353300,17.296353271484374,-0.6421719789505005,-5.1620659828186035,-8.305460929870605
1780565218427867600,17.31586767578125,-0.5709220170974731,-4.774388790130615,-8.539277076721191
1780565218447385000,17.335385009765623,-0.5709220170974731,-4.774388790130615,-8.539277076721191
1780565218466904300,17.354904296875,-0.4323880076408386,-3.9761650562286377,-8.946683883666992
1780565218486425000,17.374425048828126,-0.4323880076408386,-3.9761650562286377,-8.946683883666992
1780565218505944600,17.393944580078124,-0.30366599559783936,-3.1611759662628174,-9.271178245544434
1780565218525460700,17.413460693359376,-0.30366599559783936,-3.1611759662628174,-9.271178245544434
1780565218544981800,17.432981689453126,-0.24077600240707397,-2.7561628818511963,-9.401361465454102
1780565218564506400,17.45250634765625,-0.17739799618721008,-2.3614540100097656,-9.509576797485352
1780565218584027600,17.472027587890626,-0.04427399858832359,-1.6045689582824707,-9.667647361755371
1780565218603549200,17.491549072265624,-0.04427399858832359,-1.6045689582824707,-9.667647361755371
1780565218623071700,17.51107177734375,-0.04427399858832359,-1.6045689582824707,-9.667647361755371
1780565218642591700,17.530591796875,0.1244800016283989,-0.8940209746360779,-9.758341789245605
1780565218662107000,17.55010693359375,0.1244800016283989,-0.8940209746360779,-9.758341789245605
1780565218681620500,17.569620361328123,0.3413499891757965,-0.22564899921417236,-9.79145336151123
1780565218701137200,17.58913720703125,0.3413499891757965,-0.22564899921417236,-9.79145336151123
1780565218720654000,17.608654052734376,0.6019459962844849,0.3932420015335083,-9.773588180541992
1780565218740171000,17.6281708984375,0.6019459962844849,0.3932420015335083,-9.773588180541992
1780565218759693300,17.647693359375,0.8751149773597717,0.945796012878418,-9.71491813659668
1780565218779219500,17.667219482421874,0.8751149773597717,0.945796012878418,-9.71491813659668
1780565218798743600,17.68674365234375,1.113415002822876,1.4175180196762085,-9.632805824279785
1780565218818269400,17.70626953125,1.113415002822876,1.4175180196762085,-9.632805824279785
1780565218837796400,17.72579638671875,1.286849021911621,1.829463005065918,-9.541336059570312
1780565218857323300,17.7453232421875,1.286849021911621,1.829463005065918,-9.541336059570312
1780565218876851000,17.764850830078124,1.39336097240448,2.1630420684814453,-9.456204414367676
1780565218896380200,17.784380126953124,1.39336097240448,2.1630420684814453,-9.456204414367676
1780565218915908600,17.80390869140625,1.4766919612884521,2.3981330394744873,-9.386604309082031
1780565218935433500,17.82343359375,1.4766919612884521,2.3981330394744873,-9.386604309082031
1780565218954956500,17.84295654296875,1.596024990081787,2.504110097885132,-9.339279174804688
1780565218974481400,17.8624814453125,1.596024990081787,2.504110097885132,-9.339279174804688
1780565218994008600,17.882008544921874,1.778494954109192,2.5084431171417236,-9.30508804321289
1780565219013537000,17.901537109375,1.778494954109192,2.5084431171417236,-9.30508804321289
1780565219033065000,17.92106494140625,1.997799038887024,2.457612991333008,-9.274100303649902
1780565219052586800,17.940586669921874,1.997799038887024,2.457612991333008,-9.274100303649902
1780565219072104700,17.960104736328127,2.1933720111846924,2.3845319747924805,-9.24895191192627
1780565219091619800,17.979619873046875,2.1933720111846924,2.3845319747924805,-9.24895191192627
1780565219111137500,17.999137451171876,2.334350109100342,2.312282085418701,-9.232775688171387
1780565219130658600,18.018658447265626,2.334350109100342,2.312282085418701,-9.232775688171387
1780565219150182100,18.03818212890625,2.423356056213379,2.245112895965576,-9.226419448852539
1780565219169704000,18.057703857421874,2.423356056213379,2.245112895965576,-9.226419448852539
1780565219189222400,18.077222412109375,2.4806370735168457,2.1864700317382812,-9.225279808044434
1780565219208736500,18.096736572265623,2.4806370735168457,2.1864700317382812,-9.225279808044434
1780565219228247800,18.116247802734375,2.4958510398864746,2.160170078277588,-9.227372169494629
1780565219247769600,18.13576953125,2.4850590229034424,2.16989803314209,-9.228002548217773
1780565219267299300,18.15529931640625,2.4850590229034424,2.16989803314209,-9.228002548217773
1780565219286827500,18.17482763671875,2.4850590229034424,2.16989803314209,-9.228002548217773
1780565219306353200,18.194353271484374,2.4204280376434326,2.2358570098876953,-9.229434967041016
1780565219325876200,18.213876220703124,2.4204280376434326,2.2358570098876953,-9.229434967041016
1780565219345397200,18.233397216796874,2.334652900695801,2.3461239337921143,-9.224157333374023
1780565219364916700,18.252916748046875,2.29679799079895,2.4025840759277344,-9.219127655029297
1780565219384440800,18.27244091796875,2.26688289642334,2.4450740814208984,-9.215359687805176
1780565219403961900,18.2919619140625,2.26688289642334,2.4450740814208984,-9.215359687805176
1780565219423481300,18.3114814453125,2.2451651096343994,2.4962949752807617,-9.206939697265625
1780565219443001600,18.331001708984374,2.2451651096343994,2.4962949752807617,-9.206939697265625
1780565219462519600,18.35051953125,2.2500829696655273,2.5122270584106445,-9.201403617858887
1780565219482034700,18.37003466796875,2.2500829696655273,2.5122270584106445,-9.201403617858887
1780565219501541000,18.389541015625,2.256432056427002,2.5306689739227295,-9.194793701171875
1780565219521051000,18.40905078125,2.256432056427002,2.5306689739227295,-9.194793701171875
1780565219540564700,18.428564697265625,2.2484850883483887,2.5795769691467285,-9.183141708374023
1780565219560077300,18.448077392578124,2.2484850883483887,2.5795769691467285,-9.183141708374023
1780565219579590100,18.467590087890624,2.211293935775757,2.65020489692688,-9.172054290771484
1780565219599104000,18.48710400390625,2.211293935775757,2.65020489692688,-9.172054290771484
1780565219618621700,18.50662158203125,2.158452033996582,2.716012954711914,-9.165389060974121
1780565219638143000,18.52614306640625,2.158452033996582,2.716012954711914,-9.165389060974121
1780565219657660700,18.54566064453125,2.110327959060669,2.757812023162842,-9.164113998413086
1780565219677173200,18.56517333984375,2.110327959060669,2.757812023162842,-9.164113998413086
1780565219696689200,18.584689208984376,2.0848450660705566,2.7728230953216553,-9.165416717529297
1780565219716206600,18.60420654296875,2.0848450660705566,2.7728230953216553,-9.165416717529297
1780565219735722200,18.62372216796875,2.082050085067749,2.7697980403900146,-9.166966438293457
1780565219755237400,18.6432373046875,2.082050085067749,2.7697980403900146,-9.166966438293457
1780565219774748200,18.662748046875,2.086735963821411,2.754249095916748,-9.170585632324219
1780565219794257700,18.682257568359375,2.086735963821411,2.754249095916748,-9.170585632324219
1780565219813775000,18.701775146484376,2.0905680656433105,2.7195019721984863,-9.180079460144043
1780565219833297000,18.721296875,2.0905680656433105,2.7195019721984863,-9.180079460144043
1780565219852816000,18.74081591796875,2.0993731021881104,2.657835006713867,-9.196114540100098
1780565219872333000,18.7603330078125,2.0993731021881104,2.657835006713867,-9.196114540100098
1780565219891852500,18.7798525390625,2.1290900707244873,2.5882270336151123,-9.209129333496094
1780565219911369500,18.799369384765626,2.1290900707244873,2.5882270336151123,-9.209129333496094
1780565219930883000,18.818883056640626,2.143022060394287,2.5507330894470215,-9.21635627746582
1780565219950395400,18.8383955078125,2.143022060394287,2.5507330894470215,-9.21635627746582
1780565219969911800,18.857911865234374,2.1076109409332275,2.559818983078003,-9.222001075744629
1780565219989427700,18.877427734375,2.1076109409332275,2.559818983078003,-9.222001075744629
1780565220008940000,18.89693994140625,2.016880989074707,2.582545042037964,-9.235943794250488
1780565220028451300,18.916451416015626,2.016880989074707,2.582545042037964,-9.235943794250488
1780565220047959800,18.935959716796877,1.9414349794387817,2.570539951324463,-9.255438804626465
1780565220067470000,18.955469970703124,1.9414349794387817,2.570539951324463,-9.255438804626465
1780565220086978300,18.974978271484375,1.9297840595245361,2.5083260536193848,-9.274925231933594
1780565220106488000,18.994488037109374,1.9297840595245361,2.5083260536193848,-9.274925231933594
1780565220126001700,19.014001708984374,1.9297840595245361,2.5083260536193848,-9.274925231933594
1780565220145515000,19.033514892578125,1.9629429578781128,2.4280779361724854,-9.289310455322266
1780565220165028600,19.053028564453125,1.978005051612854,2.3929049968719482,-9.29524040222168
1780565220184543200,19.072543212890626,1.9867229461669922,2.364500045776367,-9.30064868927002
1780565220204058600,19.09205859375,1.9867229461669922,2.364500045776367,-9.30064868927002
1780565220223574500,19.111574462890626,1.9781789779663086,2.3309550285339355,-9.310932159423828
1780565220243086300,19.13108642578125,1.9781789779663086,2.3309550285339355,-9.310932159423828
1780565220262603300,19.150603271484375,1.9664210081100464,2.3068668842315674,-9.319417953491211
1780565220282123500,19.17012353515625,1.9664210081100464,2.3068668842315674,-9.319417953491211
1780565220301639700,19.1896396484375,1.979349970817566,2.280600070953369,-9.323144912719727
1780565220321154000,19.209154052734377,1.979349970817566,2.280600070953369,-9.323144912719727
1780565220340666000,19.228666015625,2.0119919776916504,2.26253604888916,-9.320558547973633
1780565220360177000,19.248177001953124,2.0119919776916504,2.26253604888916,-9.320558547973633
1780565220379690000,19.26768994140625,2.032151937484741,2.2769699096679688,-9.312666893005371
1780565220399204000,19.2872041015625,2.032151937484741,2.2769699096679688,-9.312666893005371
1780565220418720000,19.306719970703124,2.0092740058898926,2.3233959674835205,-9.306161880493164
1780565220438238700,19.32623876953125,2.0092740058898926,2.3233959674835205,-9.306161880493164
1780565220457757700,19.3457578125,1.977357029914856,2.3705930709838867,-9.301094055175781
1780565220477275100,19.365275146484375,1.977357029914856,2.3705930709838867,-9.301094055175781
1780565220496792300,19.384792236328124,1.9855879545211792,2.3815488815307617,-9.296540260314941
1780565220516309200,19.404309326171877,1.9855879545211792,2.3815488815307617,-9.296540260314941
1780565220535827700,19.42382763671875,2.03507399559021,2.3472819328308105,-9.294554710388184
1780565220555350000,19.44335009765625,2.03507399559021,2.3472819328308105,-9.294554710388184
1780565220574872600,19.46287255859375,2.0820329189300537,2.2966129779815674,-9.2968111038208
1780565220594393000,19.48239306640625,2.0820329189300537,2.2966129779815674,-9.2968111038208
1780565220613910500,19.50191064453125,2.079916000366211,2.271604061126709,-9.303427696228027
1780565220633431800,19.521431884765626,2.079916000366211,2.271604061126709,-9.303427696228027
1780565220652952000,19.5409521484375,2.0408360958099365,2.30088210105896,-9.304886817932129
1780565220672468200,19.56046826171875,2.0408360958099365,2.30088210105896,-9.304886817932129
1780565220691988700,19.57998876953125,1.9881720542907715,2.382559061050415,-9.295729637145996
1780565220711510800,19.5995107421875,1.9881720542907715,2.382559061050415,-9.295729637145996
1780565220731030300,19.6190302734375,1.9568730592727661,2.478153944015503,-9.277359962463379
1780565220750548000,19.6385478515625,1.9568730592727661,2.478153944015503,-9.277359962463379
1780565220770066400,19.65806640625,1.9571609497070312,2.5541200637817383,-9.256671905517578
1780565220789586700,19.677586669921876,1.9571609497070312,2.5541200637817383,-9.256671905517578
1780565220809104400,19.6971044921875,1.9565030336380005,2.6011130809783936,-9.243717193603516
1780565220828621600,19.71662158203125,1.9565030336380005,2.6011130809783936,-9.243717193603516
1780565220848142300,19.736142333984375,1.9073959589004517,2.6420059204101562,-9.242383003234863
1780565220867664100,19.7556640625,1.9073959589004517,2.6420059204101562,-9.242383003234863
1780565220887182600,19.7751826171875,1.8013780117034912,2.676422119140625,-9.253745079040527
1780565220906700300,19.7947001953125,1.8013780117034912,2.676422119140625,-9.253745079040527
1780565220926219500,19.814219482421876,1.728232979774475,2.659674882888794,-9.272503852844238
1780565220945738500,19.833738525390626,1.728232979774475,2.659674882888794,-9.272503852844238
1780565220965255400,19.85325537109375,1.7238810062408447,2.6208999156951904,-9.284347534179688
1780565220984773400,19.8727734375,1.755363941192627,2.479084014892578,-9.317340850830078
1780565221004288300,19.892288330078124,1.755363941192627,2.479084014892578,-9.317340850830078
1780565221023801600,19.911801513671875,1.755363941192627,2.479084014892578,-9.317340850830078
1780565221043314700,19.931314697265623,1.8021750450134277,2.256340980529785,-9.364886283874512
1780565221062833200,19.950833251953124,1.8021750450134277,2.256340980529785,-9.364886283874512
1780565221082356000,19.97035595703125,1.759261965751648,1.9524070024490356,-9.441032409667969
1780565221101875500,19.98987548828125,1.759261965751648,1.9524070024490356,-9.441032409667969
1780565221121393000,20.009392822265625,1.6707580089569092,1.5702459812164307,-9.528005599975586
1780565221140912000,20.028912109375,1.6707580089569092,1.5702459812164307,-9.528005599975586
1780565221160433000,20.048432861328124,1.5897680521011353,1.1434940099716187,-9.602347373962402
1780565221179959000,20.067958984375,1.5897680521011353,1.1434940099716187,-9.602347373962402
1780565221199481300,20.0874814453125,1.5340570211410522,0.6921659708023071,-9.65440845489502
1780565221218996700,20.106996826171876,1.5340570211410522,0.6921659708023071,-9.65440845489502
1780565221238517000,20.12651708984375,1.4833229780197144,0.20052599906921387,-9.685016632080078
1780565221258038500,20.14603857421875,1.4833229780197144,0.20052599906921387,-9.685016632080078
1780565221277560600,20.165560546875,1.4096930027008057,-0.36273500323295593,-9.69129467010498
1780565221297084200,20.185084228515624,1.4096930027008057,-0.36273500323295593,-9.69129467010498
1780565221316606700,20.204606689453126,1.3310860395431519,-0.999243974685669,-9.657625198364258
1780565221336130300,20.22413037109375,1.3310860395431519,-0.999243974685669,-9.657625198364258
1780565221355655700,20.24365576171875,1.2478790283203125,-1.6884009838104248,-9.572465896606445
1780565221375178000,20.263177978515625,1.2478790283203125,-1.6884009838104248,-9.572465896606445
1780565221394699000,20.282698974609374,1.168092966079712,-2.405733108520508,-9.428044319152832
1780565221414220300,20.30222021484375,1.168092966079712,-2.405733108520508,-9.428044319152832
1780565221433745000,20.321744873046875,1.1120320558547974,-3.1354451179504395,-9.218045234680176
1780565221453273300,20.3412734375,1.1120320558547974,-3.1354451179504395,-9.218045234680176
1780565221472797400,20.36079736328125,1.0830509662628174,-3.85884690284729,-8.942946434020996
1780565221492315600,20.380315673828125,1.0830509662628174,-3.85884690284729,-8.942946434020996
1780565221511835400,20.39983544921875,1.045606017112732,-4.5387091636657715,-8.62246036529541
1780565221531358200,20.419358154296877,1.045606017112732,-4.5387091636657715,-8.62246036529541
1780565221550883300,20.43888330078125,0.9216330051422119,-5.154348850250244,-8.283916473388672
1780565221570406700,20.45840673828125,0.9216330051422119,-5.154348850250244,-8.283916473388672
1780565221589926700,20.4779267578125,0.739084005355835,-5.7274627685546875,-7.917695045471191
1780565221609446400,20.4974462890625,0.739084005355835,-5.7274627685546875,-7.917695045471191
1780565221628970000,20.516969970703126,0.5763710141181946,-6.266125202178955,-7.512887001037598
1780565221648492500,20.536492431640625,0.5763710141181946,-6.266125202178955,-7.512887001037598
1780565221668012500,20.556012451171874,0.5763710141181946,-6.266125202178955,-7.512887001037598
1780565221687529500,20.575529541015626,0.47663700580596924,-6.786052227020264,-7.054241180419922
1780565221707046100,20.595046142578123,0.3679090142250061,-7.281182765960693,-6.5489702224731445
1780565221726566000,20.61456591796875,0.3679090142250061,-7.281182765960693,-6.5489702224731445
1780565221746086400,20.63408642578125,0.23637500405311584,-7.758893013000488,-5.981947898864746
1780565221765603600,20.653603515625,0.23637500405311584,-7.758893013000488,-5.981947898864746
1780565221785118700,20.67311865234375,0.19661499559879303,-7.984571933746338,-5.678728103637695
1780565221804633600,20.692633544921875,0.19661499559879303,-7.984571933746338,-5.678728103637695
1780565221824155000,20.71215478515625,0.22449299693107605,-8.394490242004395,-5.051943778991699
1780565221843678200,20.73167822265625,0.22449299693107605,-8.394490242004395,-5.051943778991699
1780565221863198000,20.751197998046877,0.37878599762916565,-8.734731674194336,-4.427299976348877
1780565221882720300,20.77072021484375,0.37878599762916565,-8.734731674194336,-4.427299976348877
1780565221902242600,20.79024267578125,0.5462239980697632,-8.978639602661133,-3.889172077178955
1780565221921759200,20.80975927734375,0.5462239980697632,-8.978639602661133,-3.889172077178955
1780565221941276700,20.829276611328126,0.6783350110054016,-9.117058753967285,-3.529745101928711
1780565221960798700,20.848798828125,0.6783350110054016,-9.117058753967285,-3.529745101928711
1780565221980317000,20.86831689453125,0.7971320152282715,-9.164215087890625,-3.3796069622039795
1780565221999831300,20.887831298828125,0.7971320152282715,-9.164215087890625,-3.3796069622039795
1780565222019346000,20.907345947265625,0.9264870285987854,-9.130744934082031,-3.436729907989502
1780565222038861800,20.92686181640625,0.9264870285987854,-9.130744934082031,-3.436729907989502
1780565222058379800,20.9463798828125,1.0453799962997437,-9.013224601745605,-3.7025630474090576
1780565222077900800,20.96590087890625,1.0453799962997437,-9.013224601745605,-3.7025630474090576
1780565222097424000,20.985423828125,1.154386043548584,-8.78958511352539,-4.177391052246094
1780565222116946000,21.00494580078125,1.154386043548584,-8.78958511352539,-4.177391052246094
1780565222136467500,21.024467529296874,1.2832859754562378,-8.443724632263184,-4.80590295791626
1780565222155990500,21.043990478515624,1.2832859754562378,-8.443724632263184,-4.80590295791626
1780565222175514400,21.063514404296875,1.4377429485321045,-7.979360103607178,-5.50478982925415
1780565222195037400,21.083037353515625,1.4377429485321045,-7.979360103607178,-5.50478982925415
1780565222214558700,21.102558837890626,1.5798530578613281,-7.4114990234375,-6.213995933532715
1780565222234079000,21.122078857421876,1.5798530578613281,-7.4114990234375,-6.213995933532715
1780565222253599500,21.141599609375,1.6786110401153564,-6.771564960479736,-6.882452964782715
1780565222273117700,21.16111767578125,1.6786110401153564,-6.771564960479736,-6.882452964782715
1780565222292636200,21.18063623046875,1.7837189435958862,-6.070821762084961,-7.483545780181885
1780565222312157200,21.2001572265625,1.7837189435958862,-6.070821762084961,-7.483545780181885
1780565222331680300,21.21968017578125,1.9153820276260376,-5.309357166290283,-8.011368751525879
1780565222351204000,21.2392041015625,1.9153820276260376,-5.309357166290283,-8.011368751525879
1780565222370725000,21.25872509765625,2.050657033920288,-4.4826340675354,-8.469993591308594
1780565222390247400,21.278247314453125,2.050657033920288,-4.4826340675354,-8.469993591308594
1780565222409768200,21.297768310546875,2.123629093170166,-3.626116991043091,-8.853330612182617
1780565222429284600,21.31728466796875,2.123629093170166,-3.626116991043091,-8.853330612182617
1780565222448800300,21.33680029296875,2.144771099090576,-2.821743965148926,-9.136614799499512
1780565222468315100,21.356315185546876,2.144771099090576,-2.821743965148926,-9.136614799499512
1780565222487830000,21.375830078125,2.144771099090576,-2.821743965148926,-9.136614799499512
1780565222507347700,21.39534765625,2.162062883377075,-2.124898910522461,-9.319350242614746
1780565222526867700,21.41486767578125,2.162062883377075,-2.124898910522461,-9.319350242614746
1780565222546387200,21.43438720703125,2.1596200466156006,-1.5074909925460815,-9.43946647644043
1780565222565904000,21.45390380859375,2.1596200466156006,-1.5074909925460815,-9.43946647644043
1780565222585421300,21.47342138671875,2.1506359577178955,-0.9139540195465088,-9.517322540283203
1780565222604941800,21.49294189453125,2.1506359577178955,-0.9139540195465088,-9.517322540283203
1780565222624461600,21.512461669921876,2.161191940307617,-0.3263680040836334,-9.553153038024902
1780565222643978500,21.531978515625,2.161191940307617,-0.3263680040836334,-9.553153038024902
1780565222663495400,21.551495361328126,2.241403102874756,0.23242700099945068,-9.537405014038086
1780565222683013400,21.571013427734375,2.241403102874756,0.23242700099945068,-9.537405014038086
1780565222702532000,21.590531982421876,2.35385799407959,0.7354750037193298,-9.484642028808594
1780565222722050000,21.610050048828125,2.35385799407959,0.7354750037193298,-9.484642028808594
1780565222741561900,21.629561767578124,2.439768075942993,1.134902000427246,-9.42335033416748
1780565222761075700,21.64907568359375,2.439768075942993,1.134902000427246,-9.42335033416748
1780565222780596000,21.668595947265626,2.4792380332946777,1.436372995376587,-9.371776580810547
1780565222800115500,21.688115478515623,2.4792380332946777,1.436372995376587,-9.371776580810547
1780565222819631600,21.707631591796876,2.5060229301452637,1.624822974205017,-9.333799362182617
1780565222839145700,21.727145751953124,2.5060229301452637,1.624822974205017,-9.333799362182617
1780565222858668800,21.746668701171874,2.549772024154663,1.7241929769515991,-9.304075241088867
1780565222878192000,21.766192138671876,2.549772024154663,1.7241929769515991,-9.304075241088867
1780565222897715200,21.785715087890626,2.604430913925171,1.7410269975662231,-9.285782814025879
1780565222917240000,21.805239990234377,2.604430913925171,1.7410269975662231,-9.285782814025879
1780565222936761600,21.82476171875,2.6290299892425537,1.712438941001892,-9.284167289733887
1780565222956279800,21.84427978515625,2.6290299892425537,1.712438941001892,-9.284167289733887
1780565222975796000,21.8637958984375,2.596613883972168,1.6790390014648438,-9.29937744140625
1780565222995316700,21.883316650390626,2.596613883972168,1.6790390014648438,-9.29937744140625
1780565223014838800,21.9028388671875,2.500006914138794,1.65379798412323,-9.330322265625
1780565223034359000,21.922359130859373,2.500006914138794,1.65379798412323,-9.330322265625
1780565223053880300,21.94188037109375,2.3672258853912354,1.632138967514038,-9.368691444396973
1780565223073404200,21.961404052734373,2.3672258853912354,1.632138967514038,-9.368691444396973
1780565223092931600,21.980931640625,2.2596800327301025,1.6097500324249268,-9.39907169342041
1780565223112455400,22.000455322265626,2.2596800327301025,1.6097500324249268,-9.39907169342041
1780565223131973400,22.019973388671875,2.232551097869873,1.621533989906311,-9.40352725982666
1780565223151494100,22.039494140625,2.232551097869873,1.621533989906311,-9.40352725982666
1780565223171015000,22.059014892578126,2.226891040802002,1.6935750246047974,-9.392165184020996
1780565223190536200,22.0785361328125,2.226891040802002,1.6935750246047974,-9.392165184020996
1780565223210057500,22.098057373046874,2.172529935836792,1.8138879537582397,-9.382426261901855
1780565223229575200,22.1175751953125,2.172529935836792,1.8138879537582397,-9.382426261901855
1780565223249093000,22.137093017578124,2.0685501098632812,1.9320789575576782,-9.382332801818848
1780565223268618000,22.156617919921874,2.0685501098632812,1.9320789575576782,-9.382332801818848
1780565223288143400,22.176143310546873,2.0219130516052246,2.0139029026031494,-9.375289916992188
1780565223307663000,22.1956630859375,2.0219130516052246,2.0139029026031494,-9.375289916992188
1780565223327182800,22.215182861328124,2.0786030292510986,2.0664279460906982,-9.351432800292969
1780565223346707200,22.234707275390626,2.0786030292510986,2.0664279460906982,-9.351432800292969
1780565223366233900,22.25423388671875,2.181309938430786,2.1186161041259766,-9.31629467010498
1780565223385762300,22.27376220703125,2.181309938430786,2.1186161041259766,-9.31629467010498
1780565223405286400,22.293286376953127,2.181309938430786,2.1186161041259766,-9.31629467010498
1780565223424807200,22.31280712890625,2.2596869468688965,2.188994884490967,-9.281277656555176
1780565223444329500,22.33232958984375,2.281653881072998,2.227876901626587,-9.266640663146973
1780565223463847000,22.351846923828123,2.281653881072998,2.227876901626587,-9.266640663146973
1780565223483364600,22.371364501953124,2.3035380840301514,2.296536922454834,-9.244437217712402
1780565223502889700,22.3908896484375,2.3035380840301514,2.296536922454834,-9.244437217712402
1780565223522412500,22.41041259765625,2.331752061843872,2.3354170322418213,-9.227608680725098
1780565223541934800,22.429934814453127,2.331752061843872,2.3354170322418213,-9.227608680725098
1780565223561459000,22.449458984375,2.392038106918335,2.3371479511260986,-9.211725234985352
1780565223580978700,22.468978759765626,2.392038106918335,2.3371479511260986,-9.211725234985352
1780565223600496000,22.48849609375,2.4831221103668213,2.3170878887176514,-9.192670822143555
1780565223620015900,22.508015869140625,2.4831221103668213,2.3170878887176514,-9.192670822143555
1780565223639536000,22.5275361328125,2.585508108139038,2.29524302482605,-9.169896125793457
1780565223659052000,22.547052001953126,2.585508108139038,2.29524302482605,-9.169896125793457
1780565223678571500,22.566571533203124,2.6678359508514404,2.2771201133728027,-9.150813102722168
1780565223698090000,22.586090087890625,2.6678359508514404,2.2771201133728027,-9.150813102722168
1780565223717604900,22.60560498046875,2.7116689682006836,2.2502219676971436,-9.144579887390137
1780565223737123600,22.62512353515625,2.7116689682006836,2.2502219676971436,-9.144579887390137
1780565223756646100,22.644646240234376,2.7316060066223145,2.194195032119751,-9.15225887298584
1780565223776165000,22.6641650390625,2.7316060066223145,2.194195032119751,-9.15225887298584
1780565223795677400,22.683677490234373,2.777880907058716,2.1106300354003906,-9.157980918884277
1780565223815185400,22.703185302734376,2.777880907058716,2.1106300354003906,-9.157980918884277
1780565223834695000,22.72269482421875,2.862499952316284,2.0220470428466797,-9.151907920837402
1780565223854207000,22.74220703125,2.862499952316284,2.0220470428466797,-9.151907920837402
1780565223873717800,22.7617177734375,2.9396440982818604,1.9407260417938232,-9.145057678222656
1780565223893232400,22.781232421875,2.9396440982818604,1.9407260417938232,-9.145057678222656
1780565223912750800,22.800750732421875,2.9800069332122803,1.8540669679641724,-9.149971961975098
1780565223932265000,22.820264892578123,2.9800069332122803,1.8540669679641724,-9.149971961975098
1780565223951779000,22.839779052734375,3.014430046081543,1.7403600215911865,-9.16102409362793
1780565223971297500,22.859297607421876,3.014430046081543,1.7403600215911865,-9.16102409362793
1780565223990815700,22.878815673828125,3.0890369415283203,1.5935620069503784,-9.162881851196289
1780565224010330000,22.898330078125,3.0890369415283203,1.5935620069503784,-9.162881851196289
1780565224029845200,22.91784521484375,3.1917500495910645,1.4340219497680664,-9.154031753540039
1780565224049361700,22.937361572265626,3.1917500495910645,1.4340219497680664,-9.154031753540039
1780565224068874800,22.956874755859374,3.2874538898468018,1.2935010194778442,-9.141087532043457
1780565224088387600,22.9763876953125,3.2874538898468018,1.2935010194778442,-9.141087532043457
1780565224107904500,22.995904541015626,3.356297016143799,1.1829990148544312,-9.131033897399902
1780565224127422200,23.015422119140624,3.356297016143799,1.1829990148544312,-9.131033897399902
1780565224146938400,23.0349384765625,3.407421112060547,1.0948179960250854,-9.12309455871582
1780565224166454800,23.054454833984376,3.407421112060547,1.0948179960250854,-9.12309455871582
1780565224185973800,23.073973876953126,3.4512441158294678,1.0141570568084717,-9.115942001342773
1780565224205492500,23.093492431640627,3.4512441158294678,1.0141570568084717,-9.115942001342773
1780565224225007000,23.113007080078123,3.47189998626709,0.9789450168609619,-9.111947059631348
1780565224244521200,23.132521240234375,3.491252899169922,0.9504520297050476,-9.10756778717041
1780565224264039200,23.1520390625,3.491252899169922,0.9504520297050476,-9.10756778717041
1780565224283557400,23.171557373046873,3.5135018825531006,0.92078697681427,-9.102057456970215
1780565224303078400,23.191078369140627,3.5135018825531006,0.92078697681427,-9.102057456970215
1780565224322599400,23.210599365234376,3.499629020690918,0.9240400195121765,-9.107070922851562
1780565224342116900,23.230116943359373,3.499629020690918,0.9240400195121765,-9.107070922851562
1780565224361633000,23.249633056640626,3.4451780319213867,0.9475989937782288,-9.125393867492676
1780565224381148000,23.26914794921875,3.4451780319213867,0.9475989937782288,-9.125393867492676
1780565224400660000,23.288659912109374,3.3547539710998535,0.9834619760513306,-9.155240058898926
1780565224420176400,23.30817626953125,3.3547539710998535,0.9834619760513306,-9.155240058898926
1780565224439695600,23.327695556640624,3.2216029167175293,1.0329300165176392,-9.197517395019531
1780565224459216100,23.347216064453125,3.2216029167175293,1.0329300165176392,-9.197517395019531
1780565224478737400,23.3667373046875,3.040947914123535,1.0867350101470947,-9.252655029296875
1780565224498254000,23.386254150390624,3.040947914123535,1.0867350101470947,-9.252655029296875
1780565224517774000,23.405774169921877,2.8240199089050293,1.1205910444259644,-9.317145347595215
1780565224537298700,23.425298583984375,2.8240199089050293,1.1205910444259644,-9.317145347595215
1780565224556820700,23.44482080078125,2.589081048965454,1.0903899669647217,-9.388701438903809
1780565224576344300,23.46434423828125,2.589081048965454,1.0903899669647217,-9.388701438903809
1780565224595869200,23.483869140625,2.3561439514160156,0.9562960267066956,-9.464359283447266
1780565224615391000,23.503390869140624,2.3561439514160156,0.9562960267066956,-9.464359283447266
1780565224634914800,23.522914794921874,2.1550040245056152,0.6892979741096497,-9.535242080688477
1780565224654438400,23.5424384765625,2.1550040245056152,0.6892979741096497,-9.535242080688477
1780565224673962000,23.5619619140625,2.001636028289795,0.28661999106407166,-9.58912467956543
1780565224693480700,23.581480712890624,2.001636028289795,0.28661999106407166,-9.58912467956543
1780565224712996900,23.600996826171876,1.8808660507202148,-0.22778600454330444,-9.615116119384766
1780565224732517400,23.620517333984374,1.8808660507202148,-0.22778600454330444,-9.615116119384766
1780565224752038100,23.6400380859375,1.7628220319747925,-0.8239610195159912,-9.604870796203613
1780565224771553000,23.659552978515624,1.7628220319747925,-0.8239610195159912,-9.604870796203613
1780565224791066000,23.679066162109375,1.6328630447387695,-1.4762200117111206,-9.549583435058594
1780565224810580700,23.698580810546876,1.6328630447387695,-1.4762200117111206,-9.549583435058594
1780565224830095000,23.71809521484375,1.478417992591858,-2.184079885482788,-9.438437461853027
1780565224849613000,23.737613037109377,1.478417992591858,-2.184079885482788,-9.438437461853027
1780565224869128400,23.75712841796875,1.303022027015686,-2.943696975708008,-9.256174087524414
1780565224888642600,23.776642578125,1.303022027015686,-2.943696975708008,-9.256174087524414
1780565224908157400,23.796157470703125,1.1613869667053223,-3.6996591091156006,-9.000205039978027
1780565224927673000,23.815673095703126,1.1613869667053223,-3.6996591091156006,-9.000205039978027
1780565224947188000,23.83518798828125,1.0875309705734253,-4.416341781616211,-8.680622100830078
1780565224966702600,23.85470263671875,1.0875309705734253,-4.416341781616211,-8.680622100830078
1780565224986221300,23.87422119140625,1.068153977394104,-5.090834140777588,-8.305566787719727
1780565225005738800,23.89373876953125,1.068153977394104,-5.090834140777588,-8.305566787719727
1780565225025256700,23.913256591796873,1.061805009841919,-5.421706199645996,-8.094297409057617
1780565225044772400,23.9327724609375,1.061805009841919,-5.421706199645996,-8.094297409057617
1780565225064284000,23.952283935546873,1.0326670408248901,-6.076059818267822,-7.619388103485107
1780565225083792400,23.97179248046875,1.0326670408248901,-6.076059818267822,-7.619388103485107
1780565225103306000,23.991305908203124,0.9157260060310364,-6.723871231079102,-7.070431232452393
1780565225122822400,24.010822509765624,0.9157260060310364,-6.723871231079102,-7.070431232452393
1780565225142334200,24.030334228515624,0.6775640249252319,-7.359242916107178,-6.4360270500183105
1780565225161841200,24.049841064453126,0.6775640249252319,-7.359242916107178,-6.4360270500183105
1780565225181348400,24.069348388671877,0.3675839900970459,-7.972737789154053,-5.686854839324951
1780565225200860000,24.08885986328125,0.3675839900970459,-7.972737789154053,-5.686854839324951
1780565225220371700,24.108371826171876,0.1152380034327507,-8.535773277282715,-4.813240051269531
1780565225239883800,24.1278837890625,0.1152380034327507,-8.535773277282715,-4.813240051269531
1780565225259396600,24.147396728515623,-0.019395999610424042,-9.011080741882324,-3.852276086807251
1780565225278912300,24.166912353515624,-0.019395999610424042,-9.011080741882324,-3.852276086807251
1780565225298429200,24.18642919921875,-0.09637299925088882,-9.360268592834473,-2.901050090789795
1780565225317944600,24.205944580078125,-0.09637299925088882,-9.360268592834473,-2.901050090789795
1780565225337458000,24.2254580078125,-0.17893600463867188,-9.578819274902344,-2.062570095062256
1780565225356970200,24.24497021484375,-0.17893600463867188,-9.578819274902344,-2.062570095062256
1780565225376484400,24.264484375,-0.25304898619651794,-9.694352149963379,-1.4126219749450684
1780565225395998700,24.283998779296876,-0.25304898619651794,-9.694352149963379,-1.4126219749450684
1780565225415511800,24.30351171875,-0.27031999826431274,-9.743964195251465,-1.0109790563583374
1780565225435027000,24.32302685546875,-0.27031999826431274,-9.743964195251465,-1.0109790563583374
1780565225454544000,24.3425439453125,-0.23150299489498138,-9.754738807678223,-0.911857008934021
1780565225474061600,24.3620615234375,-0.23150299489498138,-9.754738807678223,-0.911857008934021
1780565225493580500,24.38158056640625,-0.18016399443149567,-9.72916030883789,-1.1623140573501587
1780565225513098000,24.401097900390624,-0.18016399443149567,-9.72916030883789,-1.1623140573501587
1780565225532614400,24.420614501953125,-0.1558160036802292,-9.644713401794434,-1.730672001838684
1780565225552130300,24.44013037109375,-0.1558160036802292,-9.644713401794434,-1.730672001838684
1780565225571644700,24.459644775390625,-0.13179899752140045,-9.470080375671387,-2.5179789066314697
1780565225591162000,24.479162109375,-0.13179899752140045,-9.470080375671387,-2.5179789066314697
1780565225610684200,24.49868408203125,-0.08494699746370316,-9.178996086120605,-3.43202805519104
1780565225630204200,24.5182041015625,-0.08494699746370316,-9.178996086120605,-3.43202805519104
1780565225649724400,24.537724365234375,-0.01806800067424774,-8.759242057800293,-4.394924163818359
1780565225669249300,24.557249267578126,-0.01806800067424774,-8.759242057800293,-4.394924163818359
1780565225688771300,24.576771240234375,0.12471800297498703,-8.209943771362305,-5.349883079528809
1780565225708287200,24.596287353515624,0.12471800297498703,-8.209943771362305,-5.349883079528809
1780565225727804400,24.615804443359377,0.37614598870277405,-7.556159973144531,-6.229200839996338
1780565225747324400,24.635324462890626,0.37614598870277405,-7.556159973144531,-6.229200839996338
1780565225766849800,24.654849853515625,0.6726189851760864,-6.811466217041016,-7.013666152954102
1780565225786376400,24.67437646484375,0.6726189851760864,-6.811466217041016,-7.013666152954102
1780565225805902600,24.693902587890626,0.7908689975738525,-6.410813808441162,-7.369937896728516
1780565225825430000,24.713429931640626,0.8784670233726501,-5.995112895965576,-7.702395915985107
1780565225844956200,24.7329560546875,0.8784670233726501,-5.995112895965576,-7.702395915985107
1780565225864485000,24.752485107421876,0.9508140087127686,-5.135072231292725,-8.292585372924805
1780565225884014300,24.772014404296876,0.9508140087127686,-5.135072231292725,-8.292585372924805
1780565225903545600,24.791545654296876,0.9709579944610596,-4.29013204574585,-8.757397651672363
1780565225923077000,24.8110771484375,0.9709579944610596,-4.29013204574585,-8.757397651672363
1780565225942604300,24.830604248046875,1.021399974822998,-3.508291006088257,-9.093329429626465
1780565225962125000,24.850125,1.021399974822998,-3.508291006088257,-9.093329429626465
1780565225981644500,24.86964453125,1.1052329540252686,-2.7930779457092285,-9.328300476074219
1780565226001165000,24.8891650390625,1.1052329540252686,-2.7930779457092285,-9.328300476074219
1780565226020683500,24.90868359375,1.189808964729309,-2.125746011734009,-9.49239444732666
1780565226040205300,24.928205322265626,1.189808964729309,-2.125746011734009,-9.49239444732666
1780565226059727600,24.9477275390625,1.297855019569397,-1.4924800395965576,-9.598336219787598
1780565226079251500,24.96725146484375,1.297855019569397,-1.4924800395965576,-9.598336219787598
1780565226098780000,24.98677978515625,1.485582947731018,-0.9002000093460083,-9.644826889038086
1780565226118305800,25.006305908203124,1.485582947731018,-0.9002000093460083,-9.644826889038086
1780565226137828400,25.025828369140626,1.719385027885437,-0.36326199769973755,-9.641148567199707
1780565226157350700,25.0453505859375,1.719385027885437,-0.36326199769973755,-9.641148567199707
1780565226176879400,25.06487939453125,1.9170299768447876,0.11143799871206284,-9.610024452209473
1780565226196414500,25.08441455078125,1.9170299768447876,0.11143799871206284,-9.610024452209473
1780565226215947500,25.103947509765625,2.0227479934692383,0.5169410109519958,-9.575033187866211
1780565226235476700,25.123476806640625,2.0227479934692383,0.5169410109519958,-9.575033187866211
1780565226255004200,25.143004150390624,2.0850229263305664,0.845255970954895,-9.538249969482422
1780565226274532400,25.162532470703123,2.0850229263305664,0.845255970954895,-9.538249969482422
1780565226294062600,25.1820625,2.1633620262145996,1.0739530324935913,-9.497709274291992
1780565226313594600,25.2015947265625,2.1633620262145996,1.0739530324935913,-9.497709274291992
1780565226333124000,25.2211240234375,2.2742960453033447,1.2016079425811768,-9.456411361694336
1780565226352655400,25.2406552734375,2.2742960453033447,1.2016079425811768,-9.456411361694336
1780565226372187100,25.260187255859375,2.4013400077819824,1.252140998840332,-9.418371200561523
1780565226391714600,25.279714599609374,2.4013400077819824,1.252140998840332,-9.418371200561523
1780565226411241000,25.299240966796877,2.5202600955963135,1.2752059698104858,-9.384142875671387
1780565226430771000,25.31877099609375,2.5202600955963135,1.2752059698104858,-9.384142875671387
