time,seconds_elapsed,z,y,x
1781030529690228000,3.55322802734375,0.5871250033378601,-1.0262999534606934,-1.0158499479293823
1781030529709756000,3.572755859375,0.9429749846458436,-1.8433250188827517,-1.5399999618530271
1781030529729279200,3.592279296875,0.9429749846458436,-1.8433250188827517,-1.5399999618530271
1781030529748803000,3.611802978515625,0.9429749846458436,-1.8433250188827517,-1.5399999618530271
1781030529768335000,3.631335205078125,2.8869500160217285,-4.603775024414063,-3.0120749473571777
1781030529787869000,3.650868896484375,2.8869500160217285,-4.603775024414063,-3.0120749473571777
1781030529807404000,3.670404052734375,5.862174987792969,-7.73726224899292,-3.799949884414673
1781030529826940700,3.689940673828125,6.519700050354004,-8.524724960327148,-3.571424961090088
1781030529846470700,3.709470703125,6.23493766784668,-8.36921215057373,-3.0614373683929443
1781030529865997600,3.72899755859375,5.338712692260742,-7.495537281036377,-2.4968624114990234
1781030529885525800,3.74852587890625,4.337025165557861,-6.545000076293945,-2.0179500579833984
1781030529905058600,3.76805859375,3.2364749908447266,-5.006374835968018,-1.6258000135421753
1781030529924593400,3.787593505859375,2.309725046157837,-3.537874937057495,-1.3144999742507937
1781030529944125200,3.807125244140625,1.5636500120162964,-2.2376749515533447,-1.0520124435424805
1781030529963655200,3.8266552734375,0.9791374802589417,-1.1592625379562378,-0.8208749890327454
1781030529983183600,3.84618359375,0.5387250185012817,-0.3332999944686889,-0.619575023651123
1781030530002713300,3.86571337890625,0.2271499931812286,0.2360875010490417,-0.4526500105857849
1781030530022244400,3.885244384765625,0.034375000745058,0.5556374788284302,-0.3202374875545501
1781030530041772800,3.904772705078125,-0.056512501090765,0.6381375193595886,-0.2161500006914138
1781030530061301500,3.924301513671875,-0.0860750004649162,0.5370749831199646,-0.1342000067234039
1781030530080829700,3.94382958984375,-0.0941874980926513,0.3282124996185303,-0.0723249986767768
1781030530100360200,3.963360107421875,-0.0935000032186508,0.073012501001358,-0.0328624993562698
1781030530119890000,3.982889892578125,-0.0809874981641769,-0.1857624948024749,-0.017187500372529
1781030530139419100,4.002419189453125,-0.0562375001609325,-0.4155249893665313,-0.0230999998748302
1781030530158948600,4.021948486328125,-0.015812499448657,-0.6080250144004822,-0.0453750006854534
1781030530178474000,4.041473876953125,0.0483999997377395,-0.7822374701499939,-0.0780999958515167
1781030530198002700,4.061002685546875,0.1307625025510788,-0.9498500227928162,-0.1138499975204467
1781030530217531100,4.08053125,0.2000624984502792,-1.0879000425338743,-0.1328250020742416
1781030530237056800,4.100056884765625,0.2299000024795532,-1.1611875295639038,-0.1093124970793724
1781030530256584200,4.119584228515625,0.2381500005722046,-1.1639374494552612,-0.039462499320507
1781030530276108800,4.13910888671875,0.2799499928951263,-1.1283249855041504,0.0519750006496906
1781030530295629000,4.158629150390625,0.3946250081062317,-1.085837483406067,0.1284250020980835
1781030530315148500,4.1781484375,0.5641624927520752,-1.0326249599456787,0.171324998140335
1781030530334671000,4.197671142578125,0.737137496471405,-0.911899983882904,0.1809500008821487
1781030530354190600,4.217190673828125,0.8520874977111816,-0.6070625185966492,0.1655499935150146
1781030530373709800,4.236709716796875,0.8009374737739563,0.0526624992489814,0.1388749927282333
1781030530393232000,4.25623193359375,0.3330250084400177,1.2992374897003174,0.1314499974250793
1781030530412759800,4.275759765625,-1.1790624856948853,3.674000024795532,0.2531374990940094
1781030530432289500,4.29528955078125,-4.849625110626221,7.915462493896484,0.8637750148773193
1781030530451816700,4.314816650390625,-9.374062538146973,12.787224769592283,2.147475004196167
1781030530471345200,4.33434521484375,-10.829362869262695,14.551762580871582,3.271399974822998
1781030530490873600,4.35387353515625,-8.929800033569336,13.07295036315918,3.611437559127808
1781030530510394000,4.37339404296875,-6.246487617492676,10.786737442016602,3.5000624656677246
1781030530529913600,4.39291357421875,-6.246487617492676,10.786737442016602,3.5000624656677246
1781030530549439700,4.412439697265625,-2.182812452316284,7.042337417602539,2.873199939727783
1781030530568966700,4.431966552734375,-2.182812452316284,7.042337417602539,2.873199939727783
1781030530588489500,4.451489501953125,-2.182812452316284,7.042337417602539,2.873199939727783
1781030530608012500,4.471012451171875,-0.2441999912261963,4.497349739074707,2.0378875732421875
1781030530627535000,4.49053515625,0.1619749963283538,3.2934000492095947,1.562274932861328
1781030530647054000,4.51005419921875,0.3499374985694885,2.2428998947143555,1.0994499921798706
1781030530666576100,4.529576171875,0.4089249968528747,1.382699966430664,0.6920375227928162
1781030530686100000,4.549099853515625,0.3909125030040741,0.7376874685287476,0.3653374910354614
1781030530705621000,4.56862109375,0.3295874893665313,0.2604250013828277,0.0952875018119812
1781030530725143800,4.588143798828125,0.2648249864578247,-0.171875,-0.1815000027418136
1781030530744670700,4.607670654296875,0.2389750033617019,-0.6721000075340271,-0.5182374715805054
1781030530764199000,4.627198974609375,0.2681249976158142,-1.297587513923645,-0.9417374730110168
1781030530783725600,4.6467255859375,0.3638249933719635,-2.0732250213623047,-1.4737249612808228
1781030530803254300,4.666254150390625,0.6535375118255615,-3.0677623748779297,-2.148162603378296
1781030530822783200,4.685783203125,1.467674970626831,-4.476174831390381,-2.9899375438690186
1781030530842315300,4.705315185546875,3.292025089263916,-6.705325126647949,-3.944462537765503
1781030530861849600,4.724849609375,5.914975166320801,-9.069087028503418,-4.558674812316895
1781030530881376000,4.7443759765625,7.956299781799316,-11.220412254333496,-4.529524803161621
1781030530900898300,4.763898193359375,8.00772476196289,-11.520025253295898,-3.7816624641418457
1781030530920424000,4.783423828125,6.57346248626709,-10.206350326538086,-2.8062374591827397
1781030530939954400,4.802954345703125,4.782249927520752,-8.253987312316895,-1.9640499353408811
1781030530959483400,4.8224833984375,3.237987518310547,-6.516262531280518,-1.3554749488830566
1781030530979013600,4.842013671875,2.002549886703491,-4.459812641143799,-0.9513624906539916
1781030530998546200,4.861546142578125,1.1914374828338623,-2.839099884033203,-0.7015249729156494
1781030531018076200,4.881076171875,0.7217375040054321,-1.6572874784469604,-0.5516499876976013
1781030531037602000,4.90060205078125,0.4729999899864197,-0.8342124819755554,-0.4600749909877777
1781030531057126000,4.9201259765625,0.347599983215332,-0.271699994802475,-0.3976500034332275
1781030531076646700,4.939646728515625,0.2985124886035919,0.0805749967694282,-0.3500750064849853
1781030531096168400,4.95916845703125,0.2847625017166137,0.2601499855518341,-0.3062124848365783
1781030531115695400,4.9786953125,0.2517625093460083,0.3284874856472015,-0.2517625093460083
1781030531135221500,4.998221435546875,0.1744875013828277,0.3323374986648559,-0.1797125041484832
1781030531154745900,5.017745849609375,0.0712250024080276,0.2868250012397766,-0.0985874980688095
1781030531174271500,5.037271484375,-0.0224124994128942,0.1904374957084655,-0.0292875003069639
1781030531193794000,5.0567939453125,-0.073974996805191,0.0349249988794326,0.0092124994844198
1781030531213315000,5.076315185546875,-0.0646250024437904,-0.1806749999523162,0.0130624994635581
1781030531232839400,5.09583935546875,-0.007012499962002,-0.4243249893188476,-0.0016499999910593
1781030531252368000,5.115367919921875,0.0449624992907047,-0.6249374747276306,-0.002199999988079
1781030531271894300,5.134894287109375,0.054587498307228,-0.7346624732017517,0.0261249989271163
1781030531291420700,5.154420654296875,0.0599500015377998,-0.7840250134468079,0.0593999996781349
1781030531310945300,5.1739453125,0.1421750038862228,-0.8412249684333801,0.0671000033617019
1781030531330465500,5.193465576171875,0.3388000130653381,-0.9131374955177308,0.0417999997735023
1781030531349986300,5.212986328125,0.6048625111579895,-0.9333499670028688,0.0027499999850988
1781030531369499600,5.232499755859375,0.6048625111579895,-0.9333499670028688,0.0027499999850988
1781030531389012500,5.252012451171875,0.6048625111579895,-0.9333499670028688,0.0027499999850988
1781030531408528600,5.271528564453125,1.0894124507904053,-0.5182374715805054,-0.0835999995470047
1781030531428048600,5.291048583984375,1.0894124507904053,-0.5182374715805054,-0.0835999995470047
1781030531447573500,5.310573486328125,-0.2938374876976013,2.6860625743865967,-0.0780999958515167
1781030531467095600,5.330095458984375,-6.358824729919434,9.709012031555176,0.9402250051498412
1781030531486621700,5.34962158203125,-12.325362205505373,16.316713333129883,2.657599925994873
1781030531506146300,5.369146240234375,-11.740574836730955,16.157625198364258,3.4974498748779297
1781030531525668600,5.388668701171875,-8.266087532043457,13.062911987304688,3.416325092315674
1781030531545191400,5.40819140625,-5.094237327575684,10.194662094116213,3.1598875522613525
1781030531564713200,5.427713134765625,-2.696512460708618,8.023537635803223,2.926412582397461
1781030531584237600,5.447237548828125,-1.060675024986267,6.519424915313721,2.7455999851226807
1781030531603759000,5.466759033203125,-0.0214499998837709,5.682737350463867,2.603012561798096
1781030531623280400,5.4862802734375,0.6106374859809875,4.792012691497803,2.3919498920440674
1781030531642803500,5.505803466796875,0.9454500079154968,3.97237491607666,2.0864250659942627
1781030531662329600,5.52532958984375,1.031112551689148,3.126612424850464,1.6733750104904177
1781030531681857500,5.544857421875,0.9131374955177308,2.246887445449829,1.1857999563217163
1781030531701380400,5.56438037109375,0.6478999853134155,1.4009875059127808,0.684612512588501
1781030531720902400,5.58390234375,0.3156999945640564,0.6668750047683716,0.221512496471405
1781030531740422100,5.603422119140625,-0.0034374999813735,0.0604999996721744,-0.1908500045537948
1781030531759940400,5.6229404296875,-0.2446125000715255,-0.4905999898910522,-0.5784624814987183
1781030531779461000,5.642461181640625,-0.3673999905586242,-1.1050875186920166,-0.9938499927520752
1781030531798983400,5.6619833984375,-0.3488374948501587,-1.8797625303268437,-1.49943745136261
1781030531818510600,5.681510498046875,-0.1252624988555908,-2.888462543487549,-2.16768741607666
1781030531838037200,5.701037353515625,0.6078875064849854,-4.341975212097168,-3.0948500633239746
1781030531857566200,5.720566162109375,2.531787395477295,-6.461949825286865,-4.220287322998047
1781030531877096000,5.740095947265625,5.780224800109863,-9.572612762451172,-5.213174819946289
1781030531896620500,5.75962060546875,8.358349800109863,-11.98601245880127,-5.283024787902832
1781030531916143600,5.7791435546875,8.477149963378906,-12.085149765014648,-4.43616247177124
1781030531935668500,5.79866845703125,6.934262275695801,-10.37547492980957,-3.348949909210205
1781030531955195000,5.81819482421875,5.0910749435424805,-8.080737113952637,-2.411337375640869
1781030531974719200,5.83771923828125,3.5979623794555664,-6.141712665557861,-1.7089874744415283
1781030531994239200,5.8572392578125,2.4010250568389893,-4.141087532043457,-1.19350004196167
1781030532013762000,5.876761962890625,1.538349986076355,-2.626250028610229,-0.8307750225067139
1781030532033285400,5.896285400390625,0.9123125076293944,-1.4968249797821045,-0.5832750201225281
1781030532052803800,5.915803955078125,0.4765749871730804,-0.6815875172615051,-0.4218499958515167
1781030532072322800,5.93532275390625,0.2055625021457672,-0.1315875053405761,-0.3196874856948852
1781030532091841300,5.95484130859375,0.0662750005722045,0.1857624948024749,-0.2506625056266784
1781030532111360000,5.974360107421875,0.0131999999284744,0.3095124959945678,-0.1896124929189682
1781030532130880800,5.993880859375,0.0035749999806284,0.2870999872684479,-0.1171500012278556
1781030532150403300,6.0134033203125,0.0097624994814395,0.1731124967336654,-0.0288750007748603
1781030532169931500,6.032931640625,0.0155375003814697,0.0276375003159046,0.0607750006020069
1781030532189459500,6.05245947265625,0.0155375003814697,0.0276375003159046,0.0607750006020069
1781030532208979700,6.071979736328125,0.0155375003814697,0.0276375003159046,0.0607750006020069
1781030532228499700,6.091499755859375,0.002337499987334,-0.1918125003576278,0.1351625025272369
1781030532248019200,6.111019287109375,0.002337499987334,-0.1918125003576278,0.1351625025272369
1781030532267537400,6.130537353515625,-0.0295624993741512,-0.2987875044345855,0.0107249999418854
1781030532287053000,6.150052978515625,-0.1036750003695488,-0.285037487745285,-0.031624998897314
1781030532306567400,6.1695673828125,-0.1904374957084655,-0.2490125000476837,-0.0331375002861022
1781030532326089000,6.1890888671875,-0.2125750035047531,-0.2429624944925308,-0.0427624993026256
1781030532345610800,6.20861083984375,-0.1368124932050705,-0.2679874897003174,-0.1050499975681305
1781030532365134300,6.22813427734375,-0.0145749999210238,-0.2307250052690506,-0.2146375030279159
1781030532384660200,6.24766015625,0.0647625029087066,-0.0076999999582767,-0.331787496805191
1781030532404181200,6.26718115234375,0.0324499979615211,0.450587511062622,-0.4240500032901764
1781030532423702800,6.286702880859375,-0.1696749925613403,1.1530749797821045,-0.466399997472763
1781030532443221800,6.3062216796875,-0.6245250105857849,2.150500059127808,-0.4241875112056732
1781030532462742800,6.32574267578125,-1.4803249835968018,3.611437559127808,-0.2282499969005584
1781030532482265900,6.345265869140625,-2.8785624504089355,5.713399887084961,0.2727999985218048
1781030532501790200,6.364790283203125,-4.398624897003174,7.56841230392456,1.1611875295639038
1781030532521315800,6.38431591796875,-5.357687473297119,8.89680004119873,2.244962453842163
1781030532540836000,6.403836181640625,-5.369787693023682,9.14938735961914,3.2174999713897705
1781030532560355300,6.423355224609375,-4.673349857330322,8.642149925231934,3.895787477493286
1781030532579876000,6.4428759765625,-3.6361875534057617,7.801612377166748,4.232937335968018
1781030532599393500,6.4623935546875,-2.565200090408325,6.92312479019165,4.275700092315674
1781030532618912000,6.481912109375,-1.6387250423431396,6.396912574768066,4.184537410736084
1781030532638429200,6.50142919921875,-0.8944374918937683,5.530525207519531,3.8068249225616455
1781030532657943000,6.520943115234375,-0.3950375020503998,4.649149894714356,3.2613625526428223
1781030532677462000,6.5404619140625,-0.1621125042438507,3.728450059890747,2.5966875553131104
1781030532696981000,6.55998095703125,-0.1424500048160553,2.7978498935699463,1.8947499990463257
1781030532716498200,6.579498291015625,-0.2198625057935714,1.9053374528884888,1.231724977493286
1781030532736012000,6.599011962890625,-0.3096500039100647,1.1015125513076782,0.6506500244140625
1781030532755529700,6.61852978515625,-0.4005374908447265,0.4193750023841858,0.1623875051736831
1781030532775054300,6.638054443359375,-0.5026999711990356,-0.1391499936580658,-0.2417249977588653
1781030532794575400,6.657575439453125,-0.595924973487854,-0.6172375082969666,-0.5953750014305115
1781030532814094600,6.677094482421875,-0.6208124756813049,-1.1255749464035034,-0.9697874784469604
1781030532833615600,6.69661572265625,-0.5299249887466431,-1.785575032234192,-1.4407249689102173
1781030532853137400,6.716137451171875,-0.2942500114440918,-2.6941750049591064,-2.0751500129699707
1781030532872659500,6.735659423828125,0.2674374878406524,-4.025037288665772,-2.941400051116944
1781030532892184300,6.755184326171875,1.728787541389465,-6.275912284851074,-4.076600074768066
1781030532911711000,6.7747109375,4.480575084686279,-9.1583251953125,-5.014349937438965
1781030532931234600,6.794234619140625,7.011125087738037,-11.948612213134766,-5.205474853515625
1781030532950755300,6.81375537109375,7.458000183105469,-12.511812210083008,-4.429150104522705
1781030532970278400,6.8332783203125,7.458000183105469,-12.511812210083008,-4.429150104522705
1781030532989803500,6.852803466796875,4.746637344360352,-9.083937644958496,-2.395250082015991
1781030533009328600,6.87232861328125,3.34413743019104,-6.87651252746582,-1.6515125036239624
1781030533028852000,6.89185205078125,3.34413743019104,-6.87651252746582,-1.6515125036239624
1781030533048379400,6.91137939453125,3.34413743019104,-6.87651252746582,-1.6515125036239624
1781030533067909000,6.9309091796875,1.4227124452590942,-3.2194249629974365,-0.6657750010490417
1781030533087438000,6.95043798828125,0.8780750036239624,-1.9359999895095823,-0.3806000053882599
1781030533106965200,6.96996533203125,0.5326749682426453,-1.024512529373169,-0.2032250016927719
1781030533126491100,6.9894912109375,0.3198249936103821,-0.4002625048160553,-0.1011999994516372
1781030533146014200,7.00901416015625,0.2012999951839447,-0.0259875003248453,-0.0494999997317791
1781030533165535700,7.02853564453125,0.1461624950170517,0.1446499973535537,-0.0280499998480081
1781030533185056500,7.048056396484375,0.1284250020980835,0.1592250019311905,-0.0199375003576278
1781030533204576800,7.06757666015625,0.1243000030517578,0.0635249987244606,-0.0142999999225139
1781030533224096800,7.0870966796875,0.1116499975323677,-0.0873124971985817,-0.0103124994784593
1781030533243618000,7.1066181640625,0.081675000488758,-0.2436500042676925,-0.0130624994635581
1781030533263143000,7.126142822265625,0.0478499978780746,-0.378537505865097,-0.0250249989330768
1781030533282662700,7.14566259765625,0.0288750007748603,-0.4851000010967254,-0.0395999997854232
1781030533302182100,7.16518212890625,0.0273624993860721,-0.561412513256073,-0.0445500016212463
1781030533321704400,7.184704345703125,0.0389125011861324,-0.6142125129699707,-0.0334125012159347
1781030533341223200,7.20422314453125,0.0863500013947486,-0.679937481880188,-0.0207624994218349
1781030533360740600,7.22374072265625,0.2149125039577484,-0.8047875165939331,-0.0332750007510185
1781030533380260600,7.243260498046875,0.4501749873161316,-0.9741874933242798,-0.0772750005125999
1781030533399782000,7.262781982421875,0.7688999772071838,-1.104812502861023,-0.1328250020742416
1781030533419302100,7.28230224609375,1.1158125400543213,-1.1254374980926514,-0.1710499972105026
1781030533438823200,7.3018232421875,1.4478750228881836,-1.0278124809265137,-0.1835625022649765
1781030533458347300,7.32134716796875,1.7364875078201294,-0.8313249945640564,-0.1821874976158142
1781030533477869600,7.34086962890625,1.9207375049591064,-0.4863374829292297,-0.1746249943971634
1781030533497392400,7.360392333984375,1.6967500448226929,0.3526875078678131,-0.12168750166893
1781030533516915000,7.3799150390625,-2.2963874340057373,5.444725036621094,0.6249374747276306
1781030533536435500,7.399435546875,-11.917949676513672,15.955912590026855,3.197974920272827
1781030533555953000,7.418952880859375,-15.386249542236328,20.126562118530277,4.862275123596191
1781030533575470800,7.438470947265625,-10.504175186157228,15.71239948272705,4.321899890899658
1781030533594992400,7.457992431640625,-6.336275100708008,11.905850410461426,3.735462427139282
1781030533614511400,7.477511474609375,-3.3822250366210938,9.149800300598145,3.28487491607666
1781030533634031000,7.497031005859375,-1.4158375263214111,7.203350067138672,2.9287500381469727
1781030533653558800,7.516558837890625,-0.1948374956846237,6.054812431335449,2.6265249252319336
1781030533673083000,7.536082763671875,0.4823499917984009,4.891287326812744,2.2660000324249268
1781030533692600800,7.555600830078125,0.7651875019073486,3.93236255645752,1.8437374830245967
1781030533712118800,7.575118896484375,0.775362491607666,3.0604748725891118,1.378162503242493
1781030533731643600,7.5946435546875,0.641712486743927,2.234100103378296,0.9162999987602234
1781030533751171300,7.61417138671875,0.4778124988079071,1.463824987411499,0.4954124987125397
1781030533770697200,7.633697265625,0.4778124988079071,1.463824987411499,0.4954124987125397
1781030533790225000,7.653224853515625,0.203087493777275,0.2099625021219253,-0.1992374956607818
1781030533809752300,7.67275244140625,0.0677874982357025,-0.3375625014305115,-0.5370749831199646
1781030533829278500,7.692278564453125,0.0677874982357025,-0.3375625014305115,-0.5370749831199646
1781030533848799500,7.711799560546875,0.0677874982357025,-0.3375625014305115,-0.5370749831199646
1781030533868319000,7.731319091796875,-0.1097249984741211,-1.7928625345230105,-1.525012493133545
1781030533887844400,7.75084423828125,-0.009349999949336,-3.075599908828736,-2.400475025177002
1781030533907366100,7.7703662109375,0.8903124928474426,-5.289212703704834,-3.7208874225616455
1781030533926888000,7.789887939453125,3.603737592697144,-8.570099830627441,-5.119124889373779
1781030533946410800,7.80941064453125,3.603737592697144,-8.570099830627441,-5.119124889373779
1781030533965926700,7.8289267578125,8.30046272277832,-13.604387283325195,-5.047487258911133
1781030533985443300,7.848443359375,7.24611234664917,-12.350662231445312,-3.845737457275391
1781030534004966000,7.8679658203125,5.485700130462647,-10.004775047302246,-2.7736499309539795
1781030534024487000,7.88748681640625,3.8486249446868896,-7.534587383270264,-1.9533250331878664
1781030534044007400,7.90700732421875,2.557637453079224,-5.483224868774414,-1.3611124753952026
1781030534063523800,7.92652392578125,1.5670875310897827,-3.48191237449646,-0.941462516784668
1781030534083037400,7.946037353515625,0.90420001745224,-2.015475034713745,-0.6572499871253967
1781030534102555600,7.9655556640625,0.521262526512146,-1.0480250120162964,-0.4713499844074249
1781030534122075100,7.9850751953125,0.333712488412857,-0.4683249890804291,-0.3574999868869781
1781030534141595400,8.004595458984374,0.2501125037670135,-0.1533125042915344,-0.2919124960899353
1781030534161113600,8.024113525390625,0.20762500166893,-0.0208999998867511,-0.244887501001358
1781030534180631600,8.043631591796874,0.1757249981164932,-0.0207624994218349,-0.1911250054836273
1781030534200148000,8.06314794921875,0.1465750038623809,-0.1121999993920326,-0.1194875016808509
1781030534219663400,8.082663330078125,0.1209999993443489,-0.2475000023841858,-0.0368499979376792
1781030534239179800,8.1021796875,0.1039500012993812,-0.3811500072479248,0.0373999997973442
1781030534258699000,8.121698974609375,0.0922624990344047,-0.4767124950885772,0.0826374962925911
1781030534278221800,8.141221923828125,0.0747999995946884,-0.5143874883651733,0.0901999995112419
1781030534297746000,8.160745849609375,0.061049997806549,-0.5148000121116638,0.0716374963521957
1781030534317270500,8.1802705078125,0.0785124972462654,-0.5248374938964844,0.0543125011026859
1781030534336796400,8.19979638671875,0.1443749964237213,-0.5807999968528748,0.0589874982833862
1781030534356327200,8.2193271484375,0.2694999873638153,-0.6990500092506409,0.0734250023961067
1781030534375859700,8.238859619140625,0.4828999936580658,-0.8911374807357788,0.0643500015139579
1781030534395388400,8.258388427734374,0.819225013256073,-1.137125015258789,0.0131999999284744
1781030534414916000,8.277916015625,1.2903000116348269,-1.359737515449524,-0.0706750005483627
1781030534434443500,8.297443603515624,1.8913124799728396,-1.5097500085830688,-0.1626625061035156
1781030534453976000,8.31697607421875,2.6416499614715576,-1.6620999574661257,-0.2466749995946884
1781030534473506600,8.336506591796875,3.633300065994263,-2.029637575149536,-0.3247750103473663
1781030534493035800,8.356035888671874,5.231462478637695,-3.085224866867065,-0.4320249855518341
1781030534512562000,8.37556201171875,11.942837715148926,-10.353474617004396,-1.377887487411499
1781030534532083700,8.395083740234375,23.572587966918945,-22.969099044799805,-3.831712484359741
1781030534551607600,8.414607666015625,26.556337356567383,-25.585174560546875,-4.729175090789795
1781030534571131000,8.434130859375,21.305212020874023,-18.94777488708496,-3.330662488937378
1781030534590651400,8.4536513671875,21.305212020874023,-18.94777488708496,-3.330662488937378
1781030534610171000,8.4731708984375,13.000624656677246,-8.615474700927734,-0.9065374732017516
1781030534629688300,8.492688232421875,10.095524787902832,-5.175637245178223,-0.1244374960660934
1781030534649203200,8.512203125,10.095524787902832,-5.175637245178223,-0.1244374960660934
1781030534668721700,8.5317216796875,10.095524787902832,-5.175637245178223,-0.1244374960660934
1781030534688247800,8.551247802734375,6.348100185394287,-1.214537501335144,0.5805249810218811
1781030534707773400,8.5707734375,4.737975120544434,-0.4120875000953674,0.5707625150680542
1781030534727298300,8.59029833984375,3.4218249320983887,-0.1304875016212463,0.3976500034332275
1781030534746823200,8.6098232421875,2.3909873962402344,-0.1721500009298324,0.1357125043869018
1781030534766344400,8.629344482421875,1.650825023651123,-0.4232249855995178,-0.1626625061035156
1781030534785869000,8.648869140625,1.1534874439239502,-0.8392999768257141,-0.482212483882904
1781030534805396200,8.668396240234374,0.8402624726295471,-1.3765125274658203,-0.8236249685287476
1781030534824919800,8.687919921875,0.6902499794960022,-2.0146501064300537,-1.2071125507354736
1781030534844443100,8.707443115234375,0.7255874872207642,-2.8100874423980717,-1.6944124698638916
1781030534863965200,8.726965087890624,1.098075032234192,-3.9188873767852783,-2.3765499591827397
1781030534883483400,8.7464833984375,2.280025005340576,-5.703225135803223,-3.319937467575073
1781030534903002000,8.766002197265625,4.6909499168396,-7.986412525177002,-4.245725154876709
1781030534922522000,8.785522216796876,7.369037628173828,-10.459762573242188,-4.647500038146973
1781030534942043600,8.805043701171876,8.389012336730957,-11.355299949645996,-4.1619873046875
1781030534961565400,8.8245654296875,7.564700126647949,-10.486162185668944,-3.241425037384033
1781030534981085000,8.8440849609375,6.002974987030029,-8.769887924194336,-2.36252498626709
1781030535000606700,8.863606689453125,4.424612522125244,-6.855199813842773,-1.6644375324249268
1781030535020132600,8.883132568359375,3.1200125217437744,-5.186224937438965,-1.1441375017166138
1781030535039657200,8.9026572265625,2.0278499126434326,-3.460599899291992,-0.7618874907493591
1781030535059178000,8.922177978515625,1.2093124389648438,-2.076387405395508,-0.4885374903678894
1781030535078702000,8.9417021484375,0.6304374933242798,-1.03125,-0.296999990940094
1781030535098229200,8.961229248046875,0.2649624943733215,-0.3166624903678894,-0.1704999953508377
1781030535117753300,8.98075341796875,0.073974996805191,0.1027124971151351,-0.0979000031948089
1781030535137274600,9.000274658203125,0.0053624999709427,0.2873750030994415,-0.0679249987006187
1781030535156794000,9.019794189453124,0.0079749999567866,0.2961750030517578,-0.0640750005841255
1781030535176318000,9.03931787109375,0.0375375002622604,0.1890625059604644,-0.0684750005602836
1781030535195841500,9.058841552734377,0.0655874982476234,0.0214499998837709,-0.070262499153614
1781030535215364600,9.078364501953123,0.083187498152256,-0.1612875014543533,-0.0690250024199485
1781030535234885600,9.0978857421875,0.0956999957561492,-0.3272500038146972,-0.0741124972701072
1781030535254407400,9.117407470703125,0.1088999956846237,-0.455949991941452,-0.0928125008940696
1781030535273931500,9.136931640625,0.1119249984622001,-0.5303375124931335,-0.1181124970316886
1781030535293459200,9.156459228515626,0.0830499976873397,-0.5424374938011169,-0.1302125006914138
1781030535312988200,9.17598828125,0.0094875004142522,-0.5020124912261963,-0.1050499975681305
1781030535332515300,9.195515380859376,-0.0728750005364418,-0.457874983549118,-0.0466125011444091
1781030535352041200,9.215041259765623,-0.0791999995708465,-0.4815250039100647,0.002337499987334
1781030535371567400,9.2345673828125,0.0327249988913536,-0.562375009059906,-0.0013749999925494
1781030535391095800,9.254095703125,0.0327249988913536,-0.562375009059906,-0.0013749999925494
1781030535430159600,9.29315966796875,0.2029500007629394,0.4457750022411346,-0.2725250124931335
1781030535449689600,9.312689697265624,0.2029500007629394,0.4457750022411346,-0.2725250124931335
1781030535469212700,9.332212646484376,-0.3136374950408935,1.6284124851226809,-0.3343999981880188
1781030535488735500,9.351735595703126,-4.438087463378906,6.737912654876709,0.3982000052928924
1781030535508260600,9.371260498046874,-4.438087463378906,6.737912654876709,0.3982000052928924
1781030535527786800,9.390786865234375,-4.438087463378906,6.737912654876709,0.3982000052928924
1781030535547316500,9.41031640625,-8.494612693786621,11.370837211608888,2.658699989318848
1781030535566848300,9.42984814453125,-6.868400096893311,10.158775329589844,3.0894875526428223
1781030535586377500,9.44937744140625,-4.671150207519531,8.410599708557129,3.210900068283081
1781030535605903600,9.468903564453123,-2.857112407684326,7.003012657165527,3.2500874996185303
1781030535625431600,9.488431640625,-1.6160374879837036,6.36899995803833,3.302062511444092
1781030535644966700,9.507966552734375,-0.7583125233650208,5.750937461853027,3.268512487411499
1781030535664500000,9.5275,-0.0772750005125999,5.254837512969971,3.1385750770568848
1781030535684030700,9.54703076171875,0.4602124989032745,4.656024932861328,2.857524871826172
1781030535703567000,9.566567138671877,0.7741249799728394,3.8640248775482178,2.4070749282836914
1781030535723104300,9.586104248046874,0.8124874830245972,2.8885998725891118,1.800837516784668
1781030535742635300,9.60563525390625,0.5872625112533569,1.8268250226974487,1.088724970817566
1781030535762166000,9.625166015625,0.17586250603199,0.8203250169754028,0.358049988746643
1781030535781693700,9.644693603515623,-0.3044250011444092,-0.0328624993562698,-0.3060750067234039
1781030535801216300,9.66421630859375,-0.7287499904632568,-0.7396125197410583,-0.8646000027656555
1781030535820739600,9.683739501953124,-0.9904124736785888,-1.3919124603271484,-1.338974952697754
1781030535840261600,9.70326171875,-1.014062523841858,-2.094675064086914,-1.7862625122070312
1781030535859788000,9.7227880859375,-0.7090874910354614,-2.9628500938415527,-2.2802999019622803
1781030535879314000,9.74231396484375,0.1097249984741211,-4.243800163269043,-2.9422249794006348
1781030535898841000,9.761841064453124,1.9113874435424805,-6.489449977874756,-3.899499893188477
1781030535918371000,9.78137109375,5.054500102996826,-9.400875091552734,-4.760524749755859
1781030535937898000,9.80089794921875,7.926324844360352,-12.339937210083008,-4.894587516784668
1781030535957422800,9.8204228515625,8.396437644958496,-12.991137504577637,-4.075224876403809
1781030535976949000,9.839948974609374,7.010849952697754,-11.582587242126465,-3.0215625762939453
1781030535996473600,9.8594736328125,5.249887466430664,-9.4161376953125,-2.1723625659942627
1781030536015995600,9.87899560546875,3.712637424468994,-7.177637577056885,-1.565850019454956
1781030536055044400,9.91804443359375,1.5893625020980835,-3.4351625442504883,-0.8175749778747559
1781030536074569500,9.937569580078126,0.9446250200271606,-2.029087543487549,-0.5807999968528748
1781030536094097000,9.957096923828123,0.5275874733924866,-1.016812443733215,-0.4090625047683716
1781030536113626600,9.976626708984377,0.2681249976158142,-0.3229874968528747,-0.2851749956607818
1781030536133152500,9.996152587890624,0.1099999994039535,0.1236125007271766,-0.196212500333786
1781030536152673500,10.015673583984375,0.0262624993920326,0.3638249933719635,-0.1376374959945678
1781030536172195800,10.03519580078125,-0.0037124999798834,0.444537490606308,-0.1055999994277954
1781030536191721200,10.05472119140625,-0.0042624999769032,0.427762508392334,-0.089649997651577
1781030536211248600,10.07424853515625,-0.0035749999806284,0.3815625011920929,-0.0725999996066093
1781030536230774500,10.0937744140625,-0.0035749999806284,0.3815625011920929,-0.0725999996066093
1781030536250299000,10.113298828125,-0.0225499998778104,0.3550249934196472,-0.0406999997794628
1781030536269822500,10.132822509765624,-0.0472999997437,0.3078624904155731,0.0345125012099742
1781030536289345300,10.15234521484375,-0.0472999997437,0.3078624904155731,0.0345125012099742
1781030536308870400,10.171870361328123,0.0577500015497207,0.1403875052928924,0.0225499998778104
1781030536328400000,10.19139990234375,0.0577500015497207,0.1403875052928924,0.0225499998778104
1781030536347930600,10.2109306640625,0.0577500015497207,0.1403875052928924,0.0225499998778104
1781030536367462000,10.2304619140625,0.0328624993562698,0.1227874979376792,0.0030249999836087
1781030536386991900,10.249991943359374,0.0450999997556209,0.1024374961853027,-0.0244750007987022
1781030536406521300,10.269521240234376,0.1614249944686889,0.0233750008046627,-0.084425002336502
1781030536426048300,10.28904833984375,0.3535124957561493,-0.0228249989449977,-0.1537249982357025
1781030536445574400,10.308574462890626,0.5142499804496765,0.0959749966859817,-0.1894749999046325
1781030536465098800,10.3280986328125,0.5218124985694885,0.4515500068664551,-0.1669249981641769
1781030536484623000,10.347623046875,0.245849996805191,1.1126500368118286,-0.0837375000119209
1781030536504153000,10.367153076171874,-0.5648499727249146,2.323887586593628,0.0813999995589256
1781030536523680800,10.3866806640625,-2.684000015258789,4.886749744415283,0.5005000233650208
1781030536543207000,10.40620703125,-7.072037696838379,9.339275360107422,1.6321250200271606
1781030536562738400,10.425738525390624,-10.998900413513184,13.361700057983398,3.094987392425537
1781030536582271200,10.445271240234376,-10.869512557983398,13.516799926757812,3.756912469863892
1781030536601801700,10.4648017578125,-8.193212509155273,11.288612365722656,3.608412504196167
1781030536621330200,10.484330078125,-5.432350158691406,9.059737205505373,3.293262481689453
1781030536640855600,10.50385546875,-3.2660374641418457,7.514374732971191,3.047137498855591
1781030536660382200,10.52338232421875,-1.6333625316619873,6.53125,2.849550008773804
1781030536679913700,10.542913818359375,-0.3761999905109405,6.055362701416016,2.6478374004364014
1781030536699446000,10.562446044921876,0.5454624891281128,5.323862552642822,2.351799964904785
1781030536718980600,10.581980712890624,1.1017874479293823,4.553587436676025,1.9915499687194824
1781030536738518500,10.6015185546875,1.2696750164031982,3.705212593078613,1.5820749998092651
1781030536758053000,10.62105322265625,1.1024750471115112,2.809537410736084,1.140012502670288
1781030536777581600,10.64058154296875,0.7503374814987183,1.94466245174408,0.6906625032424927
1781030536797109500,10.660109619140623,0.3779875040054321,1.1666874885559082,0.2634499967098236
1781030536816637200,10.67963720703125,0.0732875019311904,0.4827624857425689,0.1901624947786331
1781030536836161500,10.69916162109375,-0.1610125005245208,-0.1314499974250793,0.0694374963641166
1781030536855689000,10.71868896484375,-0.3349500000476837,-0.7250375151634216,-0.4086500108242035
1781030536875218200,10.73821826171875,-0.4409624934196472,-1.3736250400543213,-0.8729875087738037
1781030536894748000,10.757747802734375,-0.4701125025749206,-2.1614999771118164,-1.39796245098114
1781030536914280200,10.7772802734375,-0.380462497472763,-3.1689624786376958,-2.053425073623657
1781030536933812000,10.79681201171875,0.1380500048398971,-4.670187473297119,-2.965049982070923
1781030536953339100,10.816339111328125,2.061262607574463,-7.123462677001953,-4.224549770355225
1781030536972864300,10.8358642578125,6.044775009155273,-11.262762069702148,-5.466862678527832
1781030536992388600,10.855388671875,9.26323699951172,-14.523162841796877,-5.504950046539307
1781030537011913000,10.874912841796874,9.13756275177002,-14.484800338745115,-4.394637584686279
1781030537031435500,10.894435546875,7.162650108337402,-12.23268699645996,-3.1798250675201416
1781030537050956800,10.913956787109376,5.101112365722656,-9.446937561035156,-2.2467498779296875
1781030537070481700,10.933481689453124,5.101112365722656,-9.446937561035156,-2.2467498779296875
1781030537090011000,10.953010986328126,3.4663748741149902,-6.851349830627441,-1.5864750146865845
1781030537109539000,10.9725390625,2.2769999504089355,-4.79476261138916,-1.1236499547958374
1781030537129064700,10.992064697265626,0.8672124743461609,-1.664162516593933,-0.6011499762535095
1781030537148593200,11.01159326171875,0.8672124743461609,-1.664162516593933,-0.6011499762535095
1781030537168120800,11.031120849609374,0.8672124743461609,-1.664162516593933,-0.6011499762535095
1781030537187644400,11.05064453125,0.3631374835968017,-0.2146375030279159,-0.4141499996185303
1781030537207174000,11.070173828125,0.2824249863624573,0.0339624993503093,-0.3664374947547912
1781030537226705700,11.08970556640625,0.2664749920368194,0.0512874983251094,-0.3315125107765198
1781030537246230800,11.109230712890623,0.2754124999046325,-0.0604999996721744,-0.292600005865097
1781030537265755100,11.128755126953124,0.2686749994754791,-0.2004749923944473,-0.2343000024557113
1781030537285282300,11.1482822265625,0.231962502002716,-0.3196874856948852,-0.1586750000715255
1781030537304809700,11.167809814453124,0.1722874939441681,-0.4005374908447265,-0.085387498140335
1781030537324337700,11.187337646484377,0.1722874939441681,-0.4005374908447265,-0.085387498140335
1781030537343867100,11.2068671875,0.0250249989330768,-0.4036999940872192,-0.0030249999836087
1781030537363396000,11.22639599609375,-0.0379500016570091,-0.3411374986171722,0.0203499998897314
1781030537382924300,11.24592431640625,-0.0736999958753585,-0.2782999873161316,0.0474375002086162
1781030537402454300,11.265454345703125,-0.0501874983310699,-0.2719750106334686,0.0648999959230423
1781030537421983200,11.284983154296874,0.0903374999761581,-0.3812874853610992,0.0489500015974044
1781030537441508000,11.304508056640625,0.3833499848842621,-0.2246749997138977,-0.0050874999724328
1781030537461028600,11.324028564453124,0.792412519454956,-0.1304875016212463,-0.0782374963164329
1781030537480549400,11.34354931640625,1.2044999599456787,-0.2299000024795532,-0.1472624987363815
1781030537500072400,11.363072509765624,1.466575026512146,0.1027124971151351,-0.2003374993801117
1781030537519598000,11.38259814453125,1.329487442970276,0.9944000244140624,-0.2164250016212463
1781030537539128000,11.402128173828125,-0.2052875012159347,3.402437448501587,-0.0368499979376792
1781030537558656800,11.42165673828125,-8.364537239074707,12.456950187683104,1.6948249340057373
1781030537578181600,11.441181640625,-15.503125190734863,20.39674949645996,3.827450037002564
1781030537597707300,11.460707275390623,-13.24014949798584,18.519737243652344,4.030399799346924
1781030537617233000,11.48023291015625,-8.311325073242188,13.736387252807615,3.2477500438690186
1781030537636762000,11.49976220703125,-4.128849983215332,9.6472749710083,2.5348124504089355
1781030537656289300,11.519289306640625,-1.075387477874756,6.704774856567383,2.088074922561645
1781030537675813000,11.538813232421877,0.8830249905586243,5.03181266784668,1.9516749382019043
1781030537695341800,11.558341796875,1.9579999446868896,4.064362525939941,2.0427000522613525
1781030537714870000,11.5778701171875,2.440762519836426,3.7511374950408936,2.239462375640869
1781030537734401000,11.597401123046875,2.614150047302246,3.6807374954223633,2.3792998790740967
1781030537753932800,11.616932861328126,2.6351873874664307,3.510237455368042,2.3320000171661377
1781030537773461800,11.636461669921877,2.513362407684326,3.07229995727539,2.042837381362915
1781030537792991200,11.6559912109375,2.1984875202178955,2.379849910736084,1.5294125080108645
1781030537812521700,11.675521728515625,1.6533000469207764,1.538074970245361,0.8540124893188477
1781030537832052000,11.695052001953124,0.8889374732971191,0.6663249731063843,0.1007874980568885
1781030537851581000,11.714580810546876,-0.004674999974668,-0.1405249983072281,-0.6348375082015991
1781030537871110700,11.734110595703124,-0.856487512588501,-0.8540124893188477,-1.2876875400543213
1781030537890640000,11.753639892578123,-0.856487512588501,-0.8540124893188477,-1.2876875400543213
1781030537910166800,11.773166748046876,-1.4649250507354736,-1.538349986076355,-1.8603750467300413
1781030537929697300,11.792697265625,-1.263350009918213,-3.6162500381469727,-3.1942625045776367
1781030537949230600,11.812230712890624,-1.263350009918213,-3.6162500381469727,-3.1942625045776367
1781030537968763400,11.831763427734376,0.2422749996185302,-5.822162628173828,-4.300862312316895
1781030537988295700,11.851295654296877,3.400512456893921,-8.810725212097168,-5.356724739074707
1781030538007827000,11.870826904296877,6.703125,-11.840537071228027,-5.6414875984191895
1781030538027358000,11.89035791015625,7.699862480163574,-12.564200401306152,-4.751725196838379
1781030538046886700,11.90988671875,6.629012584686279,-11.021862030029297,-3.532787561416626
1781030538066415400,11.929415283203124,6.629012584686279,-11.021862030029297,-3.532787561416626
1781030538085946000,11.948946044921875,3.7331249713897705,-6.631350040435791,-1.8705500364303589
1781030538105475300,11.968475341796877,2.5806000232696533,-4.500649929046631,-1.3536875247955322
1781030538125000400,11.98800048828125,1.6972999572753906,-2.9358999729156494,-0.9560375213623048
1781030538144527400,12.00752734375,1.0638375282287598,-1.8280625343322756,-0.6613749861717224
1781030538164056600,12.027056640625,0.6591749787330627,-1.0788249969482422,-0.4620000123977661
1781030538183583500,12.04658349609375,0.4307875037193298,-0.6007375121116638,-0.340312510728836
1781030538203107800,12.06610791015625,0.3170749843120575,-0.3284874856472015,-0.2770625054836273
1781030538222631400,12.08563134765625,0.2652375102043152,-0.2171124964952469,-0.2411749958992004
1781030538242161200,12.1051611328125,0.2433750033378601,-0.228937491774559,-0.2025374919176101
1781030538261692400,12.1246923828125,0.227012500166893,-0.31597501039505,-0.1528999954462051
1781030538281218000,12.144218017578124,0.1927749961614608,-0.4190999865531921,-0.1079374998807907
1781030538300742000,12.163741943359376,0.1468500047922134,-0.4984374940395355,-0.0901999995112419
1781030538320268800,12.183268798828124,0.1251250058412552,-0.5467000007629395,-0.1027124971151351
1781030538339795700,12.202795654296876,0.1442375034093856,-0.5660874843597412,-0.1241625025868415
1781030538359321600,12.222321533203123,0.1604624986648559,-0.5391374826431274,-0.1170125007629394
1781030538378848800,12.241848876953124,0.1318625062704086,-0.4717625081539154,-0.0646250024437904
1781030538398378200,12.261378173828126,0.104774996638298,-0.4395875036716461,-0.0071499999612569
1781030538417908000,12.280907958984375,0.172837495803833,-0.524150013923645,-0.002337499987334
1781030538437436200,12.300436279296877,0.3782624900341034,-0.7211874723434448,-0.0671000033617019
1781030538456964900,12.31996484375,0.6692125201225281,-0.9087374806404114,-0.1623875051736831
1781030538476493300,12.339493408203126,0.9660750031471252,-0.9524624943733216,-0.2432374954223632
1781030538496020000,12.35902001953125,1.2170125246047974,-0.8218374848365784,-0.2946625053882599
1781030538515547400,12.37854736328125,1.3802249431610107,-0.5355625152587891,-0.3170749843120575
1781030538535075300,12.398075439453123,1.38462495803833,-0.0635249987244606,-0.3115749955177307
1781030538554604500,12.4176044921875,0.9135500192642212,0.9151999950408936,-0.2389750033617019
1781030538574135000,12.437135009765624,-1.1922625303268433,3.5583624839782715,0.1331000030040741
1781030538593663700,12.456663818359376,-6.315925121307373,8.832175254821777,1.353137493133545
1781030538613194800,12.47619482421875,-10.58804988861084,13.110625267028809,2.948962450027466
1781030538632729300,12.495729248046874,-10.372862815856934,13.134824752807615,3.817275047302246
1781030538652259800,12.515259765625,-8.075787544250488,11.302499771118164,3.992724895477295
1781030538671783400,12.534783447265625,-5.751487255096436,9.460824966430664,3.898674964904785
1781030538691307800,12.554307861328123,-3.822774887084961,7.950799942016602,3.6834874153137207
1781030538710831400,12.573831298828123,-2.313437461853028,6.726362228393555,3.3822250366210938
1781030538730356200,12.593356201171876,-1.19941246509552,5.893662452697754,3.029399871826172
1781030538749886700,12.61288671875,-0.4475624859333038,4.832987308502197,2.565612554550171
1781030538769412900,12.632412841796874,-0.4475624859333038,4.832987308502197,2.565612554550171
1781030538788936400,12.6519365234375,0.1528999954462051,2.9998373985290527,1.6113624572753906
1781030538808465400,12.67146533203125,0.1528999954462051,2.9998373985290527,1.6113624572753906
1781030538827997700,12.690997802734374,0.1528999954462051,2.9998373985290527,1.6113624572753906
1781030538847528200,12.710528076171874,0.0864875018596649,1.3858624696731567,0.6602749824523926
1781030538867050800,12.73005078125,-0.0419375002384185,0.5703499913215637,0.1500124931335449
1781030538886571300,12.7495712890625,-0.1898874938488006,-0.2649624943733215,-0.3806000053882599
1781030538906093800,12.76909375,-0.2919124960899353,-1.1156749725341797,-0.9255124926567078
1781030538925617700,12.78861767578125,-0.2292124927043914,-2.022624969482422,-1.501362442970276
1781030538945143000,12.80814306640625,0.1744875013828277,-3.123312473297119,-2.1639750003814697
1781030538964666400,12.827666259765625,1.237362504005432,-4.705387592315674,-2.9932374954223637
1781030538984189000,12.84718896484375,3.449737548828125,-6.845712661743164,-3.8740625381469727
1781030539003712300,12.866712158203123,6.511312484741211,-9.59983730316162,-4.406324863433838
1781030539023237000,12.886237060546875,8.459824562072754,-11.342650413513184,-4.047999858856201
1781030539042764500,12.9057646484375,8.169012069702148,-11.110962867736816,-3.0923750400543213
1781030539062289000,12.925288818359377,6.632450103759766,-9.591312408447266,-2.1583375930786133
1781030539081816600,12.944816650390624,4.935699939727783,-7.659712314605713,-1.4756499528884888
1781030539101350000,12.964349853515625,3.560287475585937,-5.977950096130371,-1.0345499515533447
1781030539120882200,12.983882080078123,2.431824922561645,-4.111525058746338,-0.768625020980835
1781030539140413000,13.003412841796877,1.6018749475479126,-2.5965499877929688,-0.6193000078201294
1781030539159939000,13.02293896484375,0.995912492275238,-1.4070374965667725,-0.5405125021934509
1781030539179461000,13.042461181640626,0.5774999856948853,-0.5273125171661377,-0.504212498664856
1781030539198987000,13.061987060546874,0.3293125033378601,0.045924998819828,-0.4930749833583832
1781030539218512100,13.08151220703125,0.2191749960184097,0.3469125032424927,-0.4936249852180481
1781030539238034000,13.101033935546877,0.2022625058889389,0.4138749837875366,-0.4892250001430511
1781030539257558000,13.12055810546875,0.2226125001907348,0.2833875119686126,-0.4558124840259552
1781030539277081600,13.14008154296875,0.2179374992847442,0.0430375002324581,-0.3749625086784363
1781030539296603600,13.159603759765623,0.1561999917030334,-0.2018499970436096,-0.2490125000476837
1781030539316123100,13.179123046875,0.0577500015497207,-0.3954499959945678,-0.1067000031471252
1781030539335649000,13.19864892578125,-0.0285999998450279,-0.5501375198364258,0.0101749999448657
1781030539355174700,13.218174560546874,-0.0664125010371208,-0.6879125237464905,0.0721874982118606
1781030539374696400,13.237696533203126,-0.0456499978899955,-0.8064374923706055,0.0790624991059303
1781030539394221300,13.25722119140625,0.022962499409914,-0.8974624872207642,0.0593999996781349
1781030539413746200,13.27674609375,0.1394249945878982,-0.9722625017166138,0.0415249988436698
1781030539433270500,13.2962705078125,0.3212000131607055,-1.0583374500274658,0.0312124993652105
1781030539452796200,13.315796142578124,0.5869874954223633,-1.1607749462127686,0.0130624994635581
1781030539472325400,13.335325439453126,0.949162483215332,-1.2667875289916992,-0.0306624993681907
1781030539491855600,13.354855712890624,1.4042874574661257,-1.3804999589920044,-0.0941874980926513
1781030539511382000,13.374382080078124,1.958549976348877,-1.5284500122070312,-0.1553750038146972
1781030539530910500,13.393910400390626,1.958549976348877,-1.5284500122070312,-0.1553750038146972
1781030539550436400,13.413436279296874,3.3262624740600586,-1.7381374835968018,-0.2246749997138977
1781030539569964300,13.43296435546875,3.9986374378204346,-1.5063124895095823,-0.233887493610382
1781030539589498400,13.452498291015624,3.9986374378204346,-1.5063124895095823,-0.233887493610382
1781030539609029000,13.472029052734374,-11.9083251953125,15.157999992370604,2.942775011062622
1781030539628557600,13.4915576171875,-11.9083251953125,15.157999992370604,2.942775011062622
1781030539648087300,13.51108740234375,-11.9083251953125,15.157999992370604,2.942775011062622
1781030539667617500,13.530617431640623,-13.7233247756958,17.913362503051758,3.910774946212769
1781030539687149300,13.5501494140625,-13.7233247756958,17.913362503051758,3.910774946212769
1781030539706686200,13.569686279296874,-4.17312479019165,10.120550155639648,2.9166500568389893
1781030539726221300,13.58922119140625,-1.721774935722351,8.227862358093262,2.7460124492645264
1781030539745747200,13.608747314453124,-0.1757249981164932,6.812437534332275,2.5451250076293945
1781030539765270800,13.628270751953124,0.6873624920845032,5.761937618255615,2.2481250762939453
1781030539784797400,13.64779736328125,1.0092500448226929,4.394362449645996,1.8026249408721924
1781030539804325600,13.66732568359375,0.8926500082015991,3.081512451171875,1.252074956893921
1781030539823855900,13.68685595703125,0.4747875034809112,1.8884249925613403,0.6520249843597412
1781030539843387000,13.706386962890624,-0.0430375002324581,0.8981499671936035,0.0803000032901763
1781030539862914800,13.725914794921875,-0.4827624857425689,0.1443749964237213,-0.3979249894618988
1781030539882441700,13.745441650390624,-0.7540500164031982,-0.4240500032901764,-0.7665625214576721
1781030539901970400,13.764970458984376,-0.8446624875068665,-0.969237506389618,-1.0845999717712402
1781030539921500200,13.784500244140624,-0.7550125122070312,-1.7399250268936155,-1.4836249351501465
1781030539941028600,13.804028564453125,-0.3067624866962433,-3.083162546157837,-2.1643874645233154
1781030539960554800,13.8235546875,1.3173874616622925,-5.678750038146973,-3.365999937057495
1781030539980081400,13.843081298828125,5.386837482452393,-9.735687255859377,-4.7737250328063965
1781030539999607800,13.86260791015625,9.65827465057373,-13.874025344848633,-5.25181245803833
1781030540019135500,13.882135498046877,10.390600204467772,-14.698887825012209,-4.379237651824951
1781030540038663700,13.90166357421875,8.43163776397705,-12.679837226867676,-3.222450017929077
1781030540058186200,13.921186279296874,6.1371750831604,-9.89326286315918,-2.331862449645996
1781030540077705500,13.94070556640625,4.264424800872803,-7.258625030517578,-1.716825008392334
1781030540097229600,13.9602294921875,2.896437406539917,-5.190625190734863,-1.2913999557495115
1781030540116755000,13.9797548828125,1.8517124652862549,-3.285562515258789,-0.97308748960495
1781030540136277500,13.999277587890624,1.1175999641418457,-1.8654625415802,-0.7309499979019165
1781030540155801900,14.0188017578125,0.6334624886512756,-0.857450008392334,-0.5506874918937683
1781030540175327700,14.03832763671875,0.3465000092983246,-0.2022625058889389,-0.4246000051498413
1781030540194850000,14.05785009765625,0.2029500007629394,0.1610125005245208,-0.3415499925613403
1781030540214374700,14.077374755859376,0.1548250019550323,0.2810499966144562,-0.2853125035762787
1781030540233897000,14.09689697265625,0.1549624949693679,0.2253624945878982,-0.2406249940395355
1781030540253419300,14.116419189453126,0.1571625024080276,0.0862125009298324,-0.1959374994039535
1781030540272946200,14.1359462890625,0.1297999918460846,-0.0494999997317791,-0.146025002002716
1781030540292472300,14.155472412109376,0.0725999996066093,-0.1376374959945678,-0.0929500013589859
1781030540311998700,14.174998779296876,0.0144375003874301,-0.1896124929189682,-0.0450999997556209
1781030540331523800,14.19452392578125,-0.0115499999374151,-0.2413125038146972,-0.0137499999254941
1781030540351047700,14.214047607421875,0.0060499999672174,-0.3128125071525574,-0.0030249999836087
1781030540370576400,14.233576416015625,0.0060499999672174,-0.3128125071525574,-0.0030249999836087
1781030540390105000,14.25310498046875,0.1461624950170517,-0.4573250114917755,-0.002199999988079
1781030540409632300,14.27263232421875,0.2842124998569488,-0.4501749873161316,-0.0151249999180436
1781030540429158100,14.292158203125,0.2842124998569488,-0.4501749873161316,-0.0151249999180436
1781030540448681200,14.31168115234375,0.675125002861023,-0.2257750034332275,-0.1241625025868415
1781030540468202800,14.33120263671875,0.675125002861023,-0.2257750034332275,-0.1241625025868415
1781030540487724800,14.350724853515626,0.8804125189781189,-0.0020624999888241,-0.2175250053405761
1781030540507250400,14.37025048828125,1.0243749618530271,0.3834874927997589,-0.3117125034332275
1781030540526776000,14.389776123046875,0.8398500084877014,1.2456125020980835,-0.3482874929904938
1781030540546302000,14.409302001953124,-0.8262374997138977,3.831300020217896,-0.0677874982357025
1781030540565830400,14.428830322265624,-7.420737266540527,11.413049697875977,1.7517499923706057
1781030540585357800,14.44835791015625,-12.90162467956543,17.750425338745117,3.959312438964844
1781030540604884200,14.46788427734375,-10.984600067138672,16.180999755859375,4.308700084686279
1781030540624407300,14.4874072265625,-6.562187671661377,11.832975387573242,3.6060750484466553
1781030540643927800,14.506927734375,-2.7590749263763428,8.06712532043457,2.9790749549865723
1781030540663451400,14.526451416015624,-0.1727000027894973,5.778025150299072,2.7222249507904053
1781030540682979800,14.545979736328125,1.219349980354309,4.447024822235107,2.785337448120117
1781030540702507000,14.565507080078126,1.7538124322891235,4.196637630462647,3.0855000019073486
1781030540722029000,14.585029052734376,1.8804500102996824,4.458987712860107,3.420175075531006
1781030540741546800,14.604546630859376,1.9340749979019165,4.640212535858154,3.5389750003814697
1781030540761067500,14.624067626953124,1.9930624961853027,4.34060001373291,3.2870750427246094
1781030540780590000,14.643590087890624,1.9644625186920168,3.506112575531006,2.677262544631958
1781030540800110600,14.663110595703126,1.7308499813079834,2.338599920272827,1.807437539100647
1781030540819635000,14.682635009765624,1.1977624893188477,1.099037528038025,0.7726125121116638
1781030540839160000,14.70216015625,0.3355000019073486,-0.0147124994546175,-0.3381125032901764
1781030540858685000,14.721684814453123,-0.7512999773025513,-0.9062625169754028,-1.4103374481201172
1781030540878203400,14.741203369140624,-1.797124981880188,-1.578225016593933,-2.3160500526428223
1781030540897726200,14.760726318359374,-2.408174991607666,-2.187762498855591,-3.011662483215332
1781030540917256200,14.780256103515624,-2.207837581634521,-3.109837532043457,-3.642787456512451
1781030540936781300,14.79978125,-0.8515374660491943,-4.960312366485596,-4.502299785614014
1781030540956307000,14.819306884765624,2.03802490234375,-7.936774730682373,-5.47263765335083
1781030540975832800,14.838832763671874,5.620999813079834,-11.692312240600586,-6.088912487030029
1781030540995354400,14.858354248046876,7.461575031280518,-13.73446273803711,-5.558437347412109
1781030541014875600,14.877875732421876,6.8506622314453125,-13.015199661254885,-4.358887672424316
1781030541034401300,14.8974013671875,5.224862575531006,-10.664087295532228,-3.2021000385284424
1781030541053931500,14.916931640625,3.629037380218506,-7.9076247215271,-2.289099931716919
1781030541073464000,14.936464111328124,2.442962408065796,-5.645199775695801,-1.6445000171661377
1781030541092995000,14.9559951171875,1.6515125036239624,-3.586687564849853,-1.219487547874451
1781030541112520400,14.9755205078125,1.1863499879837036,-2.1502249240875244,-0.9568625092506408
1781030541132046600,14.995046630859376,0.8888000249862671,-1.1424875259399414,-0.7665625214576721
1781030541151571500,15.014571533203124,0.6481750011444092,-0.45210000872612,-0.5868499875068665
1781030541171099000,15.034098876953124,0.444537490606308,-0.0450999997556209,-0.4181374907493591
1781030541190629600,15.053629638671875,0.444537490606308,-0.0450999997556209,-0.4181374907493591
1781030541210161400,15.073161376953124,0.1695374995470047,0.1190750002861023,-0.1788875013589859
1781030541229694700,15.09269482421875,0.1695374995470047,0.1190750002861023,-0.1788875013589859
1781030541249227500,15.1122275390625,0.0627000033855438,0.0301124993711709,-0.0950125008821487
1781030541268755000,15.1317548828125,-0.1163249984383583,-0.2616625130176544,0.0409750007092952
1781030541288280800,15.15128076171875,-0.1163249984383583,-0.2616625130176544,0.0409750007092952
1781030541307802600,15.170802734375,-0.1208624988794326,-0.4881249964237213,0.0511500015854835
1781030541327315700,15.190315673828126,-0.0521125011146068,-0.743737518787384,0.0145749999210238
1781030541346836000,15.2098359375,0.0694374963641166,-0.968137502670288,-0.0365750007331371
1781030541366362000,15.229362060546874,0.2184875011444091,-1.1193875074386597,-0.0617375001311302
1781030541385886000,15.248885986328125,0.4009499847888946,-1.2053250074386597,-0.0567874982953071
1781030541405408000,15.268407958984374,0.644599974155426,-1.2465749979019165,-0.054587498307228
1781030541424933600,15.28793359375,0.9671750068664552,-1.2482249736785889,-0.0801625028252601
1781030541444459300,15.307459228515626,1.360562443733215,-1.1754875183105469,-0.1337874978780746
1781030541463984000,15.326984130859374,1.7853000164031982,-0.9646999835968018,-0.1927749961614608
1781030541483510800,15.3465107421875,2.16617488861084,-0.5307499766349792,-0.231962502002716
1781030541503040300,15.366040283203125,2.1942250728607178,0.3998500108718872,-0.202124997973442
1781030541522572300,15.385572265625,-3.91159987449646,8.127900123596191,1.0458250045776367
1781030541542102000,15.40510205078125,-14.27882480621338,20.27877426147461,4.056387424468994
1781030541561627100,15.424627197265623,-15.464487075805664,22.15290069580078,5.321799755096436
1781030541581153800,15.44415380859375,-9.624862670898438,16.428361892700195,4.337850093841553
1781030541600684500,15.4636845703125,-5.163400173187256,12.147162437438965,3.6124000549316406
1781030541620213200,15.483213134765624,-2.093437433242798,9.221850395202637,3.1598875522613525
1781030541639738600,15.502738525390624,-0.1423124969005584,7.258762359619141,2.864949941635132
1781030541659263000,15.522262939453125,0.9458624720573424,6.150237560272217,2.629549980163574
1781030541678785800,15.541785888671876,1.4319249391555786,4.96952486038208,2.307112455368042
1781030541698308600,15.56130859375,1.5433000326156616,3.916962385177612,1.891724944114685
1781030541717833200,15.580833251953123,1.4375624656677246,2.9056499004364014,1.4096499681472778
1781030541737355800,15.600355712890623,1.18236243724823,1.9474124908447263,0.9074999690055848
1781030541756875800,15.619875732421876,0.8133124709129333,1.100824952125549,0.4270749986171722
1781030541776397000,15.63939697265625,0.3980624973773956,0.4023250043392181,-0.0141624994575977
1781030541795920600,15.658920654296876,0.0174624994397163,-0.1825999915599823,-0.4303750097751617
1781030541815446500,15.678446533203124,-0.2540999948978424,-0.7737125158309937,-0.8625375032424927
1781030541834972400,15.697972412109374,-0.3647874891757965,-1.5503125190734863,-1.3756874799728394
1781030541854495500,15.71749560546875,-0.2256374955177307,-2.6982998847961426,-2.0655250549316406
1781030541874015200,15.73701513671875,0.4621374905109405,-4.439737319946289,-3.0600624084472656
1781030541893538800,15.756538818359376,2.284562587738037,-6.737637519836426,-4.262087345123291
1781030541913064200,15.776064208984376,5.268862247467041,-9.67367458343506,-5.222525119781494
1781030541932586800,15.795586669921876,7.656412601470947,-11.809874534606934,-5.174674987792969
1781030541952106800,15.815106689453126,7.928937435150146,-11.977624893188477,-4.245587348937988
1781030541971626200,15.834626220703123,6.727324962615967,-10.630537033081056,-3.150399923324585
1781030541991154700,15.85415478515625,5.188287258148193,-8.735787391662598,-2.27067494392395
1781030542010688500,15.8736884765625,3.817137479782105,-6.8136749267578125,-1.657562494277954
1781030542030218800,15.89321875,3.817137479782105,-6.8136749267578125,-1.657562494277954
1781030542049746700,15.91274658203125,1.8837499618530276,-3.5541000366210938,-0.9781749844551086
1781030542069273600,15.932273681640623,1.8837499618530276,-3.5541000366210938,-0.9781749844551086
1781030542088801000,15.951801025390624,0.7536374926567078,-1.213712453842163,-0.5931749939918518
1781030542108330500,15.97133056640625,0.7536374926567078,-1.213712453842163,-0.5931749939918518
1781030542127860700,15.99086083984375,0.4446749985218048,-0.5516499876976013,-0.4815250039100647
1781030542147386000,16.01038623046875,0.2690874934196472,-0.184249997138977,-0.4338124990463257
1781030542166911500,16.029911376953127,0.1647250056266784,-0.025849999859929,-0.4166249930858612
1781030542186442200,16.049442138671875,0.1647250056266784,-0.025849999859929,-0.4166249930858612
1781030542205970700,16.068970703125,0.0009624999947845,-0.0644875019788742,-0.3470500111579895
1781030542225498000,16.088498046875,-0.0444125011563301,-0.2109249979257583,-0.3144625127315521
1781030542245027300,16.10802734375,-0.0556874983012676,-0.3880249857902527,-0.3005749881267547
1781030542264555300,16.12755517578125,-0.057337500154972,-0.5256624817848206,-0.2957625091075897
1781030542284080400,16.147080322265627,-0.079475000500679,-0.5600374937057495,-0.2851749956607818
1781030542303604200,16.166604248046873,-0.1211374998092651,-0.4866124987602234,-0.2678500115871429
1781030542323133000,16.1861328125,-0.1427250057458877,-0.3594250082969665,-0.2645500004291534
1781030542342667000,16.2056669921875,-0.1031249985098838,-0.2188999950885772,-0.3056625127792358
1781030542362199300,16.22519921875,-0.0252999998629093,0.004674999974668,-0.4067249894142151
1781030542381727200,16.244727294921876,-0.0321750007569789,0.4828999936580658,-0.5522000193595886
1781030542401256700,16.264256591796876,-0.3056625127792358,1.3791249990463257,-0.6976749897003174
1781030542420790300,16.283790283203125,-0.9938499927520752,2.768699884414673,-0.7893875241279602
1781030542440325400,16.303325439453126,-2.128499984741211,4.644750118255615,-0.7734375
1781030542459857400,16.322857421875,-3.519587516784668,6.555999755859375,-0.6069250106811523
1781030542479388200,16.34238818359375,-4.837662696838379,8.432600021362305,-0.2912249863147735
1781030542498920700,16.361920654296874,-5.673524856567383,9.717262268066406,0.1072499975562095
1781030542518449700,16.38144970703125,-5.829450130462647,10.169637680053713,0.4963749945163727
1781030542537976600,16.4009765625,-5.312449932098389,9.757824897766112,0.8119375109672546
1781030542557506300,16.42050634765625,-4.265112400054932,8.59746265411377,1.028362512588501
1781030542577040000,16.440039794921876,-2.956249952316284,6.961349964141846,1.1478500366210938
1781030542596568300,16.459568359375,-1.720812439918518,5.380099773406982,1.1844249963760376
1781030542616093400,16.479093505859375,-0.7748125195503235,3.672762393951416,1.1431750059127808
1781030542635626800,16.498626708984375,-0.1717374920845031,2.315774917602539,1.0488499402999878
1781030542655159300,16.5181591796875,0.1993750035762787,1.3714250326156616,0.989449977874756
1781030542674683600,16.53768359375,0.4349125027656555,0.9833999872207642,1.0808874368667605
1781030542694215000,16.55721484375,0.4952749907970428,1.2542749643325806,1.323300004005432
1781030542713746400,16.576746337890626,0.3503499925136566,2.0630500316619877,1.5775375366210938
1781030542733276000,16.59627587890625,0.1229249984025955,3.035449981689453,1.6889125108718872
1781030542752810000,16.61581005859375,-0.0290124993771314,3.7321624755859375,1.598574995994568
1781030542772338000,16.635337890625,-0.0404249988496303,3.849449872970581,1.269124984741211
1781030542791863600,16.654863525390624,0.0120999999344348,3.447812557220459,0.9316999912261964
1781030542811393500,16.6743935546875,-0.0405624993145465,2.841712474822998,0.706475019454956
1781030542830927000,16.693927001953124,-0.4149749875068664,2.25885009765625,0.4021874964237213
1781030542850466800,16.713466796875,-0.4149749875068664,2.25885009765625,0.4021874964237213
1781030542870010400,16.73301025390625,-1.3186249732971191,1.6169999837875366,-0.0151249999180436
1781030542889553200,16.75255322265625,-2.954737424850464,0.5715875029563904,-0.4749250113964081
1781030542909089500,16.772089599609377,-7.735612392425537,-2.528899908065796,-1.0599875450134275
1781030542928624600,16.791624755859374,-7.735612392425537,-2.528899908065796,-1.0599875450134275
1781030542948163800,16.811163818359375,-7.735612392425537,-2.528899908065796,-1.0599875450134275
1781030542967705000,16.830705078125,-24.561487197875977,29.445899963378903,-8.958812713623047
1781030542987247000,16.8502470703125,-19.008136749267575,21.0372257232666,-7.068325042724609
1781030543006786300,16.869786376953126,-14.014962196350098,14.841062545776367,-5.331974983215332
1781030543026325800,16.88932568359375,-10.137325286865234,10.709599494934082,-4.065462589263916
1781030543045865700,16.90886572265625,-7.327787399291992,7.865962505340576,-3.1714375019073486
1781030543065401600,16.928401611328123,-5.588274955749512,6.080662250518799,-2.446125030517578
1781030543084939300,16.947939208984376,-4.164599895477295,4.48511266708374,-1.698812484741211
1781030543104480500,16.96748046875,-3.174187421798706,3.2960124015808105,-1.2159124612808228
1781030543124022500,16.9870224609375,-2.3957998752593994,2.255549907684326,-0.9619500041007996
1781030543143561000,17.00656103515625,-1.7804875373840332,1.3234374523162842,-0.7027624845504761
1781030543163098400,17.026098388671876,-1.3888875246047974,0.622737467288971,-0.4948624968528747
1781030543182633200,17.04563330078125,-1.2527624368667605,0.2452999949455261,-0.3606624901294708
1781030543202160600,17.06516064453125,-1.2926374673843384,0.1108250021934509,-0.2655124962329864
1781030543221692700,17.084692626953125,-1.3652374744415283,0.0576125010848045,-0.1639000028371811
1781030543241225200,17.10422509765625,-1.346400022506714,-0.004537499975413,-0.0417999997735023
1781030543260758300,17.12375830078125,-1.184975028038025,-0.079475000500679,0.0879999995231628
1781030543280300800,17.14330078125,-0.9036499857902528,-0.139562502503395,0.213125005364418
1781030543299846000,17.162845947265627,-0.5282750129699707,-0.1824624985456466,0.3396250009536743
1781030543319390700,17.182390625,-0.034375000745058,-0.2855874896049499,0.4940375089645386
1781030543338930400,17.201930419921876,0.6393749713897705,-0.5755749940872192,0.719124972820282
1781030543358465000,17.221465087890625,1.5199249982833862,-1.152250051498413,1.0641125440597534
1781030543378000100,17.241000244140626,2.5396249294281006,-2.0107998847961426,1.5577374696731567
1781030543397539300,17.260539306640624,3.590674877166748,-3.0549750328063965,2.184187412261963
1781030543417079300,17.280079345703125,4.6472249031066895,-4.309249877929688,2.9111499786376958
1781030543436617000,17.299616943359375,5.860525131225586,-6.138687610626221,3.728450059890747
1781030543456155000,17.31915478515625,7.032849788665772,-8.358625411987305,4.451287269592285
1781030543475692300,17.3386923828125,8.630462646484375,-11.295762062072754,5.042675018310547
1781030543495233000,17.35823291015625,10.302462577819824,-14.127437591552734,5.361949920654297
1781030543514775000,17.377775146484375,11.984225273132324,-16.36910057067871,5.430150032043457
1781030543534319900,17.39731982421875,13.019737243652344,-16.766061782836914,5.226649761199951
1781030543553868500,17.41686865234375,12.706375122070312,-14.608412742614746,4.871624946594238
1781030543573416700,17.436416748046874,11.35557460784912,-10.95930004119873,4.57105016708374
1781030543592960500,17.45596044921875,9.70639991760254,-7.154399871826172,4.394087314605713
1781030543612501500,17.47550146484375,8.160487174987793,-3.9150373935699454,4.264012336730957
1781030543632041700,17.495041748046877,6.7258124351501465,-1.4877499341964722,4.022012710571289
1781030543651583500,17.51458349609375,5.448437690734863,0.1457500010728836,3.603187561035156
1781030543671127300,17.534127197265626,3.818650007247925,1.0676875114440918,2.878012418746948
1781030543690669300,17.55366943359375,3.818650007247925,1.0676875114440918,2.878012418746948
1781030543710212400,17.57321240234375,2.2745249271392822,1.3842124938964844,2.0572750568389893
1781030543729753000,17.592753173828125,0.9198749661445618,1.269950032234192,1.299787521362305
1781030543749289000,17.6122890625,-0.1747625023126602,0.9608500003814696,0.7062000036239624
1781030543768824000,17.631823974609375,-0.987112522125244,0.6494125127792358,0.2915000021457672
1781030543788361700,17.65136181640625,-0.987112522125244,0.6494125127792358,0.2915000021457672
1781030543807901200,17.670901123046875,-1.990725040435791,0.0790624991059303,-0.2096875011920929
1781030543827434000,17.69043408203125,-2.490400075912476,-0.4873000085353851,-0.4376625120639801
1781030543846960000,17.709960205078126,-2.490400075912476,-0.4873000085353851,-0.4376625120639801
1781030543866488800,17.72948876953125,-3.71236252784729,-2.977562427520752,-0.9931625127792358
1781030543886018000,17.74901806640625,-3.1752874851226807,-5.798787593841553,-1.0652124881744385
1781030543905555700,17.7685556640625,3.542962551116944,-14.24486255645752,1.1214499473571775
1781030543925098800,17.7880986328125,11.100512504577637,-23.01749992370605,5.009124755859375
1781030543944632600,17.807632568359374,10.79237461090088,-22.50489997863769,6.302175045013428
1781030543964165600,17.82716552734375,7.261650085449219,-17.74616241455078,5.144287586212158
1781030543983697400,17.846697509765626,4.496937274932861,-13.379850387573242,3.8315749168396
1781030544003228200,17.866228271484374,2.676300048828125,-9.796875,2.6958250999450684
1781030544022762500,17.885762451171875,1.6135624647140503,-6.957224845886231,1.784749984741211
1781030544042296000,17.905296142578123,1.0973875522613523,-4.938175201416016,1.09422504901886
1781030544061827000,17.9248271484375,0.9187750220298768,-3.294362545013428,0.5852000117301941
1781030544081361400,17.944361328125,0.8963624835014343,-2.187350034713745,0.2096875011920929
1781030544100901000,17.963901123046874,0.892787516117096,-1.4203749895095823,-0.077962502837181
1781030544120445000,17.98344482421875,0.8379250168800354,-0.8633624911308289,-0.2968625128269195
1781030544139985200,18.002985107421875,0.7133499979972839,-0.4589749872684479,-0.442062497138977
1781030544159522600,18.0225224609375,0.5328124761581421,-0.201162502169609,-0.504212498664856
1781030544179057700,18.0420576171875,0.3284874856472015,-0.0962499976158142,-0.4852375090122223
1781030544198593000,18.06159301757813,0.1252624988555908,-0.1141249984502792,-0.4104374945163727
1781030544218132500,18.081132568359376,-0.0563750006258487,-0.194700002670288,-0.3100624978542328
1781030544237670400,18.10067041015625,-0.18521249294281,-0.296037495136261,-0.1880999952554702
1781030544257208600,18.12020849609375,-0.2198625057935714,-0.3988874852657318,-0.0334125012159347
1781030544276751000,18.13975122070313,-0.1304875016212463,-0.4746499955654144,0.1478125005960464
1781030544296291600,18.15929150390625,0.0724624991416931,-0.4969249963760376,0.3349500000476837
1781030544315827000,18.17882690429688,0.3517250120639801,-0.4731374979019165,0.515625
1781030544335363000,18.19836303710937,0.6858500242233276,-0.4760249853134155,0.6793875098228455
1781030544354900700,18.217900634765623,1.0913374423980713,-0.6107749938964844,0.8607500195503235
1781030544374437600,18.237437744140625,1.6087499856948853,-0.9285374879837036,1.0922999382019043
1781030544393974800,18.256974853515626,2.2632498741149902,-1.4067624807357788,1.3747249841690063
1781030544413514500,18.27651440429688,3.029949903488159,-1.9303624629974363,1.712012529373169
1781030544433053700,18.2960537109375,3.848900079727173,-2.375037431716919,2.0813374519348145
1781030544452589000,18.315589111328126,4.735774993896484,-2.806375026702881,2.49438738822937
1781030544472115700,18.33511572265625,6.256112575531006,-4.061337471008301,3.220937490463257
1781030544491640300,18.354640380859376,11.6505126953125,-11.571450233459473,5.641349792480469
1781030544511165200,18.374165283203126,19.094900131225582,-21.256675720214844,7.884662628173828
1781030544530690600,18.393690673828125,20.2856502532959,-21.51421165466309,7.437375068664551
1781030544550229800,18.413229736328127,17.020437240600586,-15.897887229919434,6.153262615203857
1781030544569775900,18.43277587890625,17.020437240600586,-15.897887229919434,6.153262615203857
1781030544589320200,18.4523203125,13.82425022125244,-10.817811965942385,5.176737308502197
1781030544608861200,18.471861083984376,8.92856216430664,-3.210900068283081,3.854949951171875
1781030544628399900,18.49139990234375,8.92856216430664,-3.210900068283081,3.854949951171875
1781030544647937500,18.5109375,8.92856216430664,-3.210900068283081,3.854949951171875
1781030544667474400,18.530474365234376,5.36662483215332,1.1855249404907229,2.4994750022888184
1781030544687011800,18.55001171875,3.5806374549865723,1.6046249866485596,1.752987504005432
1781030544706550300,18.56955029296875,1.99361252784729,1.1378124952316284,1.1391874551773071
1781030544726091800,18.589091796875,0.6535375118255615,0.4347749948501587,0.7016624808311462
1781030544745634600,18.608634521484376,-0.3969624936580658,0.0211750008165836,0.4101625084877014
1781030544765173200,18.62817333984375,-1.1435874700546265,-0.0059124999679625,0.2128500044345855
1781030544784712200,18.647712158203124,-1.5885374546051023,0.1211374998092651,0.0723249986767768
1781030544804246500,18.66724658203125,-1.8195375204086304,0.1086250022053718,-0.0313500016927719
1781030544823780400,18.6867802734375,-2.1328999996185303,-0.2265999913215637,-0.1302125006914138
1781030544843319800,18.70631982421875,-2.873612403869629,-0.8973249793052673,-0.2459875047206878
1781030544862860800,18.72586083984375,-4.088837623596191,-1.803862452507019,-0.3386625051498413
1781030544882399200,18.745399169921875,-5.3119001388549805,-2.8016998767852783,-0.3312374949455261
1781030544901935900,18.764935791015624,9.296512603759766,-19.786937713623047,4.983274936676025
1781030544921471700,18.7844716796875,20.067575454711918,-31.852149963378903,8.919625282287598
1781030544941004000,18.804004150390625,12.998700141906738,-23.92555046081543,6.48752498626709
1781030544960537600,18.82353759765625,8.128862380981445,-17.856163024902344,4.57393741607666
1781030544980072700,18.84307275390625,4.961962699890137,-13.26393699645996,3.132937431335449
1781030544999606300,18.862606201171875,3.017162561416626,-9.6842622756958,2.035137414932251
1781030545019139600,18.8821396484375,1.8893874883651731,-6.802262306213379,1.177412509918213
1781030545038677200,18.90167724609375,1.2328250408172607,-4.571875095367432,0.4961000084877014
1781030545058219000,18.921218994140624,0.815512478351593,-2.6694250106811523,-0.0226875003427267
1781030545077763600,18.940763671875,0.5587999820709229,-1.385037541389465,-0.3635500073432922
1781030545097307100,18.96030712890625,0.4300999939441681,-0.6318125128746033,-0.5328124761581421
1781030545116842500,18.979842529296874,0.370974987745285,-0.2866874933242798,-0.5692499876022339
1781030545136376800,18.999376953125,0.3034625053405761,-0.2010249942541122,-0.527037501335144
1781030545155919400,19.01891943359375,0.1755875051021576,-0.2157374918460846,-0.4563624858856201
1781030545175463000,19.038462890625,-0.0049499999731779,-0.2286625057458877,-0.3823874890804291
1781030545194998800,19.057998779296877,-0.1890625059604644,-0.2312749922275543,-0.3033249974250793
1781030545214535400,19.077535400390627,-0.3267000019550323,-0.2824249863624573,-0.2003374993801117
1781030545234071800,19.09707177734375,-0.3891249895095825,-0.4266625046730041,-0.0570624992251396
1781030545253603800,19.116603759765624,-0.3623124957084656,-0.6324999928474426,0.1259499937295913
1781030545273142000,19.13614208984375,-0.2352624982595443,-0.8064374923706055,0.3315125107765198
1781030545292681200,19.15568115234375,-0.0004124999977648,-0.8652874827384949,0.5347374677658081
1781030545312215800,19.1752158203125,0.3335750102996826,-0.8038250207901001,0.7185750007629395
1781030545331751400,19.19475146484375,0.7576249837875366,-0.721875011920929,0.8882499933242798
1781030545351289300,19.214289306640627,1.295662522315979,-0.7734375,1.0817124843597412
1781030545370827800,19.233827880859376,1.295662522315979,-0.7734375,1.0817124843597412
1781030545390369000,19.253369140625,1.966524958610535,-1.055037498474121,1.3468124866485596
1781030545409913900,19.27291381835937,3.603874921798706,-1.908774971961975,2.1276750564575195
1781030545429460500,19.29246044921875,3.603874921798706,-1.908774971961975,2.1276750564575195
1781030545449005300,19.31200537109375,3.603874921798706,-1.908774971961975,2.1276750564575195
1781030545468545000,19.331544921875,7.096099853515625,-4.971449851989746,4.156899929046631
1781030545488088300,19.35108837890625,7.096099853515625,-4.971449851989746,4.156899929046631
1781030545507627500,19.37062744140625,18.774524688720703,-19.053787231445312,8.404687881469727
1781030545527161900,19.390161865234376,19.076749801635746,-17.998199462890625,7.453187465667725
1781030545546703600,19.40970361328125,16.83426284790039,-13.938512802124023,6.133599758148193
1781030545566248200,19.429248291015625,14.216537475585938,-10.005462646484377,5.092724800109863
1781030545585791000,19.448791015625,11.625900268554688,-6.6237874031066895,4.275562286376953
1781030545605336000,19.468336181640623,9.2056245803833,-3.733262538909912,3.593975067138672
1781030545624882400,19.48788232421875,7.06172513961792,-1.2949750423431396,2.983749866485596
1781030545644425700,19.50742578125,5.42808723449707,0.5460125207901001,2.410099983215332
1781030545663968300,19.52696826171875,3.822499990463257,1.5481125116348269,1.8213249444961548
1781030545683508000,19.546508056640626,2.5258750915527344,1.6513749361038208,1.2886500358581543
1781030545703049700,19.5660498046875,1.4489749670028689,1.111549973487854,0.8519499897956848
1781030545722589400,19.58558935546875,0.5508249998092651,0.354200005531311,0.5148000121116638
1781030545742120400,19.60512036132813,-0.1911250054836273,-0.2554749846458435,0.255887508392334
1781030545761649400,19.6246494140625,-0.7735750079154968,-0.5609999895095825,0.053762499243021
1781030545781185500,19.644185546875,-1.2016124725341797,-0.657800018787384,-0.1109625026583671
1781030545800724000,19.663723876953124,-1.5522375106811523,-0.7893875241279602,-0.259737491607666
1781030545820260600,19.683260498046877,-1.9588249921798704,-1.1932250261306765,-0.4127750098705292
1781030545839800600,19.702800537109376,-2.4798123836517334,-2.0433874130249023,-0.5805249810218811
1781030545859336400,19.72233642578125,-2.796750068664551,-3.5358123779296875,-0.7159624695777893
1781030545878865700,19.74186572265625,-1.4689124822616575,-6.456174850463867,-0.4972000122070312
1781030545898398700,19.761398681640625,6.049862384796143,-14.96646213531494,2.1273999214172363
1781030545917935400,19.78093530273437,12.974912643432615,-22.16238784790039,5.5558247566223145
1781030545937474600,19.800474609375,12.01708698272705,-20.94826316833496,6.178699970245361
1781030545957013800,19.820013671875,8.798212051391602,-16.97121238708496,5.066874980926514
1781030545976548600,19.83954858398437,6.123425006866455,-13.14321231842041,3.749350070953369
1781030545996081200,19.8590810546875,4.135037422180176,-9.703925132751465,2.5238125324249268
1781030546015618300,19.878618408203124,2.712187528610229,-6.737774848937988,1.496000051498413
1781030546035156700,19.89815673828125,1.7507874965667725,-4.480299949645996,0.7137625217437744
1781030546054690000,19.91768994140625,1.1367125511169434,-2.710400104522705,0.1747625023126602
1781030546074225200,19.93722509765625,0.7902125120162964,-1.6363874673843384,-0.146025002002716
1781030546093760000,19.956760009765624,0.6153125166893005,-1.0873500108718872,-0.2956250011920929
1781030546113293600,19.97629345703125,0.5091624855995178,-0.8519499897956848,-0.3414124846458435
1781030546132828700,19.99582861328125,0.3870624899864197,-0.7277874946594238,-0.3433375060558319
1781030546152364800,20.01536474609375,0.2292124927043914,-0.6080250144004822,-0.3313750028610229
1781030546171903000,20.03490307617188,0.0680624991655349,-0.4919750094413757,-0.3089624941349029
1781030546191440000,20.05443994140625,-0.0534874983131885,-0.4285874962806701,-0.2694999873638153
1781030546210974000,20.07397387695313,-0.1025749966502189,-0.4692874848842621,-0.2004749923944473
1781030546230508800,20.0935087890625,-0.1025749966502189,-0.4692874848842621,-0.2004749923944473
1781030546250048500,20.113048583984376,-0.0642125010490417,-0.6017000079154968,-0.0977625027298927
1781030546269587700,20.13258764648437,0.0532125011086463,-0.74566251039505,0.025849999859929
1781030546289123800,20.152123779296875,0.488812506198883,-0.8447999954223633,0.3014000058174133
1781030546308656400,20.171656494140624,0.488812506198883,-0.8447999954223633,0.3014000058174133
1781030546328187400,20.1911875,0.488812506198883,-0.8447999954223633,0.3014000058174133
1781030546347718400,20.210718505859376,1.2350250482559204,-0.915612518787384,0.6682500243186951
1781030546367250000,20.23025,1.6521999835968018,-0.9436625242233276,0.8606125116348267
1781030546386780700,20.24978076171875,2.042287588119507,-0.9162999987602234,1.0396374464035034
1781030546406307000,20.26930712890625,2.4260499477386475,-0.8709250092506409,1.2175624370574951
1781030546425842200,20.28884228515625,2.921187400817871,-0.934724986553192,1.4370124340057373
1781030546445384200,20.30838427734375,3.743575096130371,-1.3451625108718872,1.786674976348877
1781030546464923400,20.32792333984375,5.739799976348877,-3.3166375160217285,2.644399881362915
1781030546484459500,20.34745947265625,14.63316249847412,-16.23916244506836,5.866024971008301
1781030546503992800,20.366992919921877,21.75703811645508,-26.022836685180664,7.8692626953125
1781030546523525400,20.386525390625,19.11717414855957,-21.130586624145508,6.502099990844727
1781030546543061800,20.406061767578127,15.41526222229004,-15.149612426757812,5.2233500480651855
1781030546562598400,20.42559838867188,12.444849967956545,-10.491387367248535,4.358062267303467
1781030546582131200,20.445131103515624,10.196037292480469,-6.970699787139893,3.8264875411987305
1781030546601665000,20.4646650390625,8.478662490844727,-4.211762428283691,3.517250061035156
1781030546621201400,20.484201416015622,7.064062595367432,-1.9848124980926516,3.2880375385284424
1781030546640737500,20.503737548828123,5.958425045013428,-0.2398000061511993,3.019774913787842
1781030546660273000,20.52327294921875,4.4753499031066895,0.9286749958992004,2.554612398147583
1781030546679807000,20.542806884765625,3.0678999423980717,1.4444375038146973,1.974912524223328
1781030546699343400,20.56234326171875,1.8383749723434448,1.386412501335144,1.3869625329971311
1781030546718876000,20.5818759765625,0.8511250019073486,0.9640125036239624,0.8764249682426453
1781030546738397400,20.6013974609375,0.1000999957323074,0.441100001335144,0.4796000123023987
1781030546757913600,20.62091357421875,-0.4742375016212463,0.0241999998688697,0.1903000026941299
1781030546777431300,20.640431396484374,-0.9450374841690063,-0.2134000062942505,-0.0233750008046627
1781030546796954400,20.659954345703124,-1.3420000076293943,-0.3254624903202057,-0.1909874975681305
1781030546816480000,20.67947998046875,-1.6696624755859375,-0.4496249854564667,-0.3301374912261963
1781030546836003300,20.69900341796875,-1.9551124572753904,-0.7045499682426453,-0.4545750021934509
1781030546855526700,20.718526611328127,-2.247987508773804,-1.161324977874756,-0.5806624889373779
1781030546875052800,20.738052734375,-2.539487600326538,-1.9014874696731567,-0.7130749821662903
1781030546894577700,20.75757763671875,-2.623499870300293,-3.0698249340057373,-0.8256874680519104
1781030546914098200,20.77709814453125,-1.720674991607666,-5.30887508392334,-0.7863624691963196
1781030546933622000,20.7966220703125,3.515049934387207,-11.437524795532228,0.4243249893188476
1781030546953153000,20.81615307617188,11.04001235961914,-19.682300567626957,3.259162425994873
1781030546972682200,20.83568212890625,12.713799476623535,-21.364612579345703,4.8719000816345215
1781030546992205600,20.85520556640625,9.53163719177246,-17.531661987304688,4.300175189971924
1781030547011731000,20.87473095703125,6.46016263961792,-13.48476219177246,3.3262624740600586
1781030547031257900,20.8942578125,4.1779375076293945,-10.04052448272705,2.390300035476685
1781030547050784000,20.913783935546878,4.1779375076293945,-10.04052448272705,2.390300035476685
1781030547070314500,20.933314453125,2.640275001525879,-7.258349895477295,1.5992624759674072
1781030547089846500,20.952846435546878,1.1131999492645264,-3.45455002784729,0.5007749795913696
1781030547109377000,20.972376953125,1.1131999492645264,-3.45455002784729,0.5007749795913696
1781030547128906000,20.991906005859374,1.1131999492645264,-3.45455002784729,0.5007749795913696
1781030547148433700,21.01143359375,0.6148999929428101,-1.4038749933242798,-0.0360249988734722
1781030547167961000,21.030961181640624,0.6148999929428101,-1.4038749933242798,-0.0360249988734722
1781030547187490600,21.050490478515623,0.3275249898433685,-0.8317375183105469,-0.1132999956607818
1781030547207022000,21.07002197265625,0.1821874976158142,-0.8490625023841858,-0.0604999996721744
1781030547226556400,21.089556396484376,0.050875000655651,-0.9147874712944032,-0.0032999999821186
1781030547246088700,21.10908862304688,-0.0560999996960163,-0.9757000207901,0.040837500244379
1781030547265618400,21.128618408203124,-0.1304875016212463,-1.028362512588501,0.0793375000357627
1781030547285142500,21.148142578125,-0.159912496805191,-1.0825375318527222,0.135574996471405
1781030547304661800,21.167661865234376,-0.127187505364418,-1.1339625120162964,0.2293500006198883
1781030547324185000,21.18718505859375,-0.0221375003457069,-1.1602250337600708,0.3588750064373016
1781030547343714300,21.20671435546875,0.1519374996423721,-1.1453750133514404,0.5088874697685242
1781030547363249000,21.226248779296878,0.3929750025272369,-1.0870749950408936,0.6678375005722046
1781030547382784500,21.245784423828123,0.7057874798774719,-0.995087504386902,0.8344874978065491
1781030547402317800,21.26531787109375,0.7057874798774719,-0.995087504386902,0.8344874978065491
1781030547421853200,21.284853271484376,1.565987467765808,-0.8095999956130981,1.216325044631958
1781030547441390300,21.30439038085937,2.1012749671936035,-0.7954375147819519,1.4444375038146973
1781030547460921300,21.32392138671875,2.733637571334839,-0.9432500004768372,1.7324999570846558
1781030547480455200,21.343455078125,3.6359124183654794,-1.4815624952316284,2.1895499229431152
1781030547499993600,21.36299365234375,5.568749904632568,-3.2683749198913574,3.218600034713745
1781030547519527200,21.382527099609376,10.283900260925291,-8.932412147521973,5.707762241363525
1781030547539058200,21.40205810546875,16.178386688232422,-15.715424537658691,7.985312461853027
1781030547558588400,21.42158837890625,17.797725677490234,-16.75423812866211,7.633037567138672
1781030547578117000,21.4411171875,16.096712112426758,-13.532750129699709,6.042574882507324
1781030547597645800,21.460645751953123,14.029674530029297,-10.12714958190918,4.704562664031982
1781030547617170200,21.480170166015625,12.10976219177246,-7.331775188446045,3.74495005607605
1781030547636691200,21.49969116210937,10.352100372314451,-5.144287586212158,3.061850070953369
1781030547656215600,21.519215576171877,8.737162590026855,-3.435299873352051,2.559424877166748
1781030547675741700,21.53874169921875,7.2243876457214355,-2.077349901199341,2.1591625213623047
1781030547695266300,21.558266357421875,5.967087268829346,-0.9809250235557556,1.793962478637695
1781030547714786600,21.57778662109375,4.344725131988525,-0.1447875052690506,1.4042874574661257
1781030547734303700,21.5973037109375,2.867837429046631,0.3708375096321106,1.0117249488830566
1781030547753824800,21.61682470703125,1.6174124479293823,0.5414749979972839,0.6524375081062317
1781030547773353700,21.636353759765623,0.6256250143051147,0.4346374869346618,0.35708749294281
1781030547792882200,21.65588208007813,-0.1440999954938888,0.1874125003814697,0.1347499936819076
1781030547812405000,21.67540502929688,-0.7486875057220459,-0.076724998652935,-0.0261249989271163
1781030547831926800,21.6949267578125,-1.2322750091552734,-0.2993375062942505,-0.1509750038385391
1781030547851448600,21.714448486328124,-1.6504124402999878,-0.514662504196167,-0.2656500041484833
1781030547870972700,21.73397265625,-2.0828499794006348,-0.8118000030517578,-0.3862375020980835
1781030547890498300,21.753498291015624,-2.0828499794006348,-0.8118000030517578,-0.3862375020980835
1781030547910025200,21.773025146484372,-2.630924940109253,-1.2614250183105469,-0.5198875069618225
1781030547929550600,21.79255053710937,-3.348949909210205,-1.9112499952316284,-0.6469374895095825
1781030547949073200,21.8120732421875,-3.348949909210205,-1.9112499952316284,-0.6469374895095825
1781030547968596700,21.8315966796875,9.188024520874023,-17.94388771057129,4.307049751281738
1781030547988119000,21.851119140625,9.188024520874023,-17.94388771057129,4.307049751281738
1781030548007644700,21.870644775390623,14.122212409973145,-23.834938049316406,6.971937656402588
1781030548027172900,21.8901728515625,9.056574821472168,-17.568099975585938,4.816074848175049
1781030548046694700,21.909694580078124,5.803599834442139,-12.847311973571776,3.234412431716919
1781030548066216000,21.9292158203125,3.774650096893311,-9.29458713531494,2.0876624584198
1781030548085742000,21.9487421875,2.5264248847961426,-6.595874786376953,1.253999948501587
1781030548105262300,21.968262451171874,1.7707250118255615,-4.658912658691406,0.6538124680519104
1781030548124782800,21.987782958984376,1.2944250106811523,-3.0588250160217285,0.2406249940395355
1781030548144305400,22.007305419921877,0.982574999332428,-1.97876250743866,-0.0211750008165836
1781030548163823400,22.0268232421875,0.7551500201225281,-1.305150032043457,-0.171324998140335
1781030548183341600,22.046341552734376,0.5460125207901001,-0.928950011730194,-0.2513499855995178
1781030548202861000,22.065861083984377,0.3176249861717224,-0.7331500053405762,-0.2897124886512756
1781030548222384600,22.08538452148437,0.0736999958753585,-0.6153125166893005,-0.2958999872207641
1781030548241911300,22.10491137695313,-0.1618375033140182,-0.520437479019165,-0.2708750069141388
1781030548261441000,22.12444091796875,-0.3668499886989593,-0.4465999901294708,-0.2161500006914138
1781030548280972000,22.14397192382813,-0.5044875144958496,-0.4479750096797943,-0.1264999955892563
1781030548300503600,22.16350366210937,-0.5198875069618225,-0.5755749940872192,0.0094875004142522
1781030548320033300,22.183033203125,-0.3891249895095825,-0.8028625249862671,0.1900250017642974
1781030548339561200,22.20256127929688,-0.1396999955177307,-1.0451375246047974,0.3997125029563904
1781030548359096300,22.222096435546877,0.1678874939680099,-1.214400053024292,0.6142125129699707
1781030548378630400,22.24163037109375,0.4824874997138977,-1.26829993724823,0.810699999332428
1781030548398162000,22.26116186523437,0.7939249873161316,-1.205875039100647,0.979550004005432
1781030548417693700,22.280693603515623,1.117324948310852,-1.0470625162124634,1.1214499473571775
1781030548437221400,22.300221435546877,1.4671249389648438,-0.8318749666213989,1.2460249662399292
1781030548456743700,22.31974365234375,1.825999975204468,-0.6012874841690063,1.36166250705719
1781030548476266500,22.3392666015625,2.1727750301361084,-0.3866499960422516,1.4803249835968018
1781030548495793400,22.35879345703125,2.5618999004364014,-0.2369125038385391,1.640375018119812
1781030548515320600,22.378320556640624,3.279512405395508,-0.3983374834060669,1.994575023651123
1781030548534848800,22.397848876953127,6.3553876876831055,-3.2364749908447266,3.621474981307984
1781030548554377700,22.417377685546874,15.68709945678711,-14.72336196899414,7.654212474822998
1781030548573905000,22.43690478515625,21.658863067626957,-19.914125442504883,8.847712516784668
1781030548593430300,22.45643017578125,18.554662704467773,-13.56767463684082,6.139100074768066
1781030548612955400,22.475955322265627,15.207499504089355,-9.006799697875977,4.089937686920166
1781030548632483800,22.49548388671875,12.51208782196045,-5.703499794006348,2.923525094985962
1781030548652012800,22.5150126953125,10.401599884033203,-3.476824998855591,2.4978249073028564
1781030548671534300,22.534534423828124,8.683812141418457,-1.9739500284194944,2.1977999210357666
1781030548691056600,22.554056640625,7.149587631225586,-0.9154750108718872,1.921975016593933
1781030548710585900,22.5735859375,7.149587631225586,-0.9154750108718872,1.921975016593933
1781030548730114800,22.59311474609375,5.870287418365479,-0.1765500009059906,1.6025625467300415
1781030548749638400,22.61263842773437,2.6098875999450684,0.3301374912261963,0.7440124750137329
1781030548769164300,22.632164306640625,2.6098875999450684,0.3301374912261963,0.7440124750137329
1781030548788693800,22.65169384765625,-0.0224124994128942,-0.1958000063896179,-0.0342375002801418
1781030548808223200,22.67122314453125,-0.0224124994128942,-0.1958000063896179,-0.0342375002801418
1781030548827753000,22.6907529296875,-0.8386124968528748,-0.5875374674797058,-0.2451625019311905
1781030548847278600,22.710278564453127,-1.330862522125244,-1.0012749433517456,-0.3481499850749969
1781030548866800600,22.729800537109377,-1.709949970245361,-1.43426251411438,-0.420199990272522
1781030548886321000,22.74932080078125,-2.3369500637054443,-1.79135000705719,-0.5799750089645386
1781030548905845200,22.76884521484375,-3.849587440490722,-1.699637532234192,-1.0014125108718872
1781030548925373000,22.788373046875,-7.465974807739258,0.8454874753952026,-2.164525032043457
1781030548944897800,22.80789770507813,-13.580737113952637,8.567350387573242,-5.51924991607666
1781030548964421600,22.827421630859376,-16.632274627685547,14.051262855529783,-8.953450202941895
1781030548983946800,22.84694677734375,-14.808337211608888,12.818161964416504,-9.507024765014648
1781030549003471400,22.866471435546877,-12.08226203918457,10.495787620544434,-8.450337409973145
1781030549022993000,22.885992919921875,-9.674775123596191,8.714612007141113,-7.160449981689453
1781030549042519000,22.90551904296875,-7.712100028991699,7.287637233734131,-5.999949932098389
1781030549062045200,22.925045166015625,-6.393199920654297,6.288974761962891,-5.141674995422363
1781030549081568000,22.94456811523437,-4.922637462615967,4.995100021362305,-4.1808247566223145
1781030549101093600,22.96409375,-3.7108500003814697,3.811774969100952,-3.3455123901367188
1781030549120618000,22.98361791992188,-2.686199903488159,2.742300033569336,-2.637525081634521
1781030549140146200,23.003146240234376,-1.82764995098114,1.8507499694824217,-2.079687595367432
1781030549159675100,23.022675048828123,-1.149500012397766,1.2245750427246094,-1.6835500001907349
1781030549179202000,23.0422021484375,-0.7046874761581421,0.9178124666213988,-1.4414124488830566
1781030549198725400,23.06172534179688,-0.5198875069618225,0.8879749774932861,-1.3116124868392944
1781030549218246400,23.081246337890622,-0.550000011920929,0.9937124848365784,-1.219349980354309
1781030549237770800,23.100770751953124,-0.7046874761581421,1.0279500484466553,-1.0859750509262085
1781030549257298400,23.12029833984375,-0.8944374918937683,0.81826251745224,-0.8625375032424927
1781030549276829700,23.13982958984375,-1.0448625087738037,0.3393499851226806,-0.5530250072479248
1781030549296358100,23.159358154296875,-1.0881749391555786,-0.2747249901294708,-0.1982749998569488
1781030549315889400,23.178889404296875,-0.9898625016212464,-0.8082249760627747,0.1583999991416931
1781030549335426600,23.19842651367188,-0.7606499791145325,-1.0760749578475952,0.494174987077713
1781030549354957800,23.21795776367188,-0.4317499995231628,-1.0023750066757202,0.8140000104904175
1781030549374487800,23.23748779296875,-0.0367125011980533,-0.643637478351593,1.1262625455856323
1781030549394019300,23.257019287109376,0.403837502002716,-0.1772374957799911,1.4308249950408936
1781030549413550300,23.27655029296875,0.9125875234603882,0.1883749961853027,1.7384124994277954
1781030549433077800,23.29607788085937,1.540137529373169,0.3218874931335449,2.083812475204468
1781030549452602400,23.315602294921877,2.355649948120117,0.1453374922275543,2.5400373935699463
1781030549472127000,23.335126953125,3.510925054550171,-0.525112509727478,3.255037546157837
1781030549491649000,23.35464892578125,5.515812397003174,-2.3739373683929443,4.567749977111816
1781030549511174400,23.37417431640625,8.815812110900879,-6.699824810028076,6.459475040435791
1781030549530707200,23.393707275390625,8.815812110900879,-6.699824810028076,6.459475040435791
1781030549550230800,23.413230712890623,15.037412643432615,-13.519550323486328,7.395299911499023
1781030549569754400,23.43275439453125,15.037412643432615,-13.519550323486328,7.395299911499023
1781030549589284600,23.45228466796875,14.784825325012209,-11.878350257873535,6.111737251281738
1781030549608812500,23.4718125,12.181124687194824,-6.940999984741211,4.150024890899658
1781030549628340000,23.491340087890624,12.181124687194824,-6.940999984741211,4.150024890899658
1781030549647869700,23.51086962890625,10.61101245880127,-4.766849994659424,3.513124942779541
1781030549667402000,23.530402099609372,8.954825401306152,-2.910325050354004,2.95597505569458
1781030549686933000,23.54993310546875,7.165262699127197,-1.4216125011444092,2.339837551116944
1781030549706462200,23.569462158203127,7.165262699127197,-1.4216125011444092,2.339837551116944
1781030549725991200,23.5889912109375,3.5796749591827397,-0.1231999993324279,0.8716124892234802
1781030549745520000,23.60852001953125,2.057687520980835,-0.4422000050544739,0.2418625056743621
1781030549765047000,23.628047119140625,0.9315624833106996,-1.0799249410629272,-0.20762500166893
1781030549784571100,23.647571044921875,0.0963874980807304,-1.5453624725341797,-0.5003625154495239
1781030549804098000,23.66709814453125,-0.6506500244140625,-1.5236375331878662,-0.7123875021934509
1781030549823624700,23.686624755859373,-1.524187445640564,-1.0496749877929688,-0.930050015449524
1781030549843147500,23.7061474609375,-2.668874979019165,-0.3429250121116638,-1.1896499395370483
1781030549862673700,23.72567358398437,-4.210525035858154,0.4862000048160553,-1.452137470245361
1781030549882209500,23.74520947265625,-6.486700057983398,1.881962537765503,-1.675162434577942
1781030549901746700,23.76474658203125,-10.08493709564209,6.40310001373291,-2.3178374767303467
1781030549921278500,23.784278564453125,-15.658637046813965,15.029987335205078,-4.692049980163574
1781030549940807000,23.803806884765624,-17.856300354003906,18.96125030517578,-6.8098249435424805
1781030549960333300,23.823333251953127,-15.58576202392578,15.617525100708008,-6.662562370300293
1781030549979859700,23.842859619140626,-12.54316234588623,11.490875244140623,-5.66073751449585
1781030549999389700,23.8623896484375,-9.755900382995604,8.201325416564941,-4.570775032043457
1781030550018922800,23.8819228515625,-7.383474826812744,5.820512294769287,-3.5938374996185303
1781030550038455600,23.90145556640625,-5.615224838256836,4.273224830627441,-2.8070623874664307
1781030550057986600,23.920986572265623,-3.903625011444092,3.14490008354187,-2.147200107574463
1781030550077519600,23.94051953125,-2.617037534713745,2.460700035095215,-1.6513749361038208
1781030550097052700,23.960052734375,-1.684512495994568,2.081199884414673,-1.295799970626831
1781030550116578000,23.979578125,-1.0723625421524048,1.9045125246047971,-1.0599875450134275
1781030550136101600,23.9991015625,-0.7501999735832214,1.835212469100952,-0.9190499782562256
1781030550155624400,24.01862451171875,-0.6516125202178955,1.7763625383377075,-0.8339374661445618
1781030550175149000,24.03814916992188,-0.6793875098228455,1.6607249975204468,-0.7612000107765198
1781030550194672000,24.057672119140623,-0.743737518787384,1.4814250469207764,-0.6755374670028687
1781030550214198800,24.07719873046875,-0.7997000217437744,1.268025040626526,-0.5763999819755554
1781030550233730600,24.09673046875,-0.8294000029563904,1.0386749505996704,-0.4676375091075897
1781030550253261600,24.116261474609374,-0.8133124709129333,0.7852625250816345,-0.3383874893188476
1781030550272797200,24.135797119140623,-0.7426375150680542,0.5091624855995178,-0.184249997138977
1781030550292335400,24.15533544921875,-0.6166874766349792,0.2539624869823456,-0.020075000822544
1781030550311870200,24.1748701171875,-0.4373874962329864,0.0724624991416931,0.1340624988079071
1781030550331406600,24.194406494140622,-0.2025374919176101,-0.0266750007867813,0.2756874859333038
1781030550350941400,24.21394140625,0.091849997639656,-0.0811249986290931,0.4203374981880188
1781030550370471000,24.233470947265623,0.091849997639656,-0.0811249986290931,0.4203374981880188
1781030550389999900,24.25299975585937,0.4413749873638153,-0.1315875053405761,0.5863000154495239
1781030550409527300,24.27252734375,0.8681749701499939,-0.1669249981641769,0.7896624803543091
1781030550429056300,24.29205615234375,0.8681749701499939,-0.1669249981641769,0.7896624803543091
1781030550448589000,24.311589111328125,2.087524890899658,-0.1358499974012375,1.3216500282287598
1781030550468121600,24.33112158203125,2.087524890899658,-0.1358499974012375,1.3216500282287598
1781030550487652000,24.350652099609373,4.102587699890137,-1.0642499923706057,2.1742875576019287
1781030550507183400,24.370183349609373,6.614850044250488,-4.07756233215332,3.3166375160217285
1781030550526715400,24.38971533203125,15.78156280517578,-16.133562088012695,6.277562618255615
1781030550546246400,24.409246337890625,21.999588012695312,-23.758625030517575,7.723787307739258
1781030550565777700,24.428777587890625,19.072486877441406,-18.683500289916992,6.407225131988525
1781030550585304800,24.448304931640624,15.558537483215332,-13.021249771118164,5.295674800872803
1781030550604830700,24.467830810546875,12.748862266540527,-8.555662155151367,4.553587436676025
1781030550624354300,24.487354248046877,10.559999465942385,-5.286737442016602,4.040162563323975
1781030550643877000,24.506877197265624,8.82131290435791,-2.986500024795532,3.6356375217437744
1781030550663399700,24.526399658203125,7.326687335968018,-1.3657875061035156,3.2491250038146973
1781030550682926300,24.54592626953125,6.123149871826172,-0.1896124929189682,2.83291244506836
1781030550702459600,24.56545971679688,4.483462333679199,0.6406124830245972,2.277962446212769
1781030550721993200,24.5849931640625,2.93961238861084,1.0872124433517456,1.648074984550476
1781030550741526300,24.6045263671875,1.626212477684021,1.0844625234603882,1.022587537765503
1781030550761061600,24.6240615234375,0.6109125018119812,0.6850249767303467,0.4838624894618988
1781030550780592600,24.643592529296875,-0.1391499936580658,0.0979000031948089,0.0725999996066093
1781030550800120000,24.6631201171875,-0.7074375152587891,-0.4147000014781952,-0.2204124927520752
1781030550819647700,24.682647705078125,-1.1720499992370603,-0.6987749934196472,-0.4323000013828277
1781030550839176400,24.70217651367188,-1.5947250127792358,-0.7837499976158142,-0.6052749752998352
1781030550858708000,24.7217080078125,-2.046412467956543,-0.8684499859809875,-0.776324987411499
1781030550878239700,24.74123974609375,-2.574549913406372,-1.2219624519348145,-0.960574984550476
1781030550897768400,24.7607685546875,-3.0916874408721924,-2.0662124156951904,-1.1413874626159668
1781030550917297000,24.780296875,-3.135274887084961,-3.6683623790740967,-1.2571624517440796
1781030550936827100,24.7998271484375,-0.5131499767303467,-7.623549938201904,-0.8516749739646912
1781030550956356900,24.81935693359375,8.540812492370605,-17.710824966430664,2.1540749073028564
1781030550975887400,24.838887451171875,14.096362113952637,-23.507274627685547,4.872312545776367
1781030550995415800,24.85841577148437,11.073699951171877,-19.818012237548828,4.515775203704834
1781030551014944000,24.877944091796877,7.636062622070312,-15.282437324523926,3.5043249130249023
1781030551034474200,24.89747412109375,5.069487571716309,-11.428587913513184,2.559287548065185
1781030551054007000,24.917007080078125,3.3127875328063965,-8.266499519348145,1.7533999681472778
1781030551073539600,24.93653955078125,2.1670000553131104,-5.889400005340576,1.0700249671936035
1781030551093066800,24.956066650390625,1.3917750120162964,-3.6172125339508057,0.5036625266075134
1781030551112595000,24.975594970703124,0.8629499673843384,-1.942187547683716,0.0759000033140182
1781030551132127500,24.99512744140625,0.4846875071525574,-0.7933750152587891,-0.1997874975204467
1781030551151659300,25.0146591796875,0.2125750035047531,-0.1302125006914138,-0.3290374875068664
1781030551171186000,25.03418603515625,0.0321750007569789,0.1306249946355819,-0.3409999907016754
1781030551190712000,25.05371215820313,0.0321750007569789,0.1306249946355819,-0.3409999907016754
1781030551210239200,25.0732392578125,-0.0862125009298324,-0.0494999997317791,-0.1542750000953674
1781030551229763800,25.092763916015624,-0.077962502837181,-0.2756874859333038,-0.017875000834465
1781030551249290800,25.11229077148437,-0.077962502837181,-0.2756874859333038,-0.017875000834465
1781030551268816400,25.13181640625,-0.0672374963760376,-0.6347000002861023,0.1883749961853027
1781030551288342800,25.1513427734375,-0.0672374963760376,-0.6347000002861023,0.1883749961853027
1781030551307868400,25.170868408203123,-0.025849999859929,-0.6875,0.2411749958992004
1781030551327393800,25.19039379882813,0.0723249986767768,-0.6771875023841858,0.2891624867916107
1781030551346924300,25.20992431640625,0.2107875049114227,-0.6347000002861023,0.3497999906539917
1781030551366457000,25.22945703125,0.3588750064373016,-0.5763999819755554,0.4239124953746795
1781030551385987800,25.24898779296875,0.5081999897956848,-0.4955500066280365,0.5037999749183655
1781030551405518600,25.2685185546875,0.6758124828338623,-0.3584625124931335,0.5714499950408936
1781030551425048600,25.288048583984374,0.8883875012397766,-0.1170125007629394,0.5993624925613403
1781030551444576800,25.30757666015625,1.1660000085830688,0.2395250052213668,0.5710374712944031
1781030551464105500,25.32710546875,1.5085124969482422,0.6632999777793884,0.4929375052452087
1781030551483636700,25.34663671875,1.8581750392913816,1.1302499771118164,0.371937483549118
1781030551503169000,25.3661689453125,-12.64463710784912,17.244287490844727,-5.75107479095459
1781030551522697000,25.385697021484376,-22.85689926147461,28.850112915039062,-10.055375099182127
1781030551542224400,25.40522436523437,-14.922599792480469,21.28885078430176,-6.974549770355225
1781030551561751000,25.4247509765625,-8.949737548828125,15.700437545776367,-4.686824798583984
1781030551581278000,25.44427783203125,-4.762862682342529,11.80437469482422,-3.0497500896453857
1781030551600804000,25.46380419921875,-1.930775046348572,9.03897476196289,-1.8771499395370483
1781030551620326000,25.483325927734374,-0.0903374999761581,7.002737522125244,-1.0355124473571775
1781030551639845000,25.50284521484375,1.0410125255584717,5.645062446594238,-0.4343625009059906
1781030551659370000,25.522369873046877,1.6757124662399292,4.334825038909912,-0.0182875003665685
1781030551678900000,25.54189990234375,1.9226624965667725,3.361599922180176,0.2272875010967254
1781030551698430000,25.561429931640625,1.8299875259399412,2.6446750164031982,0.2998875081539154
1781030551717958000,25.5809580078125,1.4878875017166138,2.098249912261963,0.2316875010728836
1781030551737484300,25.600484375,1.0243749618530271,1.61947500705719,0.0940499976277351
1781030551757014000,25.620013916015623,0.5534374713897705,1.1224124431610107,-0.0430375002324581
1781030551776543700,25.639543701171878,0.1403875052928924,0.5677375197410583,-0.1494625061750412
1781030551796075800,25.65907568359375,-0.1808124929666519,-0.0130624994635581,-0.2303124964237213
1781030551815607800,25.67860791015625,-0.402875006198883,-0.5454624891281128,-0.3042874932289123
1781030551835137000,25.698136962890626,-0.5608624815940857,-1.039362549781799,-0.3888500034809112
1781030551854673000,25.7176728515625,-0.6965749859809875,-1.640512466430664,-0.491287499666214
1781030551874211000,25.737211181640625,-0.7997000217437744,-2.5367374420166016,-0.620537519454956
1781030551893742300,25.756742431640625,-0.6958875060081482,-3.85907506942749,-0.782925009727478
1781030551913272800,25.77627294921875,0.17586250603199,-5.846362590789795,-0.9018625020980836
1781030551932804000,25.79580419921875,2.9385125637054443,-8.666762351989746,-0.6422625184059143
1781030551952337000,25.8153369140625,7.542012691497803,-12.768525123596191,0.4413749873638153
1781030551971874000,25.8348740234375,10.639474868774414,-15.171612739562988,1.7833750247955322
1781030551991408600,25.85440869140625,10.341375350952148,-14.394325256347656,2.425775051116944
1781030552010943200,25.873943115234376,8.415274620056152,-12.04747486114502,2.4003374576568604
1781030552030476500,25.8934765625,8.415274620056152,-12.04747486114502,2.4003374576568604
1781030552050010000,25.913010009765625,6.311662673950195,-9.44569969177246,2.076387405395508
1781030552069546800,25.93254663085937,4.485249996185303,-7.024462699890137,1.6381750106811523
1781030552089080300,25.952080322265623,1.8845750093460083,-3.14338755607605,0.7182999849319458
1781030552108614000,25.97161376953125,1.8845750093460083,-3.14338755607605,0.7182999849319458
1781030552128146200,25.99114624023437,1.8845750093460083,-3.14338755607605,0.7182999849319458
1781030552147672000,26.010672119140622,0.5010499954223633,-0.767799973487854,0.1157749965786933
1781030552167199200,26.03019921875,0.2187625020742416,-0.2745875120162964,0.0052249999716877
1781030552186727700,26.049727783203124,0.1368124932050705,-0.1358499974012375,-0.010037500411272
1781030552206257000,26.0692568359375,0.1614249944686889,-0.2019875049591064,0.0230999998748302
1781030552225791200,26.088791259765625,0.1992374956607818,-0.3294500112533569,0.0618750005960464
1781030552245325300,26.1083251953125,0.2010249942541122,-0.439175009727478,0.0860750004649162
1781030552264859000,26.12785888671875,0.160874992609024,-0.5007749795913696,0.0906125009059906
1781030552284393500,26.1473935546875,0.1098624989390373,-0.5191999673843384,0.0807124972343444
1781030552303925000,26.166925048828126,0.1006499975919723,-0.5335000157356262,0.0681999996304512
1781030552323456800,26.18645678710937,0.1596374958753585,-0.5726875066757202,0.0584375001490116
1781030552342993200,26.2059931640625,0.2551999986171722,-0.6166874766349792,0.0423500016331672
1781030552362533400,26.225533447265622,0.3331624865531921,-0.6230124831199646,0.0160875003784894
1781030552382073900,26.245073974609376,0.3722124993801117,-0.5776374936103821,-0.0015124999918043
1781030552401608000,26.26460791015625,0.3733125030994415,-0.489362508058548,0.0067374999634921
1781030552421135400,26.28413525390625,0.3299999833106994,-0.3544749915599823,0.0292875003069639
1781030552440670700,26.30367065429688,0.232924997806549,-0.1384624987840652,0.0290124993771314
1781030552460206600,26.32320654296875,0.079475000500679,0.2242625057697296,-0.0412499979138374
1781030552479736600,26.342736572265625,-0.1883749961853027,0.8251374959945679,-0.2378749996423721
1781030552499271200,26.36227124023437,-0.7750874757766724,1.8097749948501587,-0.6386874914169312
1781030552518804200,26.38180419921875,-2.2499125003814697,3.62711238861084,-1.4071749448776243
1781030552538337500,26.40133764648437,-6.1789751052856445,7.551087379455566,-2.9594125747680664
1781030552557873200,26.420873046875,-12.123787879943848,13.397862434387209,-4.825562477111816
1781030552577407500,26.440407470703125,-14.527837753295898,16.071962356567383,-5.253462314605713
1781030552596939800,26.459939697265625,-12.126811981201172,14.307287216186523,-4.238437652587891
1781030552616473600,26.4794736328125,-8.713787078857422,11.51039981842041,-3.0581374168396
1781030552636004000,26.499004150390626,-5.723162651062012,8.977100372314453,-2.079274892807007
1781030552655534300,26.518534423828125,-3.3835999965667725,6.937837600708008,-1.3300374746322632
1781030552675069200,26.538069091796874,-1.618374943733215,5.538912296295166,-0.7710999846458435
1781030552694604500,26.5576044921875,-0.2861374914646148,4.205574989318848,-0.3566749989986419
1781030552714139400,26.57713940429688,0.6854375004768372,3.212549924850464,-0.0548624992370605
1781030552733674500,26.59667456054688,1.3420000076293943,2.496999979019165,0.1557874977588653
1781030552753207800,26.616207763671877,1.699774980545044,2.015749931335449,0.2860000133514404
1781030552772740400,26.635740234375,1.7776000499725342,1.7033499479293823,0.3398999869823456
1781030552792273400,26.6552734375,1.6229125261306765,1.4720749855041504,0.3198249936103821
1781030552811808300,26.67480834960937,1.3096874952316284,1.2479499578475952,0.2351250052452087
1781030552831343400,26.69434326171875,0.91863751411438,0.9952250123023988,0.1099999994039535
1781030552850875000,26.713875,0.91863751411438,0.9952250123023988,0.1099999994039535
1781030552870407700,26.73340771484375,0.5292375087738037,0.7242124676704407,-0.0222750008106231
1781030552889938400,26.7529384765625,-0.0500499978661537,0.128150001168251,-0.2089999914169311
1781030552909460700,26.77246069335937,-0.0500499978661537,0.128150001168251,-0.2089999914169311
1781030552928987600,26.791987548828125,-0.3422375023365021,-0.5871250033378601,-0.2693625092506408
1781030552948520400,26.8115205078125,-0.3422375023365021,-0.5871250033378601,-0.2693625092506408
1781030552968051000,26.831051025390625,-0.3422375023365021,-0.5871250033378601,-0.2693625092506408
1781030552987582700,26.850582763671877,-0.654087483882904,-1.6596249341964722,-0.3390749990940094
1781030553007114500,26.870114501953125,-0.8009374737739563,-2.5405874252319336,-0.4193750023841858
1781030553026641000,26.889640869140624,-0.6384124755859375,-3.8036625385284415,-0.4955500066280365
1781030553046164200,26.909164306640623,0.6494125127792358,-6.051374912261963,-0.3749625086784363
1781030553065691100,26.928691162109374,5.496974945068359,-10.58653736114502,0.8504375219345093
1781030553085218300,26.94821826171875,11.964287757873535,-16.373638153076172,3.416874885559082
1781030553104746800,26.96774682617188,13.535637855529783,-17.689237594604492,4.945187568664551
1781030553124274700,26.987274658203123,10.744250297546388,-14.922049522399902,4.536125183105469
1781030553143801600,27.006801513671878,7.699450016021728,-11.595925331115724,3.5792624950408936
1781030553163330300,27.026330322265625,5.3121747970581055,-8.634037017822266,2.6142873764038086
1781030553182858000,27.04585791015625,3.667399883270264,-6.480100154876709,1.794100046157837
1781030553202388200,27.06538818359375,2.47513747215271,-4.364250183105469,1.1336874961853027
1781030553221918500,27.08491845703125,1.6985374689102173,-2.828375101089477,0.6286500096321106
1781030553241448000,27.10444799804688,1.16902494430542,-1.7107750177383425,0.2387000024318695
1781030553260977000,27.123976806640623,0.7775624990463257,-0.9083250164985656,-0.0560999996960163
1781030553280505000,27.143505126953126,0.4765749871730804,-0.3895374834537506,-0.2437874972820282
1781030553300034300,27.16303442382813,0.2627624869346618,-0.1710499972105026,-0.2980999946594238
1781030553319563000,27.18256298828125,0.1342000067234039,-0.2352624982595443,-0.2217874974012375
1781030553339093500,27.202093505859374,0.0606375001370906,-0.4851000010967254,-0.0633874982595443
1781030553358625500,27.22162548828125,-0.0034374999813735,-0.7728874683380127,0.1044999957084655
1781030553378157300,27.2411572265625,-0.0835999995470047,-1.0004500150680542,0.2360875010490417
1781030553397691100,27.26069116210937,-0.152487501502037,-1.17645001411438,0.3367374837398529
1781030553417222400,27.28022241210937,-0.1583999991416931,-1.3624874353408811,0.4379374980926513
1781030553436750300,27.299750244140625,-0.0687500014901161,-1.5566375255584717,0.5579749941825867
1781030553456280600,27.319280517578125,0.1263625025749206,-1.6664999723434448,0.6710000038146973
1781030553475814000,27.33881396484375,0.4127750098705292,-1.358637452125549,0.7768750190734863
1781030553495343600,27.358343505859374,0.7540500164031982,-0.9667624831199646,0.8775249719619751
1781030553514870800,27.377870849609376,1.0979374647140503,-0.809737503528595,0.9543874859809875
1781030553534402300,27.39740234375,1.4236749410629272,-0.6268625259399414,1.0133750438690186
1781030553553935400,27.416935302734377,1.7850250005722046,-0.4507249891757965,1.0694749355316162
1781030553573468700,27.43646875,2.257612466812134,-0.2571249902248382,1.1434500217437744
1781030553593001500,27.45600146484375,2.899187564849853,-0.0195249989628791,1.260462522506714
1781030553612533500,27.475533447265622,5.438399791717529,-1.3898500204086304,2.3535873889923096
1781030553632068900,27.49506884765625,20.082149505615234,-15.897749900817873,8.312150001525879
1781030553651608000,27.51460815429688,28.92779922485352,-24.13771247863769,11.455399513244627
1781030553671138300,27.53413818359375,22.174211502075195,-15.928412437438965,8.367975234985352
1781030553690661600,27.55366162109375,17.386186599731445,-10.114912033081056,6.2651872634887695
1781030553710184400,27.57318432617188,13.94263744354248,-6.100462436676025,4.858425140380859
1781030553729715500,27.59271557617188,11.286687850952148,-3.331899881362915,3.8704874515533447
1781030553749250000,27.61225,9.03512477874756,-1.4088250398635864,3.0878374576568604
1781030553768781600,27.631781494140625,9.03512477874756,-1.4088250398635864,3.0878374576568604
1781030553788308200,27.65130810546875,9.03512477874756,-1.4088250398635864,3.0878374576568604
1781030553807828500,27.670828369140622,5.361262321472168,0.5922124981880188,1.7803499698638916
1781030553827345200,27.69034521484375,3.633987426757813,0.7875999808311462,1.2366750240325928
1781030553846867000,27.709866943359376,2.226675033569336,0.653124988079071,0.7932375073432922
1781030553866398000,27.72939794921875,2.226675033569336,0.653124988079071,0.7932375073432922
1781030553885923600,27.74892358398437,0.210099995136261,0.1486375033855438,0.1645874977111816
1781030553905447200,27.768447265625,-0.5660874843597412,-0.28022500872612,-0.0404249988496303
1781030553924978200,27.787978271484373,-1.27943754196167,-0.9728124737739564,-0.1898874938488006
1781030553944507000,27.8075068359375,-1.88319993019104,-1.9100124835968015,-0.2917749881744385
1781030553964031200,27.82703125,-2.2796125411987305,-3.0691375732421875,-0.3478749990463257
1781030553983556900,27.846556884765626,-2.2200748920440674,-4.652174949645996,-0.3315125107765198
1781030554003081700,27.866081787109376,0.0536249987781047,-7.787449836730957,0.1863124966621399
1781030554022607000,27.88560717773437,10.40792465209961,-17.32843780517578,4.251362323760986
1781030554042135000,27.905135009765623,17.135387420654297,-23.18634986877441,7.789374828338623
1781030554061664300,27.924664306640626,13.105950355529783,-19.32521247863769,6.81505012512207
1781030554081195800,27.94419580078125,8.786112785339355,-14.514636993408203,5.007199764251709
1781030554100729300,27.963729248046874,5.703225135803223,-10.437350273132324,3.43969988822937
1781030554120257000,27.98325708007813,3.6723499298095694,-7.237450122833252,2.2263998985290527
1781030554139784400,28.002784423828125,2.392775058746338,-4.953162670135498,1.3256374597549438
1781030554159317500,28.0223173828125,1.5736874341964722,-3.0945749282836914,0.6736124753952026
1781030554178848300,28.04184814453125,1.0932625532150269,-1.8705500364303589,0.2323749959468841
1781030554198379800,28.0613798828125,0.8248624801635742,-1.103024959564209,-0.0466125011444091
1781030554217911000,28.0809111328125,0.6656374931335449,-0.6523000001907349,-0.202674999833107
1781030554237438500,28.1004384765625,0.5460125207901001,-0.4342249929904938,-0.2569875121116638
1781030554256967000,28.119966796875,0.441100001335144,-0.3894000053405761,-0.2265999913215637
1781030554276495600,28.13949560546875,0.3524124920368194,-0.4494875073432922,-0.1434125006198883
1781030554296028400,28.1590283203125,0.2844874858856201,-0.550000011920929,-0.0470249988138675
1781030554315560700,28.178560791015624,0.2371875047683715,-0.6628875136375427,0.0387750007212162
1781030554335090700,28.198090576171875,0.2135374993085861,-0.7807250022888184,0.1104125007987022
1781030554354624500,28.21762451171875,0.2265999913215637,-0.8779374957084656,0.1743499934673309
1781030554374158600,28.23715869140625,0.2908124923706054,-0.9183624982833862,0.2419999986886978
