time,seconds_elapsed,z,y,x
1780528904410510800,0.0315107421875,-0.03420845419168472,-0.04886921867728233,-0.23090706765651703
1780528904430652400,0.05165234375,-0.12950342893600464,0.14416420459747314,0.3604104816913605
1780528904440723200,0.06172314453125,0.0354301854968071,0.18570303916931152,0.16249015927314758
1780528904450824700,0.07182470703125,0.10995574295520782,0.15393804013729095,0.13072516024112701
1780528904471027200,0.092027099609375,0.05742133408784866,0.14049901068210602,-0.00366519158706069
1780528904481098000,0.102097900390625,-0.03420845419168472,0.006108652334660292,-0.11728613078594208
1780528904491138300,0.11213818359375,-0.06963863968849182,-0.0708603709936142,-0.18325957655906677
1780528904511279900,0.13227978515625,0.028099801391363144,-0.06719517707824707,-0.2687807083129883
1780528904521350700,0.1423505859375,0.01466076634824276,-0.0757472887635231,-0.3640756905078888
1780528904531421400,0.15242138671875,-0.02076941914856434,-0.10018189996480942,-0.47769662737846375
1780528904541553400,0.162553466796875,-0.042760565876960754,-0.13072516024112701,-0.5473352670669556
1780528904571826700,0.19282666015625,0.030543262138962746,-0.036651913076639175,-0.009773843921720982
1780528904581897500,0.2028974609375,0.05619960278272629,0.0024434609804302454,0.09407325088977814
1780528904602069800,0.22306982421875,0.03298672288656235,0.0024434609804302454,0.02321287989616394
1780528904612171000,0.2331708984375,0.00366519158706069,-0.00366519158706069,-0.06475171446800232
1780528904622241800,0.24324169921875,-0.01466076634824276,0.010995574295520782,-0.11850785464048386
1780528904642414000,0.2634140625,0.006108652334660292,0.09651670604944229,-0.03420845419168472
1780528904662555600,0.2835556640625,0.03787364438176155,0.13927727937698364,0.10995574295520782
1780528904672626400,0.29362646484375,0.02932153269648552,0.13439035415649414,0.13927727937698364
1780528904682727700,0.303727783203125,0.004886921960860491,0.11972958594560623,0.12828169763088226
1780528904692829000,0.313828857421875,0.00733038317412138,0.11728613078594208,0.11362093687057495
1780528904702930400,0.323930419921875,0.036651913076639175,0.1270599663257599,0.09896016865968704
1780528904713031700,0.33403173828125,0.059864792972803116,0.16859880089759827,0.059864792972803116
1780528904743274500,0.3642744140625,0.14294247329235077,0.2382374405860901,-0.08918632566928864
1780528904803790800,0.424790771484375,0.36529740691185,0.1270599663257599,-0.26022860407829285
1780528904814892300,0.435892333984375,0.38240164518356323,0.13439035415649414,-0.3127630054950714
1780528904824963000,0.445963134765625,0.39217549562454224,0.15393804013729095,-0.33597588539123535
1780528904845165600,0.46616552734375,0.42760565876960754,0.16982053220272064,-0.2834414839744568
1780528904875469600,0.496469482421875,0.3995058834552765,0.21380282938480377,-0.3188716471195221
1780528904986248400,0.60724853515625,0.17837265133857727,0.21991148591041565,-0.05253441259264946
1780528904996319200,0.6173193359375,0.16493362188339233,0.16859880089759827,-0.13561208546161652
1780528905006420500,0.62742041015625,0.15515977144241333,0.14049901068210602,-0.2015855312347412
1780528905036724500,0.657724365234375,0.1918116807937622,0.08307767659425735,-0.21380282938480377
1780528905046856400,0.6678564453125,0.21991148591041565,0.03787364438176155,-0.13316862285137177
1780528905056957700,0.677957763671875,0.2431243658065796,0.02076941914856434,-0.05742133408784866
1780528905067028500,0.688028564453125,0.27611109614372253,0.01710422709584236,-0.021991148591041565
1780528905077099300,0.698099365234375,0.32620203495025635,-0.006108652334660292,-0.045204028487205505
1780528905087200500,0.708200439453125,0.37262779474258423,-0.0354301854968071,-0.14049901068210602
1780528905097302000,0.718302001953125,0.41661009192466736,-0.04886921867728233,-0.2822197377681732
1780528905107372800,0.728372802734375,0.46670106053352356,-0.04764748737215996,-0.44226643443107605
1780528905117474000,0.73847412109375,0.5314527750015259,-0.02687807008624077,-0.6047565937042236
1780528905127575300,0.7485751953125,0.6023131608963013,0.025656340643763542,-0.769690215587616
1780528905137646000,0.75864599609375,0.6780604124069214,0.09040805697441101,-0.9272934198379517
1780528905178020900,0.799020751953125,1.0140362977981567,0.26511552929878235,-1.3683381080627441
1780528905208294400,0.82929443359375,1.4196507930755615,0.4960225820541382,-1.4721852540969849
1780528905218365200,0.839365234375,1.6029103994369507,0.5803219676017761,-1.4892895221710205
1780528905228436000,0.84943603515625,2.052507162094116,0.7391469478607178,-1.549154281616211
1780528905238537200,0.859537109375,2.2883012294769287,0.8344419002532959,-1.624901533126831
1780528905248638500,0.869638427734375,2.500882387161255,0.9553932547569275,-1.7605136632919312
1780528905258709200,0.879709228515625,2.691472291946411,1.1020009517669678,-2.0024163722991943
1780528905268749600,0.88974951171875,2.8930578231811523,1.2180652618408203,-2.3457224369049072
1780528905278851000,0.89985107421875,3.0995302200317383,1.3084733486175537,-2.7769935131073
1780528905309154800,0.93015478515625,3.6578609943389893,1.313360333442688,-4.068362712860107
1780528905319256300,0.94025634765625,3.780034065246582,1.2021827697753906,-4.322482585906982
1780528905329327000,0.9503271484375,3.886324644088745,1.0751228332519531,-4.420220851898193
1780528905339428400,0.960428466796875,3.9938368797302246,0.9749409556388855,-4.356690883636475
1780528905354565000,0.975565185546875,4.1025710105896,0.9175195693969727,-4.219857215881348
1780528905359631000,0.980631103515625,4.2003092765808105,0.8539896011352539,-4.118453502655029
1780528905369732400,0.990732421875,4.27605676651001,0.7318165898323059,-4.125783920288086
1780528905379833600,1.00083349609375,4.335921287536621,0.5094616413116455,-4.28216552734375
1780528905400005600,1.021005615234375,4.377460479736328,-0.23457226157188416,-4.934569358825684
1780528905410107100,1.031107177734375,4.2919392585754395,-0.6914994716644287,-5.424483299255371
1780528905420238800,1.04123876953125,4.133114337921143,-1.1911872625350952,-5.932723045349121
1780528905430309600,1.0513095703125,3.9632937908172607,-1.7348573207855225,-6.385985374450684
1780528905440411100,1.0614111328125,3.72994327545166,-2.266309976577759,-6.718296051025391
1780528905450512400,1.071512451171875,3.4037411212921143,-2.7647759914398193,-6.922325134277344
1780528905460613600,1.081613525390625,2.9993484020233154,-3.2058207988739014,-7.012732982635498
1780528905470715000,1.09171484375,2.5277602672576904,-3.601661443710327,-7.045719623565674
1780528905480816400,1.10181640625,1.99752938747406,-3.9816195964813232,-7.035945892333984
1780528905521221600,1.1422216796875,-0.34697145223617554,-4.715879917144775,-6.612005233764648
1780528905531353300,1.152353271484375,-0.817337691783905,-4.619362831115723,-6.21372127532959
1780528905541454800,1.162454833984375,-1.2424999475479126,-4.481307506561279,-5.579643249511719
1780528905551556000,1.17255615234375,-1.6004669666290283,-4.326147556304932,-4.7305402755737305
1780528905561657300,1.1826572265625,-1.880243182182312,-4.148996829986572,-3.782477617263794
1780528905571758600,1.192758544921875,-2.102598190307617,-3.9486329555511475,-2.839301586151123
1780528905581860000,1.202860107421875,-2.309070587158203,-3.7336084842681885,-2.0195205211639404
1780528905591961300,1.21296142578125,-2.5314254760742188,-3.5271358489990234,-1.370781660079956
1780528905602093000,1.223093017578125,-2.7281241416931152,-3.3206634521484375,-0.9920451641082764
1780528905612194600,1.233194580078125,-2.850297212600708,-3.09586501121521,-0.998153805732727
1780528905622295800,1.2432958984375,-2.9626965522766113,-2.869844913482666,-1.3267992734909058
1780528905632397000,1.25339697265625,-3.10197377204895,-2.6670377254486084,-1.7922786474227905
1780528905642529000,1.263529052734375,-3.2204816341400146,-2.492330312728882,-2.2235496044158936
1780528905662762000,1.283761962890625,-3.393967390060425,-2.020742177963257,-2.7171285152435303
1780528905677898800,1.298898681640625,-3.441614866256714,-1.7165313959121704,-2.6059510707855225
1780528905723370000,1.344369873046875,-3.3157765865325928,-0.7953465580940247,-0.24190263450145721
1780528905733471200,1.35447119140625,-3.2278120517730713,-0.7305948138237,-0.07330382615327835
1780528905743603200,1.364603271484375,-3.1398472785949707,-0.6768386960029602,-0.059864792972803116
1780528905753704400,1.374704345703125,-3.0164525508880615,-0.6450737118721008,-0.08185594528913498
1780528905763805700,1.3848056640625,-2.872288465499878,-0.6120869517326355,-0.004886921960860491
1780528905773907200,1.3949072265625,-2.719572067260742,-0.5607742667198181,0.20525072515010834
1780528905784008400,1.405008544921875,-2.6340508460998535,-0.49235737323760986,0.44593164324760437
1780528905794109700,1.415109619140625,-2.6108381748199463,-0.42149701714515686,0.5619960427284241
1780528905875042300,1.496042236328125,-2.484999895095825,-0.21380282938480377,0.8393288254737854
1780528905885174300,1.50617431640625,-2.4678955078125,-0.10384709388017654,1.1997393369674683
1780528905895275500,1.516275634765625,-2.445904493331909,-0.00733038317412138,1.4819591045379639
1780528905915478300,1.536478271484375,-2.403143882751465,0.11972958594560623,1.891238808631897
1780528905996319200,1.6173193359375,-2.180788993835449,0.4764748811721802,2.649933338165283
1780528906006420500,1.62742041015625,-2.057394027709961,0.4911356568336487,2.7036895751953125
1780528906016522000,1.63752197265625,-1.930334210395813,0.49846604466438293,2.8185322284698486
1780528906026653700,1.64765380859375,-1.8216001987457275,0.50335294008255,2.948035717010498
1780528906036755000,1.6577548828125,-1.7324138879776,0.4911356568336487,3.0360002517700195
1780528906046887000,1.667886962890625,-1.6493362188339233,0.46303585171699524,3.054326295852661
1780528906107342000,1.728342041015625,-0.6389650702476501,0.5302310585975647,0.3335324227809906
1780528906117443600,1.738443603515625,-0.3274237811565399,0.4251621961593628,0.1563815027475357
1780528906127514400,1.748514404296875,0.1612684279680252,0.19303341209888458,1.274264931678772
1780528906147625500,1.76862548828125,1.3231340646743774,0.3029891550540924,1.890017032623291
1780528906218151400,1.8391513671875,0.13439035415649414,-0.09773843735456467,-0.6878342628479004
1780528906298748400,1.91974853515625,-0.45204028487205505,0.051312681287527084,0.3176499307155609
1780528906359295200,1.980295166015625,-0.7281513810157776,0.2015855312347412,-0.3335324227809906
1780528906379498000,2.000498046875,-0.3628539443016052,0.010995574295520782,-0.3274237811565399
1780528906389568800,2.01056884765625,-0.04398229718208313,-0.27611109614372253,-0.09285151958465576
1780528906399639600,2.0206396484375,0.2871066629886627,-0.6499606370925903,-0.2382374405860901
1780528906419781000,2.040781005859375,0.051312681287527084,-0.8454375267028809,-1.8448129892349243
1780528906450024000,2.07102392578125,0.17104226350784302,-0.21502456068992615,-0.5412266254425049
1780528906460095000,2.081094970703125,0.20402899384498596,-0.27611109614372253,0.02076941914856434
1780528906470196200,2.0911962890625,0.17104226350784302,-0.31031954288482666,0.2993239760398865
1780528906480297500,2.10129736328125,0.10873401165008545,-0.2736676335334778,0.3885102868080139
1780528906490398700,2.111398681640625,0.07452555745840073,-0.2125810980796814,0.5290092825889587
1780528906500439000,2.12143896484375,0.1258382350206375,-0.2174680233001709,0.7819074988365173
1780528906510509800,2.131509765625,0.27488934993743896,-0.26511552929878235,0.9431759119033813
1780528906520580600,2.14158056640625,0.43127086758613586,-0.27000242471694946,0.8943067193031311
1780528906540722200,2.16172216796875,0.6695083379745483,-0.2370157092809677,0.17959438264369965
1780528906550762500,2.171762451171875,0.8710938692092896,-0.2577851414680481,-0.29565876722335815
1780528906560864000,2.181864013671875,0.93095862865448,-0.3090978264808655,-0.6817256212234497
1780528906570965200,2.19196533203125,0.8210029006004333,-0.33719760179519653,-0.7916813492774963
1780528906581036000,2.2020361328125,0.7086036801338196,-0.3029891550540924,-0.6377432942390442
1780528906591106800,2.21210693359375,0.608421802520752,-0.27000242471694946,-0.2932153046131134
1780528906601177600,2.222177490234375,0.43249258399009705,-0.2626720666885376,0.16737708449363708
1780528906611278800,2.23227880859375,0.2174680233001709,-0.27000242471694946,0.7709119319915771
1780528906621349600,2.242349609375,0.06475171446800232,-0.2382374405860901,1.431868076324463
1780528906631420400,2.25242041015625,-0.00733038317412138,-0.17959438264369965,1.958433985710144
1780528906641522000,2.26252197265625,-0.05375614017248154,-0.1417207419872284,2.261423110961914
1780528906661663500,2.28266357421875,-0.0403171069920063,-0.14416420459747314,2.0146336555480957
1780528906671764700,2.2927646484375,-0.06230825558304787,-0.16371189057826996,1.470963478088379
1780528906681835500,2.30283544921875,-0.14049901068210602,-0.19425514340400696,0.8258898258209229
1780528906691906300,2.31290625,-0.18936823308467865,-0.24190263450145721,0.24434609711170197
1780528906712047900,2.3330478515625,-0.2064724564552307,-0.3689626157283783,-0.4740314185619354
1780528906722119000,2.343118896484375,-0.2223549485206604,-0.40072759985923767,-0.5400048494338989
1780528906732189700,2.353189697265625,-0.29565876722335815,-0.3799581825733185,-0.5803219676017761
1780528906752331300,2.373331298828125,-0.4691445231437683,-0.3384193480014801,-0.9456194043159485
1780528906762432500,2.3834326171875,-0.4178318381309509,-0.3591887652873993,-1.0384708642959595
1780528906772503300,2.39350341796875,-0.33597588539123535,-0.4080579876899719,-1.036027431488037
1780528906782574000,2.403573974609375,-0.28099802136421204,-0.43737950921058655,-0.9040805697441101
1780528906802715600,2.423715576171875,-0.2174680233001709,-0.3286454975605011,-0.2076941877603531
1780528906812786400,2.433786376953125,-0.16982053220272064,-0.30054569244384766,0.1918116807937622
1780528906822857200,2.443857177734375,-0.13927727937698364,-0.29077184200286865,0.43737950921058655
1780528906832958700,2.453958740234375,-0.11972958594560623,-0.2174680233001709,0.5265658497810364
1780528906853100300,2.474100341796875,0.05742133408784866,-0.11362093687057495,0.19303341209888458
1780528906863201500,2.484201416015625,0.08796459436416626,-0.19914206862449646,0.26145032048225403
1780528906873272300,2.494272216796875,0.08307767659425735,-0.3286454975605011,0.4337143301963806
1780528906883373600,2.50437353515625,0.15882496535778046,-0.3836233615875244,0.5009095072746277
1780528906893475000,2.51447509765625,0.3139847218990326,-0.4056145250797272,0.4948008358478546
1780528906903576300,2.524576416015625,0.44593164324760437,-0.4031710624694824,0.4605923891067505
1780528906923748400,2.544748291015625,0.35552358627319336,-0.3640756905078888,0.5937610268592834
1780528906933819100,2.554819091796875,0.37751471996307373,-0.35674530267715454,0.5436700582504272
1780528906953960700,2.574960693359375,0.5558874011039734,-0.41661009192466736,-0.009773843921720982
1780528906964062200,2.585062255859375,0.5827654600143433,-0.4178318381309509,-0.04642575979232788
1780528906974133000,2.595133056640625,0.5913175344467163,-0.3787364661693573,0.1771509200334549
1780528906994274600,2.615274658203125,0.5729916095733643,-0.19058994948863983,0.598647952079773
1780528907004345300,2.625345458984375,0.5497786998748779,-0.0806342139840126,0.6218608021736145
1780528907014416100,2.635416015625,0.5387831330299377,0.015882495790719986,0.4996877610683441
1780528907024487000,2.64548681640625,0.4996877610683441,0.07452555745840073,0.31031954288482666
1780528907034588200,2.655588134765625,0.4593706727027893,0.10262536257505417,0.13316862285137177
1780528907044659000,2.665658935546875,0.4105014503002167,0.12095131725072861,0.13561208546161652
1780528907054730000,2.67572998046875,0.3543018400669098,0.15393804013729095,0.2431243658065796
1780528907064800800,2.68580078125,0.294437050819397,0.19425514340400696,0.34208452701568604
1780528907074871600,2.69587158203125,0.2590068578720093,0.17837265133857727,0.4386012554168701
1780528907084942300,2.7059423828125,0.27000242471694946,0.14294247329235077,0.4495968222618103
1780528907095043600,2.716043701171875,0.2724458873271942,0.1514945775270462,0.39095374941825867
1780528907115215600,2.736215576171875,0.2993239760398865,0.14782938361167908,0.394618958234787
1780528907125317000,2.746317138671875,0.32620203495025635,0.08796459436416626,0.38606682419776917
1780528907135388000,2.756387939453125,0.3323107063770294,0.08796459436416626,0.4447098970413208
1780528907145489200,2.7664892578125,0.31520646810531616,0.1514945775270462,0.5717698931694031
1780528907155590400,2.77659033203125,0.32620203495025635,0.22357667982578278,0.6719517707824707
1780528907165661200,2.7866611328125,0.34208452701568604,0.2785545587539673,0.7110471725463867
1780528907175762700,2.7967626953125,0.3176499307155609,0.2883284091949463,0.6939429044723511
1780528907195934700,2.816934814453125,0.22968533635139465,0.31154128909111023,0.5106833577156067
1780528907266461000,2.8874609375,0.24190263450145721,0.22968533635139465,0.4092797040939331
1780528907327007700,2.9480078125,0.051312681287527084,-0.11484266817569733,-0.18081611394882202
1780528907417736400,3.038736328125,-0.22602014243602753,0.06841690838336945,-0.24556782841682434
1780528907468151600,3.089151611328125,-0.21135938167572021,0.1869247704744339,-0.3738495409488678
1780528907478252800,3.099252685546875,-0.2174680233001709,0.1820378452539444,-0.4789183437824249
1780528907488354000,3.10935400390625,-0.19425514340400696,0.20891591906547546,-0.49846604466438293
1780528907498455600,3.11945556640625,-0.1820378452539444,0.23945917189121246,-0.4605923891067505
1780528907508526300,3.1295263671875,-0.17959438264369965,0.2577851414680481,-0.4092797040939331
1780528907518597000,3.13959716796875,-0.17348572611808777,0.27611109614372253,-0.3384193480014801
1780528907548840000,3.16983984375,-0.11239920556545258,0.27488934993743896,-0.3591887652873993
1780528907558941200,3.179941162109375,-0.12828169763088226,0.2528982162475586,-0.3897320330142975
1780528907569042700,3.190042724609375,-0.13561208546161652,0.2223549485206604,-0.4105014503002167
1780528907579083000,3.2000830078125,-0.11850785464048386,0.1820378452539444,-0.4508185386657715
1780528907589123000,3.210123046875,-0.09285151958465576,0.1258382350206375,-0.44104471802711487
1780528907599224600,3.220224609375,-0.05009094998240471,0.07941248267889023,-0.41172316670417786
1780528907609325800,3.230325927734375,0.009773843921720982,0.02687807008624077,-0.3995058834552765
1780528907649639400,3.270639404296875,0.1563815027475357,-0.04764748737215996,-0.45814892649650574
1780528907669842200,3.29084228515625,0.23945917189121246,0.012217304669320583,-0.41661009192466736
1780528907679913000,3.300912841796875,0.18325957655906677,0.045204028487205505,-0.31031954288482666
1780528907700115700,3.32111572265625,0.08185594528913498,0.07330382615327835,-0.20525072515010834
1780528907750469600,3.3714697265625,-0.015882495790719986,0.2431243658065796,-0.07819075137376785
1780528907760571000,3.38157080078125,0.012217304669320583,0.2981022298336029,-0.1417207419872284
1780528907770672000,3.391672119140625,0.06108652427792549,0.34574973583221436,-0.19914206862449646
1780528907780773600,3.401773681640625,0.12950342893600464,0.40072759985923767,-0.20891591906547546
1780528907810986000,3.431986083984375,0.29077184200286865,0.5534439086914062,0.09407325088977814
1780528907821087200,3.442087158203125,0.3335324227809906,0.5656611919403076,0.14049901068210602
1780528907831158000,3.452157958984375,0.38117989897727966,0.5314527750015259,0.10873401165008545
1780528907841259500,3.462259521484375,0.43737950921058655,0.475253164768219,0.06108652427792549
1780528907861340000,3.48233984375,0.49846604466438293,0.34208452701568604,-0.02076941914856434
1780528907871380200,3.492380126953125,0.48380526900291443,0.27000242471694946,-0.04153883829712868
1780528907881451000,3.502450927734375,0.44593164324760437,0.22602014243602753,-0.039095375686883926
1780528907891552300,3.51255224609375,0.39706242084503174,0.19914206862449646,-0.02076941914856434
1780528907901623300,3.522623291015625,0.3701843321323395,0.1771509200334549,-0.0354301854968071
1780528907911694000,3.532694091796875,0.35185837745666504,0.12339477986097336,-0.0354301854968071
1780528907921764900,3.542764892578125,0.3225368559360504,0.09162978827953339,0.07452555745840073
1780528908002545000,3.623544921875,0.05864306539297104,-0.16982053220272064,-0.12461651116609573
1780528908052959700,3.673959716796875,0.02932153269648552,-0.3579670190811157,-0.2125810980796814
1780528908103405300,3.7244052734375,-0.14049901068210602,-0.32620203495025635,-0.042760565876960754
1780528908113506800,3.7345068359375,-0.17470745742321014,-0.26022860407829285,0.03787364438176155
1780528908123577600,3.74457763671875,-0.21502456068992615,-0.21624629199504852,0.1563815027475357
1780528908133678800,3.754678955078125,-0.2577851414680481,-0.22602014243602753,0.22479841113090515
1780528908143780000,3.764780029296875,-0.2675589919090271,-0.2382374405860901,0.26633724570274353
1780528908153851000,3.774850830078125,-0.2382374405860901,-0.1966986060142517,0.3677408695220947
1780528908163921700,3.784921630859375,-0.22968533635139465,-0.17470745742321014,0.45326200127601624
1780528908174023200,3.795023193359375,-0.20891591906547546,-0.15760323405265808,0.5375614166259766
1780528908184094000,3.805093994140625,-0.16859880089759827,-0.15760323405265808,0.5583308339118958
1780528908204266000,3.825265869140625,-0.08552113175392151,-0.17959438264369965,0.4862487316131592
1780528908214367200,3.8353671875,-0.03787364438176155,-0.21502456068992615,0.43615779280662537
1780528908224438000,3.84543798828125,-0.00733038317412138,-0.2528982162475586,0.38606682419776917
1780528908234570000,3.855570068359375,0.025656340643763542,-0.27611109614372253,0.3543018400669098
1780528908244671200,3.865671142578125,0.05497787147760391,-0.2932153046131134,0.3127630054950714
1780528908305309700,3.926309814453125,0.1368338167667389,-0.34086281061172485,0.11850785464048386
1780528908386059300,4.007059326171875,0.20036379992961884,-0.3933972120285034,0.1466076523065567
1780528908396160500,4.017160400390625,0.20525072515010834,-0.3689626157283783,0.15271630883216858
1780528908416393700,4.037393798828125,0.18448130786418915,-0.3225368559360504,0.2370157092809677
1780528908436596200,4.05759619140625,0.09651670604944229,-0.24678955972194672,0.3139847218990326
1780528908497234700,4.118234619140625,-0.042760565876960754,-0.09651670604944229,0.4043927788734436
1780528908507305500,4.128305419921875,-0.04764748737215996,-0.11850785464048386,0.34086281061172485
1780528908517437400,4.1384375,-0.06108652427792549,-0.12217304855585098,0.3066543638706207
1780528908547741400,4.168741455078125,-0.0354301854968071,-0.13927727937698364,0.3494149148464203
1780528908557781500,4.178781494140625,-0.02687807008624077,-0.16249015927314758,0.37262779474258423
1780528908567913500,4.18891357421875,-0.02321287989616394,-0.17348572611808777,0.41661009192466736
1780528908578014700,4.1990146484375,-0.00366519158706069,-0.17837265133857727,0.44593164324760437
1780528908588116200,4.2091162109375,0.021991148591041565,-0.18570303916931152,0.455705463886261
1780528908598217500,4.219217529296875,0.02687807008624077,-0.1966986060142517,0.4508185386657715
1780528908608349200,4.22934912109375,0.03787364438176155,-0.19547687470912933,0.3836233615875244
1780528908618450700,4.23945068359375,0.04764748737215996,-0.18448130786418915,0.2981022298336029
1780528908628552000,4.249552001953125,0.059864792972803116,-0.15271630883216858,0.2577851414680481
1780528908638683600,4.25968359375,0.0757472887635231,-0.1258382350206375,0.26511552929878235
1780528908648785200,4.26978515625,0.08429940044879913,-0.06475171446800232,0.2773328125476837
1780528908668987600,4.289987548828125,0.06230825558304787,0.10506882518529892,0.2541199326515198
1780528908679089000,4.3000888671875,0.045204028487205505,0.1661553531885147,0.23335053026676178
1780528908689190400,4.3101904296875,0.02076941914856434,0.2174680233001709,0.1966986060142517
1780528908709393000,4.330392822265625,-0.05497787147760391,0.3176499307155609,0.1661553531885147
1780528908719494400,4.340494384765625,-0.09529497474431992,0.3335324227809906,0.15760323405265808
1780528908739697000,4.36069677734375,-0.2321287989616394,0.3738495409488678,-0.021991148591041565
1780528908749798100,4.370798095703125,-0.4031710624694824,0.3982841372489929,-0.3494149148464203
1780528908759899600,4.380899658203125,-0.4300491213798523,0.4080579876899719,-0.485027015209198
1780528908780163300,4.401163330078125,-0.5265658497810364,0.5424483418464661,-0.35552358627319336
1780528908800365800,4.42136572265625,-0.6939429044723511,0.6279694437980652,-0.08552113175392151
1780528908810497800,4.431497802734375,-0.788016140460968,0.6377432942390442,-0.15882496535778046
1780528908820599000,4.44159912109375,-0.8820894360542297,0.5949827432632446,-0.2822197377681732
1780528908830700300,4.4517001953125,-0.8820894360542297,0.5949827432632446,-0.2822197377681732
1780528908840801500,4.461801513671875,-0.9199630618095398,0.5119050741195679,-0.39706242084503174
1780528908850872300,4.471872314453125,-0.9126327037811279,0.4508185386657715,-0.3995058834552765
1780528908860943400,4.481943359375,-0.8979719281196594,0.4703662395477295,-0.29077184200286865
1780528908871044600,4.492044677734375,-0.9346238374710083,0.5119050741195679,-0.1062905490398407
1780528908881115400,4.502115478515625,-0.9847147464752197,0.513126790523529,0.042760565876960754
1780528908891186200,4.512186279296875,-0.9834930300712585,0.44104471802711487,0.0806342139840126
1780528908901287400,4.522287353515625,-0.9370672702789307,0.3604104816913605,-0.04153883829712868
1780528908911389000,4.532388916015625,-0.8796459436416626,0.18814650177955627,-0.20525072515010834
1780528908921459700,4.542459716796875,-0.8222246170043945,0.1466076523065567,-0.20402899384498596
1780528908931561000,4.55256103515625,-0.8038986921310425,0.16249015927314758,-0.05375614017248154
1780528908941631700,4.5626318359375,-0.8393288254737854,0.2223549485206604,0.2015855312347412
1780528908951733000,4.57273291015625,-0.856433093547821,0.27122417092323303,0.35063666105270386
1780528908971905300,4.5929052734375,-0.8637634515762329,0.1869247704744339,0.04764748737215996
1780528908992077300,4.613077392578125,-0.8381071090698242,0.05009094998240471,-0.22968533635139465
1780528909012188400,4.6331884765625,-0.817337691783905,0.02076941914856434,-0.06108652427792549
1780528909022259200,4.64325927734375,-0.8503243923187256,0.03176499158143997,0.07819075137376785
1780528909032330000,4.653330078125,-0.8503243923187256,0.006108652334660292,0.09529497474431992
1780528909042400800,4.66340087890625,-0.789237916469574,-0.00855211354792118,-0.08918632566928864
1780528909102978000,4.72397802734375,-0.6426302194595337,0.13805554807186127,-0.10995574295520782
1780528909163525000,4.784525146484375,-0.4141666293144226,0.15027284622192383,-0.6585127115249634
1780528909193798400,4.81479833984375,-0.3897320330142975,0.22357667982578278,-0.5253441333770752
1780528909234173200,4.855173095703125,-0.32498031854629517,0.19425514340400696,-0.4789183437824249
1780528909274548000,4.8955478515625,-0.09773843735456467,0.21624629199504852,-0.49357911944389343
1780528909284649200,4.905649169921875,-0.07208210229873657,0.23335053026676178,-0.3225368559360504
1780528909294720000,4.915719970703125,0.01710422709584236,0.22846360504627228,-0.31642818450927734
1780528909304729900,4.925729736328125,0.09651670604944229,0.2565633952617645,-0.5241223573684692
1780528909314861800,4.93586181640625,0.1062905490398407,0.294437050819397,-0.6670648455619812
1780528909324932600,4.9459326171875,0.1062905490398407,0.3433062732219696,-0.6243042945861816
1780528909345074200,4.96607421875,0.26022860407829285,0.3836233615875244,-0.26633724570274353
1780528909365276700,4.986276611328125,0.3286454975605011,0.3078760802745819,-0.1014036312699318
1780528909385449000,5.006448974609375,0.4202753007411957,0.42149701714515686,-0.24556782841682434
1780528909395550200,5.01655029296875,0.5461135506629944,0.41172316670417786,-0.37262779474258423
1780528909405621000,5.02662109375,0.6963863968849182,0.384845107793808,-0.46303585171699524
1780528909415691800,5.03669189453125,0.8258898258209229,0.40072759985923767,-0.48747047781944275
1780528909425732000,5.046732177734375,0.9456194043159485,0.5119050741195679,-0.5277875661849976
1780528909435833300,5.056833251953125,1.0604621171951294,0.5925393104553223,-0.4153883755207062
1780528909445934600,5.0669345703125,1.1753047704696655,0.6548475623130798,-0.1869247704744339
1780528909466076400,5.087076416015625,1.2131783962249756,0.8014551997184753,0.24190263450145721
1780528909486248400,5.10724853515625,1.3854423761367798,0.6133087277412415,0.2577851414680481
1780528909496319200,5.1173193359375,1.5748106241226196,0.6352998614311218,-0.11362093687057495
1780528909506390000,5.12739013671875,1.7214182615280151,0.6597344875335693,-0.29565876722335815
1780528909516491300,5.1374912109375,1.7837265729904175,0.720820963382721,-0.2687807083129883
1780528909536632800,5.1576328125,1.6713273525238037,0.6157521605491638,0.3689626157283783
1780528909546673200,5.167673095703125,1.6016886234283447,0.7330383062362671,0.5461135506629944
1780528909566845400,5.187845458984375,1.6786576509475708,0.8637634515762329,0.38606682419776917
1780528909576946700,5.19794677734375,1.9132299423217773,0.8503243923187256,-0.1062905490398407
1780528909597180000,5.218179931640625,2.246762275695801,0.7318165898323059,-0.32131510972976685
1780528909617352000,5.23835205078125,1.8154915571212769,1.0250319242477417,1.1252137422561646
1780528909627422700,5.248422607421875,1.508837103843689,1.0506882667541504,1.4795156717300415
1780528909637493500,5.258493408203125,1.340238332748413,1.0897835493087769,1.1410962343215942
1780528909647564300,5.268564208984375,1.1740829944610596,1.0934487581253052,0.23945917189121246
1780528909657604600,5.2786044921875,1.1203268766403198,0.9004153609275818,-0.7147123217582703
1780528909687786500,5.308786376953125,0.26145032048225403,0.7953465580940247,1.3145819902420044
1780528909748242000,5.369241943359375,0.10384709388017654,0.30543261766433716,-1.1618657112121582
1780528909808727600,5.4297275390625,-0.7379252314567566,0.14538592100143433,-1.1985175609588623
1780528909879253800,5.500253662109375,-1.5650367736816406,-1.0396926403045654,0.7782423496246338
1780528909939739600,5.56073974609375,-1.1484266519546509,-1.7763961553573608,-1.0323622226715088
1780528910000195000,5.621195068359375,-1.2705997228622437,-1.0604621171951294,-0.2064724564552307
1780528910030407400,5.651407470703125,-1.3927727937698364,-0.7513642311096191,-0.8894197940826416
1780528910060711400,5.68171142578125,-1.585806131362915,0.03787364438176155,1.0067058801651
1780528910070782200,5.6917822265625,-1.2620476484298706,0.1319468915462494,0.7525860071182251
1780528910080853000,5.70185302734375,-0.9138544201850891,0.1062905490398407,-0.03787364438176155
1780528910090923800,5.711923828125,-0.7819074988365173,-0.1417207419872284,-0.6133087277412415
1780528910100994600,5.72199462890625,-0.769690215587616,-0.2981022298336029,-0.9847147464752197
1780528910111126300,5.732126220703125,-0.8393288254737854,-0.20036379992961884,-0.9859365224838257
1780528910151440100,5.772440185546875,-0.2382374405860901,-0.15760323405265808,0.7684684991836548
1780528910161541400,5.782541259765625,-0.30543261766433716,-0.17348572611808777,0.6914994716644287
1780528910171612200,5.792612060546875,-0.34697145223617554,-0.15760323405265808,0.16737708449363708
1780528910181713400,5.80271337890625,-0.3017674386501312,-0.20402899384498596,-0.6035348773002625
1780528910191815000,5.81281494140625,-0.06719517707824707,-0.36163222789764404,-0.9468411207199097
1780528910201885700,5.8228857421875,0.2773328125476837,-0.38240164518356323,-1.016479730606079
1780528910212017400,5.833017333984375,0.251676470041275,-0.34574973583221436,-0.5619960427284241
1780528910242260500,5.863260498046875,0.1368338167667389,-0.3139847218990326,1.1081095933914185
1780528910262402000,5.883402099609375,0.3982841372489929,0.21380282938480377,-0.024434609338641167
1780528910272503300,5.89350341796875,0.817337691783905,0.3933972120285034,-0.5656611919403076
1780528910282574000,5.903573974609375,0.950506329536438,0.35185837745666504,-0.5974262356758118
1780528910292675300,5.91367529296875,0.6682865619659424,0.00733038317412138,0.0024434609804302454
1780528910302746000,5.92374609375,0.34697145223617554,-0.3384193480014801,0.7037167549133301
1780528910383434800,6.004434814453125,0.5583308339118958,-0.7220427393913269,-0.00855211354792118
1780528910393536000,6.014535888671875,0.7342600226402283,-0.2871066629886627,0.4251621961593628
1780528910403606800,6.024606689453125,0.7024950385093689,0.06108652427792549,0.8747590184211731
1780528910413677600,6.034677490234375,0.5216789245605469,0.26145032048225403,1.281595230102539
1780528910433819100,6.054819091796875,0.2480112910270691,-0.045204028487205505,1.156978726387024
1780528910443890000,6.064889892578125,0.2174680233001709,-0.5473352670669556,-0.3579670190811157
1780528910453960700,6.074960693359375,0.3897320330142975,-0.5363397002220154,-0.6255260109901428
1780528910463970600,6.084970458984375,0.626747727394104,-0.31520646810531616,-0.3029891550540924
1780528910474071800,6.09507177734375,0.7257078886032104,0.019547687843441963,0.37751471996307373
1780528910484173300,6.10517333984375,0.607200026512146,0.20402899384498596,1.1887437105178833
1780528910494274600,6.115274658203125,0.4544837474822998,0.14416420459747314,1.6969836950302124
1780528910504315000,6.12531494140625,0.384845107793808,-0.04886921867728233,1.585806131362915
1780528910514416000,6.135416015625,0.4642575979232788,-0.21013765037059784,1.0067058801651
1780528910544689700,6.165689697265625,0.940732479095459,-0.31031954288482666,-0.030543262138962746
1780528910554791000,6.175791015625,0.7244861721992493,-0.1869247704744339,0.4789183437824249
1780528910564861700,6.18586181640625,0.4080579876899719,-0.07330382615327835,1.0836749076843262
1780528910574902000,6.195902099609375,0.23457226157188416,-0.11850785464048386,1.292590856552124
1780528910584942300,6.2059423828125,0.22357667982578278,-0.18325957655906677,1.0726794004440308
1780528910595043600,6.216043701171875,0.29077184200286865,-0.12828169763088226,0.7061602473258972
1780528910605144800,6.226144775390625,0.43615779280662537,-0.07696902006864548,0.37751471996307373
1780528910615246300,6.236246337890625,0.5326744914054871,-0.1869247704744339,0.2125810980796814
1780528910705913900,6.326913818359375,0.3799581825733185,-0.28588494658470154,0.4153883755207062
1780528910766461000,6.3874609375,0.2590068578720093,-0.16371189057826996,0.18936823308467865
1780528910786633000,6.407633056640625,0.28588494658470154,-0.2174680233001709,-0.036651913076639175
1780528910796734200,6.417734130859375,0.19303341209888458,-0.2431243658065796,0.04398229718208313
1780528910806835500,6.42783544921875,0.14538592100143433,-0.1918116807937622,0.251676470041275
1780528910816937000,6.43793701171875,0.19547687470912933,-0.16249015927314758,0.28099802136421204
1780528910827038200,6.4480380859375,0.2528982162475586,-0.18936823308467865,0.1258382350206375
1780528910837109000,6.45810888671875,0.2785545587539673,-0.23579397797584534,0.0403171069920063
1780528910847179800,6.4681796875,0.27000242471694946,-0.27122417092323303,0.06352998316287994
1780528910857311700,6.478311767578125,0.2321287989616394,-0.2785545587539673,0.09896016865968704
1780528910867413000,6.4884130859375,0.20036379992961884,-0.2736676335334778,0.07452555745840073
1780528910877514200,6.49851416015625,0.18814650177955627,-0.2785545587539673,0.00733038317412138
1780528910927959800,6.548959716796875,0.19425514340400696,-0.2528982162475586,0.006108652334660292
1780528910948132000,6.569132080078125,0.1918116807937622,-0.18814650177955627,0.1319468915462494
1780528910958263800,6.579263916015625,0.14294247329235077,-0.16982053220272064,0.10751228034496307
1780528910968365000,6.589364990234375,0.10873401165008545,-0.14782938361167908,0.09773843735456467
1780528910988537300,6.609537353515625,0.14049901068210602,-0.19547687470912933,-0.10018189996480942
1780528911039013400,6.660013427734375,-0.0757472887635231,-0.13805554807186127,0.16982053220272064
1780528911049114600,6.670114501953125,-0.10751228034496307,-0.12461651116609573,0.09040805697441101
1780528911079418600,6.700418701171875,0.00366519158706069,-0.16371189057826996,-0.2015855312347412
1780528911089519900,6.710519775390625,0.0354301854968071,-0.08307767659425735,-0.2064724564552307
1780528911099621000,6.72062109375,0.05619960278272629,-0.045204028487205505,-0.20402899384498596
1780528911160229000,6.78122900390625,0.12461651116609573,0.21013765037059784,-0.24556782841682434
1780528911190533000,6.811533203125,-0.03787364438176155,0.3396410644054413,0.16859880089759827
1780528911200664800,6.821664794921875,-0.16249015927314758,0.34086281061172485,0.2577851414680481
1780528911210766300,6.831766357421875,-0.26633724570274353,0.3176499307155609,0.2076941877603531
1780528911220898000,6.84189794921875,-0.27488934993743896,0.2834414839744568,-0.02321287989616394
1780528911230999300,6.851999267578125,-0.2370157092809677,0.25045475363731384,-0.31031954288482666
1780528911241100800,6.862100830078125,-0.21135938167572021,0.22113321721553802,-0.44104471802711487
1780528911261303300,6.88230322265625,-0.26022860407829285,0.20036379992961884,-0.21868975460529327
1780528911271404800,6.89240478515625,-0.32131510972976685,0.2577851414680481,-0.00855211354792118
1780528911281506000,6.902506103515625,-0.3799581825733185,0.3237585723400116,0.07941248267889023
1780528911291637800,6.9126376953125,-0.4789183437824249,0.2675589919090271,0.12095131725072861
1780528911301769700,6.922769775390625,-0.5436700582504272,0.18814650177955627,0.0708603709936142
1780528911311901400,6.9329013671875,-0.5742133259773254,0.12217304855585098,-0.11239920556545258
1780528911322003000,6.9430029296875,-0.6010913848876953,0.06841690838336945,-0.17837265133857727
1780528911332104200,6.953104248046875,-0.5412266254425049,0.08918632566928864,-0.19058994948863983
1780528911342236000,6.96323583984375,-0.4715879559516907,0.11728613078594208,-0.1820378452539444
1780528911372570400,6.9935703125,-0.8100073337554932,0.05253441259264946,0.07819075137376785
1780528911382672000,7.003671875,-0.8356636762619019,0.009773843921720982,0.05253441259264946
1780528911392773000,7.013773193359375,-0.8161159753799438,-0.09651670604944229,-0.08796459436416626
1780528911402904800,7.02390478515625,-0.8087855577468872,-0.18936823308467865,-0.19425514340400696
1780528911413006300,7.03400634765625,-0.788016140460968,-0.18570303916931152,-0.13805554807186127
1780528911443279600,7.064279541015625,-0.8759807348251343,-0.05009094998240471,-0.1062905490398407
1780528911453411600,7.07441162109375,-0.9126327037811279,-0.06108652427792549,-0.2015855312347412
1780528911463452000,7.084451904296875,-0.9395107626914978,-0.04764748737215996,-0.2431243658065796
1780528911473583600,7.09458349609375,-0.9492846131324768,0.03787364438176155,-0.21991148591041565
1780528911483715600,7.104715576171875,-0.9590584635734558,0.09285151958465576,-0.15393804013729095
1780528911493847300,7.114847412109375,-0.9492846131324768,0.1111774742603302,-0.025656340643763542
1780528911503887600,7.1248876953125,-0.8979719281196594,0.1062905490398407,-0.02321287989616394
1780528911514019300,7.135019287109375,-0.8894197940826416,0.09896016865968704,-0.11972958594560623
1780528911534283000,7.155282958984375,-0.8222246170043945,0.2883284091949463,-0.11972958594560623
1780528911544353800,7.165353759765625,-0.7195992469787598,0.3066543638706207,-0.19547687470912933
1780528911564617500,7.185617431640625,-0.7171558141708374,0.23457226157188416,-0.29077184200286865
1780528911574749400,7.19574951171875,-0.6768386960029602,0.24068090319633484,-0.3494149148464203
1780528911594952000,7.215951904296875,-0.5351179838180542,0.2174680233001709,-0.44593164324760437
1780528911605084000,7.226083984375,-0.4642575979232788,0.17837265133857727,-0.46792277693748474
1780528911625286400,7.246286376953125,-0.5021312236785889,0.22479841113090515,-0.39584067463874817
1780528911635388000,7.256387939453125,-0.5510004758834839,0.2321287989616394,-0.31031954288482666
1780528911655620900,7.276620849609375,-0.5485569834709167,0.09651670604944229,-0.5619960427284241
1780528911665752800,7.2867529296875,-0.5595525503158569,0.012217304669320583,-0.7257078886032104
1780528911675854000,7.29685400390625,-0.46792277693748474,-0.02687807008624077,-0.5314527750015259
1780528911685955600,7.30695556640625,-0.49235737323760986,0.01466076634824276,-0.2541199326515198
1780528911696087300,7.31708740234375,-0.5424483418464661,0.02076941914856434,-0.17470745742321014
1780528911706188500,7.3271884765625,-0.5668829679489136,-0.024434609338641167,-0.2919935882091522
1780528911716290000,7.3372900390625,-0.5400048494338989,-0.1014036312699318,-0.49724429845809937
1780528911726360800,7.34736083984375,-0.4801400899887085,-0.11728613078594208,-0.656069278717041
1780528911736492500,7.357492431640625,-0.4386012554168701,-0.1062905490398407,-0.6499606370925903
1780528911746593800,7.36759375,-0.3995058834552765,-0.11972958594560623,-0.5229006409645081
1780528911756725800,7.377725830078125,-0.35674530267715454,-0.12950342893600464,-0.40194934606552124
1780528911766857500,7.387857421875,-0.3078760802745819,-0.15760323405265808,-0.3225368559360504
1780528911787090700,7.408090576171875,-0.16982053220272064,0.00855211354792118,-0.45692721009254456
1780528911807293400,7.42829345703125,-0.1661553531885147,-0.042760565876960754,-0.3591887652873993
1780528911867962400,7.48896240234375,0.10384709388017654,-0.00733038317412138,-0.4764748811721802
1780528911888195300,7.5091953125,0.23579397797584534,-0.00855211354792118,-0.4178318381309509
1780528911938732500,7.559732666015625,0.42638394236564636,-0.009773843921720982,-0.34574973583221436
1780528911948833800,7.569833740234375,0.48380526900291443,-0.07696902006864548,-0.3029891550540924
1780528911958935300,7.579935302734375,0.4948008358478546,-0.10751228034496307,-0.2272418737411499
1780528911969036500,7.59003662109375,0.47769662737846375,-0.045204028487205505,-0.04764748737215996
1780528911979137800,7.6001376953125,0.5925393104553223,0.06108652427792549,-0.045204028487205505
1780528911989239000,7.610239013671875,0.8161159753799438,0.0806342139840126,-0.21502456068992615
1780528911999340500,7.620340576171875,0.9480628371238708,0.004886921960860491,-0.3225368559360504
1780528912009441800,7.63044189453125,0.9419541954994202,0.019547687843441963,-0.16493362188339233
1780528912049877500,7.67087744140625,1.2950342893600464,0.3982841372489929,0.16493362188339233
1780528912059979000,7.68097900390625,1.330464482307434,0.40194934606552124,0.09285151958465576
1780528912070080300,7.691080322265625,1.3658946752548218,0.3885102868080139,-0.0403171069920063
1780528912080212000,7.7012119140625,1.4831807613372803,0.4153883755207062,-0.14049901068210602
1780528912090313500,7.7113134765625,1.6615535020828247,0.485027015209198,-0.304210901260376
1780528912100414700,7.721414794921875,1.7275269031524658,0.4960225820541382,-0.4092797040939331
1780528912120678400,7.741678466796875,1.8093829154968262,0.48380526900291443,-0.3628539443016052
1780528912130718700,7.75171875,1.9132299423217773,0.4899139404296875,-0.39584067463874817
1780528912140789500,7.76178955078125,1.8949040174484253,0.49846604466438293,-0.30543261766433716
1780528912160900600,7.781900634765625,1.8680258989334106,0.5167919993400574,0.04153883829712868
1780528912241619500,7.862619384765625,1.4086552858352661,0.5436700582504272,-0.626747727394104
1780528912261761000,7.882760986328125,1.1105530261993408,0.4813618063926697,-0.5180137157440186
1780528912271801300,7.89280126953125,0.8600982427597046,0.4544837474822998,-0.09407325088977814
1780528912281872100,7.9028720703125,0.6352998614311218,0.45692721009254456,0.25534167885780334
1780528912291943000,7.91294287109375,0.3982841372489929,0.4080579876899719,0.5119050741195679
1780528912301983200,7.922983154296875,0.2626720666885376,0.35063666105270386,0.4031710624694824
1780528912372509400,7.993509521484375,-0.608421802520752,0.17104226350784302,0.15515977144241333
1780528912392620500,8.01362060546875,-0.9847147464752197,-0.04764748737215996,0.5338962078094482
1780528912402691300,8.02369140625,-1.0482447147369385,-0.11484266817569733,0.375071257352829
1780528912412762000,8.03376220703125,-1.1191051006317139,-0.1771509200334549,0.07941248267889023
1780528912422802400,8.043802490234375,-1.224173903465271,-0.31154128909111023,-0.17348572611808777
1780528912503521300,8.124521240234374,-1.5919147729873657,-0.807563841342926,-0.5607742667198181
1780528912533764400,8.154764404296875,-1.528384804725647,-0.6511823534965515,0.1661553531885147
1780528912543804700,8.1648046875,-1.431868076324463,-0.5241223573684692,-0.03787364438176155
1780528912553906000,8.174906005859375,-1.3487904071807861,-0.4178318381309509,-0.3323107063770294
1780528912563976700,8.184976806640625,-1.3182471990585327,-0.4056145250797272,-0.46792277693748474
1780528912594189000,8.21518896484375,-1.5357152223587036,-0.31520646810531616,0.6120869517326355
1780528912604290300,8.225290283203124,-1.4868459701538086,-0.2541199326515198,0.7257078886032104
1780528912614391800,8.235391845703125,-1.470963478088379,-0.27000242471694946,0.6426302194595337
1780528912624493000,8.2454931640625,-1.3463469743728638,-0.27488934993743896,0.504574716091156
1780528912684948500,8.305948486328125,-0.7110471725463867,-0.3933972120285034,0.4434881806373596
1780528912725292500,8.34629248046875,-0.4764748811721802,0.09407325088977814,0.38728857040405273
1780528912735363300,8.35636328125,-0.10018189996480942,-0.028099801391363144,0.00366519158706069
1780528912745434000,8.36643408203125,0.2736676335334778,-0.13316862285137177,-0.5693264007568359
1780528912755535600,8.37653564453125,0.1258382350206375,-0.22113321721553802,-0.5949827432632446
1780528912765606400,8.3866064453125,-0.3543018400669098,-0.15393804013729095,0.05742133408784866
1780528912775707600,8.396707763671875,-0.5229006409645081,-0.08674286305904388,0.9529497623443604
1780528912785778400,8.4067783203125,-0.24434609711170197,0.006108652334660292,1.1056660413742065
1780528912795849200,8.41684912109375,0.018325956538319588,0.18325957655906677,0.5705481171607971
1780528912805950500,8.426950439453124,0.2174680233001709,0.17959438264369965,0.05009094998240471
1780528912816052000,8.437052001953125,0.40194934606552124,0.03176499158143997,-0.5949827432632446
1780528912826122800,8.447122802734375,0.3897320330142975,-0.23579397797584534,-0.9040805697441101
1780528912836193500,8.457193603515625,0.31031954288482666,-0.32986724376678467,-0.7379252314567566
1780528912866436400,8.487436279296874,0.09529497474431992,0.3225368559360504,1.3439035415649414
1780528912876537900,8.497537841796875,0.1417207419872284,0.46181413531303406,1.6395623683929443
1780528912886608600,8.507608642578125,0.2687807083129883,0.5082398653030396,1.1349875926971436
1780528912896710000,8.5177099609375,0.3897320330142975,0.32131510972976685,0.045204028487205505
1780528912906811100,8.52781103515625,0.4801400899887085,-0.06963863968849182,-0.8515461683273315
1780528912916912400,8.537912353515624,0.6450737118721008,-0.23335053026676178,-1.2217304706573486
1780528912926983200,8.547983154296874,0.7024950385093689,-0.24434609711170197,-0.9566149711608887
1780528912947125000,8.568125,0.35185837745666504,-0.02321287989616394,0.7806857824325562
1780528912957226200,8.578226318359375,0.2382374405860901,0.32131510972976685,1.0787880420684814
1780528912967327500,8.588327392578124,0.31154128909111023,0.5619960427284241,0.9004153609275818
1780528912977428700,8.5984287109375,0.5412266254425049,0.45814892649650574,0.384845107793808
1780528912987469000,8.608468994140624,0.7831292152404785,0.08307767659425735,-0.42760565876960754
1780528913017773000,8.63877294921875,0.28466320037841797,-0.6243042945861816,-0.294437050819397
1780528913027874300,8.648874267578124,0.10018189996480942,-0.15882496535778046,0.6035348773002625
1780528913037945000,8.658945068359374,0.12461651116609573,0.3188716471195221,1.1166616678237915
1780528913048016100,8.66901611328125,0.26633724570274353,0.48380526900291443,1.1740829944610596
1780528913108532500,8.729532470703125,0.455705463886261,-0.01710422709584236,0.24556782841682434
1780528913118603300,8.739603271484375,0.4703662395477295,0.13439035415649414,0.6939429044723511
1780528913128674000,8.749674072265625,0.5082398653030396,0.15027284622192383,0.8442157506942749
1780528913138775300,8.759775390625,0.5913175344467163,0.1319468915462494,0.6352998614311218
1780528913148876500,8.76987646484375,0.5558874011039734,0.03420845419168472,0.2431243658065796
1780528913158977800,8.779977783203124,0.37751471996307373,-0.16004669666290283,0.009773843921720982
1780528913169079300,8.790079345703125,0.31642818450927734,-0.2370157092809677,-0.1062905490398407
1780528913179180500,8.8001806640625,0.3286454975605011,-0.1820378452539444,-0.11484266817569733
1780528913189251300,8.810251220703124,0.24068090319633484,-0.11850785464048386,0.1014036312699318
1780528913199322000,8.820322021484374,0.1563815027475357,-0.1612684279680252,0.33597588539123535
1780528913209423400,8.83042333984375,0.18814650177955627,-0.1820378452539444,0.3933972120285034
1780528913219524900,8.84052490234375,0.2687807083129883,-0.1514945775270462,0.2834414839744568
1780528913229595600,8.850595703125,0.33597588539123535,-0.1160643994808197,0.14294247329235077
1780528913239666400,8.86066650390625,0.4105014503002167,-0.09529497474431992,0.042760565876960754
1780528913269878800,8.890878662109374,0.3933972120285034,-0.3384193480014801,0.1319468915462494
1780528913279949600,8.900949462890624,0.3738495409488678,-0.40072759985923767,0.1563815027475357
1780528913289990000,8.910989990234375,0.375071257352829,-0.25045475363731384,0.29565876722335815
1780528913300060700,8.921060791015625,0.39217549562454224,-0.24556782841682434,0.3543018400669098
1780528913310131500,8.93113134765625,0.4105014503002167,-0.3127630054950714,0.2981022298336029
1780528913320232700,8.941232666015624,0.36651915311813354,-0.4043927788734436,0.21013765037059784
1780528913330334200,8.951334228515625,0.3139847218990326,-0.4349360466003418,0.14905111491680145
1780528913340374500,8.96137451171875,0.294437050819397,-0.4337143301963806,0.08918632566928864
1780528913350445300,8.9714453125,0.304210901260376,-0.43737950921058655,0.021991148591041565
1780528913370587000,8.9915869140625,0.21135938167572021,-0.3543018400669098,0.13927727937698364
1780528913431164200,9.0521640625,0.19792033731937408,-0.4239404797554016,0.27977627515792847
1780528913441265400,9.062265380859374,0.17959438264369965,-0.4043927788734436,0.2223549485206604
1780528913451367000,9.072366943359375,0.19303341209888458,-0.3738495409488678,0.2076941877603531
1780528913501720800,9.122720947265625,0.25534167885780334,-0.34086281061172485,0.1869247704744339
1780528913511822000,9.132822021484374,0.2687807083129883,-0.26511552929878235,0.2370157092809677
1780528913521923600,9.142923583984375,0.27488934993743896,-0.1966986060142517,0.28588494658470154
1780528913531994400,9.152994384765625,0.26145032048225403,-0.1722639948129654,0.32498031854629517
1780528913542065200,9.163065185546875,0.24068090319633484,-0.1612684279680252,0.3237585723400116
1780528913562267600,9.183267578125,0.2125810980796814,-0.17837265133857727,0.24068090319633484
1780528913572369200,9.193369140625,0.22602014243602753,-0.18081611394882202,0.19792033731937408
1780528913582440000,9.20343994140625,0.22479841113090515,-0.16982053220272064,0.17348572611808777
1780528913592541200,9.213541259765625,0.20891591906547546,-0.1160643994808197,0.18570303916931152
1780528913602642400,9.223642333984374,0.22357667982578278,-0.08185594528913498,0.1966986060142517
1780528913612743700,9.23374365234375,0.24678955972194672,-0.07452555745840073,0.13805554807186127
1780528913622814500,9.243814453125,0.24678955972194672,-0.1062905490398407,0.03176499158143997
1780528913632916000,9.253916015625,0.2321287989616394,-0.12095131725072861,-0.05619960278272629
1780528913653088000,9.274087890625,0.17104226350784302,-0.059864792972803116,-0.051312681287527084
1780528913683361500,9.304361572265625,0.10751228034496307,0.08552113175392151,0.06841690838336945
1780528913693462800,9.314462890625,0.11484266817569733,0.10262536257505417,0.11484266817569733
1780528913703503000,9.324503173828125,0.10018189996480942,0.09773843735456467,0.13561208546161652
1780528913733776400,9.3547763671875,0.0708603709936142,0.045204028487205505,-0.16249015927314758
1780528913743878000,9.3648779296875,0.07452555745840073,0.019547687843441963,-0.15271630883216858
1780528913753948700,9.37494873046875,0.07941248267889023,0.028099801391363144,-0.10262536257505417
1780528913764050000,9.3850498046875,0.09040805697441101,0.08185594528913498,-0.05864306539297104
1780528913774120700,9.39512060546875,0.13072516024112701,0.14294247329235077,-0.00855211354792118
1780528913794292700,9.415292724609374,0.1563815027475357,0.11484266817569733,0.03787364438176155
1780528913804394200,9.425394287109375,0.13439035415649414,0.05619960278272629,0.02932153269648552
1780528913814465000,9.435465087890625,0.1612684279680252,0.04886921867728233,-0.00366519158706069
1780528913834637000,9.455636962890624,0.10751228034496307,0.06719517707824707,-0.23457226157188416
1780528913844707800,9.465707763671874,0.11362093687057495,0.12950342893600464,-0.27000242471694946
1780528913874951000,9.495950927734375,-0.13072516024112701,0.33475416898727417,0.26511552929878235
1780528913884991000,9.505990966796874,-0.18936823308467865,0.37629300355911255,0.34697145223617554
1780528913895092500,9.516092529296875,-0.22846360504627228,0.4202753007411957,0.2919935882091522
1780528913905163300,9.526163330078125,-0.3127630054950714,0.4300491213798523,0.23457226157188416
1780528913915234000,9.536234130859375,-0.375071257352829,0.37629300355911255,0.20036379992961884
1780528913925304800,9.546304931640625,-0.3885102868080139,0.2785545587539673,0.13072516024112701
1780528913935375600,9.556375732421875,-0.42271876335144043,0.24434609711170197,0.05253441259264946
1780528913945446400,9.5664462890625,-0.5424483418464661,0.2932153046131134,0.045204028487205505
1780528913955517200,9.57651708984375,-0.6902777552604675,0.36163222789764404,0.1368338167667389
1780528913965649200,9.586649169921875,-0.7953465580940247,0.39095374941825867,0.17837265133857727
1780528913975750400,9.59675048828125,-0.8918632864952087,0.40194934606552124,0.15393804013729095
1780528913985821200,9.6068212890625,-0.9810495972633362,0.4202753007411957,0.1160643994808197
1780528913995892000,9.61689208984375,-1.0335839986801147,0.4043927788734436,0.05619960278272629
1780528914005962800,9.626962646484374,-1.0641272068023682,0.32620203495025635,-0.013439035043120384
1780528914016064000,9.63706396484375,-1.0519099235534668,0.28466320037841797,-0.042760565876960754
1780528914026165500,9.64716552734375,-0.9089674949645996,0.34208452701568604,0.10506882518529892
1780528914036236300,9.657236328125,-0.8613200187683105,0.36163222789764404,0.09285151958465576
1780528914056438800,9.677438720703124,-0.8246681094169617,0.2822197377681732,-0.14782938361167908
1780528914066540300,9.687540283203125,-0.7770205736160278,0.2125810980796814,-0.25534167885780334
1780528914076611000,9.697611083984375,-0.7367035150527954,0.17592918872833252,-0.3139847218990326
1780528914096752600,9.717752685546875,-0.7415903806686401,0.2565633952617645,-0.09896016865968704
1780528914116955100,9.737955078125,-0.7635815739631653,0.21868975460529327,-0.10384709388017654
1780528914127056600,9.748056640625,-0.7770205736160278,0.1966986060142517,-0.2382374405860901
1780528914137158000,9.758157958984375,-0.7379252314567566,0.22968533635139465,-0.37751471996307373
1780528914157269000,9.77826904296875,-0.7867944240570068,0.22113321721553802,-0.2871066629886627
1780528914177502200,9.798502197265625,-0.8197811841964722,0.09773843735456467,-0.2675589919090271
1780528914197704700,9.81870458984375,-0.6988298296928406,0.26022860407829285,-0.43127086758613586
1780528914207806000,9.828805908203124,-0.6743952035903931,0.2223549485206604,-0.485027015209198
1780528914217876700,9.838876708984374,-0.7134906053543091,0.1368338167667389,-0.4862487316131592
1780528914227978200,9.848978271484375,-0.7806857824325562,0.07941248267889023,-0.4544837474822998
1780528914248150300,9.869150390625,-0.8026769161224365,-0.025656340643763542,-0.34208452701568604
1780528914258251500,9.87925146484375,-0.7855727076530457,-0.028099801391363144,-0.27488934993743896
1780528914288555500,9.909555419921874,-0.7024950385093689,-0.0354301854968071,-0.2577851414680481
1780528914308758300,9.92975830078125,-0.7098253965377808,-0.13561208546161652,-0.32009339332580566
1780528914318798600,9.939798583984375,-0.6597344875335693,-0.12950342893600464,-0.2883284091949463
1780528914328899800,9.94989990234375,-0.5546656250953674,-0.10751228034496307,-0.3139847218990326
1780528914349102300,9.970102294921874,-0.46303585171699524,-0.12828169763088226,-0.3481931984424591
1780528914369274600,9.990274658203125,-0.384845107793808,-0.04764748737215996,-0.2480112910270691
1780528914379375900,10.0003759765625,-0.4178318381309509,-0.010995574295520782,-0.09407325088977814
1780528914389507600,10.010507568359374,-0.3628539443016052,0.00366519158706069,-0.05619960278272629
1780528914399609000,10.020609130859375,-0.32131510972976685,0.030543262138962746,-0.16004669666290283
1780528914409710300,10.03071044921875,-0.31031954288482666,0.009773843921720982,-0.10751228034496307
1780528914419842000,10.040842041015624,-0.27000242471694946,0.019547687843441963,-0.08429940044879913
1780528914429943600,10.050943603515625,-0.2015855312347412,0.08429940044879913,-0.10018189996480942
1780528914440014300,10.061014404296875,-0.17348572611808777,0.17348572611808777,-0.17470745742321014
1780528914450146000,10.07114599609375,-0.22113321721553802,0.2675589919090271,-0.09407325088977814
1780528914460247600,10.08124755859375,-0.15882496535778046,0.30054569244384766,0.03176499158143997
1780528914470348800,10.091348876953125,-0.00733038317412138,0.24190263450145721,-0.02321287989616394
1780528914490551300,10.11155126953125,0.16982053220272064,0.1160643994808197,-0.46547931432724
1780528914500622000,10.1216220703125,0.1966986060142517,0.1966986060142517,-0.375071257352829
1780528914510754000,10.131754150390625,0.27977627515792847,0.2321287989616394,-0.10751228034496307
1780528914581341200,10.202341064453124,1.351233959197998,0.2480112910270691,-0.38606682419776917
1780528914652111400,10.273111328125,2.0280725955963135,-0.05253441259264946,-0.24068090319633484
1780528914662182100,10.28318212890625,2.052507162094116,-0.08185594528913498,0.021991148591041565
1780528914672314000,10.293314208984375,2.146580457687378,-0.04398229718208313,0.18814650177955627
1780528914682445800,10.30344580078125,2.1759018898010254,-0.028099801391363144,0.2321287989616394
1780528914692547300,10.31354736328125,2.113593816757202,-0.05864306539297104,0.21624629199504852
1780528914702618000,10.3236181640625,2.0415115356445312,-0.09529497474431992,0.06230825558304787
1780528914712749800,10.333749755859374,2.0280725955963135,-0.10262536257505417,-0.1368338167667389
1780528914722881800,10.3438818359375,2.109928607940674,-0.09529497474431992,-0.3225368559360504
1780528914743114800,10.36411474609375,2.0060815811157227,0.07696902006864548,-0.24068090319633484
1780528914753216300,10.37421630859375,1.8216001987457275,0.2834414839744568,0.07696902006864548
1780528914773449500,10.394449462890625,1.683544635772705,0.7098253965377808,0.3481931984424591
1780528914783581200,10.404581298828125,1.5076154470443726,0.8026769161224365,0.10506882518529892
1780528914793682400,10.414682373046874,1.2290608882904053,0.8234463334083557,-0.05742133408784866
1780528914803722800,10.42472265625,0.9566149711608887,0.8222246170043945,-0.12461651116609573
1780528914813885200,10.43488525390625,0.6780604124069214,0.8662069439888,-0.021991148591041565
1780528914823986400,10.444986328125,0.4642575979232788,0.9957103729248047,0.1368338167667389
1780528914854321000,10.47532080078125,0.06719517707824707,1.0519099235534668,0.07208210229873657
1780528914864422100,10.485422119140624,-0.07452555745840073,0.8735373020172119,-0.11728613078594208
1780528914945354800,10.566354736328124,-1.1191051006317139,-0.28099802136421204,-0.07819075137376785
1780528914955456300,10.576456298828125,-1.2119566202163696,-0.4740314185619354,-0.13316862285137177
1780528914985821200,10.6068212890625,-1.6126842498779297,-0.8307767510414124,-0.24556782841682434
1780528914995922400,10.61692236328125,-1.6945401430130005,-0.856433093547821,-0.2638937830924988
1780528915006054400,10.627054443359375,-1.7641788721084595,-0.8295549750328064,-0.2834414839744568
1780528915016155600,10.63715576171875,-1.7837265729904175,-0.7904596328735352,-0.2981022298336029
1780528915026287400,10.647287353515624,-1.7495180368423462,-0.799011766910553,-0.26022860407829285
1780528915036388900,10.657388916015625,-1.7018705606460571,-0.8148942589759827,-0.14538592100143433
1780528915056591400,10.67759130859375,-1.7556266784667969,-0.856433093547821,0.08918632566928864
1780528915066692900,10.68769287109375,-1.7470746040344238,-0.8539896011352539,0.10384709388017654
1780528915107098000,10.72809814453125,-1.3463469743728638,-0.294437050819397,0.4239404797554016
1780528915117199400,10.738199462890625,-1.1386528015136719,-0.22357667982578278,0.3787364661693573
1780528915137402000,10.758402099609375,-1.351233959197998,-0.2993239760398865,0.06963863968849182
1780528915147533800,10.768533935546875,-1.4233160018920898,-0.28466320037841797,0.028099801391363144
1780528915157635000,10.778635009765624,-1.2498302459716797,-0.12217304855585098,0.15271630883216858
1780528915238537200,10.859537109375,-0.5742133259773254,-0.3787364661693573,0.42638394236564636
1780528915248669200,10.869669189453125,-0.5510004758834839,-0.4105014503002167,0.5485569834709167
1780528915258770400,10.8797705078125,-0.35185837745666504,-0.2993239760398865,0.5351179838180542
1780528915278973000,10.899972900390624,-0.12339477986097336,-0.1466076523065567,0.28466320037841797
1780528915289074400,10.910074462890625,-0.025656340643763542,-0.1466076523065567,-0.06108652427792549
1780528915299145200,10.920145263671875,0.05864306539297104,-0.30054569244384766,-0.36651915311813354
1780528915309216000,10.930216064453125,0.07819075137376785,-0.39706242084503174,-0.6059783101081848
1780528915319286800,10.940286865234375,-0.015882495790719986,-0.40072759985923767,-0.27000242471694946
1780528915329357600,10.950357666015625,0.0024434609804302454,-0.38240164518356323,0.39095374941825867
1780528915339428400,10.960428466796875,-0.006108652334660292,-0.24434609711170197,0.9162978529930115
1780528915349529600,10.970529541015624,-0.1160643994808197,-0.04886921867728233,1.3548991680145264
1780528915359600400,10.980600341796874,-0.0659734457731247,0.34086281061172485,1.3732250928878784
1780528915369640700,10.990640625,0.1918116807937622,0.6279694437980652,0.5436700582504272
1780528915399883800,11.0208837890625,0.5412266254425049,-0.3188716471195221,-0.42638394236564636
1780528915409954600,11.03095458984375,0.17592918872833252,0.07208210229873657,0.6328563690185547
1780528915420025300,11.041025390625,-0.0806342139840126,0.4434881806373596,1.5748106241226196
1780528915430126600,11.051126708984375,-0.01466076634824276,0.675616979598999,1.7495180368423462
1780528915440197400,11.061197265625,0.22479841113090515,0.675616979598999,1.0054842233657837
1780528915450237700,11.07123779296875,0.5448917746543884,0.34086281061172485,-0.18570303916931152
1780528915460247600,11.08124755859375,0.7953465580940247,-0.1820378452539444,-1.1386528015136719
1780528915470348800,11.091348876953125,0.8210029006004333,-0.5571091175079346,-1.3084733486175537
1780528915480450000,11.101449951171874,0.6817256212234497,-0.42149701714515686,-0.8063421249389648
1780528915490490400,11.111490478515625,0.4764748811721802,0.12950342893600464,0.14416420459747314
1780528915510601500,11.1316015625,0.5925393104553223,0.4129449129104614,1.312138557434082
1780528915520672300,11.14167236328125,0.7037167549133301,0.2871066629886627,0.8698720932006836
1780528915530743000,11.151742919921874,0.7660250067710876,0.06963863968849182,-0.10873401165008545
1780528915540783400,11.161783447265625,0.7379252314567566,-0.22479841113090515,-0.9089674949645996
1780528915550884600,11.171884521484374,0.6340781450271606,-0.3323107063770294,-1.0396926403045654
1780528915561016600,11.1820166015625,0.5791002511978149,-0.23579397797584534,-0.5363397002220154
1780528915571087400,11.19208740234375,0.5827654600143433,-0.01466076634824276,0.2724458873271942
1780528915591229000,11.21222900390625,0.5778785347938538,0.2834414839744568,1.2217304706573486
1780528915631573200,11.2525732421875,0.37629300355911255,-0.3995058834552765,-0.6218608021736145
1780528915641674500,11.262674560546875,0.3933972120285034,-0.4447098970413208,-0.45326200127601624
1780528915651714800,11.27271484375,0.455705463886261,-0.2590068578720093,0.04398229718208313
1780528915661816000,11.282816162109375,0.5962044596672058,-0.07330382615327835,0.4544837474822998
1780528915671886800,11.292886962890625,0.6047565937042236,-0.06719517707824707,0.5522221922874451
1780528915681988000,11.302988037109374,0.4288274049758911,-0.1661553531885147,0.4691445231437683
1780528915702129700,11.323129638671874,0.48869219422340393,-0.2883284091949463,0.1722639948129654
1780528915712200400,11.333200439453124,0.5827654600143433,-0.3188716471195221,0.05864306539297104
1780528915722302000,11.343302001953125,0.5803219676017761,-0.3335324227809906,0.06108652427792549
1780528915732403200,11.3534033203125,0.5607742667198181,-0.3274237811565399,0.16859880089759827
1780528915742504400,11.36350439453125,0.5522221922874451,-0.33108896017074585,0.28099802136421204
1780528915752606000,11.37360595703125,0.4740314185619354,-0.3078760802745819,0.3237585723400116
1780528915762707200,11.383707275390625,0.3323107063770294,-0.2968805134296417,0.4434881806373596
1780528915772778000,11.393778076171875,0.2993239760398865,-0.27488934993743896,0.4948008358478546
1780528915782879200,11.403879150390624,0.34086281061172485,-0.2785545587539673,0.4251621961593628
1780528915792980500,11.41398046875,0.3579670190811157,-0.3176499307155609,0.33108896017074585
1780528915813152800,11.43415283203125,0.33719760179519653,-0.4178318381309509,0.30054569244384766
1780528915823223600,11.4442236328125,0.3897320330142975,-0.4703662395477295,0.39584067463874817
1780528915833263900,11.454263916015625,0.4508185386657715,-0.46181413531303406,0.3677408695220947
1780528915843334700,11.464334716796875,0.4288274049758911,-0.4202753007411957,0.3494149148464203
1780528915853405400,11.474405517578125,0.3982841372489929,-0.4129449129104614,0.38240164518356323
1780528915873577500,11.494577392578124,0.4300491213798523,-0.5265658497810364,0.26511552929878235
1780528915883648300,11.504648193359374,0.37751471996307373,-0.5167919993400574,0.26145032048225403
1780528915893719000,11.514718994140624,0.33475416898727417,-0.4948008358478546,0.32620203495025635
1780528915913891300,11.534891357421875,0.3176499307155609,-0.4789183437824249,0.4544837474822998
1780528915923962000,11.544962158203125,0.32009339332580566,-0.4251621961593628,0.41661009192466736
1780528915954235400,11.5752353515625,0.2638937830924988,-0.31642818450927734,0.2638937830924988
1780528915964306200,11.58530615234375,0.23335053026676178,-0.31642818450927734,0.2577851414680481
1780528915974377000,11.595376953125,0.22968533635139465,-0.2993239760398865,0.21868975460529327
1780528915994549200,11.61554931640625,0.18814650177955627,-0.15271630883216858,0.21624629199504852
1780528916024853200,11.645853271484375,0.16493362188339233,-0.1661553531885147,0.35674530267715454
1780528916055126500,11.67612646484375,0.1319468915462494,-0.042760565876960754,0.23090706765651703
1780528916125713700,11.746713623046874,0.07941248267889023,0.07330382615327835,0.0354301854968071
1780528916155987200,11.7769873046875,0.02687807008624077,0.02687807008624077,0.15515977144241333
1780528916186260700,11.8072607421875,0.015882495790719986,-0.013439035043120384,-0.09896016865968704
1780528916196331500,11.81733154296875,0.05497787147760391,-0.06963863968849182,-0.1014036312699318
1780528916206402300,11.82740234375,0.05864306539297104,-0.05619960278272629,-0.09162978827953339
1780528916236584200,11.857584228515625,0.10018189996480942,-0.00366519158706069,-0.0806342139840126
1780528916246655000,11.867655029296875,0.12095131725072861,0.009773843921720982,-0.11239920556545258
1780528916327190800,11.948190673828124,0.1270599663257599,0.375071257352829,-0.15027284622192383
1780528916337292000,11.9582919921875,0.10018189996480942,0.4447098970413208,-0.0757472887635231
1780528916387737600,12.008737548828124,-0.10873401165008545,0.4080579876899719,-0.3689626157283783
1780528916397839000,12.018839111328125,-0.1612684279680252,0.455705463886261,-0.3481931984424591
1780528916407940400,12.0289404296875,-0.18448130786418915,0.5375614166259766,-0.23579397797584534
1780528916417980700,12.038980712890625,-0.21135938167572021,0.6010913848876953,-0.14294247329235077
1780528916428051500,12.049051513671875,-0.2919935882091522,0.5949827432632446,-0.0757472887635231
1780528916438152700,12.059152587890624,-0.36163222789764404,0.5387831330299377,-0.04153883829712868
1780528916448223500,12.069223388671874,-0.39584067463874817,0.49235737323760986,-0.04642575979232788
1780528916458294300,12.079294189453124,-0.38728857040405273,0.4813618063926697,-0.04886921867728233
1780528916468365000,12.089364990234374,-0.35552358627319336,0.45814892649650574,-0.16004669666290283
1780528916478435800,12.099435791015624,-0.3640756905078888,0.38240164518356323,-0.3738495409488678
1780528916488506600,12.109506591796874,-0.42638394236564636,0.33475416898727417,-0.513126790523529
1780528916498577400,12.119577392578124,-0.5106833577156067,0.34697145223617554,-0.4996877610683441
1780528916508648400,12.1296484375,-0.5619960427284241,0.37629300355911255,-0.3579670190811157
1780528916518719200,12.13971923828125,-0.5827654600143433,0.3787364661693573,-0.2480112910270691
1780528916528790000,12.1497900390625,-0.6572909951210022,0.3274237811565399,-0.22846360504627228
1780528916538799600,12.159799560546874,-0.7452555894851685,0.25534167885780334,-0.19547687470912933
1780528916548901000,12.169901123046875,-0.7574729323387146,0.2076941877603531,-0.18081611394882202
1780528916569073200,12.1900732421875,-0.8014551997184753,0.1820378452539444,0.021991148591041565
1780528916579113500,12.200113525390625,-0.8478809595108032,0.17470745742321014,0.042760565876960754
1780528916599285500,12.220285400390624,-0.8943067193031311,0.08185594528913498,-0.05009094998240471
1780528916629528600,12.250528564453125,-0.911410927772522,0.05619960278272629,-0.009773843921720982
1780528916720226800,12.341226806640625,-0.8943067193031311,0.03298672288656235,-0.02932153269648552
1780528916740368400,12.361368408203125,-0.8283332586288452,-0.010995574295520782,-0.21502456068992615
1780528916750469600,12.3714697265625,-0.8747590184211731,-0.009773843921720982,-0.14294247329235077
1780528916760540400,12.38154052734375,-0.8662069439888,-0.03176499158143997,-0.0354301854968071
1780528916770611200,12.391611083984374,-0.7855727076530457,-0.0403171069920063,0.00733038317412138
1780528916780682000,12.401681884765624,-0.7000515460968018,-0.02932153269648552,-0.06841690838336945
1780528916790752800,12.411752685546874,-0.6743952035903931,0.00855211354792118,-0.14905111491680145
1780528916800823600,12.421823486328124,-0.6572909951210022,-0.013439035043120384,-0.14782938361167908
1780528916810863900,12.43186376953125,-0.6291912198066711,-0.06108652427792549,-0.27122417092323303
1780528916820934700,12.4419345703125,-0.6511823534965515,-0.04886921867728233,-0.34697145223617554
1780528916861248500,12.48224853515625,-0.5290092825889587,0.05619960278272629,-0.3995058834552765
1780528916871288800,12.492288818359375,-0.5448917746543884,0.19425514340400696,-0.304210901260376
1780528916881390000,12.50239013671875,-0.4764748811721802,0.3029891550540924,-0.2626720666885376
1780528916891460900,12.5124609375,-0.42149701714515686,0.2871066629886627,-0.14538592100143433
1780528916931805200,12.55280517578125,-0.19303341209888458,0.10873401165008545,-0.6316346526145935
1780528916992321500,12.613321533203125,0.25045475363731384,0.1869247704744339,-0.3078760802745819
1780528917002422800,12.6234228515625,0.4056145250797272,0.1771509200334549,-0.44226643443107605
1780528917012493600,12.63349365234375,0.5497786998748779,0.05253441259264946,-0.5925393104553223
1780528917022594800,12.6435947265625,0.5754350423812866,-0.10506882518529892,-0.6206390857696533
1780528917032635100,12.65363525390625,0.5644394755363464,-0.2272418737411499,-0.46303585171699524
1780528917042736400,12.663736328125,0.6524040699005127,-0.18936823308467865,-0.31642818450927734
1780528917052838000,12.673837890625,0.7672467231750488,-0.15882496535778046,-0.15393804013729095
1780528917062908700,12.68390869140625,0.9529497623443604,-0.1918116807937622,-0.12950342893600464
1780528917072979500,12.6939794921875,0.978606104850769,-0.30054569244384766,-0.19425514340400696
1780528917083080700,12.704080810546875,0.901637077331543,-0.3286454975605011,-0.12095131725072861
1780528917093182000,12.714181884765624,0.9749409556388855,-0.2577851414680481,-0.13439035415649414
1780528917123455500,12.74445556640625,1.4428637027740479,-0.304210901260376,-0.4300491213798523
1780528917133556700,12.754556640625,1.4563027620315552,-0.29077184200286865,-0.15393804013729095
1780528917143627500,12.76462744140625,1.5271631479263306,-0.2076941877603531,0.12461651116609573
1780528917214275800,12.83527587890625,1.6713273525238037,0.2785545587539673,0.039095375686883926
1780528917254711600,12.875711669921875,1.4929546117782593,0.18570303916931152,-0.42271876335144043
1780528917335400000,12.95639990234375,0.4948008358478546,0.18325957655906677,0.042760565876960754
1780528917375744300,12.996744140625,-0.018325956538319588,0.3029891550540924,0.17104226350784302
1780528917406048300,13.02704833984375,-0.5925393104553223,0.13561208546161652,-0.0659734457731247
1780528917416180000,13.037179931640624,-0.8491026759147644,0.12339477986097336,0.23579397797584534
1780528917426220300,13.04722021484375,-0.9431759119033813,0.03176499158143997,0.44837507605552673
1780528917436352300,13.057352294921875,-0.9468411207199097,-0.14294247329235077,0.3701843321323395
1780528917446453500,13.06745361328125,-1.0201449394226074,-0.30054569244384766,0.07696902006864548
1780528917456585200,13.077585205078124,-1.205847978591919,-0.3604104816913605,-0.11239920556545258
1780528917466656300,13.08765625,-1.341460108757019,-0.3176499307155609,-0.1258382350206375
1780528917476788000,13.0977880859375,-1.3524556159973145,-0.2577851414680481,-0.10262536257505417
1780528917517223700,13.1382236328125,-1.5638149976730347,-0.43615779280662537,0.00733038317412138
1780528917527355600,13.148355712890625,-1.389107584953308,-0.45814892649650574,-0.25045475363731384
1780528917557659600,13.17865966796875,-1.5833626985549927,-0.28955012559890747,-0.07208210229873657
1780528917567761000,13.188760986328125,-1.3048081398010254,-0.06475171446800232,-0.19058994948863983
1780528917648632600,13.269632568359375,-1.1924089193344116,-0.0708603709936142,0.7024950385093689
1780528917658703400,13.279703369140625,-0.9724974632263184,-0.14049901068210602,0.40194934606552124
1780528917668804600,13.2898046875,-0.7538077235221863,-0.39095374941825867,-0.1160643994808197
1780528917678905900,13.29990576171875,-0.5876523852348328,-0.5815436840057373,-0.5082398653030396
1780528917689007000,13.310007080078124,-0.5925393104553223,-0.6145304441452026,-0.3640756905078888
1780528917699078000,13.320077880859374,-0.6670648455619812,-0.513126790523529,0.14538592100143433
1780528917739452700,13.36045263671875,-0.42760565876960754,-0.009773843921720982,0.5852088928222656
1780528917749584600,13.370584716796875,-0.2076941877603531,0.15271630883216858,-0.12828169763088226
1780528917759686000,13.380685791015624,0.04398229718208313,0.10262536257505417,-0.8454375267028809
1780528917769817900,13.39081787109375,0.15271630883216858,-0.1966986060142517,-1.1252137422561646
1780528917779888600,13.400888671875,0.16493362188339233,-0.41172316670417786,-1.0519099235534668
1780528917790020400,13.411020263671874,-0.1111774742603302,-0.3640756905078888,-0.4239404797554016
1780528917800121600,13.42112158203125,-0.34574973583221436,-0.1319468915462494,0.9236282706260681
1780528917810253600,13.431253662109375,-0.15882496535778046,0.3787364661693573,1.8374826908111572
1780528917820324400,13.441324462890625,0.10506882518529892,0.7806857824325562,1.6762142181396484
1780528917880932400,13.501932373046875,-0.02076941914856434,-0.2590068578720093,0.5180137157440186
1780528917891033600,13.51203369140625,-0.0354301854968071,0.24190263450145721,1.3646728992462158
1780528917901134800,13.522134765625,0.09285151958465576,0.6438519954681396,1.693318486213684
1780528917911236000,13.532236083984374,0.3799581825733185,0.8429940342903137,1.236391305923462
1780528917921368000,13.5423681640625,0.7098253965377808,0.5351179838180542,0.11362093687057495
1780528917931469300,13.55246923828125,0.8796459436416626,-0.05864306539297104,-0.8967501521110535
1780528917941440300,13.562440185546874,0.8588765263557434,-0.33719760179519653,-1.2095131874084473
1780528917951541500,13.57254150390625,0.7318165898323059,-0.21502456068992615,-0.7147123217582703
1780528917961642800,13.582642822265624,0.6389650702476501,0.08185594528913498,0.25045475363731384
1780528917971713500,13.592713623046874,0.6670648455619812,0.32009339332580566,1.0702359676361084
1780528917991916300,13.612916259765624,0.5558874011039734,0.30543261766433716,1.0323622226715088
1780528918022250800,13.643250732421874,0.47280970215797424,-0.32986724376678467,-0.6194173693656921
1780528918052493600,13.67349365234375,0.4911356568336487,-0.03787364438176155,0.3689626157283783
1780528918062595000,13.683594970703124,0.26511552929878235,0.11484266817569733,0.8772025108337402
1780528918072665900,13.693665771484374,0.27000242471694946,0.24678955972194672,0.9468411207199097
1780528918082706000,13.703705810546875,0.43127086758613586,0.20402899384498596,0.5436700582504272
1780528918123019800,13.744019775390624,0.646295428276062,-0.2174680233001709,0.05864306539297104
1780528918133090600,13.754090576171874,0.513126790523529,-0.11239920556545258,0.6059783101081848
1780528918143161300,13.764161376953124,0.5644394755363464,-0.039095375686883926,0.8869763612747192
1780528918153232100,13.774232177734374,0.6841690540313721,-0.09529497474431992,0.7293730974197388
1780528918173343200,13.79434326171875,0.6389650702476501,-0.13316862285137177,0.20036379992961884
1780528918203555600,13.8245556640625,0.2736676335334778,-0.28955012559890747,0.6633996367454529
1780528918213626400,13.83462646484375,0.24923302233219147,-0.10873401165008545,0.6475171446800232
1780528918223727900,13.844727783203124,0.21502456068992615,-0.0354301854968071,0.6426302194595337
1780528918233798700,13.854798583984374,0.17470745742321014,-0.03176499158143997,0.7257078886032104
1780528918243900000,13.86489990234375,0.18325957655906677,-0.0354301854968071,0.7037167549133301
1780528918253970700,13.874970703125,0.20036379992961884,-0.059864792972803116,0.6340781450271606
1780528918284213500,13.905213623046874,0.2370157092809677,0.013439035043120384,0.49357911944389343
1780528918294284300,13.9152841796875,0.3274237811565399,0.0403171069920063,0.5900958180427551
1780528918304324600,13.92532470703125,0.384845107793808,-0.05497787147760391,0.6316346526145935
1780528918314395400,13.9353955078125,0.38240164518356323,-0.23335053026676178,0.5937610268592834
1780528918324435700,13.945435791015624,0.36163222789764404,-0.39095374941825867,0.5204572081565857
1780528918334537200,13.955537109375,0.3640756905078888,-0.46547931432724,0.4398229718208313
1780528918344638500,13.965638427734374,0.3995058834552765,-0.49357911944389343,0.3066543638706207
1780528918395053600,14.016053466796874,0.3689626157283783,-0.40194934606552124,0.4398229718208313
1780528918415225600,14.0362255859375,0.35063666105270386,-0.27122417092323303,0.09040805697441101
1780528918425326800,14.046326904296874,0.35063666105270386,-0.2981022298336029,-0.1160643994808197
1780528918435428000,14.056427978515625,0.34086281061172485,-0.3445279896259308,-0.21135938167572021
1780528918445529600,14.066529541015624,0.33475416898727417,-0.32009339332580566,-0.16249015927314758
1780528918455600400,14.076600341796874,0.2919935882091522,-0.23579397797584534,-0.010995574295520782
1780528918465701600,14.08670166015625,0.21624629199504852,-0.11484266817569733,0.18081611394882202
1780528918516055600,14.1370556640625,0.1270599663257599,-0.1820378452539444,-0.1612684279680252
1780528918526157000,14.147156982421874,0.09529497474431992,-0.21868975460529327,-0.22479841113090515
1780528918536227800,14.157227783203124,0.07941248267889023,-0.14049901068210602,-0.21380282938480377
1780528918546298600,14.167298583984374,0.09773843735456467,-0.0403171069920063,-0.1111774742603302
1780528918556399900,14.17739990234375,0.11972958594560623,-0.00733038317412138,0.03298672288656235
1780528918566501000,14.187501220703124,0.1270599663257599,0.0024434609804302454,0.11362093687057495
1780528918576572000,14.197572021484374,0.1270599663257599,0.021991148591041565,0.0757472887635231
1780528918586642700,14.207642578125,0.11850785464048386,-0.00366519158706069,-0.00855211354792118
1780528918596744200,14.217744140625,0.13561208546161652,-0.009773843921720982,-0.09040805697441101
1780528918606815000,14.22781494140625,0.13072516024112701,-0.036651913076639175,-0.1270599663257599
1780528918637057800,14.258057861328124,0.07819075137376785,-0.04764748737215996,0.05009094998240471
1780528918707431400,14.328431396484374,0.15515977144241333,-0.01710422709584236,-0.18081611394882202
1780528918717502200,14.338502197265624,0.1820378452539444,-0.02932153269648552,-0.04398229718208313
1780528918727603500,14.348603515625,0.19058994948863983,-0.00366519158706069,0.06230825558304787
1780528918737643800,14.358643798828124,0.15271630883216858,0.05009094998240471,0.05253441259264946
1780528918747745000,14.3687451171875,0.10995574295520782,0.11239920556545258,-0.03298672288656235
1780528918757846500,14.378846435546874,0.1062905490398407,0.1918116807937622,-0.15393804013729095
1780528918767917300,14.388917236328124,0.11850785464048386,0.2577851414680481,-0.2724458873271942
1780528918777957600,14.39895751953125,0.1014036312699318,0.3286454975605011,-0.31642818450927734
1780528918788059000,14.409058837890624,0.0659734457731247,0.42271876335144043,-0.2528982162475586
1780528918798160100,14.41916015625,0.024434609338641167,0.47769662737846375,-0.10384709388017654
1780528918828403000,14.44940283203125,-0.10995574295520782,0.5607742667198181,-0.1820378452539444
1780528918838474000,14.459473876953124,-0.1111774742603302,0.6157521605491638,-0.3176499307155609
1780528918848544800,14.469544677734374,-0.11972958594560623,0.6120869517326355,-0.3176499307155609
1780528918909030400,14.530030517578124,-0.15393804013729095,0.44104471802711487,-0.3530801236629486
1780528918969455400,14.590455322265624,-0.6805039048194885,0.40072759985923767,-0.21502456068992615
1780528918979526100,14.600526123046874,-0.7709119319915771,0.32498031854629517,-0.2638937830924988
1780528918989597000,14.610596923828124,-0.7929030656814575,0.29565876722335815,-0.3176499307155609
1780528918999698200,14.6206982421875,-0.7916813492774963,0.3433062732219696,-0.24556782841682434
1780528919009799400,14.63079931640625,-0.8112290501594543,0.3738495409488678,-0.1270599663257599
1780528919019839700,14.64083984375,-0.8991936445236206,0.32620203495025635,-0.051312681287527084
1780528919029910500,14.65091064453125,-0.9920451641082764,0.2541199326515198,-0.0012217304902151227
1780528919050052400,14.67105224609375,-0.9395107626914978,0.2370157092809677,-0.10873401165008545
1780528919060092400,14.681092529296874,-0.8454375267028809,0.22846360504627228,-0.2541199326515198
1780528919070163200,14.6911630859375,-0.750142514705658,0.23090706765651703,-0.3604104816913605
1780528919080234200,14.701234130859374,-0.7330383062362671,0.21624629199504852,-0.3604104816913605
1780528919090305000,14.711304931640624,-0.7733554244041443,0.19303341209888458,-0.26145032048225403
1780528919100406300,14.72140625,-0.7586946487426758,0.18081611394882202,-0.2272418737411499
1780528919110477000,14.73147705078125,-0.7574729323387146,0.22602014243602753,-0.2382374405860901
1780528919120547800,14.7415478515625,-0.8503243923187256,0.24923302233219147,-0.13805554807186127
1780528919211337700,14.832337646484374,-0.8454375267028809,0.05253441259264946,-0.17470745742321014
1780528919221439000,14.84243896484375,-0.7550294399261475,0.09896016865968704,-0.3677408695220947
1780528919231540200,14.852540283203124,-0.7195992469787598,-0.05864306539297104,-0.5338962078094482
1780528919241611000,14.862611083984374,-0.7061602473258972,-0.24190263450145721,-0.636521577835083
1780528919251681800,14.872681884765624,-0.6866125464439392,-0.3017674386501312,-0.6707300543785095
1780528919261722000,14.88272216796875,-0.6377432942390442,-0.16371189057826996,-0.6536257863044739
1780528919271793000,14.89279296875,-0.6328563690185547,-0.05009094998240471,-0.4593706727027893
1780528919281863700,14.90286376953125,-0.6194173693656921,-0.019547687843441963,-0.18448130786418915
1780528919291965200,14.912965087890624,-0.5717698931694031,-0.01466076634824276,-0.04153883829712868
1780528919302036000,14.923035888671874,-0.504574716091156,-0.05497787147760391,-0.10262536257505417
1780528919312137200,14.93313720703125,-0.4740314185619354,-0.09285151958465576,-0.3591887652873993
1780528919322177500,14.943177490234374,-0.5167919993400574,-0.024434609338641167,-0.4764748811721802
1780528919332248300,14.953248291015624,-0.5119050741195679,0.08429940044879913,-0.45814892649650574
1780528919342349600,14.963349609375,-0.46670106053352356,0.10751228034496307,-0.3396410644054413
1780528919352450800,14.973450927734374,-0.38606682419776917,0.02321287989616394,-0.14538592100143433
1780528919362552300,14.98355224609375,-0.3640756905078888,-0.04764748737215996,-0.08796459436416626
1780528919382724400,15.003724365234374,-0.3787364661693573,0.045204028487205505,0.13439035415649414
1780528919402896400,15.023896484375,-0.13439035415649414,0.03298672288656235,-0.1111774742603302
1780528919423068700,15.044068603515624,0.07696902006864548,-0.16737708449363708,-0.3604104816913605
1780528919433139500,15.054139404296874,0.14782938361167908,-0.21868975460529327,-0.4740314185619354
1780528919453311500,15.0743115234375,0.15515977144241333,0.03176499158143997,-0.13072516024112701
1780528919483585000,15.1045849609375,0.7232644557952881,-0.1160643994808197,-0.3543018400669098
1780528919523898600,15.144898681640624,1.027475357055664,0.04153883829712868,-0.23579397797584534
1780528919544071000,15.16507080078125,1.1838568449020386,0.018325956538319588,-0.15515977144241333
1780528919554172200,15.175172119140624,1.215621829032898,0.051312681287527084,-0.3139847218990326
1780528919564212500,15.18521240234375,1.2229522466659546,0.059864792972803116,-0.45692721009254456
1780528919574283300,15.195283203125,1.341460108757019,0.02076941914856434,-0.6438519954681396
1780528919584384500,15.205384521484374,1.4660766124725342,-0.13316862285137177,-0.759916365146637
1780528919594485800,15.21548583984375,1.4355332851409912,-0.30054569244384766,-0.5351179838180542
1780528919604556500,15.225556640625,1.380555510520935,-0.34697145223617554,0.036651913076639175
1780528919624728800,15.245728759765624,1.4611896276474,-0.23335053026676178,0.750142514705658
1780528919634830000,15.255830078125,1.5796974897384644,-0.20402899384498596,0.6621779203414917
1780528919644931300,15.265931396484374,1.6578882932662964,-0.15271630883216858,0.15027284622192383
1780528919655032600,15.276032470703125,1.6322319507598877,-0.08552113175392151,-0.32986724376678467
1780528919665103600,15.286103515625,1.6371188163757324,-0.03420845419168472,-0.46792277693748474
1780528919735812600,15.3568125,1.0445796251296997,0.24068090319633484,0.5876523852348328
1780528919755954400,15.376954345703124,0.7648032903671265,0.11362093687057495,-0.3286454975605011
1780528919776126500,15.39712646484375,0.5619960427284241,0.02932153269648552,-0.2382374405860901
1780528919786197200,15.407197265625,0.43249258399009705,0.08185594528913498,0.024434609338641167
1780528919796268000,15.41726806640625,0.27488934993743896,0.24678955972194672,0.24556782841682434
1780528919806369300,15.427369384765624,0.14294247329235077,0.4129449129104614,0.45814892649650574
1780528919816440000,15.437440185546874,0.11362093687057495,0.5057964324951172,0.5839871764183044
1780528919836612400,15.4576123046875,0.06352998316287994,0.5754350423812866,0.33108896017074585
1780528919846683100,15.46768310546875,-0.01466076634824276,0.5192354321479797,0.17104226350784302
1780528919856692700,15.477692626953125,-0.13072516024112701,0.4642575979232788,0.12217304855585098
1780528919866794200,15.487794189453124,-0.27000242471694946,0.48380526900291443,0.09407325088977814
1780528919876895500,15.4978955078125,-0.4251621961593628,0.5338962078094482,-0.039095375686883926
1780528919886966300,15.50796630859375,-0.5632177591323853,0.5766568183898926,-0.16859880089759827
1780528919897006600,15.518006591796874,-0.6633996367454529,0.46792277693748474,-0.26633724570274353
1780528919907107800,15.52810791015625,-0.6927211880683899,0.27977627515792847,-0.3543018400669098
1780528919917209000,15.538208984375,-0.7929030656814575,0.09285151958465576,-0.4080579876899719
1780528919927280000,15.548280029296874,-0.9456194043159485,-0.06719517707824707,-0.3029891550540924
1780528919937320200,15.5583203125,-1.1129964590072632,-0.13927727937698364,-0.17959438264369965
1780528919947421700,15.568421630859374,-1.3280210494995117,-0.13561208546161652,-0.07452555745840073
1780528919957523000,15.57852294921875,-1.5271631479263306,-0.15760323405265808,-0.02687807008624077
1780528919977695000,15.598695068359374,-1.3829989433288574,-0.3127630054950714,-0.4899139404296875
1780528919987796500,15.60879638671875,-1.2376129627227783,-0.42638394236564636,-0.8527678847312927
1780528919997897700,15.618897705078124,-1.2791517972946167,-0.5742133259773254,-0.8552113175392151
1780528920007999000,15.6289990234375,-1.480737328529358,-0.7293730974197388,-0.44837507605552673
1780528920018069800,15.63906982421875,-1.655444860458374,-0.7330383062362671,0.02321287989616394
1780528920028171000,15.6491708984375,-1.7092009782791138,-0.5338962078094482,0.28955012559890747
1780528920068545800,15.6895458984375,-1.1887437105178833,-0.40072759985923767,-0.16371189057826996
1780528920098788900,15.719788818359374,-1.340238332748413,-0.05375614017248154,0.5082398653030396
1780528920108920600,15.729920654296874,-1.2486085891723633,-0.030543262138962746,0.608421802520752
1780528920118991400,15.739991455078124,-1.0445796251296997,-0.16982053220272064,0.6548475623130798
1780528920129092900,15.7500927734375,-0.8503243923187256,-0.4288274049758911,0.6731734871864319
1780528920159427300,15.78042724609375,-0.8588765263557434,-0.3127630054950714,1.4428637027740479
1780528920169528600,15.790528564453124,-0.7904596328735352,-0.1966986060142517,1.7214182615280151
1780528920179629800,15.8006298828125,-0.93095862865448,-0.2223549485206604,1.9449949264526367
1780528920199802000,15.820802001953124,-0.7770205736160278,-0.6352998614311218,1.33168625831604
1780528920209903400,15.8309033203125,-0.6401867866516113,-1.0543533563613892,0.23945917189121246
1780528920220004600,15.841004638671874,-0.5937610268592834,-1.166752576828003,-0.2675589919090271
1780528920230105900,15.85110595703125,-0.47769662737846375,-0.9712757468223572,-0.251676470041275
1780528920280612600,15.901612548828124,-0.685390830039978,-0.42760565876960754,0.10384709388017654
1780528920321017900,15.942017822265624,0.3078760802745819,0.43615779280662537,0.3078760802745819
1780528920331119000,15.952119140625,0.21013765037059784,0.6963863968849182,0.3225368559360504
1780528920422092000,16.043092041015626,0.8503243923187256,0.304210901260376,0.018325956538319588
1780528920432223700,16.0532236328125,1.0238101482391357,0.1160643994808197,-0.1869247704744339
1780528920452426500,16.073426513671876,0.5668829679489136,-0.09651670604944229,0.042760565876960754
1780528920472659700,16.09365966796875,0.44593164324760437,0.05253441259264946,0.21502456068992615
1780528920533267500,16.154267333984375,0.45692721009254456,0.17104226350784302,0.43615779280662537
1780528920543399400,16.1643994140625,0.5791002511978149,0.15760323405265808,0.4899139404296875
1780528920553531100,16.17453125,0.5998696684837341,0.1270599663257599,0.33597588539123535
1780528920563632600,16.184632568359376,0.504574716091156,0.03298672288656235,0.04764748737215996
1780528920583835100,16.204835205078126,0.475253164768219,-0.18325957655906677,-0.15271630883216858
1780528920593936400,16.214936279296875,0.5094616413116455,-0.19547687470912933,-0.015882495790719986
1780528920604068400,16.225068359375,0.5754350423812866,-0.19792033731937408,0.17959438264369965
1780528920614169600,16.235169677734376,0.6597344875335693,-0.1014036312699318,0.2382374405860901
1780528920624271000,16.24527099609375,0.685390830039978,-0.04642575979232788,0.2626720666885376
1780528920634372400,16.255372314453126,0.66584312915802,-0.10018189996480942,0.19914206862449646
1780528920644473600,16.2654736328125,0.6389650702476501,-0.19303341209888458,0.08185594528913498
1780528920654574800,16.275574951171876,0.6108652353286743,-0.2968805134296417,0.028099801391363144
1780528920715182800,16.336182861328126,0.5534439086914062,-0.22113321721553802,0.3787364661693573
1780528920725284000,16.3462841796875,0.6157521605491638,-0.35063666105270386,0.2883284091949463
1780528920735416000,16.356416015625,0.6352998614311218,-0.4593706727027893,0.22846360504627228
1780528920745517300,16.366517333984376,0.5619960427284241,-0.5326744914054871,0.23457226157188416
1780528920785892000,16.40689208984375,0.45204028487205505,-0.5448917746543884,0.04764748737215996
1780528920816135000,16.437135009765626,0.485027015209198,-0.5424483418464661,0.18081611394882202
1780528920826267000,16.447266845703126,0.42638394236564636,-0.5314527750015259,0.11972958594560623
1780528920836307200,16.45730712890625,0.4434881806373596,-0.5119050741195679,0.05009094998240471
1780528920846378000,16.4673779296875,0.4337143301963806,-0.43615779280662537,-0.03787364438176155
1780528920856418300,16.477418212890626,0.3494149148464203,-0.27977627515792847,0.01710422709584236
1780528920866489000,16.487489013671876,0.2590068578720093,-0.1563815027475357,0.2125810980796814
1780528920886600200,16.50760009765625,0.06963863968849182,-0.14049901068210602,0.33719760179519653
1780528920896640300,16.51764013671875,-0.0024434609804302454,-0.1771509200334549,0.2015855312347412
1780528920906741800,16.52774169921875,0.02321287989616394,-0.1319468915462494,-0.04764748737215996
1780528920916812500,16.5378125,0.05619960278272629,-0.06108652427792549,-0.1918116807937622
1780528920926883300,16.54788330078125,0.07696902006864548,0.010995574295520782,-0.11239920556545258
1780528920936923600,16.557923583984376,0.14049901068210602,0.10506882518529892,0.036651913076639175
1780528920947025000,16.56802490234375,0.2028072625398636,0.14905111491680145,0.16859880089759827
1780528920957095700,16.578095703125,0.2223549485206604,0.12828169763088226,0.24190263450145721
1780528920967197000,16.588197021484376,0.2015855312347412,0.13927727937698364,0.22479841113090515
1780528920997409500,16.618409423828126,0.18570303916931152,0.09285151958465576,0.042760565876960754
1780528921007480300,16.628480224609376,0.18325957655906677,0.0403171069920063,-0.06352998316287994
1780528921017551000,16.638551025390626,0.1466076523065567,-0.01710422709584236,-0.10506882518529892
1780528921027652400,16.64865234375,0.13561208546161652,-0.0659734457731247,-0.1160643994808197
1780528921037753600,16.658753662109376,0.13805554807186127,-0.1160643994808197,-0.11972958594560623
1780528921047794000,16.6687939453125,0.11362093687057495,-0.11239920556545258,-0.09162978827953339
1780528921067935500,16.688935546875,0.09407325088977814,0.013439035043120384,0.030543262138962746
1780528921078036700,16.69903662109375,0.08429940044879913,0.05009094998240471,0.06719517707824707
1780528921088138200,16.70913818359375,0.09896016865968704,0.02932153269648552,0.06963863968849182
1780528921098209000,16.719208984375,0.1014036312699318,-0.018325956538319588,0.06352998316287994
1780528921128482300,16.749482421875,0.1258382350206375,-0.1612684279680252,-0.015882495790719986
1780528921209079300,16.830079345703126,0.028099801391363144,0.16249015927314758,-0.1771509200334549
1780528921249362400,16.870362548828126,-0.09162978827953339,0.5363397002220154,-0.19914206862449646
1780528921259402800,16.88040283203125,-0.12461651116609573,0.5607742667198181,-0.251676470041275
1780528921269504300,16.890504150390626,-0.14416420459747314,0.5827654600143433,-0.3433062732219696
1780528921279575000,16.900574951171876,-0.15515977144241333,0.6230825781822205,-0.42149701714515686
1780528921289676300,16.91067626953125,-0.13927727937698364,0.7086036801338196,-0.4434881806373596
1780528921299747000,16.9207470703125,-0.10018189996480942,0.7428121566772461,-0.4129449129104614
1780528921309787400,16.930787353515626,-0.059864792972803116,0.7244861721992493,-0.3604104816913605
1780528921329959400,16.95095947265625,-0.08674286305904388,0.6120869517326355,-0.3591887652873993
1780528921340030200,16.9610302734375,-0.09040805697441101,0.5815436840057373,-0.4080579876899719
1780528921360171800,16.981171875,-0.08552113175392151,0.5705481171607971,-0.3078760802745819
1780528921370242600,16.99124267578125,-0.1722639948129654,0.46303585171699524,-0.24068090319633484
1780528921380283000,17.001282958984376,-0.1722639948129654,0.46303585171699524,-0.24068090319633484
1780528921390353700,17.011353759765626,-0.38117989897727966,0.27977627515792847,-0.2785545587539673
1780528921400455200,17.021455078125,-0.4813618063926697,0.23335053026676178,-0.2675589919090271
1780528921410526000,17.03152587890625,-0.5497786998748779,0.2076941877603531,-0.2028072625398636
1780528921420596700,17.0415966796875,-0.5522221922874451,0.15027284622192383,-0.18325957655906677
1780528921491153400,17.1121533203125,-0.8637634515762329,0.03420845419168472,-0.02687807008624077
1780528921511325400,17.132325439453126,-0.8539896011352539,0.02687807008624077,-0.11850785464048386
1780528921531467000,17.152467041015626,-0.8930850028991699,0.013439035043120384,-0.20036379992961884
1780528921581821000,17.202821044921876,-1.007927656173706,0.08429940044879913,-0.4386012554168701
1780528921591861200,17.212861328125,-1.0250319242477417,0.11239920556545258,-0.3787364661693573
1780528921601932000,17.22293212890625,-0.93095862865448,0.13072516024112701,-0.31520646810531616
1780528921612002800,17.2330029296875,-0.8539896011352539,0.10262536257505417,-0.31031954288482666
1780528921622073600,17.243073486328125,-0.901637077331543,0.13439035415649414,-0.22968533635139465
1780528921642246000,17.263245849609376,-0.9224064946174622,0.21991148591041565,-0.03176499158143997
1780528921652347100,17.27334716796875,-0.9053022861480713,0.18081611394882202,-0.09162978827953339
1780528921662418000,17.28341796875,-0.8906415104866028,0.14416420459747314,-0.10873401165008545
1780528921672488700,17.29348876953125,-0.8307767510414124,0.15393804013729095,-0.20036379992961884
1780528921682559500,17.3035595703125,-0.7660250067710876,0.15882496535778046,-0.3188716471195221
1780528921692630300,17.31363037109375,-0.7110471725463867,0.14538592100143433,-0.3885102868080139
1780528921702701000,17.323701171875,-0.6768386960029602,0.10262536257505417,-0.4129449129104614
1780528921712802600,17.333802490234376,-0.6817256212234497,0.05742133408784866,-0.4056145250797272
1780528921722903800,17.34390380859375,-0.7061602473258972,0.04642575979232788,-0.27122417092323303
1780528921732974600,17.353974609375,-0.6829473376274109,0.09773843735456467,-0.13439035415649414
1780528921743045400,17.36404541015625,-0.588874101638794,0.12217304855585098,-0.14905111491680145
1780528921763187000,17.38418701171875,-0.46303585171699524,-0.09529497474431992,-0.37140607833862305
1780528921773257700,17.3942578125,-0.4508185386657715,-0.06719517707824707,-0.4153883755207062
1780528921783328500,17.40432861328125,-0.41172316670417786,0.03176499158143997,-0.4129449129104614
1780528921803500800,17.424500732421876,-0.1966986060142517,-0.08429940044879913,-0.3579670190811157
1780528921823672800,17.4446728515625,-0.10751228034496307,-0.05864306539297104,-0.021991148591041565
1780528921833774000,17.454774169921876,-0.0708603709936142,0.013439035043120384,0.006108652334660292
1780528921843875600,17.46487548828125,-0.08552113175392151,0.07330382615327835,-0.025656340643763542
1780528921863986400,17.484986328125,-0.0708603709936142,0.0659734457731247,-0.2015855312347412
1780528921884128300,17.505128173828126,-0.0403171069920063,-0.09040805697441101,-0.24923302233219147
1780528921904330800,17.525330810546876,0.06230825558304787,0.05619960278272629,-0.22357667982578278
1780528921914432000,17.535431884765625,0.1466076523065567,0.11484266817569733,-0.19303341209888458
1780528921934543000,17.555543212890626,0.3677408695220947,-0.0659734457731247,-0.17470745742321014
1780528921944644600,17.56564453125,0.43249258399009705,-0.09773843735456467,-0.19547687470912933
1780528921954715400,17.57571533203125,0.5387831330299377,-0.06352998316287994,-0.3530801236629486
1780528921974826500,17.595826416015626,0.5937610268592834,0.02076941914856434,-0.26022860407829285
1780528921984927700,17.605927734375,0.7220427393913269,0.0012217304902151227,0.013439035043120384
1780528921995029000,17.616029052734376,0.9297369122505188,0.030543262138962746,0.06352998316287994
1780528922015170600,17.636170654296876,1.1606439352035522,0.2125810980796814,-0.22479841113090515
1780528922025272000,17.64627197265625,1.2901474237442017,0.32986724376678467,-0.4105014503002167
1780528922035342800,17.6563427734375,1.4477506875991821,0.3738495409488678,-0.4337143301963806
1780528922045413600,17.66641357421875,1.6273449659347534,0.3579670190811157,-0.3543018400669098
1780528922055454000,17.676453857421876,1.6982053518295288,0.3335324227809906,-0.2919935882091522
1780528922065524700,17.686524658203126,1.6872098445892334,0.3836233615875244,-0.11850785464048386
1780528922075626000,17.6966259765625,1.7189748287200928,0.5998696684837341,-0.039095375686883926
1780528922085727200,17.706727294921876,1.7959438562393188,0.759916365146637,0.019547687843441963
1780528922126010400,17.74701025390625,1.7434093952178955,0.1918116807937622,-0.7342600226402283
1780528922166324200,17.78732421875,1.7104226350784302,0.22357667982578278,-0.08796459436416626
1780528922176364500,17.797364501953126,1.2999212741851807,-0.00855211354792118,-0.2577851414680481
1780528922186465800,17.8074658203125,1.1520918607711792,-0.00855211354792118,-0.21013765037059784
1780528922196536600,17.81753662109375,1.1215485334396362,0.03176499158143997,-0.19425514340400696
1780528922206577000,17.827576904296876,1.0054842233657837,0.09896016865968704,-0.18936823308467865
1780528922216678100,17.83767822265625,0.7904596328735352,0.1014036312699318,-0.015882495790719986
1780528922226749000,17.8477490234375,0.675616979598999,0.02687807008624077,0.09651670604944229
1780528922236819700,17.85781982421875,0.5791002511978149,0.019547687843441963,0.08185594528913498
1780528922246890500,17.867890380859375,0.35674530267715454,0.0708603709936142,0.14782938361167908
1780528922256961500,17.87796142578125,0.1966986060142517,0.16371189057826996,0.27611109614372253
1780528922267032300,17.8880322265625,0.1918116807937622,0.2871066629886627,0.24434609711170197
1780528922277103000,17.89810302734375,0.1417207419872284,0.32009339332580566,0.13439035415649414
1780528922287204400,17.908204345703126,0.025656340643763542,0.28099802136421204,0.07208210229873657
1780528922297244700,17.91824462890625,-0.10384709388017654,0.2431243658065796,-0.010995574295520782
1780528922307346000,17.928345947265626,-0.3237585723400116,0.23579397797584534,-0.01466076634824276
1780528922377841700,17.998841552734376,-1.2559388875961304,-0.06352998316287994,0.11728613078594208
1780528922387881700,18.0088818359375,-1.312138557434082,-0.11362093687057495,0.24678955972194672
1780528922397983200,18.018983154296876,-1.3756685256958008,-0.12950342893600464,0.24923302233219147
1780528922408084500,18.02908447265625,-1.5125023126602173,-0.1918116807937622,0.19792033731937408
1780528922418155300,18.0391552734375,-1.6200146675109863,-0.27488934993743896,0.09162978827953339
1780528922428226000,18.04922607421875,-1.644449234008789,-0.32986724376678467,-0.13072516024112701
1780528922438296800,18.059296875,-1.6310101747512817,-0.36651915311813354,-0.4544837474822998
1780528922448367600,18.06936767578125,-1.6701055765151978,-0.5082398653030396,-0.5815436840057373
1780528922458408000,18.079407958984376,-1.63467538356781,-0.7440338730812073,-0.44837507605552673
1780528922468509200,18.08950927734375,-1.5234979391098022,-0.9382890462875366,-0.29565876722335815
1780528922478610700,18.099610595703126,-1.4489723443984985,-0.9896016716957092,-0.13072516024112701
1780528922488681500,18.109681396484376,-1.4538593292236328,-0.8881980776786804,-0.00733038317412138
1780528922498752300,18.119752197265626,-1.508837103843689,-0.7049384713172913,0.09773843735456467
1780528922508823000,18.129822998046876,-1.5344934463500977,-0.6218608021736145,0.22479841113090515
1780528922518893800,18.139893798828126,-1.4831807613372803,-0.6963863968849182,0.42149701714515686
1780528922528964600,18.149964599609376,-1.3377948999404907,-0.8539896011352539,0.4239404797554016
1780528922539005000,18.1600048828125,-1.254717230796814,-0.8735373020172119,0.10262536257505417
1780528922549075700,18.17007568359375,-1.3439035415649414,-0.7232644557952881,-0.042760565876960754
1780528922559177000,18.180177001953126,-1.3145819902420044,-0.46670106053352356,0.21380282938480377
1780528922579318500,18.200318603515626,-1.027475357055664,-0.28466320037841797,0.8026769161224365
1780528922670078000,18.291077880859376,-0.7073819637298584,0.08307767659425735,1.2217304706573486
1780528922690250000,18.31125,0,0.38728857040405273,0.3787364661693573
1780528922740726000,18.36172607421875,-0.08674286305904388,-0.11972958594560623,1.225395679473877
1780528922801334000,18.422333984375,0.5827654600143433,-0.4386012554168701,-0.33597588539123535
1780528922821536500,18.44253662109375,0.5021312236785889,0.44104471802711487,1.3817771673202515
1780528922861941800,18.482941650390625,0.7721336483955383,-0.1466076523065567,-0.7342600226402283
1780528922882144500,18.50314453125,1.0543533563613892,0.384845107793808,0.375071257352829
1780528922952853800,18.573853759765626,0.8002334833145142,-0.34574973583221436,0.0024434609804302454
1780528922983188200,18.604188232421876,0.6414085030555725,0.01710422709584236,0.66584312915802
1780528922993320000,18.61431982421875,0.7293730974197388,0.16004669666290283,0.7941248416900635
1780528923033694700,18.65469482421875,0.19792033731937408,-0.4495968222618103,0.18936823308467865
1780528923074069500,18.695069580078126,0.3885102868080139,-0.3237585723400116,0.4129449129104614
1780528923124576300,18.745576171875,0.4398229718208313,-0.37262779474258423,0.32498031854629517
1780528923134616300,18.7556162109375,0.43615779280662537,-0.38606682419776917,0.15271630883216858
1780528923144748300,18.765748291015626,0.40194934606552124,-0.29077184200286865,0.14538592100143433
1780528923154849500,18.775849609375,0.39584067463874817,-0.22357667982578278,0.2724458873271942
1780528923164981500,18.7859814453125,0.4190535545349121,-0.2431243658065796,0.3139847218990326
1780528923185184000,18.80618408203125,0.37629300355911255,-0.3090978264808655,0.28466320037841797
1780528923195285500,18.816285400390626,0.44593164324760437,-0.2932153046131134,0.2577851414680481
1780528923205386800,18.82638671875,0.48380526900291443,-0.2871066629886627,0.22479841113090515
1780528923215457500,18.83645751953125,0.39217549562454224,-0.25045475363731384,0.28588494658470154
1780528923225589200,18.84658935546875,0.3335324227809906,-0.1563815027475357,0.34697145223617554
1780528923286227700,18.907227783203126,0.29565876722335815,-0.2125810980796814,0.06475171446800232
1780528923296329200,18.9173291015625,0.2871066629886627,-0.2541199326515198,0.07941248267889023
1780528923306430500,18.927430419921876,0.2736676335334778,-0.2736676335334778,0.1014036312699318
1780528923316531700,18.93753173828125,0.24923302233219147,-0.23090706765651703,0.08918632566928864
1780528923326633000,18.947633056640626,0.21135938167572021,-0.18936823308467865,0.0659734457731247
1780528923336703700,18.957703857421876,0.2174680233001709,-0.15393804013729095,0.04153883829712868
1780528923346835700,18.967835693359376,0.24556782841682434,-0.12950342893600464,0.025656340643763542
1780528923377139700,18.9981396484375,0.17592918872833252,-0.15027284622192383,-0.05375614017248154
1780528923387271400,19.008271484375,0.15271630883216858,-0.14782938361167908,-0.00855211354792118
1780528923417606000,19.03860595703125,0.1111774742603302,-0.16004669666290283,-0.15271630883216858
1780528923508365300,19.129365234375,0.0708603709936142,-0.0012217304902151227,-0.08674286305904388
1780528923538608000,19.159608154296876,0,-0.02321287989616394,-0.05009094998240471
1780528923548709400,19.16970947265625,-0.004886921960860491,-0.02687807008624077,-0.10018189996480942
1780528923558780200,19.1797802734375,-0.006108652334660292,-0.024434609338641167,-0.0659734457731247
1780528923578891300,19.199891357421876,0.04886921867728233,0.042760565876960754,0.051312681287527084
1780528923649448000,19.270447998046876,0.20036379992961884,0.15027284622192383,0.06841690838336945
1780528923679721500,19.300721435546876,0.19058994948863983,0.27122417092323303,-0.08185594528913498
1780528923689792300,19.310792236328126,0.16249015927314758,0.2993239760398865,-0.13805554807186127
1780528923699893500,19.3208935546875,0.1466076523065567,0.29565876722335815,-0.25045475363731384
1780528923709964300,19.33096435546875,0.1111774742603302,0.29077184200286865,-0.39706242084503174
1780528923720035000,19.34103515625,0.05864306539297104,0.3139847218990326,-0.5448917746543884
1780528923730105900,19.35110595703125,0.04153883829712868,0.3530801236629486,-0.656069278717041
1780528923750278100,19.371278076171876,0.10506882518529892,0.5375614166259766,-0.6646214127540588
1780528923760379400,19.38137939453125,0.10751228034496307,0.5949827432632446,-0.5534439086914062
1780528923770450200,19.3914501953125,0.13316862285137177,0.5962044596672058,-0.4398229718208313
1780528923780551400,19.401551513671876,0.16982053220272064,0.5595525503158569,-0.3885102868080139
1780528923790622200,19.411622314453126,0.2076941877603531,0.5229006409645081,-0.3628539443016052
1780528923800662500,19.42166259765625,0.23090706765651703,0.4996877610683441,-0.3933972120285034
1780528923820773600,19.441773681640626,0.1062905490398407,0.40072759985923767,-0.5644394755363464
1780528923830844400,19.451844482421876,0.045204028487205505,0.3445279896259308,-0.6096435189247131
1780528923851016700,19.4720166015625,0.02687807008624077,0.3384193480014801,-0.5473352670669556
1780528923861087500,19.48208740234375,0.010995574295520782,0.3481931984424591,-0.6023131608963013
1780528923871188700,19.492188720703126,0.00855211354792118,0.35063666105270386,-0.7782423496246338
1780528923891330300,19.512330322265626,0.16249015927314758,0.34208452701568604,-1.2901474237442017
1780528923901401000,19.522401123046876,0.24678955972194672,0.3274237811565399,-1.4086552858352661
1780528923911471900,19.532471923828126,0.26022860407829285,0.3628539443016052,-1.351233959197998
1780528923921542700,19.542542724609376,0.14416420459747314,0.4691445231437683,-1.056796908378601
1780528923941684200,19.562684326171876,-0.16371189057826996,0.5949827432632446,-0.36651915311813354
1780528923951755000,19.572755126953126,-0.3090978264808655,0.5522221922874451,-0.2834414839744568
1780528923961856500,19.5828564453125,-0.49235737323760986,0.43737950921058655,-0.2932153046131134
1780528923971957800,19.592957763671876,-0.6108652353286743,0.3579670190811157,-0.3176499307155609
1780528923982059000,19.60305908203125,-0.6829473376274109,0.27122417092323303,-0.394618958234787
1780528923992160500,19.613160400390626,-0.7635815739631653,0.23945917189121246,-0.37262779474258423
1780528924002231300,19.623231201171876,-0.7525860071182251,0.24923302233219147,-0.3127630054950714
1780528924012271400,19.633271240234375,-0.7134906053543091,0.18814650177955627,-0.3738495409488678
1780528924022372900,19.643372802734376,-0.7904596328735352,0.13927727937698364,-0.3139847218990326
1780528924032443600,19.653443603515626,-0.8649851679801941,0.14416420459747314,-0.1661553531885147
1780528924042514400,19.663514404296876,-0.8747590184211731,0.10018189996480942,-0.06230825558304787
1780528924052615700,19.67361572265625,-0.9236282706260681,0.04642575979232788,0.03298672288656235
1780528924062656000,19.683656005859376,-1.026253581047058,0.06719517707824707,0.1270599663257599
1780528924102969600,19.723969482421875,-1.076344609260559,0.0403171069920063,0.06108652427792549
1780528924113040600,19.73404052734375,-1.1288789510726929,-0.030543262138962746,0.028099801391363144
1780528924213779000,19.834779052734376,-0.9101892113685608,-0.2064724564552307,-0.14905111491680145
1780528924244022000,19.86502197265625,-0.7867944240570068,-0.14905111491680145,0.12461651116609573
1780528924294284300,19.9152841796875,-0.6805039048194885,-0.08429940044879913,0.1612684279680252
1780528924354770200,19.975770263671876,-0.28466320037841797,-0.09529497474431992,-0.2382374405860901
1780528924364841000,19.985841064453126,-0.2321287989616394,-0.14538592100143433,-0.1722639948129654
1780528924374911700,19.995911865234376,-0.16737708449363708,-0.07696902006864548,-0.11484266817569733
1780528924395053600,20.016053466796876,0.10995574295520782,0.1722639948129654,0.009773843921720982
1780528924405154800,20.02615478515625,0.2773328125476837,0.2736676335334778,-0.18570303916931152
1780528924415225600,20.0362255859375,0.32009339332580566,0.36529740691185,-0.2638937830924988
1780528924425326800,20.046326904296876,0.43127086758613586,0.40072759985923767,-0.22357667982578278
1780528924435428000,20.056427978515625,0.8002334833145142,0.14049901068210602,-0.40683624148368835
1780528924445499100,20.0664990234375,0.9517280459403992,0.05497787147760391,-0.3689626157283783
1780528924455539200,20.076539306640626,1.1007791757583618,0.16493362188339233,-0.3139847218990326
1780528924465610000,20.08660986328125,1.2095131874084473,0.3066543638706207,-0.15393804013729095
1780528924475680800,20.0966806640625,1.4025466442108154,0.3139847218990326,0.059864792972803116
1780528924485782300,20.1067822265625,1.5931365489959717,0.26511552929878235,0.004886921960860491
1780528924495883500,20.116883544921876,1.626123309135437,0.2565633952617645,-0.08429940044879913
1780528924505954300,20.126954345703126,1.683544635772705,0.304210901260376,-0.1918116807937622
1780528924516055600,20.1370556640625,1.8020524978637695,0.3396410644054413,-0.4080579876899719
1780528924526096000,20.147095947265626,1.9730947017669678,0.34574973583221436,-0.46792277693748474
1780528924536136200,20.15713623046875,2.138028383255005,0.2981022298336029,-0.3933972120285034
1780528924546237400,20.167237548828126,2.107485055923462,0.2638937830924988,-0.15515977144241333
1780528924596652500,20.217652587890626,1.703092336654663,0.598647952079773,-0.15515977144241333
1780528924626895600,20.2478955078125,1.3426817655563354,0.4178318381309509,0.1514945775270462
1780528924636966400,20.25796630859375,1.2290608882904053,0.43127086758613586,0.5277875661849976
1780528924647098000,20.26809814453125,1.1508700847625732,0.4300491213798523,0.7391469478607178
1780528924657169000,20.2781689453125,1.0873401165008545,0.3677408695220947,0.6352998614311218
1780528924677341000,20.2983408203125,0.6328563690185547,0.1014036312699318,0.4190535545349121
1780528924747928300,20.36892822265625,-0.3286454975605011,-0.015882495790719986,-0.7159340381622314
1780528924778201600,20.39920166015625,-1.0873401165008545,-0.20402899384498596,0.12950342893600464
1780528924788272400,20.4092724609375,-1.2877039909362793,-0.14905111491680145,0.2932153046131134
1780528924798343200,20.41934326171875,-1.4330898523330688,-0.09162978827953339,0.19792033731937408
1780528924808444700,20.429444580078126,-1.5063936710357666,-0.03420845419168472,-0.0659734457731247
1780528924818546000,20.4395458984375,-1.528384804725647,-0.039095375686883926,-0.3445279896259308
1780528924828616700,20.44961669921875,-1.5467108488082886,-0.06963863968849182,-0.50335294008255
1780528924848758300,20.46975830078125,-1.567480206489563,-0.11239920556545258,-0.4349360466003418
1780528924858829000,20.4798291015625,-1.683544635772705,-0.11850785464048386,-0.3188716471195221
1780528924868869400,20.489869384765626,-1.7898352146148682,-0.11239920556545258,-0.13316862285137177
1780528924889041400,20.51004150390625,-1.6175711154937744,-0.22846360504627228,-0.14782938361167908
1780528924899143000,20.520142822265626,-1.615127682685852,-0.3225368559360504,-0.10018189996480942
1780528924909213700,20.530213623046876,-1.5613715648651123,-0.3591887652873993,0.04764748737215996
1780528924919284500,20.540284423828126,-1.370781660079956,-0.3335324227809906,0.05375614017248154
1780528924959537200,20.580537109375,-1.0641272068023682,-0.5705481171607971,0.4178318381309509
1780528924969638400,20.590638427734376,-0.9065240025520325,-0.5571091175079346,0.475253164768219
1780528924979709200,20.600709228515626,-0.9272934198379517,-0.4740314185619354,0.40072759985923767
1780528924989810400,20.610810546875,-0.9896016716957092,-0.3799581825733185,0.4764748811721802
1780528924999850800,20.620850830078126,-0.8662069439888,-0.3335324227809906,0.46547931432724
1780528925030124300,20.651124267578126,-0.7525860071182251,-0.4337143301963806,-0.5106833577156067
1780528925040195000,20.661195068359376,-0.9065240025520325,-0.35674530267715454,0.06841690838336945
1780528925050265900,20.671265869140626,-0.8161159753799438,-0.22113321721553802,0.6719517707824707
1780528925070377000,20.691376953125,-0.5241223573684692,-0.10995574295520782,0.9065240025520325
1780528925080447700,20.70144775390625,-0.3433062732219696,-0.01710422709584236,0.38606682419776917
1780528925090518500,20.7115185546875,-0.18570303916931152,-0.00733038317412138,-0.21868975460529327
1780528925100558800,20.721558837890626,-0.1417207419872284,-0.14538592100143433,-0.5876523852348328
1780528925110629600,20.731629638671876,-0.18936823308467865,-0.36529740691185,-0.46547931432724
1780528925120700400,20.741700439453126,-0.2541199326515198,-0.45204028487205505,-0.1466076523065567
1780528925130801700,20.7518017578125,-0.3530801236629486,-0.39584067463874817,0.4202753007411957
1780528925140872400,20.76187255859375,-0.4056145250797272,-0.22357667982578278,1.0958921909332275
1780528925201327900,20.822327880859376,0.2541199326515198,-0.29077184200286865,-0.3139847218990326
1780528925211398700,20.832398681640626,0.09285151958465576,-0.1160643994808197,0.8185594081878662
1780528925221500000,20.8425,0.05619960278272629,0.29565876722335815,1.4294246435165405
1780528925241672200,20.862672119140626,0.45814892649650574,0.9101892113685608,0.598647952079773
1780528925251712500,20.87271240234375,0.8857545852661133,0.6352998614311218,-0.375071257352829
1780528925271884500,20.892884521484376,0.7965682744979858,-0.43615779280662537,-0.6646214127540588
