time,seconds_elapsed,z,y,x
1781033579707500300,2.313500244140625,-0.7113400101661682,1.5189319849014282,2.687985897064209
1781033579727006500,2.33300634765625,-0.8875430226325989,1.429288029670715,2.8391690254211426
1781033579746515200,2.35251513671875,-1.3113230466842651,1.5539679527282717,2.6762280464172363
1781033579766017500,2.372017578125,-1.9339020252227783,1.6552900075912476,2.3393430709838867
1781033579785519400,2.391519287109375,-2.329195022583008,1.6627990007400513,1.9796160459518437
1781033579805025300,2.411025390625,-2.461251974105835,1.536033034324646,1.529647946357727
1781033579824527400,2.43052734375,-2.151762008666992,1.2538269758224487,1.1570650339126587
1781033579844031000,2.450031005859375,-1.8428330421447756,0.8814370036125183,0.7950940132141113
1781033579863538200,2.4695380859375,-1.6749190092086792,0.5043100118637085,0.5954989790916443
1781033579883043300,2.489043212890625,-1.1600810289382937,0.3697130084037781,0.5367519855499268
1781033579902547700,2.508547607421875,0.4551549851894378,0.5395950078964233,0.5260739922523499
1781033579922052400,2.52805224609375,2.967674016952514,2.0961899757385254,0.64028000831604
1781033579941557200,2.54755712890625,4.986952781677246,3.691701889038086,0.7592489719390869
1781033579961061600,2.5670615234375,5.01572322845459,3.7230629920959473,1.0717380046844482
1781033579980563200,2.586563232421875,2.935555934906006,3.296410083770752,2.483391046524048
1781033580000064300,2.606064208984375,0.4973010122776031,1.2187379598617554,2.8761088848114014
1781033580019569400,2.6255693359375,-1.1020259857177734,-1.1073110103607178,3.295372009277344
1781033580039078000,2.645077880859375,-2.508030891418457,-2.68137788772583,3.371368885040283
1781033580058585900,2.6645859375,-2.324635982513428,-2.896601915359497,2.9526889324188232
1781033580078090000,2.684090087890625,-2.324635982513428,-2.896601915359497,2.9526889324188232
1781033580097590000,2.703590087890625,-2.324635982513428,-2.896601915359497,2.9526889324188232
1781033580117091800,2.723091796875,0.1261010020971298,-1.708528995513916,0.3785080015659332
1781033580136595200,2.74259521484375,0.1657609939575195,-1.3144279718399048,0.2500970065593719
1781033580156103000,2.76210302734375,-0.0654219985008239,-0.9729869961738586,0.1687929928302765
1781033580175615000,2.781614990234375,-0.0654219985008239,-0.9729869961738586,0.1687929928302765
1781033580195123700,2.801123779296875,-0.7364699840545654,-0.6313250064849854,0.4035820066928863
1781033580214632200,2.820632080078125,-0.5414479970932007,-0.5151429772377014,0.1490399986505508
1781033580234141700,2.8401416015625,-0.5414479970932007,-0.5151429772377014,0.1490399986505508
1781033580253652700,2.85965283203125,-0.0190239995718002,-1.0953010320663452,-0.2581799924373626
1781033580273164800,2.879164794921875,0.0081000002101063,-1.5592440366744995,-0.369482010602951
1781033580292673800,2.898673828125,0.1584309935569763,-1.870311975479126,-0.3940660059452057
1781033580312182800,2.918182861328125,0.4622009992599487,-1.9845679998397827,-0.3912500143051147
1781033580331690800,2.937690673828125,0.6996170282363892,-1.9767849445343015,-0.4111779928207397
1781033580351196000,2.95719580078125,0.5371170043945312,-1.9226319789886477,-0.4291799962520599
1781033580370704000,2.976703857421875,0.0401259995996952,-1.8735519647598269,-0.4670509994029999
1781033580390211600,2.996211669921875,-0.345329999923706,-1.833083987236023,-0.5179359912872314
1781033580409716200,3.01571630859375,-0.3673779964447021,-1.7450230121612549,-0.6090949773788452
1781033580429225000,3.035224853515625,-0.0654169991612434,-1.5830340385437012,-0.7776190042495728
1781033580448734000,3.05473388671875,0.1079680025577545,-1.358441948890686,-1.0215389728546145
1781033580468240100,3.074240234375,-0.110164001584053,-1.077828049659729,-1.3302589654922483
1781033580487748900,3.093748779296875,-0.4970839917659759,-0.8292530179023743,-1.6121159791946411
1781033580507261000,3.113260986328125,-0.688148021697998,-0.7122730016708374,-1.8578699827194212
1781033580526770700,3.132770751953125,-0.5451189875602722,-0.8576840162277222,-2.042965888977051
1781033580546276000,3.152276123046875,-0.2375839948654174,-1.156548023223877,-2.241689920425415
1781033580565779700,3.17177978515625,0.0841889977455139,-1.3879599571228027,-2.469681024551392
1781033580585284600,3.19128466796875,0.2856220006942749,-1.494094967842102,-2.6390469074249268
1781033580604790500,3.21079052734375,0.5123370289802551,-1.414067029953003,-2.7125020027160645
1781033580624296000,3.2302958984375,0.8137919902801514,-1.0249309539794922,-2.73895001411438
1781033580643800300,3.24980029296875,1.0110119581222534,-0.5802199840545654,-2.778218030929565
1781033580663304400,3.269304443359375,0.8990569710731506,-0.2731229960918426,-2.721327066421509
1781033580682809600,3.2888095703125,0.3664210140705108,-0.0378389991819858,-2.577380895614624
1781033580702316300,3.30831640625,-1.271631956100464,0.0924559980630874,-2.4355170726776123
1781033580721820000,3.32781982421875,-1.7698049545288086,0.1645839959383011,-2.32511305809021
1781033580741325800,3.347325927734375,-2.0447371006011963,0.1998469978570938,-2.3313241004943848
1781033580760832300,3.366832275390625,-1.7214080095291138,0.2635819911956787,-2.479814052581787
1781033580780339200,3.386339111328125,-0.2139450013637542,0.1937720030546188,-2.615710973739624
1781033580799847400,3.405847412109375,-0.2139450013637542,0.1937720030546188,-2.615710973739624
1781033580819350500,3.4253505859375,0.8156219720840454,-0.0284850001335144,-2.677834987640381
1781033580838858500,3.4448583984375,0.8195800185203552,-0.0279760006815195,-2.514190912246704
1781033580858368000,3.464367919921875,0.4996910095214844,0.0886299982666969,-2.2820019721984863
1781033580877876000,3.4838759765625,0.1295340061187744,0.2760480046272278,-2.0180509090423584
1781033580897381400,3.50338134765625,0.1295340061187744,0.2760480046272278,-2.0180509090423584
1781033580916887600,3.522887451171875,-0.1465220004320144,0.6775479912757874,-1.6227619647979736
1781033580936394800,3.542394775390625,-0.0982720032334327,0.9082540273666382,-1.4637809991836548
1781033580955901700,3.561901611328125,-0.1768369972705841,1.0736689567565918,-1.2696670293807983
1781033580975401700,3.581401611328125,-0.4410359859466553,1.13946795463562,-0.9348139762878418
1781033580994897200,3.600897216796875,-0.7778699994087219,1.162513017654419,-0.5452510118484497
1781033581014400000,3.62039990234375,-1.0083390474319458,1.14956796169281,-0.2699660062789917
1781033581033907200,3.6399072265625,-0.9666759967803956,1.1347910165786743,-0.1859910041093826
1781033581053413400,3.659413330078125,-0.7260140180587769,1.1461670398712158,-0.2647460103034973
1781033581072916500,3.67891650390625,-0.4605570137500763,1.0610820055007937,-0.3519049882888794
1781033581092416800,3.698416748046875,-0.3214530050754547,0.9754359722137452,-0.3544990122318268
1781033581111917600,3.71791748046875,-0.2978239953517914,1.001750946044922,-0.3101249933242798
1781033581131422200,3.737422119140625,-0.3258419930934906,1.1310900449752808,-0.2523829936981201
1781033581150925000,3.756925048828125,-0.3616980016231537,1.3705480098724363,-0.2680380046367645
1781033581170423000,3.776423095703125,-0.3965300023555755,1.5376759767532349,-0.2980319857597351
1781033581189921000,3.795921142578125,-0.4402030110359192,1.5703710317611694,-0.2895880043506622
1781033581209420000,3.815419921875,-0.4432039856910705,1.5338079929351809,-0.3278999924659729
1781033581228921900,3.834921875,-0.3818790018558502,1.444288969039917,-0.4200519919395447
1781033581248429000,3.854428955078125,-0.2798109948635101,1.3704019784927368,-0.5351139903068542
1781033581267940000,3.873940185546875,-0.2598429918289184,1.2640010118484497,-0.6316729784011841
1781033581287448000,3.893447998046875,-0.3040499985218048,1.0539000034332275,-0.6655809879302979
1781033581306955500,3.91295556640625,-0.3400560021400451,0.8446959853172302,-0.6583340167999268
1781033581326461700,3.932461669921875,-0.3082720041275024,0.722087025642395,-0.7184339761734009
1781033581345964800,3.95196484375,-0.2231040000915527,0.725937008857727,-0.848812997341156
1781033581365474300,3.971474365234375,-0.1886979937553405,0.8400899767875671,-0.9987919926643372
1781033581384986400,3.990986328125,-0.2605000138282776,0.9345120191574096,-1.155608057975769
1781033581404497700,4.01049755859375,-0.4696319997310638,0.9839490056037904,-1.3380279541015625
1781033581424008200,4.03000830078125,-0.8006880283355713,0.9589020013809204,-1.5419310331344604
1781033581443516400,4.049516357421875,-1.06175696849823,0.9156450033187866,-1.7858870029449463
1781033581463021000,4.06902099609375,-1.1029289960861206,0.852957010269165,-2.089308977127075
1781033581482518300,4.088518310546875,-0.9865589737892152,0.7299749851226807,-2.3939220905303955
1781033581502012400,4.108012451171875,-0.7177209854125977,0.619156002998352,-2.698072910308838
1781033581521510700,4.1275107421875,-0.525708019733429,0.4771589934825897,-2.9938690662384038
1781033581541013500,4.147013427734375,-0.541517972946167,0.388056993484497,-3.2672359943389893
1781033581560516900,4.166516845703125,-0.6586229801177979,0.392080008983612,-3.5913219451904297
1781033581580023600,4.1860234375,-0.7801110148429871,0.3817450106143951,-4.004811763763428
1781033581599531000,4.205531005859375,-0.7801110148429871,0.3817450106143951,-4.004811763763428
1781033581619037200,4.225037109375,-0.952114999294281,0.1335989981889724,-5.986608982086182
1781033581638538800,4.244538818359375,-0.952114999294281,0.1335989981889724,-5.986608982086182
1781033581658039000,4.2640390625,-1.2495570182800293,-0.1058799996972084,-6.16077184677124
1781033581677545000,4.283544921875,-1.2495570182800293,-0.1058799996972084,-6.16077184677124
1781033581697053000,4.303052978515625,-1.4126449823379517,-0.0864429995417594,-5.604229927062988
1781033581716562000,4.32256201171875,-1.435439944267273,-0.1074889972805976,-5.00732421875
1781033581736070400,4.3420703125,-1.497012972831726,-0.1694229990243911,-4.469741821289063
1781033581755577600,4.36157763671875,-1.7577110528945925,-0.3622710108757019,-4.125914096832275
1781033581775084500,4.38108447265625,-2.166045904159546,-0.7565000057220459,-3.686389923095703
1781033581794595800,4.400595947265625,4.130771160125732,-1.2692790031433103,-0.8225650191307068
1781033581814106600,4.420106689453125,6.430713176727295,-0.9411939978599548,2.4341928958892822
1781033581833617700,4.43961767578125,8.935538291931152,1.0262069702148438,2.6324450969696045
1781033581853130800,4.459130859375,9.37597942352295,1.1752090454101562,2.5020289421081543
1781033581872642600,4.478642578125,2.165532112121582,1.0294599533081057,2.04748797416687
1781033581892152800,4.49815283203125,-0.8946939706802368,-0.9860849976539612,0.5301120281219482
1781033581911661000,4.5176611328125,-4.219390869140625,-1.2660859823226929,1.9827909469604488
1781033581931172600,4.537172607421875,-5.942191123962402,-1.3160769939422607,2.520181894302368
1781033581950688500,4.5566884765625,-4.239768028259277,-1.0202490091323853,3.940042972564697
1781033581970203000,4.576202880859375,-2.0892269611358643,-0.6319540143013,3.814937114715576
1781033581989715700,4.5957158203125,0.9067389965057372,-0.2206259965896606,3.362828016281128
1781033582009225200,4.61522509765625,3.07942008972168,0.0916040018200874,2.8933210372924805
1781033582028734700,4.634734619140625,3.256977081298828,0.2119079977273941,2.451827049255371
1781033582048250000,4.65425,3.629934072494507,-0.014024999924004,1.9321540594100952
1781033582067767000,4.67376708984375,3.73223090171814,-0.601239025592804,1.5833489894866943
1781033582087282000,4.693281982421875,3.572148084640503,-1.1693400144577026,1.5451029539108276
1781033582106796800,4.712796875,3.1311960220336914,-1.3683409690856934,1.5996010303497314
1781033582126312200,4.732312255859375,0.958890974521637,-1.1829279661178589,1.74249005317688
1781033582145827300,4.751827392578125,-0.6580690145492554,-0.8275319933891296,2.105341911315918
1781033582165343200,4.77134326171875,-1.019747972488403,-0.4402509927749634,2.3488380908966064
1781033582184856000,4.79085595703125,-1.3717509508132937,-0.1700910031795501,2.243212938308716
1781033582204369000,4.810368896484375,-1.51179301738739,-0.217302992939949,2.0337400436401367
1781033582223882800,4.8298828125,-1.4617899656295776,-0.4379869997501373,1.7950899600982666
1781033582243397600,4.849397705078125,-1.4097870588302612,-0.7024270296096802,1.5323280096054075
1781033582262909400,4.868909423828125,-1.6748950481414795,-0.9711269736289978,1.4123330116271973
1781033582282416600,4.888416748046875,-2.199460983276367,-1.2507489919662476,1.5037659406661987
1781033582301930500,4.907930419921875,-2.820617914199829,-1.5044269561767578,1.6476390361785889
1781033582321445600,4.927445556640625,-3.120069026947021,-1.6830270290374756,1.7885249853134155
1781033582340956400,4.946956298828125,-2.793800115585327,-1.7050950527191162,2.008831024169922
1781033582360466700,4.966466796875,-1.1123930215835571,-1.5490989685058594,2.200990915298462
1781033582379976700,4.985976806640625,0.6693450212478638,-1.2246359586715698,2.2375969886779785
1781033582399492000,5.0054921875,0.6693450212478638,-1.2246359586715698,2.2375969886779785
1781033582419011600,5.025011474609375,2.530010938644409,-0.1862870007753372,2.221441984176636
1781033582438527500,5.044527587890625,2.76578688621521,0.2781589925289154,1.9126989841461184
1781033582458038500,5.06403857421875,2.76578688621521,0.2781589925289154,1.9126989841461184
1781033582477552400,5.083552490234375,2.498136043548584,0.5981389880180359,1.8890479803085327
1781033582497071600,5.103071533203125,2.498136043548584,0.5981389880180359,1.8890479803085327
1781033582516587500,5.12258740234375,2.498136043548584,0.5981389880180359,1.8890479803085327
1781033582536097000,5.142096923828125,0.9042800068855286,0.0923229977488517,4.220038890838623
1781033582555605800,5.161605712890625,0.4121510088443756,-0.1205750033259391,4.534093856811523
1781033582575117300,5.181117431640625,0.0319110006093978,-0.1674769967794418,4.7153167724609375
1781033582594634800,5.200634765625,-0.2426470071077346,-0.0771400034427642,4.79420804977417
1781033582614148400,5.2201484375,-0.3956030011177063,0.4056139886379242,4.538063049316406
1781033582633657000,5.239656982421875,-0.3956030011177063,0.4056139886379242,4.538063049316406
1781033582653162800,5.259162841796875,-0.3931449949741363,2.322639942169189,4.699635028839111
1781033582672669400,5.27866943359375,-0.6026409864425659,2.60605788230896,4.822074890136719
1781033582692181000,5.298180908203125,-0.9248690009117126,2.419627904891968,6.422973155975342
1781033582711690000,5.31768994140625,-1.0381640195846558,2.2385380268096924,6.4878997802734375
1781033582731196700,5.33719677734375,-0.9173830151557922,2.2957420349121094,6.757721900939941
1781033582750708700,5.356708740234375,-0.7716540098190308,2.447187900543213,7.945026874542236
1781033582770222600,5.37622265625,-0.5775539875030518,2.724539995193481,7.7306809425354
1781033582789738000,5.395738037109375,-0.5104849934577942,2.851731061935425,7.324073791503906
1781033582809253600,5.415253662109375,-0.6712769865989685,2.7017080783843994,6.734564781188965
1781033582828768000,5.43476806640625,-1.0420989990234375,2.6045339107513428,5.914759159088135
1781033582848281300,5.45428125,-2.996555089950561,2.611469030380249,4.976136207580566
1781033582867791400,5.473791259765625,-3.4173800945281982,2.4697070121765137,4.169845104217529
1781033582887300600,5.493300537109375,-3.9280738830566406,2.2260050773620605,3.428184032440185
1781033582906811100,5.51281103515625,-4.02154016494751,1.9533779621124268,2.706928014755249
1781033582926320600,5.532320556640625,-3.6510820388793945,1.6459020376205444,1.9890120029449463
1781033582945828000,5.551828125,-2.987415075302124,1.2731280326843262,1.3226219415664673
1781033582965336600,5.571336669921875,-2.268748044967652,0.7375159859657288,0.7771480083465576
1781033582984849000,5.590848876953125,-1.5328030586242676,0.1125029996037483,0.3503150045871734
1781033583004361000,5.61036083984375,-0.8106799721717834,-0.4219279885292053,-0.0156100001186132
1781033583023874600,5.62987451171875,-0.1876399964094162,-0.8629890084266663,-0.3380739986896515
1781033583043386000,5.64938623046875,0.168964996933937,-1.1779190301895142,-0.6291000247001648
1781033583062900000,5.66889990234375,0.18783999979496,-1.4185980558395386,-0.8938689827919006
1781033583082417400,5.68841748046875,0.0316179990768432,-1.778020977973938,-1.061885952949524
1781033583101932500,5.7079326171875,-0.0710560008883476,-2.0951170921325684,-1.2163009643554688
1781033583121446100,5.727446044921875,0.0171930007636547,-2.3070390224456787,-1.4024059772491455
1781033583140958700,5.746958740234375,0.1967560052871704,-2.4531381130218506,-1.6337929964065552
1781033583160474000,5.76647412109375,0.3219099938869476,-2.5516579151153564,-1.894294023513794
1781033583179983400,5.7859833984375,0.2987839877605438,-2.71274209022522,-2.07019591331482
1781033583199488300,5.80548828125,0.2987839877605438,-2.71274209022522,-2.07019591331482
1781033583218994200,5.824994140625,0.2538619935512543,-3.016333103179932,-2.333993911743164
1781033583238500600,5.84450048828125,0.2538619935512543,-3.016333103179932,-2.333993911743164
1781033583258010400,5.86401025390625,0.7613279819488525,-3.173789024353028,-2.7005650997161865
1781033583277520400,5.883520263671875,1.1371899843215942,-3.0456130504608154,-2.9477388858795166
1781033583297028600,5.903028564453125,1.1371899843215942,-3.0456130504608154,-2.9477388858795166
1781033583316537000,5.922537109375,1.4449299573898315,-2.93137001991272,-3.3760690689086914
1781033583336043000,5.94204296875,1.1675299406051636,-2.8555970191955566,-3.474343061447144
1781033583355550200,5.96155029296875,0.8433629870414734,-2.8355729579925537,-3.528687000274658
1781033583375058200,5.98105810546875,0.6805160045623779,-2.864872932434082,-3.575408935546875
1781033583394570200,6.0005703125,0.6767339706420898,-2.8466989994049072,-3.6080939769744873
1781033583414080800,6.020080810546875,0.7231910228729248,-2.545032024383545,-3.6627988815307617
1781033583433587500,6.03958740234375,0.70933598279953,-2.2292020320892334,-3.66936993598938
1781033583453098000,6.059097900390625,0.5672159790992737,-2.069308996200561,-3.587577104568481
1781033583472607000,6.07860693359375,0.38502898812294,-1.9388229846954343,-3.5032589435577397
1781033583492114700,6.09811474609375,0.1368920058012008,-1.8685779571533203,-3.422183036804199
1781033583511625700,6.117625732421875,-0.1875810027122497,-1.6538180112838743,-3.3622090816497803
1781033583531135000,6.137135009765625,-0.4116719961166382,-1.3738659620285034,-3.403059959411621
1781033583550644000,6.15664404296875,-0.4626300036907196,-1.2422770261764526,-3.434722900390625
1781033583570153200,6.1761533203125,-0.2752420008182525,-1.325927972793579,-3.4731619358062744
1781033583589660700,6.19566064453125,0.047019001096487,-1.4509689807891846,-3.5163869857788086
1781033583609168000,6.21516796875,0.2878130078315735,-1.3439040184020996,-3.4706718921661377
1781033583628680700,6.2346806640625,0.4237509965896606,-0.9355419874191284,-3.3747599124908447
1781033583648197000,6.254197021484375,0.4015769958496094,-0.4014579951763153,-3.2345008850097656
1781033583667712500,6.27371240234375,0.1910730004310608,0.1114400029182434,-3.1095080375671387
1781033583687229000,6.29322900390625,-0.0829690024256706,0.5445169806480408,-3.060131072998047
1781033583706747600,6.31274755859375,-0.3714019954204559,0.8214690089225769,-3.0074338912963867
1781033583726260700,6.3322607421875,-0.554597020149231,0.94514399766922,-2.877929925918579
1781033583745771800,6.351771728515625,-0.5034430027008057,0.911620020866394,-2.7056450843811035
1781033583765285400,6.371285400390625,-0.2696200013160705,0.7985619902610779,-2.580641031265259
1781033583784796200,6.390796142578125,-0.0158450007438659,0.6907579898834229,-2.523655891418457
1781033583804309000,6.41030908203125,0.1750079989433288,0.6869180202484131,-2.514822006225586
1781033583823817700,6.429817626953125,0.1951349973678589,0.8181489706039429,-2.503113985061645
1781033583843318000,6.449318115234375,-0.0026879999786615,1.0321630239486694,-2.45281195640564
1781033583862824400,6.468824462890625,-0.3416309952735901,1.1909509897232056,-2.347141027450561
1781033583882335700,6.488335693359375,-0.6886860132217407,1.229464054107666,-2.21174693107605
1781033583901846800,6.5078466796875,-0.8649219870567322,1.0963079929351809,-2.053386926651001
1781033583921356000,6.52735595703125,-0.8041369915008545,0.7965880036354065,-1.8783810138702397
1781033583940863500,6.546863525390625,-0.4976170063018799,0.4467929899692535,-1.721506953239441
1781033583960365800,6.56636572265625,-0.0914620012044906,0.1967650055885315,-1.6259959936141968
1781033583979870200,6.5858701171875,0.1979700028896331,0.0748670026659965,-1.5383809804916382
1781033583999379700,6.605379638671875,0.349029004573822,0.1038609966635704,-1.3917529582977295
1781033584018884000,6.624884033203125,0.3384029865264892,0.2289430052042007,-1.2663650512695312
1781033584038383600,6.644383544921875,0.1655890047550201,0.3861309885978699,-1.0770210027694702
1781033584057888000,6.663887939453125,0.1655890047550201,0.3861309885978699,-1.0770210027694702
1781033584077399300,6.6833994140625,0.1655890047550201,0.3861309885978699,-1.0770210027694702
1781033584096906800,6.70290673828125,-0.2438949942588806,1.1785099506378174,-0.7590150237083435
1781033584116412200,6.722412109375,-0.4119549989700317,1.3343839645385742,-0.6280059814453125
1781033584135920400,6.74192041015625,-0.5844870209693909,1.3949589729309082,-0.5060930252075195
1781033584155435800,6.761435791015625,-0.6806520223617554,1.3190799951553345,-0.3945220112800598
1781033584174954200,6.780954345703125,-0.6425049901008606,1.2057050466537476,-0.315324991941452
1781033584194470400,6.800470458984375,-0.4717490077018738,1.088420033454895,-0.3183200061321258
1781033584213983500,6.8199833984375,-0.3241690099239349,0.8729770183563232,-0.2940280139446258
1781033584233493800,6.83949365234375,-0.3241690099239349,0.8729770183563232,-0.2940280139446258
1781033584253006800,6.8590068359375,-0.2233559936285019,0.8282420039176941,-0.3699269890785217
1781033584272522500,6.8785224609375,-0.2113119959831237,0.8953239917755127,-0.4130780100822449
1781033584292036400,6.898036376953125,-0.2398640066385269,1.0221110582351685,-0.4998260140419006
1781033584311552500,6.917552490234375,-0.3659589886665344,1.12219500541687,-0.5867779850959778
1781033584331064600,6.937064697265625,-0.5185229778289795,1.1723450422286987,-0.7012829780578613
1781033584350575600,6.95657568359375,-0.634332001209259,1.144642949104309,-0.77326500415802
1781033584370089700,6.97608984375,-0.6413620114326477,1.0624959468841553,-0.801410973072052
1781033584389601300,6.995601318359375,-0.5304719805717468,1.0456130504608154,-0.8772479891777039
1781033584409113300,7.01511328125,-0.4024609923362732,1.0945470333099363,-0.9793210029602052
1781033584428627500,7.03462744140625,-0.3642709851264953,1.1382019519805908,-1.0366519689559937
1781033584448141600,7.0541416015625,-0.333187997341156,1.2002979516983032,-1.0881969928741455
1781033584467651600,7.073651611328125,-0.2257020026445388,1.221897006034851,-1.1503510475158691
1781033584487160600,7.09316064453125,-0.1202490031719207,1.1898750066757202,-1.1932159662246704
1781033584506673400,7.11267333984375,-0.1138819977641105,1.1823610067367554,-1.281836986541748
1781033584526184700,7.132184814453125,-0.2451560050249099,1.2190300226211548,-1.405094027519226
1781033584545698600,7.151698486328125,-0.5180619955062866,1.2861980199813845,-1.5547460317611694
1781033584565216500,7.171216552734375,-0.827256977558136,1.3720860481262207,-1.763038992881775
1781033584584728800,7.190728759765625,-0.9374849796295166,1.3949079513549805,-1.9637110233306885
1781033584604236000,7.210236083984375,-0.8305799961090088,1.3682739734649658,-2.1488800048828125
1781033584623745000,7.2297451171875,-0.5960559844970703,1.2956969738006592,-2.2972331047058105
1781033584643260000,7.249260009765625,-0.3211219906806946,1.22523295879364,-2.382750988006592
1781033584662774300,7.268774169921875,-0.1079910025000572,1.1943320035934448,-2.4654030799865723
1781033584682284500,7.288284423828125,0.0073890001513063,1.1155259609222412,-2.5869290828704834
1781033584701793000,7.30779296875,-0.0598220005631446,0.9628260135650636,-2.6863739490509038
1781033584721306600,7.327306640625,-0.1910959929227829,0.7846590280532837,-2.811150074005127
1781033584740824000,7.346823974609375,-0.4756509959697723,0.6525149941444397,-3.119647026062012
1781033584760333800,7.366333740234375,-1.0268540382385254,0.4814110100269317,-3.450023889541626
1781033584779846700,7.3858466796875,-1.0268540382385254,0.4814110100269317,-3.450023889541626
1781033584799363300,7.40536328125,-1.9046369791030884,0.1406459957361221,-4.190100193023682
1781033584818877000,7.424876953125,-2.042288064956665,-0.0658589974045753,-5.500883102416992
1781033584838388500,7.444388427734375,-3.7583858966827393,-0.1748600006103515,-5.845302104949951
1781033584857898000,7.46389794921875,-3.7583858966827393,-0.1748600006103515,-5.845302104949951
1781033584877406000,7.483406005859375,-3.7583858966827393,-0.1748600006103515,-5.845302104949951
1781033584896916000,7.502916015625,-2.116781949996948,-0.7787010073661804,-3.775912046432495
1781033584916427800,7.522427734375,2.1708569526672363,-0.5006440281867981,0.8841850161552429
1781033584935938000,7.54193798828125,6.824246883392334,-0.5129129886627197,2.9053609371185303
1781033584955450600,7.56145068359375,8.432843208312988,-2.4632370471954346,3.050479888916016
1781033584974960600,7.580960693359375,5.17844820022583,-2.8650219440460205,1.458364963531494
1781033584994468600,7.600468505859375,4.698068141937256,-4.419856071472168,-0.1657959967851638
1781033585013974800,7.619974853515625,2.677010059356689,-4.154898166656494,-0.2922640144824981
1781033585033482200,7.639482177734375,2.677010059356689,-4.154898166656494,-0.2922640144824981
1781033585052993500,7.65899365234375,2.442390918731689,0.5661870241165161,2.2369489669799805
1781033585072504800,7.6785048828125,0.7056570053100586,1.1490700244903564,2.583425045013428
1781033585092017000,7.698016845703125,-0.9327099919319152,1.6090110540390017,2.411510944366455
1781033585111528700,7.71752880859375,-2.5163540840148926,1.261904001235962,2.194672107696533
1781033585131039500,7.73703955078125,-2.385345935821533,-2.568867921829224,2.3976550102233887
1781033585150547500,7.75654736328125,0.9472579956054688,-4.49424409866333,2.8215579986572266
1781033585170056000,7.776055908203125,2.672034978866577,-4.459321022033691,3.0979108810424805
1781033585189563100,7.795563232421875,2.9476261138916016,-2.61799693107605,2.995649099349976
1781033585209067800,7.81506787109375,2.875883102416992,-1.9671759605407717,2.685137987136841
1781033585228580000,7.834580078125,0.6069470047950745,-1.2194080352783203,2.4879848957061768
1781033585248094000,7.854093994140625,0.3132289946079254,-0.5817469954490662,2.363922119140625
1781033585267604500,7.8736044921875,0.0123789999634027,0.009176000021398,2.2848870754241943
1781033585287111400,7.893111328125,-0.0284490007907152,0.3669689893722534,2.2967920303344727
1781033585306619100,7.912619140625,0.2359620034694671,0.3653160035610199,2.2206389904022217
1781033585326129200,7.932129150390625,0.6372060179710388,0.1527349948883056,2.310025930404663
1781033585345640000,7.951639892578125,0.8244150280952454,-0.0675320029258728,2.6319730281829834
1781033585365151200,7.971151123046875,0.5680360198020935,-0.0424610003829002,2.938127994537353
1781033585384660500,7.990660400390625,-1.8509670495986936,0.2884050011634826,3.164109945297241
1781033585404170000,8.010169921875,-3.95636796951294,0.77640700340271,3.116081953048706
1781033585423686100,8.02968603515625,-4.327779769897461,1.154088020324707,2.775074005126953
1781033585443200800,8.04920068359375,-4.731672763824463,1.2706190347671509,2.43637490272522
1781033585462710300,8.068710205078125,-4.575974941253662,1.071984052658081,2.380460023880005
1781033585482218000,8.088218017578125,-2.744807004928589,0.7450559735298157,2.55099892616272
1781033585501728000,8.10772802734375,-0.6607779860496521,0.4556879997253418,2.8396670818328857
1781033585521239300,8.1272392578125,0.9570369720458984,0.2526000142097473,3.0593419075012207
1781033585540748000,8.146748046875,2.8898189067840576,0.3795320093631744,3.1677188873291016
1781033585560261600,8.16626171875,3.093633890151977,0.7997369766235352,3.2316908836364746
1781033585579778600,8.185778564453125,3.093633890151977,0.7997369766235352,3.2316908836364746
1781033585599294200,8.205294189453125,3.714406967163086,4.330589771270752,3.655980110168457
1781033585618807800,8.224807861328125,3.5167510509490967,4.604086875915527,3.929898977279663
1781033585638320600,8.244320556640625,1.695436954498291,4.771506786346436,4.200578212738037
1781033585657833000,8.2638330078125,1.695436954498291,4.771506786346436,4.200578212738037
1781033585677347000,8.28334716796875,-1.7321399450302124,4.495492935180664,4.97199821472168
1781033585696859400,8.302859375,-1.7321399450302124,4.495492935180664,4.97199821472168
1781033585716369200,8.322369140625,-2.5682520866394043,0.3880529999732971,5.511287212371826
1781033585735874300,8.341874267578126,-2.5682520866394043,0.3880529999732971,5.511287212371826
1781033585755380000,8.3613798828125,-2.315027952194214,-0.9309509992599488,6.059874057769775
1781033585774889200,8.38088916015625,-0.5126399993896484,-1.2595620155334473,7.628160953521728
1781033585794396400,8.400396484375,-0.3001939952373504,-1.262622952461243,7.966582775115967
1781033585813905000,8.41990478515625,-0.0970980003476142,-1.0450040102005005,7.839105129241943
1781033585833414400,8.439414306640625,-0.0970980003476142,-1.0450040102005005,7.839105129241943
1781033585852923600,8.458923583984374,0.4089660048484802,2.618213891983032,7.45810079574585
1781033585872439300,8.478439208984375,0.2018509954214096,2.990962028503418,6.502610206604004
1781033585891954400,8.497954345703125,-1.3484820127487185,3.2768149375915527,5.533432960510254
1781033585911463700,8.517463623046876,-3.338956117630005,2.9063730239868164,4.64281177520752
1781033585930975000,8.53697509765625,-3.7551701068878174,1.1556169986724854,2.642585039138794
1781033585950490000,8.556489990234375,-3.599998950958252,0.4360210001468658,1.9668920040130613
1781033585970003500,8.57600341796875,-1.4999090433120728,-1.0929219722747805,1.1128790378570557
1781033585989518300,8.595518310546876,-0.987280011177063,-1.4714510440826416,0.3358629941940307
1781033586009032000,8.615031982421876,-0.3048140108585357,-2.014894962310791,-0.1954350024461746
1781033586028539400,8.634539306640624,0.3241609930992126,-2.444287061691284,-0.5220199823379517
1781033586048045000,8.654045166015624,0.6775469779968262,-2.503406047821045,-0.7824770212173462
1781033586067552500,8.673552490234375,0.8147779703140259,-2.3572769165039062,-0.9861800074577332
1781033586087064800,8.69306494140625,0.7230510115623474,-2.1748409271240234,-1.1372610330581665
1781033586106581200,8.712581298828125,0.411514014005661,-2.0715761184692383,-1.2335150241851809
1781033586126092800,8.7320927734375,0.2461410015821457,-1.963634967803955,-1.3234310150146484
1781033586145602800,8.751602783203126,0.2124119997024536,-1.79470694065094,-1.4741090536117554
1781033586165114600,8.771114501953125,0.2844130098819732,-1.7652699947357178,-1.6326309442520142
1781033586174869500,8.780869384765625,0.2844130098819732,-1.7652699947357178,-1.6326309442520142
1781033586184629200,8.790629150390625,0.4360829889774322,-1.8270870447158811,-1.7743719816207886
1781033586204144000,8.81014404296875,0.4022200107574463,-1.9178049564361568,-1.9465219974517824
1781033586223655700,8.82965576171875,0.1853799968957901,-1.9874459505081177,-2.093621015548706
1781033586243168800,8.849168701171875,-0.0802780017256736,-1.9229910373687744,-2.2951838970184326
1781033586262683600,8.86868359375,-0.2241140007972717,-1.8661309480667116,-2.5451080799102783
1781033586282191400,8.88819140625,0.0283720009028911,-1.7619359493255615,-2.731743097305298
1781033586301697800,8.90769775390625,0.5518209934234619,-1.4294129610061646,-2.959399938583374
1781033586321204700,8.927204833984375,0.9748730063438416,-1.0328669548034668,-3.13479995727539
1781033586340709400,8.94670947265625,1.0022430419921875,-0.8429239988327026,-3.144926071166992
1781033586360214300,8.96621435546875,0.7041789889335632,-0.9594849944114684,-3.054541110992432
1781033586379715300,8.98571533203125,0.7041789889335632,-0.9594849944114684,-3.054541110992432
1781033586399215400,9.00521533203125,0.2429119944572448,-1.2828340530395508,-2.9148569107055664
1781033586418715000,9.02471484375,0.3080169856548309,-1.2865400314331057,-2.879281997680664
1781033586438216000,9.0442158203125,0.3798860013484955,-1.37470805644989,-2.772013902664185
1781033586457719800,9.0637197265625,0.3798860013484955,-1.37470805644989,-2.772013902664185
1781033586477226800,9.083226806640624,0.3184559941291809,-1.7168699502944946,-2.577605962753296
1781033586496730600,9.102730712890626,0.3184559941291809,-1.7168699502944946,-2.577605962753296
1781033586516233200,9.122233154296875,-0.0728870034217834,-1.4875400066375732,-2.623483896255493
1781033586535742000,9.141741943359374,-0.2826240062713623,-1.4202369451522827,-2.444287061691284
1781033586555253000,9.1612529296875,-0.4002619981765747,-1.466804027557373,-2.314055919647217
1781033586574761200,9.18076123046875,-0.3527190089225769,-1.4270670413970947,-2.2189509868621826
1781033586594265900,9.200265869140624,-0.2390410006046295,-1.1340140104293823,-2.199404001235962
1781033586613766700,9.2197666015625,-0.2056940048933029,-0.8679080009460449,-2.146099090576172
1781033586633274000,9.239274169921876,-0.2234950065612793,-0.8242999911308289,-2.0600059032440186
1781033586652787200,9.258787109375,-0.2975029945373535,-0.8520200252532959,-2.145236015319824
1781033586672297200,9.278297119140625,-0.3156090080738067,-0.7878419756889343,-2.26163101196289
1781033586691806000,9.297805908203124,-0.2013739943504333,-0.4778540134429931,-2.398498058319092
1781033586711314000,9.31731396484375,-0.1022339984774589,-0.135232999920845,-2.4611918926239014
1781033586730822400,9.336822509765623,-0.1289999932050705,-0.0814250037074089,-2.348052978515625
1781033586750332400,9.35633251953125,-0.2302359938621521,-0.2854839861392975,-2.254520893096924
1781033586769845000,9.375844970703126,-0.3336339890956878,-0.5300390124320984,-2.1892619132995605
1781033586789359000,9.395359130859376,-0.2141759991645813,-0.4942469894886017,-2.1788859367370605
1781033586808870000,9.414869873046875,0.0641070008277893,-0.2653129994869232,-2.2003049850463867
1781033586828378000,9.434378173828126,0.2711589932441711,0.037856001406908,-2.1336939334869385
1781033586847888600,9.453888671875,0.3357059955596924,0.3491050004959106,-2.0775599479675293
1781033586867398100,9.473398193359374,0.1573089957237243,0.4673590064048767,-1.994784951210022
1781033586886904300,9.492904296875,-0.1253660023212433,0.4919250011444092,-1.9041210412979128
1781033586906406700,9.51240673828125,-0.3342300057411194,0.5327399969100952,-1.94820499420166
1781033586925913900,9.531913818359374,-0.4169400036334991,0.5795750021934509,-2.047061920166016
1781033586945425700,9.55142578125,-0.4081610143184662,0.6303189992904663,-2.149488925933838
1781033586964933600,9.57093359375,-0.2727769911289215,0.6814020276069641,-2.184146881103516
1781033586984440000,9.590440185546877,-0.0889620035886764,0.6872749924659729,-2.109837055206299
1781033587003947000,9.609947021484375,0.0603620000183582,0.6401529908180237,-1.985152006149292
1781033587023455000,9.629455078125,0.2139379978179931,0.6297140121459961,-1.8759889602661133
1781033587042962000,9.6489619140625,0.3093079924583435,0.7082840204238892,-1.7831799983978271
1781033587062467300,9.66846728515625,0.2856500148773193,0.7973420023918152,-1.6400949954986572
1781033587081972700,9.68797265625,0.186827003955841,0.9337520003318788,-1.449597954750061
1781033587101480000,9.70747998046875,0.0257009994238615,1.2038240432739258,-1.2617249488830566
1781033587120989400,9.726989501953126,-0.1961939930915832,1.5011440515518188,-1.0818229913711548
1781033587140496400,9.746496337890624,-0.4611769914627075,1.754016995429993,-0.9215949773788452
1781033587160001000,9.7660009765625,-0.7963160276412964,1.9308249950408936,-0.7610920071601868
1781033587179502600,9.785502685546875,-0.7963160276412964,1.9308249950408936,-0.7610920071601868
1781033587199004200,9.805004150390625,-1.249948024749756,1.7386800050735474,-0.552757978439331
1781033587218508300,9.82450830078125,-1.1688040494918823,1.538709044456482,-0.3931559920310974
1781033587238012200,9.84401220703125,-1.1688040494918823,1.538709044456482,-0.3931559920310974
1781033587257520400,9.863520263671877,-1.1688040494918823,1.538709044456482,-0.3931559920310974
1781033587277027600,9.883027587890624,-0.5878790020942688,1.2967079877853394,-0.4336499869823456
1781033587296535600,9.90253564453125,-0.5771510004997253,1.1121840476989746,-0.4220019876956939
1781033587316046300,9.92204638671875,-0.5663710236549377,0.9485440254211426,-0.433025985956192
1781033587335561200,9.941561279296875,-0.4965989887714386,0.9613800048828124,-0.4300130009651184
1781033587355078400,9.961078369140624,-0.3670940101146698,1.069653034210205,-0.3811469972133636
1781033587374588400,9.98058837890625,-0.3670940101146698,1.069653034210205,-0.3811469972133636
1781033587394097700,10.00009765625,-0.2984099984169006,1.0613230466842651,-0.1379670053720474
1781033587413608700,10.019608642578126,-0.3090989887714386,0.8445190191268921,0.0031320000998675
1781033587433117200,10.0391171875,-0.2191219925880432,0.5782729983329773,0.0507870018482208
1781033587452629200,10.058629150390624,-0.0756120011210441,0.3871859908103943,0.0276929996907711
1781033587472145000,10.078144775390625,0.0313900001347065,0.3091970086097717,-0.026877999305725
1781033587491659300,10.0976591796875,0.0240090005099773,0.2745630145072937,-0.0409430004656314
1781033587511178000,10.117177978515626,-0.1091009974479675,0.2772350013256073,0.0048529999330639
1781033587530695400,10.1366953125,-0.2401929944753646,0.2773570120334625,0.0869719982147216
1781033587550208800,10.156208740234376,-0.2647010087966919,0.3042260110378265,0.1870509982109069
1781033587569722400,10.175722412109376,-0.2409159988164901,0.3602670133113861,0.311055988073349
1781033587589236500,10.195236572265625,-0.2019280046224594,0.4391039907932281,0.434579998254776
1781033587608744700,10.21474462890625,-0.2145899981260299,0.4948340058326721,0.4969300031661987
1781033587628252700,10.234252685546876,-0.2853530049324035,0.4732509851455688,0.4347310066223144
1781033587647761400,10.253761474609377,-0.3374820053577423,0.4009050130844116,0.248320996761322
1781033587667265500,10.273265625,-0.3771060109138489,0.3027620017528534,0.0035989999305456
1781033587686763300,10.29276318359375,-0.3095400035381317,0.2023939937353134,-0.2268760055303573
1781033587706263600,10.312263671875,-0.1413599997758865,0.151417002081871,-0.4960800111293793
1781033587725766400,10.331766357421875,0.0497229993343353,0.1566559970378875,-0.8412309885025024
1781033587745266400,10.351266357421874,0.123989000916481,0.2029580026865005,-1.254770040512085
1781033587764769800,10.370769775390626,-0.0081439996138215,0.2618860006332397,-1.7131149768829346
1781033587784276500,10.3902763671875,-0.3741550147533417,0.3514040112495422,-2.0732100009918213
1781033587803782700,10.40978271484375,-0.7575730085372925,0.4601170122623443,-2.273530960083008
1781033587823286800,10.429286865234374,-0.9700260162353516,0.5206500291824341,-2.4360930919647217
1781033587842791700,10.448791748046874,-0.91913902759552,0.5224140286445618,-2.679141998291016
1781033587862293200,10.468293212890623,-0.6636409759521484,0.4285739958286285,-3.041964054107666
1781033587881795600,10.487795654296876,-0.4023419916629791,0.2168000042438507,-3.513056993484497
1781033587901299500,10.507299560546874,-0.2660830020904541,-0.032770998775959,-4.023536205291748
1781033587920804000,10.52680419921875,-0.3964470028877258,-0.2554079890251159,-4.474765777587891
1781033587940307200,10.54630712890625,-0.6925719976425171,-0.4288659989833832,-4.848328113555908
1781033587959805700,10.5658056640625,-1.0043460130691528,-0.5392040014266968,-5.16064977645874
1781033587979305000,10.585304931640623,-1.2289090156555176,-0.5629649758338928,-5.378756046295166
1781033587998803700,10.6048037109375,-1.232578992843628,-0.5058659911155701,-5.460554122924805
1781033588018300700,10.62430078125,-1.0871469974517822,-0.3566060066223144,-5.460179805755615
1781033588037795800,10.6437958984375,-1.0871469974517822,-0.3566060066223144,-5.460179805755615
1781033588057288700,10.663288818359376,-0.7829319834709167,0.3066509962081909,-5.486155986785889
1781033588076788700,10.682788818359375,-0.7829319834709167,0.3066509962081909,-5.486155986785889
1781033588096296200,10.702296142578126,-4.437039852142334,0.867654025554657,-6.06126594543457
1781033588115801000,10.721801025390626,-4.790771961212158,0.6794930100440979,-6.400362968444824
1781033588135301600,10.741301513671877,-4.7482428550720215,-2.722853899002075,-4.339413166046143
1781033588154802200,10.76080224609375,2.7341508865356445,-4.791252136230469,1.8999710083007808
1781033588174304800,10.7803046875,7.227356910705566,-5.137031078338623,5.844502925872803
1781033588193811000,10.79981103515625,9.607565879821776,-5.303168773651123,6.3067169189453125
1781033588213317400,10.8193173828125,9.98166561126709,-2.4364030361175537,3.963131904602051
1781033588232822800,10.83882275390625,4.552525997161865,-0.3837150037288666,-0.4961839914321899
1781033588252322600,10.858322509765625,0.0791390016674995,0.1694950014352798,-0.7518879771232605
1781033588271823000,10.877822998046875,-1.9375499486923216,0.5371469855308533,1.9817670583724976
1781033588291327200,10.8973271484375,-2.2182509899139404,0.3058860003948211,3.747412919998169
1781033588310828800,10.916828857421876,-2.0609850883483887,-1.2324459552764893,5.282914161682129
1781033588330324000,10.936323974609374,-0.2301049977540969,-3.0832479000091557,5.120707035064697
1781033588349819100,10.955819091796876,1.603245973587036,-3.1621339321136475,4.560935020446777
1781033588369319700,10.975319580078123,1.7295739650726318,-2.9989891052246094,3.999239921569824
1781033588388823000,10.994822998046876,1.5943330526351929,-1.2018389701843262,3.6196699142456055
1781033588408321300,11.0143212890625,1.0386790037155151,1.0455540418624878,3.0610740184783936
1781033588427815400,11.0338154296875,-0.7671880125999451,1.6314940452575684,2.555279016494751
1781033588447313700,11.053313720703123,-1.3803329467773438,2.0987820625305176,2.3888840675354004
1781033588466815000,11.07281494140625,-1.9148099422454836,2.0146889686584477,2.3617539405822754
1781033588486316800,11.09231689453125,-1.7515250444412231,0.2415689975023269,2.6487979888916016
1781033588505822000,11.111822021484375,-1.4936870336532593,-0.1591479927301406,3.046835899353028
1781033588525325000,11.131324951171877,-1.0705629587173462,-0.5574139952659607,3.176254987716675
1781033588544825300,11.150825439453126,-0.5249990224838257,-0.6183239817619324,3.32427191734314
1781033588564334000,11.170333984375,-0.133991003036499,-0.521481990814209,3.501753091812134
1781033588583841000,11.189841064453123,1.5591599941253662,-0.375232994556427,3.5638020038604736
1781033588603342600,11.209342529296874,1.7761379480361938,-0.1207119971513748,3.57304310798645
1781033588622847700,11.22884765625,1.612805962562561,0.2305430024862289,3.198889970779419
1781033588642356500,11.2483564453125,0.9477739930152892,0.6576279997825623,2.513607978820801
1781033588661866000,11.267865966796874,-1.1333849430084229,1.0485759973526,2.1126880645751958
1781033588681374700,11.287374755859377,-2.9127719402313232,1.3721920251846311,2.0791289806365967
1781033588700883000,11.306883056640626,-2.7386419773101807,1.848989963531494,2.2396080493927
1781033588720390000,11.326389892578124,-1.3210300207138062,2.2607009410858154,2.5258660316467285
1781033588739897900,11.34589794921875,0.7745640277862549,2.4215118885040283,2.7254889011383057
1781033588759405600,11.365405517578123,2.4907500743865967,2.3887619972229004,2.7015209197998047
1781033588778915000,11.3849150390625,2.412584066390991,1.871070981025696,2.7767159938812256
1781033588798430500,11.404430419921876,2.412584066390991,1.871070981025696,2.7767159938812256
1781033588817945900,11.42394580078125,2.265434980392456,1.396113038063049,2.5231409072875977
1781033588837458400,11.44345849609375,2.265434980392456,1.396113038063049,2.5231409072875977
1781033588856966700,11.462966552734375,2.265434980392456,1.396113038063049,2.5231409072875977
1781033588876471600,11.482471435546875,-0.225609004497528,1.907917022705078,2.7554430961608887
1781033588895984400,11.501984375,-0.5929610133171082,0.1170009970664978,4.577744007110596
1781033588915499300,11.521499267578124,-0.457612007856369,-0.3436860144138336,4.760342121124268
1781033588935005200,11.541005126953126,-0.0044490001164376,-1.0252799987792969,6.362863063812256
1781033588954509300,11.56050927734375,0.5616649985313416,-1.660599946975708,6.603964805603027
1781033588974017000,11.58001708984375,1.1551350355148315,-1.8611470460891724,7.832996845245361
1781033588993524500,11.5995244140625,1.3953039646148682,-1.54558002948761,7.811580181121826
1781033589013028900,11.61902880859375,1.0469210147857666,-0.0607610009610652,7.712672233581543
1781033589032540200,11.6385400390625,-0.8766459822654724,1.6518019437789917,7.404854774475098
1781033589052055600,11.6580556640625,-3.127779960632324,1.9738949537277224,6.930618762969971
1781033589071566800,11.67756689453125,-5.061298847198486,3.856678009033203,6.404496192932129
1781033589091071000,11.697071044921875,-5.392685890197754,4.231547832489014,5.717711925506592
1781033589110571300,11.7165712890625,-5.362077236175537,4.741608142852783,4.815244197845459
1781033589130068700,11.73606884765625,-4.834107875823975,4.957559108734131,2.9366579055786133
1781033589149567200,11.755567138671877,-2.79599404335022,4.56565523147583,2.151861906051636
1781033589169070000,11.775070068359376,-2.096718072891236,2.7598140239715576,1.3219579458236694
1781033589188573200,11.7945732421875,-0.5887719988822937,0.9592880010604858,0.6382250189781189
1781033589208077600,11.81407763671875,-0.206494003534317,0.1887959986925125,0.1165530011057853
1781033589227584000,11.833583984375,0.1846349984407425,-1.3696140050888062,-0.2097750008106231
1781033589247089000,11.8530888671875,0.5150550007820129,-1.6804959774017334,-0.4047990143299103
1781033589266594000,11.872593994140624,0.7273520231246948,-1.9072940349578855,-0.6107959747314453
1781033589286099500,11.892099365234374,0.784958004951477,-1.9499269723892207,-0.8641589879989624
1781033589305607700,11.911607666015623,0.7621480226516724,-1.887431025505066,-1.128533959388733
1781033589325119200,11.931119140625,0.6767910122871399,-1.7904609441757202,-1.4014830589294434
1781033589344630800,11.950630859375,0.576108992099762,-1.6716599464416504,-1.653678059577942
1781033589364143900,11.970143798828126,0.4714860022068023,-1.6153600215911863,-1.8959970474243164
1781033589383655400,11.989655517578123,0.3716610074043274,-1.6226140260696411,-2.1149299144744877
1781033589403167000,12.0091669921875,0.4218280017375946,-1.7057859897613523,-2.3422350883483887
1781033589422674200,12.028674072265623,0.6565330028533936,-1.8220479488372805,-2.628314018249512
1781033589442178300,12.04817822265625,0.9445919990539552,-1.8974679708480835,-2.9044690132141118
1781033589461684700,12.067684814453123,1.1714680194854736,-1.9375159740448,-3.106862068176269
1781033589481191000,12.08719091796875,1.2889260053634644,-1.8702659606933596,-3.2370030879974365
1781033589500697900,12.10669775390625,1.252900004386902,-1.6961230039596558,-3.2648611068725586
1781033589520205600,12.12620556640625,1.168015956878662,-1.442365050315857,-3.1769111156463623
1781033589539716000,12.145716064453126,1.0204910039901731,-1.2149150371551514,-3.0328309535980225
1781033589559225900,12.165225830078125,0.768189013004303,-1.073114037513733,-2.8089559078216557
1781033589578734300,12.184734375,0.3993139863014221,-1.054321050643921,-2.570836067199707
1781033589598247400,12.204247314453124,0.3993139863014221,-1.054321050643921,-2.570836067199707
1781033589617761500,12.223761474609375,-0.1467529982328415,-1.2456690073013306,-2.2834889888763428
1781033589637271000,12.24327099609375,-0.1467529982328415,-1.2456690073013306,-2.2834889888763428
1781033589656781000,12.262781005859376,-0.1467529982328415,-1.2456690073013306,-2.2834889888763428
1781033589676296700,12.282296630859374,0.2783269882202148,-1.1929750442504885,-2.1494929790496826
1781033589695808800,12.301808837890626,-0.0113620003685355,-1.1917190551757812,-2.012712955474853
1781033589715319600,12.321319580078123,-0.542451024055481,-1.274590015411377,-1.9179869890213013
1781033589734830000,12.340830078125,-0.8525559902191162,-1.2543799877166748,-1.9289319515228271
1781033589754338800,12.3603388671875,-0.8172709941864014,-1.135388970375061,-2.0035719871521
1781033589773844000,12.379843994140623,-0.6279940009117126,-1.0172669887542725,-2.033879041671753
1781033589793352000,12.39935205078125,-0.4852139949798584,-0.9855390191078186,-2.0413119792938232
1781033589812865500,12.418865478515626,-0.5271440148353577,-1.0858019590377808,-2.0567429065704346
1781033589832374300,12.438374267578125,-0.6064910292625427,-1.2128740549087524,-2.0619089603424072
1781033589851883300,12.45788330078125,-0.5003820061683655,-1.1423569917678833,-2.0468499660491943
1781033589871393300,12.477393310546876,-0.2545129954814911,-0.9636330008506776,-2.0312509536743164
1781033589890900700,12.496900634765623,-0.0494709983468055,-0.8333389759063721,-2.002691984176636
1781033589910410200,12.51641015625,0.000607999972999,-0.6301530003547668,-1.9471379518508911
1781033589929916400,12.53591650390625,-0.0624199993908405,-0.51043301820755,-1.9219850301742556
1781033589949418000,12.55541796875,-0.2041269987821579,-0.4803819954395294,-1.8815189599990845
1781033589968919800,12.574919921875,-0.2504920065402984,-0.4173110127449035,-1.912307977676392
1781033589988425200,12.59442529296875,-0.2104689925909042,-0.4318419992923736,-2.024297952651977
1781033590007930600,12.6139306640625,-0.2710930109024048,-0.4796580076217651,-2.0844368934631348
1781033590027433700,12.633433837890625,-0.2424589991569519,-0.379390001296997,-2.0193541049957275
1781033590046940200,12.652940185546877,-0.1227689981460571,-0.2014230042695999,-1.843281984329224
1781033590066445600,12.672445556640625,-0.0613050013780593,-0.0643260031938552,-1.6878960132598877
1781033590085950200,12.6919501953125,-0.2011889964342117,-0.0188299994915723,-1.6105259656906128
1781033590105456400,12.711456298828123,-0.6223509907722473,-0.1827930063009262,-1.5762840509414673
1781033590124962000,12.730962158203123,-1.110563039779663,-0.435932993888855,-1.534427046775818
1781033590144471000,12.750470947265624,-1.3604429960250854,-0.6354749798774719,-1.4940340518951416
1781033590163977500,12.7699775390625,-1.1925430297851562,-0.7245969772338867,-1.5309239625930786
1781033590183484000,12.78948388671875,-0.6894909739494324,-0.6525750160217285,-1.6690789461135864
1781033590202993400,12.808993408203126,-0.2121800035238266,-0.5293710231781006,-1.83306097984314
1781033590222497500,12.82849755859375,-0.0076179997995495,-0.384768009185791,-1.929316997528076
1781033590242003500,12.84800341796875,-0.0611039996147155,-0.2141710072755813,-1.9235570430755613
1781033590261515000,12.867514892578123,-0.1910060048103332,0.0575659982860088,-1.8982770442962649
1781033590281026300,12.8870263671875,-0.2038969993591308,0.4455739855766296,-1.875054955482483
1781033590300541400,12.90654150390625,-0.1133830025792121,0.7642109990119934,-1.8620790243148804
1781033590320052000,12.926052001953124,-0.0507440008223056,0.9913430213928224,-1.9018590450286863
1781033590339557000,12.94555712890625,-0.0507440008223056,0.9913430213928224,-1.9018590450286863
1781033590359065600,12.965065673828123,-0.1298830062150955,1.0106780529022217,-1.8823120594024656
1781033590378572800,12.98457275390625,-0.0150439999997615,0.9726380109786988,-1.8757970333099363
1781033590398083800,13.004083740234377,-0.0150439999997615,0.9726380109786988,-1.8757970333099363
1781033590417596200,13.02359619140625,-0.0150439999997615,0.9726380109786988,-1.8757970333099363
1781033590437103000,13.04310302734375,0.2720339894294739,1.0287799835205078,-1.7907710075378418
1781033590456609800,13.06260986328125,0.12568299472332,0.9890000224113464,-1.677042007446289
1781033590476121000,13.08212109375,0.0143409995362162,0.8182820081710815,-1.5693060159683228
1781033590495631400,13.10163134765625,0.0433209985494613,0.6629509925842285,-1.513543963432312
1781033590515142000,13.121141845703123,0.0433209985494613,0.6629509925842285,-1.513543963432312
1781033590534652200,13.140652099609374,0.3004800081253052,0.5221549868583679,-1.2802640199661257
1781033590554160400,13.160160400390623,0.4476499855518341,0.6238390207290649,-1.069195032119751
1781033590573666600,13.17966650390625,0.4526099860668182,0.7222269773483276,-0.8332440257072449
1781033590593171000,13.1991708984375,0.3315080106258392,0.7663379907608032,-0.5611500144004822
1781033590612680700,13.2186806640625,0.0985580012202262,0.7884979844093323,-0.2884719967842102
1781033590632193800,13.23819384765625,-0.1684550046920776,0.8476729989051819,-0.0230579990893602
1781033590651706000,13.2577060546875,-0.3494400084018707,0.9078530073165894,0.1748490035533905
1781033590671220200,13.27722021484375,-0.4899260103702545,0.9580950140953064,0.3307990133762359
1781033590690729200,13.296729248046876,-0.5895950198173523,0.9448570013046264,0.4439260065555572
1781033590710235100,13.316235107421877,-0.6133049726486206,0.8458250164985657,0.5409179925918579
1781033590729744600,13.33574462890625,-0.6100080013275146,0.7273690104484558,0.6151760220527649
1781033590749255200,13.355255126953123,-0.5557569861412048,0.6444050073623657,0.6298059821128845
1781033590768764700,13.3747646484375,-0.4897440075874328,0.6218339800834656,0.6114109754562378
1781033590788276200,13.394276123046875,-0.446040004491806,0.6185770034790039,0.5867000222206116
1781033590807791000,13.413791015625,-0.3486270010471344,0.6606770157814026,0.5716069936752319
1781033590827304200,13.43330419921875,-0.2223040014505386,0.677033007144928,0.5734900236129761
1781033590846808300,13.452808349609375,-0.1467610001564026,0.6910009980201721,0.5390170216560364
1781033590866308400,13.472308349609374,-0.1588210016489029,0.6914730072021484,0.4735099971294403
1781033590885811000,13.49181103515625,-0.2842360138893127,0.604278028011322,0.3405469954013824
1781033590905318000,13.51131787109375,-0.3926739990711212,0.5043060183525085,0.1112259998917579
1781033590924822800,13.53082275390625,-0.3737959861755371,0.4150539934635162,-0.1712190061807632
1781033590944324600,13.55032470703125,-0.2652539908885956,0.3695929944515228,-0.5484529733657837
1781033590963828700,13.569828857421877,-0.1322360038757324,0.3705039918422699,-1.0027680397033691
1781033590983340000,13.589340087890625,-0.0409779995679855,0.4024479985237121,-1.5126830339431765
1781033591002854400,13.6088544921875,0.0272870007902383,0.4664700031280517,-2.090837001800537
1781033591022370600,13.62837060546875,0.0942279994487762,0.5540549755096436,-2.62539291381836
1781033591041886200,13.64788623046875,0.0905459970235824,0.6381809711456299,-3.1026461124420166
1781033591061398000,13.66739794921875,0.0180300008505582,0.7064489722251892,-3.4919450283050537
1781033591080908000,13.686907958984374,-0.112185999751091,0.7082809805870056,-3.759800910949707
1781033591100414200,13.706414306640625,-0.1965959966182708,0.6927329897880554,-4.042869091033936
1781033591119916500,13.72591650390625,-0.14826600253582,0.6875380277633667,-4.264565944671631
1781033591139420200,13.745420166015624,-0.14826600253582,0.6875380277633667,-4.264565944671631
1781033591158926800,13.7649267578125,0.0468389987945556,0.7023829817771912,-4.534660816192627
1781033591178433800,13.784433837890624,0.0468389987945556,0.7023829817771912,-4.534660816192627
1781033591197944300,13.8039443359375,0.0468389987945556,0.7023829817771912,-4.534660816192627
1781033591217451000,13.823450927734376,-0.149055004119873,0.7182809710502625,-4.67808723449707
1781033591236956000,13.842955810546876,-0.149055004119873,0.7182809710502625,-4.67808723449707
1781033591256463600,13.862463623046876,-0.246286004781723,0.7927500009536743,-4.972257137298584
1781033591275976400,13.8819765625,-0.3842099905014038,0.8383089900016785,-4.942887783050537
1781033591295489500,13.901489501953124,-0.7941960096359253,0.8710340261459351,-4.891763210296631
1781033591314998800,13.920998779296877,-0.7941960096359253,0.8710340261459351,-4.891763210296631
1781033591334510000,13.940510009765624,-4.803487777709961,0.5642989873886108,-5.007795810699463
1781033591354024000,13.96002392578125,-6.54405689239502,0.6619319915771484,-4.636920928955078
1781033591373534500,13.979534423828126,-1.5727269649505615,0.4746400117874145,-0.6135669946670532
1781033591393047000,13.999047119140624,0.7780749797821045,-1.4898600578308103,4.951986789703369
1781033591412558300,14.018558349609377,5.61053991317749,-1.687880039215088,5.427731037139893
1781033591432064300,14.038064208984377,7.42532205581665,-1.885573983192444,5.264591217041016
1781033591451566600,14.057566650390624,2.8900508880615234,-1.47508704662323,2.2001171112060547
1781033591471072300,14.077072265625,2.501462936401367,0.7898430228233337,-0.1112459972500801
1781033591490581800,14.096581787109375,-1.16457200050354,1.3069610595703125,0.1188730001449585
1781033591510091500,14.116091552734376,-1.7930619716644287,1.3544880151748655,2.525221109390259
1781033591529600800,14.135600830078126,-1.990913987159729,1.0461080074310305,3.126763105392456
1781033591549114400,14.1551142578125,-1.4627809524536133,0.6129549741744995,3.388669967651367
1781033591568631300,14.17463134765625,0.9255279898643494,0.1996970027685165,3.221443891525269
1781033591588145000,14.194144775390624,3.081214904785156,-0.2212059944868087,2.8558549880981445
1781033591607653400,14.2136533203125,3.607243061065674,-0.7349230051040649,2.711992025375366
1781033591627163100,14.2331630859375,3.866106986999512,-1.21111798286438,2.636106014251709
1781033591646676700,14.2526767578125,3.7815990447998047,-1.348461031913757,2.547780990600586
1781033591666190800,14.27219091796875,3.417673110961914,-1.072947978973389,2.575377941131592
1781033591685703700,14.29170361328125,1.408898949623108,-0.4747349917888641,2.5048959255218506
1781033591705214500,14.31121435546875,-0.5482500195503235,0.9217069745063782,2.4049808979034424
1781033591724722400,14.330722412109376,-1.0628039836883545,0.8855609893798828,2.591649055480957
1781033591744224500,14.350224609375,-2.7607638835906982,0.7165200114250183,2.797727108001709
1781033591763731000,14.36973095703125,-2.7530770301818848,0.5887129902839661,2.868299961090088
1781033591783241000,14.389240966796876,-2.5683529376983643,0.5635089874267578,3.072258949279785
1781033591802752000,14.408751953125,-2.535598993301392,0.5538750290870667,3.20053505897522
1781033591822260200,14.42826025390625,-2.4699549674987797,0.3427329957485199,3.2911369800567627
1781033591841767000,14.447766845703123,-2.404514074325561,-0.1765200048685073,3.5884780883789062
1781033591861279200,14.467279296875,-2.1146020889282227,-0.7681540250778198,3.7466790676116943
1781033591880791800,14.486791748046874,-0.3476319909095764,-1.1017969846725464,3.667124032974243
1781033591900302800,14.506302734375,-0.2064380049705505,-1.1856290102005005,3.5574400424957275
1781033591919815700,14.525815673828124,-0.2064380049705505,-1.1856290102005005,3.5574400424957275
1781033591939329300,14.545329345703124,0.0095389997586607,-1.268162965774536,3.915815114974976
1781033591958840600,14.564840576171877,-0.0367729999125003,-1.4914849996566772,3.8173959255218506
1781033591978354000,14.58435400390625,-0.0367729999125003,-1.4914849996566772,3.8173959255218506
1781033591997868500,14.60386865234375,2.4801459312438965,-2.253881931304932,4.165279865264893
1781033592017382000,14.6233818359375,2.4801459312438965,-2.253881931304932,4.165279865264893
1781033592036893200,14.64289306640625,4.475918769836426,-2.215717077255249,4.443041801452637
1781033592056399600,14.662399658203125,4.305552959442139,-1.7450549602508545,4.665850162506104
1781033592075911200,14.6819111328125,2.723217010498047,0.3854790031909942,4.955793857574463
1781033592095427000,14.701427001953125,0.9787330031394958,0.8814020156860352,5.172852993011475
1781033592114944300,14.7209443359375,0.9787330031394958,0.8814020156860352,5.172852993011475
1781033592134456800,14.740456787109377,-0.9754300117492676,1.8200600147247317,5.671807765960693
1781033592153968000,14.759968017578124,-1.3393540382385254,1.770967960357666,5.999503135681152
1781033592173484000,14.779484130859377,-1.9608550071716309,1.214480996131897,7.284057140350342
1781033592192999000,14.7989990234375,-2.4983010292053223,0.599897027015686,7.245979785919189
1781033592212515800,14.818515869140626,-2.6625800132751465,0.1770360022783279,7.110432147979736
1781033592232036600,14.83803662109375,-2.4961400032043457,-0.1181199997663497,6.98078203201294
1781033592251553500,14.857553466796874,-2.33980393409729,-0.3426640033721924,6.824739933013916
1781033592271069000,14.87706884765625,-2.438647985458374,-0.4224860072135925,6.79102087020874
1781033592290581800,14.896581787109374,-2.681489944458008,-0.0564250014722347,6.817594051361084
1781033592310089700,14.91608984375,-3.033010959625244,1.876827955245972,6.510775089263916
1781033592329600500,14.9356005859375,-3.494072914123535,3.866292953491211,5.86564302444458
1781033592349111800,14.95511181640625,-3.8922600746154794,4.34543514251709,4.914401054382324
1781033592368623400,14.974623291015623,-4.103182792663574,4.2297868728637695,2.852905035018921
1781033592388138200,14.99413818359375,-4.0191168785095215,2.1243999004364014,2.372680902481079
1781033592407649000,15.01364892578125,-3.4282150268554688,0.3892109990119934,1.8386629819869995
1781033592427156700,15.03315673828125,-1.433758020401001,-0.0352940000593662,1.257815957069397
1781033592446672400,15.05267236328125,-0.8018699884414673,-0.5084720253944397,0.6259030103683472
1781033592466189000,15.07218896484375,-0.2278140038251876,-0.9862229824066162,0.0876540020108223
1781033592485701600,15.09170166015625,0.0017729999963194,-1.3144140243530271,-0.3359479904174804
1781033592505214000,15.1112138671875,0.0524680018424987,-1.3496869802474976,-0.6426370143890381
1781033592524726500,15.1307265625,0.0177970007061958,-1.006790041923523,-0.9694859981536864
1781033592544241400,15.150241455078126,-0.1279769986867904,-0.6076059937477112,-1.303547978401184
1781033592563760000,15.169760009765625,-0.2153500020503997,-0.5907160043716431,-1.4965389966964722
1781033592583278300,15.1892783203125,-0.2276120036840438,-0.8958060145378113,-1.6249159574508667
1781033592602792200,15.208792236328126,0.0096209999173879,-1.236415982246399,-1.817296028137207
1781033592622303700,15.2283037109375,0.3899050056934356,-1.4453190565109253,-2.092392921447754
1781033592641817900,15.24781787109375,0.7157359719276428,-1.5613349676132202,-2.380132913589477
1781033592661330200,15.267330078125,0.9332209825515748,-1.704463005065918,-2.6223719120025635
1781033592680841700,15.286841796875,1.1186339855194092,-1.923912048339844,-2.7631850242614746
1781033592700351200,15.306351318359376,1.3329169750213623,-1.9990290403366089,-2.958961009979248
1781033592719861200,15.325861328125,1.5439239740371704,-1.8366600275039675,-3.2462921142578125
1781033592739371000,15.34537109375,1.5439239740371704,-1.8366600275039675,-3.2462921142578125
1781033592758873900,15.364873779296875,1.5685620307922363,-1.6891759634017944,-3.7300350666046143
1781033592778374700,15.384374755859374,1.5771360397338867,-1.8074500560760496,-3.794776916503906
1781033592797880800,15.403880859375,1.5771360397338867,-1.8074500560760496,-3.794776916503906
1781033592817390300,15.423390380859376,1.700134038925171,-1.723430037498474,-3.939129114151001
1781033592836899600,15.442899658203125,1.700134038925171,-1.723430037498474,-3.939129114151001
1781033592856407600,15.462407470703123,1.700134038925171,-1.723430037498474,-3.939129114151001
1781033592875915000,15.4819150390625,1.1061290502548218,-2.171149969100952,-4.05914306640625
1781033592895420000,15.501419921875,0.955390989780426,-2.18159294128418,-3.963963031768799
1781033592914920400,15.52092041015625,0.8262559771537781,-1.962183952331543,-3.938035011291504
1781033592934420000,15.540419921875,0.5721039772033691,-1.7062890529632568,-3.924290895462036
1781033592953922800,15.5599228515625,0.0839790031313896,-1.591117024421692,-3.787076950073242
1781033592973428500,15.579428466796877,-0.4587889909744262,-1.572044014930725,-3.608207941055298
1781033592992936000,15.59893603515625,-0.8012369871139526,-1.4993059635162354,-3.4656550884246826
1781033593012447000,15.618447021484377,-0.8091269731521606,-1.3970580101013184,-3.3724730014801025
1781033593031956000,15.6379560546875,-0.5385239720344543,-1.2509609460830688,-3.242785930633545
1781033593051460600,15.657460693359376,-0.223813995718956,-1.1457509994506836,-3.043134927749634
1781033593070965500,15.676965576171876,-0.0789740011096,-1.122730016708374,-2.806873083114624
1781033593090470100,15.69647021484375,-0.1479189991950988,-1.1098120212554932,-2.5962889194488525
1781033593109970700,15.715970703125,-0.2159619927406311,-1.036607027053833,-2.490756034851074
1781033593129472000,15.735471923828126,-0.1380130052566528,-0.9571660161018372,-2.4977760314941406
1781033593148975900,15.754975830078124,0.035250000655651,-0.859637975692749,-2.558378934860229
1781033593168479000,15.77447900390625,0.1732670068740844,-0.6488109827041626,-2.571794033050537
1781033593187988500,15.793988525390626,0.1484179943799972,-0.3956330120563507,-2.5334389209747314
1781033593207501800,15.813501708984376,-0.1217449977993965,-0.0558479987084865,-2.427488088607788
1781033593227016000,15.833015869140626,-0.5216169953346252,0.3703629970550537,-2.2978429794311523
1781033593246526500,15.8525263671875,-0.8578709959983826,0.7517420053482056,-2.2312169075012207
1781033593266034400,15.872034423828126,-1.1011279821395874,0.9058769941329956,-2.1847829818725586
1781033593285545000,15.891544921875,-1.2164700031280518,0.8225749731063843,-2.139317035675049
1781033593305054700,15.9110546875,-1.1963809728622437,0.5488799810409546,-2.104882001876831
1781033593324563500,15.9305634765625,-1.0950219631195068,0.1905129998922348,-2.068511962890625
1781033593344074500,15.950074462890624,-0.8718709945678711,-0.0245939996093511,-2.0680549144744877
1781033593363585300,15.969585205078126,-0.5608659982681274,-0.0935930013656616,-2.055871963500977
1781033593383091200,15.98909130859375,-0.190310999751091,-0.0257520005106925,-2.0262129306793213
1781033593402595800,16.008595947265626,0.1224410012364387,0.1869180053472519,-1.9990129470825195
1781033593422100200,16.028100341796875,0.2527270019054413,0.4964280128479004,-1.96185302734375
1781033593441608200,16.047608154296874,0.2316219955682754,0.8643820285797119,-1.871925950050354
1781033593461123800,16.067123779296875,0.1335210055112838,1.1517070531845093,-1.6885310411453247
1781033593480635400,16.086635498046874,-0.0389709994196891,1.2534610033035278,-1.3863539695739746
1781033593500146400,16.106146484375,-0.1686310023069381,1.183097004890442,-1.040578007698059
1781033593519659300,16.1256591796875,-0.1686310023069381,1.183097004890442,-1.040578007698059
1781033593539169000,16.1451689453125,-0.2506200075149536,0.9450989961624146,-0.4479990005493164
1781033593558676500,16.164676513671875,-0.2146659940481186,0.9837769865989684,-0.2723689973354339
1781033593578179600,16.1841796875,-0.2146659940481186,0.9837769865989684,-0.2723689973354339
1781033593597685200,16.203685302734375,-0.2464040070772171,1.0018689632415771,-0.1249630004167556
1781033593617197000,16.223197021484374,-0.2464040070772171,1.0018689632415771,-0.1249630004167556
1781033593636708600,16.24270849609375,-0.2365940064191818,0.6178299784660339,-0.216727003455162
1781033593656219000,16.262218994140625,-0.0581820011138916,0.4060859978199005,-0.3021849989891052
1781033593675729400,16.2817294921875,0.1622910052537918,0.2938179969787597,-0.4331089854240417
1781033593695238400,16.30123828125,0.3234510123729706,0.2668879926204681,-0.568120002746582
1781033593714746000,16.32074609375,0.3786529898643493,0.3040609955787658,-0.6331310272216797
1781033593734252800,16.340252685546876,0.3699440062046051,0.3742150068283081,-0.6229429841041565
1781033593753761500,16.359761474609375,0.29475998878479,0.4938380122184753,-0.6007699966430664
1781033593773270500,16.3792705078125,0.26767298579216,0.6628760099411011,-0.5590410232543945
1781033593792778000,16.398778076171876,0.2393990010023117,0.8035650253295898,-0.5681170225143433
1781033593812283100,16.418283203125,0.2308519929647445,0.8932070136070251,-0.6149119734764099
1781033593831786000,16.437785888671876,0.3250809907913208,0.9246749877929688,-0.6578599810600281
1781033593851294200,16.457294189453126,0.3712379932403564,0.8891230225563049,-0.7079359889030457
1781033593870806000,16.476805908203126,0.3383840024471283,0.8199380040168762,-0.7320579886436462
1781033593890313700,16.496313720703125,0.2213979959487915,0.7779489755630493,-0.6832699775695801
1781033593909820700,16.515820556640627,-0.0059850001707673,0.7516980171203613,-0.5987870097160339
1781033593929326300,16.535326416015625,-0.173111006617546,0.7464879751205444,-0.5208550095558167
1781033593948834000,16.554833984375,-0.2032539993524551,0.7505720257759094,-0.4516049921512604
1781033593968341000,16.574341064453126,-0.2514249980449676,0.7626699805259705,-0.4415119886398315
1781033593987848400,16.593848388671876,-0.2724319994449615,0.8208010196685791,-0.448848009109497
1781033594007358700,16.613358642578124,-0.3409999907016754,0.8550699949264526,-0.4011470079421997
1781033594026867500,16.632867431640626,-0.435914009809494,0.9108750224113464,-0.3303619921207428
1781033594046374400,16.65237451171875,-0.4359380006790161,0.908801019191742,-0.30138099193573
1781033594065881600,16.671881591796875,-0.3937000036239624,0.8795520067214966,-0.3472160100936889
1781033594085389300,16.691389404296874,-0.3808499872684479,0.941744029521942,-0.4425320029258728
1781033594104897800,16.710897705078125,-0.4880250096321106,1.0276390314102173,-0.5237849950790405
1781033594124408000,16.730407958984376,-0.6215239763259888,1.1199640035629272,-0.5872529745101929
1781033594143917800,16.749917724609375,-0.7120749950408936,1.185142993927002,-0.6289529800415039
1781033594163428400,16.769428466796874,-0.726269006729126,1.1708040237426758,-0.6706129908561707
1781033594182940200,16.788940185546874,-0.6359779834747314,1.079332947731018,-0.7471190094947815
1781033594202443500,16.808443603515624,-0.5263090133666992,1.052600979804993,-0.8222259879112244
1781033594221948700,16.82794873046875,-0.4647200107574463,1.0872329473495483,-0.8878009915351868
1781033594241458000,16.8474580078125,-0.4599049985408783,1.0777289867401123,-0.9034079909324646
1781033594260967000,16.866966796875,-0.4550400078296661,1.0392099618911743,-0.893867015838623
1781033594280474000,16.88647412109375,-0.4065639972686767,0.9456549882888794,-0.8597220182418823
1781033594299980300,16.905980224609376,-0.3257780075073242,0.7931219935417175,-0.8110030293464661
1781033594319492600,16.92549267578125,-0.1068219989538192,0.6318640112876892,-0.8741310238838196
1781033594339007500,16.945007568359376,0.1554149985313415,0.5164790153503418,-1.0524400472640991
1781033594358518000,16.96451806640625,0.3141129910945892,0.362978994846344,-1.2729259729385376
1781033594378024400,16.9840244140625,0.3141129910945892,0.362978994846344,-1.2729259729385376
1781033594397532400,17.003532470703124,0.3141129910945892,0.362978994846344,-1.2729259729385376
1781033594417040400,17.023040283203127,-0.091558001935482,0.1431950032711029,-2.1545939445495605
1781033594436546300,17.04254638671875,-0.2602860033512115,0.222352996468544,-2.293204069137573
1781033594456052000,17.062052001953123,-0.2806290090084076,0.3361980020999908,-2.4033010005950928
1781033594475559200,17.08155908203125,-0.2679179906845093,0.4903039932250976,-2.6740260124206543
1781033594495071000,17.101071044921873,-0.375789999961853,0.5485950112342834,-4.288261890411377
1781033594514587000,17.1205869140625,-0.5837039947509766,0.5823240280151367,-5.72313404083252
1781033594534099500,17.140099365234374,-0.8616650104522705,0.6186699867248535,-6.048226833343506
1781033594553609700,17.159609619140625,-1.231829047203064,0.6429550051689148,-6.46104097366333
1781033594573123000,17.179123046875,-1.6304420232772827,0.7127929925918579,-6.665947914123535
1781033594592637700,17.1986376953125,-2.0106449127197266,0.7654489874839783,-6.537560939788818
1781033594612151300,17.2181513671875,-2.3652288913726807,0.7285889983177185,-6.186316967010498
1781033594631661600,17.23766162109375,-2.811729907989502,0.6409590244293213,-5.883752822875977
1781033594651169800,17.257169677734375,-4.232944011688232,0.4800370037555694,-5.56324577331543
1781033594670681600,17.276681640625,0.1285839974880218,0.1396619975566864,-2.8236989974975586
1781033594690193000,17.29619287109375,4.829843997955322,-0.2055020034313202,3.01657509803772
1781033594709703200,17.315703125,8.85897445678711,-0.4370529949665069,5.575085163116455
1781033594729211400,17.33521142578125,12.411681175231934,-2.7785658836364746,5.916304111480713
1781033594748724200,17.35472412109375,8.46320915222168,-3.18967604637146,4.006866931915283
1781033594768243200,17.3742431640625,3.192728042602539,-3.374973058700561,-0.4971309900283813
1781033594787760600,17.3937607421875,-2.693077087402344,-1.7256269454956057,-1.9112520217895508
1781033594807273000,17.41327294921875,-8.756719589233398,0.3567349910736084,0.7419649958610535
1781033594826786600,17.43278662109375,-8.648916244506836,2.2864699363708496,2.6721460819244385
1781033594846298400,17.45229833984375,-8.189108848571777,2.300209045410156,4.407908916473389
1781033594865806300,17.471806396484375,-3.423957109451294,0.6961629986763,4.719204902648926
1781033594885316000,17.491316162109374,1.7322989702224731,0.1816219985485077,4.514877796173096
1781033594904825900,17.510825927734373,3.426182985305786,-1.7779409885406494,2.870755910873413
1781033594924332800,17.530332763671876,7.518943786621094,-3.325434923171997,2.510370969772339
1781033594943837200,17.549837158203125,7.886218070983887,-3.6864850521087646,2.2360260486602783
1781033594963341300,17.56934130859375,8.109772682189941,-3.9821250438690186,2.1079699993133545
1781033594982846700,17.5888466796875,7.672691822052002,-3.624898910522461,2.128006935119629
1781033595002354700,17.608354736328124,2.6323659420013428,-1.468572974205017,2.249872922897339
1781033595021867000,17.627866943359376,0.5197330117225647,0.1949619948863983,2.3137969970703125
1781033595041381600,17.647381591796876,-2.099325895309448,0.4043439924716949,2.422579050064087
1781033595060894700,17.666894775390624,-4.028442859649658,0.3880859911441803,2.7330360412597656
1781033595080404000,17.686404052734375,-4.070034027099609,0.1245360001921653,2.946446895599365
1781033595099909400,17.705909423828125,-3.5975420475006104,-0.2157589942216873,3.101628065109253
1781033595119416000,17.725416015625,-2.109797954559326,-0.3425439894199371,3.336636066436768
1781033595138926800,17.7449267578125,-1.855388045310974,-0.2417600005865097,3.465573072433472
1781033595158436900,17.764436767578125,-1.8434760570526123,-0.0639730021357536,3.60815691947937
1781033595177943600,17.783943603515624,-1.8434760570526123,-0.0639730021357536,3.60815691947937
1781033595197453000,17.803453125,-2.5722360610961914,-0.1150399968028068,3.557523012161255
1781033595216962800,17.822962890625,-2.645030975341797,-0.390731006860733,3.233910083770752
1781033595236472800,17.842472900390625,-2.645030975341797,-0.390731006860733,3.233910083770752
1781033595255981800,17.86198193359375,1.3294850587844849,-0.7401940226554871,2.46950101852417
1781033595275493600,17.88149365234375,3.090708017349243,-0.5684660077095032,2.0730481147766118
1781033595295008300,17.90100830078125,4.823825836181641,-0.0097359996289014,1.8144489526748655
1781033595314516200,17.92051611328125,5.084068775177002,1.7632999420166016,1.7120330333709717
1781033595334019600,17.94001953125,5.05940580368042,2.0432870388031006,1.9278210401535036
1781033595353524700,17.959524658203126,3.258946895599365,2.10538101196289,2.384183883666992
1781033595373033700,17.97903369140625,2.8129971027374268,1.9412360191345213,2.874690055847168
1781033595392545500,17.998545654296876,1.085476994514465,1.501109004020691,4.654759883880615
1781033595431567400,18.0375673828125,0.1462620049715042,1.048753023147583,4.9533371925354
1781033595451074300,18.05707421875,-0.1943289935588836,1.1397119760513306,4.975377082824707
1781033595470580700,18.07658081054688,-0.6036869883537292,1.290205001831055,4.851728916168213
1781033595490089200,18.096089111328126,-0.9969459772109984,1.601498007774353,4.744341850280762
1781033595509598200,18.11559814453125,-1.3271269798278809,1.9703409671783447,4.9618239402771
1781033595529104600,18.135104736328124,-1.8007689714431765,2.345870018005371,6.348083972930908
1781033595548616400,18.154616455078123,-2.2701950073242188,2.66813588142395,7.901577949523926
1781033595568133600,18.17413354492188,-2.556489944458008,2.8773748874664307,7.849955081939697
1781033595587645200,18.19364526367188,-2.760256052017212,3.035749912261963,7.647712230682373
1781033595607152400,18.21315234375,-2.8668088912963867,2.9963440895080566,7.256427764892578
1781033595626661600,18.23266162109375,-2.770975112915039,2.9581120014190674,6.682511806488037
1781033595646170600,18.25217065429688,-2.6251399517059326,2.8830490112304688,6.0754218101501465
1781033595665678600,18.2716787109375,-2.435260057449341,2.582195997238159,5.522756099700928
1781033595685188400,18.291188232421877,-2.109576940536499,2.0588409900665283,4.94904088973999
1781033595704697900,18.31069775390625,-1.7851920127868652,1.3210550546646118,4.220855236053467
1781033595724209000,18.330208984375,-1.4846429824829102,0.6299070119857788,2.203183889389038
1781033595743719000,18.349718994140623,-1.221474051475525,0.1138669997453689,1.6686550378799438
1781033595763227400,18.369227294921878,-1.0307940244674685,-0.2347850054502487,0.9842600226402284
1781033595782742500,18.388742431640622,-0.88086998462677,-0.5509570240974426,0.3895480036735534
1781033595802257700,18.40825756835937,-0.7384160161018372,-0.7989270091056824,-0.051325999200344
1781033595821768700,18.42776879882813,-0.6281669735908508,-0.941682994365692,-0.3969610035419464
1781033595841279500,18.447279541015625,-0.5833719968795776,-1.1171129941940308,-0.6608269810676575
1781033595860788200,18.466788330078124,-0.5403599739074707,-1.3827060461044312,-0.9361209869384766
1781033595880294100,18.48629418945313,-0.3403880000114441,-1.854280948638916,-1.1919620037078855
1781033595899797800,18.5057978515625,-0.3403880000114441,-1.854280948638916,-1.1919620037078855
1781033595919300400,18.52530029296875,0.5482810139656067,-2.73341703414917,-1.740079045295715
1781033595938799600,18.544799560546878,0.8995339870452881,-2.9074699878692627,-1.9351919889450075
1781033595958304500,18.564304443359376,0.8995339870452881,-2.9074699878692627,-1.9351919889450075
1781033595977814300,18.58381420898437,0.8995339870452881,-2.9074699878692627,-1.9351919889450075
1781033595997325600,18.60332568359375,1.3418910503387451,-2.523322105407715,-2.2534019947052
1781033596016842000,18.622842041015623,1.470559000968933,-2.0199759006500244,-2.642193078994751
1781033596036355800,18.64235595703125,1.470559000968933,-2.0199759006500244,-2.642193078994751
1781033596055867400,18.661867431640623,0.8358110189437866,-1.5413219928741455,-3.0944418907165527
1781033596075381500,18.681381591796875,0.5003349781036377,-1.5200170278549194,-3.153477907180786
1781033596094895600,18.7008955078125,0.5049939751625061,-1.421635985374451,-3.236885070800781
1781033596114410800,18.72041064453125,0.755748987197876,-1.3326959609985352,-3.402721881866455
1781033596133926400,18.739926513671875,0.9592199921607972,-1.265504002571106,-3.5520670413970947
1781033596153443600,18.759443603515624,0.8129770159721375,-1.3066439628601074,-3.659719944000244
1781033596172958000,18.7789580078125,0.4550150036811828,-1.5232980251312256,-3.626991033554077
1781033596192471800,18.798471923828124,0.1767420023679733,-1.7625010013580322,-3.5231029987335205
1781033596211985700,18.817985595703124,0.1416109949350357,-1.953806042671204,-3.464034080505371
1781033596231498800,18.83749877929688,0.2506720125675201,-2.078458070755005,-3.4356789588928223
1781033596251010600,18.85701049804688,0.3292289972305298,-2.159509897232056,-3.484204053878784
1781033596270519800,18.876519775390623,0.3149900138378143,-2.157680034637451,-3.577544927597046
1781033596290028000,18.896028076171877,0.2199140042066574,-1.9862509965896609,-3.724008083343506
1781033596309531100,18.91553125,0.1265079975128173,-1.70688796043396,-3.880290985107422
1781033596329031700,18.93503173828125,-0.0086500002071261,-1.3653329610824585,-3.913296937942505
1781033596348537000,18.954537109375,-0.2011339962482452,-1.0896869897842407,-3.80334210395813
1781033596368046000,18.974046142578125,-0.3927029967308044,-0.9497500061988832,-3.618259906768799
1781033596387557000,18.99355712890625,-0.5274760127067566,-0.9126840233802797,-3.4227659702301025
1781033596407068200,19.013068115234372,-0.4938620030879974,-0.8779839873313904,-3.339898109436035
1781033596426585300,19.03258544921875,-0.3792810142040252,-0.7819849848747253,-3.3785619735717773
1781033596446102800,19.052102783203125,-0.302621990442276,-0.6562240123748779,-3.4427120685577397
1781033596465612500,19.071612548828124,-0.2994729876518249,-0.5192310214042664,-3.431370973587036
1781033596485126100,19.091126220703124,-0.2975369989871979,-0.4131079912185669,-3.34846305847168
1781033596504642800,19.110642822265625,-0.2325190007686615,-0.3931699991226196,-3.234273910522461
1781033596524155000,19.13015478515625,-0.0506259985268116,-0.4748719930648803,-3.127336025238037
1781033596543667700,19.149667724609376,0.2129800021648407,-0.5627670288085938,-3.050417900085449
1781033596563179000,19.169178955078124,0.4094739854335785,-0.5975149869918823,-2.9171950817108154
1781033596582691000,19.18869116210937,0.5398280024528503,-0.4988619983196258,-2.679975986480713
1781033596602209000,19.208208984375,0.5731649994850159,-0.2194489985704422,-2.470176935195923
1781033596621721900,19.227721923828124,0.4256500005722046,0.1301860064268112,-2.295766115188598
1781033596641229800,19.247229736328126,0.1278509944677353,0.4270820021629333,-2.134774923324585
1781033596660741600,19.26674169921875,-0.3026550114154815,0.6384369730949402,-1.9967509508132932
1781033596680254500,19.28625439453125,-0.7054849863052368,0.8089050054550171,-1.8170759677886963
1781033596699770400,19.305770263671874,-0.7054849863052368,0.8089050054550171,-1.8170759677886963
1781033596719286800,19.32528686523437,-0.9010339975357056,0.984611988067627,-1.6042239665985107
1781033596738801700,19.3448017578125,-0.9010339975357056,0.984611988067627,-1.6042239665985107
1781033596758314500,19.364314453125,-0.759090006351471,1.086069941520691,-1.713088035583496
1781033596777824800,19.38382470703125,-0.6802979707717896,1.053393006324768,-1.471943974494934
1781033596797336600,19.403336669921877,-0.6802979707717896,1.053393006324768,-1.471943974494934
1781033596816846800,19.422846923828125,-0.4946970045566559,0.9682689905166626,-1.2384190559387207
1781033596836357600,19.442357666015624,-0.4946970045566559,0.9682689905166626,-1.2384190559387207
1781033596855873800,19.46187377929688,-0.3847379982471466,0.9384459853172302,-1.0912580490112305
1781033596875393800,19.48139379882813,-0.3598729968070984,1.0119110345840454,-0.8751999735832214
1781033596894908400,19.500908447265623,-0.3257839977741241,1.099668025970459,-0.5944030284881592
1781033596914423800,19.520423828125,-0.3081650137901306,1.166648030281067,-0.346096009016037
1781033596933941800,19.539941650390624,-0.4194830060005188,1.1570019721984863,-0.1245549991726875
1781033596953456000,19.5594560546875,-0.5899819731712341,1.1036529541015625,0.0508549995720386
1781033596972966000,19.5789658203125,-0.6804699897766113,1.0745559930801392,0.0993779972195625
1781033596992474400,19.59847436523437,-0.5384489893913269,1.14382803440094,0.0381949990987777
1781033597011982800,19.61798291015625,-0.1701519936323166,1.3332639932632446,-0.1586730033159256
1781033597031493400,19.637493408203124,0.1361470073461532,1.5095529556274414,-0.3566229939460754
1781033597051004200,19.657004150390627,0.143882006406784,1.6302069425582886,-0.4381709992885589
1781033597070515000,19.67651489257813,-0.0855849981307983,1.6027640104293823,-0.4573970139026642
1781033597090026000,19.69602587890625,-0.4139949977397918,1.38052499294281,-0.4209820032119751
1781033597109535500,19.715535400390625,-0.5820549726486206,1.100667953491211,-0.4614990055561065
1781033597129046000,19.7350458984375,-0.4494859874248504,0.7975080013275146,-0.5973950028419495
1781033597148556000,19.75455615234375,-0.1621560007333755,0.5515459775924683,-0.681302011013031
1781033597168069000,19.774069091796875,0.1789350062608719,0.4164879918098449,-0.6520839929580688
1781033597187580700,19.79358056640625,0.4185700118541717,0.3078359961509704,-0.467177003622055
1781033597207087400,19.81308740234375,0.4913130104541778,0.1992509961128235,-0.2315409928560257
1781033597226596900,19.832596923828124,0.4335730075836181,0.0820109993219375,-0.063458003103733
1781033597246106000,19.852106201171875,0.2856869995594024,0.0132619999349117,0.0686869993805885
1781033597265615400,19.871615478515626,0.0531620010733604,0.0524009987711906,0.170983999967575
1781033597285124400,19.891124267578125,-0.1632719933986663,0.1714639961719513,0.3070720136165619
1781033597304630000,19.910630126953127,-0.3309589922428131,0.3713839948177337,0.4842410087585449
1781033597324140500,19.930140625,-0.4768129885196686,0.5900290012359619,0.6986290216445923
1781033597343651800,19.94965185546875,-0.4332030117511749,0.7486410140991211,0.884037971496582
1781033597363159300,19.9691591796875,-0.3770239949226379,0.8177989721298218,0.9994369745254515
1781033597382668300,19.988668212890627,-0.2869830131530761,0.8216249942779541,1.0193480253219604
1781033597402177500,20.00817749023437,-0.1504999995231628,0.8096150159835815,0.8740329742431641
1781033597421682700,20.0276826171875,-0.1196769997477531,0.7711690068244934,0.6527479887008667
1781033597441190400,20.0471904296875,-0.0279290005564689,0.7058650255203247,0.4681450128555298
1781033597460700400,20.066700439453125,0.0917129963636398,0.6132490038871765,0.3401010036468506
1781033597480211500,20.08621142578125,0.1638080030679702,0.4962979853153229,0.2615920007228851
1781033597499726000,20.10572607421875,0.1638080030679702,0.4962979853153229,0.2615920007228851
1781033597519238400,20.12523828125,0.1329589933156967,0.4082080125808716,0.0707290023565292
1781033597538748200,20.144748046875,0.0734810009598732,0.4145329892635345,-0.1482689976692199
1781033597558258700,20.1642587890625,0.0674749985337257,0.4400889873504638,-0.3739640116691589
1781033597577766000,20.183765869140625,0.1078799962997436,0.3770689964294433,-0.514756977558136
1781033597597270800,20.203270751953124,0.1078799962997436,0.3770689964294433,-0.514756977558136
1781033597616774400,20.2227744140625,0.1078799962997436,0.3770689964294433,-0.514756977558136
1781033597636279800,20.24227978515625,0.1677439957857132,0.1302549988031387,-1.0314860343933103
1781033597655788500,20.26178857421875,0.1081729978322982,-0.0277210008352994,-1.2493629455566406
1781033597675296800,20.281296875,0.0342090018093586,-0.1444109976291656,-1.5059150457382202
1781033597694805500,20.300805419921875,-0.0639640018343925,-0.261133998632431,-1.7237800359725952
1781033597714315800,20.320315673828127,-0.1017569974064827,-0.2635050117969513,-1.9788949489593504
1781033597733825500,20.33982543945313,0.0078999996185302,-0.0512930005788803,-2.3264319896698
1781033597753334300,20.359334228515625,0.08313500136137,0.1841049939393997,-2.63940691947937
1781033597772846600,20.3788466796875,0.075932003557682,0.3953030109405517,-2.9653120040893555
1781033597792361500,20.398361572265625,0.1605100035667419,0.5582829713821411,-3.371915102005005
1781033597811874300,20.417874267578124,0.3030369877815246,0.5698980093002319,-3.796992063522339
1781033597831389200,20.43738916015625,0.5774000287055969,0.4785360097885132,-4.254004955291748
1781033597850904300,20.456904296875,0.8171259760856628,0.3603250086307525,-4.675188064575195
1781033597870416600,20.47641674804688,0.7313039898872375,0.2078929990530014,-4.914834976196289
1781033597889931500,20.495931640625,0.4016030132770538,0.1270519942045211,-4.965394020080566
1781033597909447000,20.515447021484373,-0.0776410028338432,0.1985500007867813,-4.850152969360352
1781033597928960300,20.534960205078125,-0.5541170239448547,0.3349249958992004,-4.604493141174316
1781033597948479200,20.554479248046874,-0.9818860292434692,0.4727430045604706,-4.396543025970459
1781033597967998500,20.57399853515625,-1.5096540451049805,0.4903300106525421,-4.190762042999268
1781033597987513600,20.593513671875,-3.009654998779297,0.3256280124187469,-3.9901299476623535
1781033598007028200,20.6130283203125,-5.204073905944824,0.1245030015707016,-3.736350059509277
1781033598026541800,20.63254174804688,-6.812827110290527,0.0303380005061626,-1.1251260042190552
1781033598049638700,20.655638671875,-4.430984973907471,-0.0711380019783973,3.327709913253784
1781033598075319000,20.68131909179688,-2.089202880859375,-2.4623959064483643,7.608102798461914
1781033598094826200,20.700826171875,3.932666063308716,-4.056734085083008,7.471779823303223
1781033598114332400,20.72033251953125,5.708462238311768,-3.975368022918701,3.3512470722198486
1781033598133841400,20.73984130859375,5.473440170288086,-2.168153047561645,-0.1182269975543022
1781033598153350100,20.75935009765625,5.800097942352295,0.7329549789428711,-0.6210110187530518
1781033598172856800,20.77885693359375,5.356882095336914,1.3626960515975952,-0.8116170167922974
1781033598192367900,20.79836791992188,4.7341628074646,1.824700951576233,-0.4254359900951385
1781033598211877600,20.817877685546875,2.8220510482788086,2.0014209747314453,0.036990001797676
1781033598231383000,20.837383056640626,2.365689992904663,1.8503910303115845,0.5106719732284546
1781033598250887400,20.856887451171875,1.7929329872131348,0.2423339933156967,1.0683900117874146
1781033598270396200,20.87639624023437,1.2891629934310913,-0.2884680032730102,2.658111095428467
1781033598289905400,20.895905517578125,1.0476360321044922,-1.9339829683303835,3.1130449771881104
1781033598309412900,20.91541284179688,0.8699309825897217,-2.1661438941955566,3.4143660068511963
1781033598328923600,20.93492358398437,0.8383389711380005,-2.084686040878296,3.454556941986084
1781033598348434400,20.954434326171874,0.8198609948158264,-1.5163559913635254,3.32466197013855
1781033598367944700,20.97394482421875,0.6853989958763123,0.3740710020065307,2.9888100624084477
1781033598387453400,20.993453369140624,0.4251590073108673,2.267541885375977,2.630826950073242
1781033598406961400,21.01296142578125,-0.2018070071935653,2.5657989978790283,2.396606922149658
1781033598426470400,21.03247045898437,-0.8250319957733154,2.612485885620117,2.157043933868408
1781033598445980400,21.05198046875,-1.316707968711853,2.1270289421081543,1.9151740074157717
1781033598465486300,21.071486328125,-1.4439849853515625,0.2681919932365417,1.9267090559005735
1781033598484989700,21.09098974609375,-1.461472988128662,-1.3306649923324585,2.156693935394287
1781033598504494000,21.110494140625,-1.5782400369644165,-2.9597930908203125,2.5486741065979004
1781033598524003000,21.13000317382813,-1.3666239976882937,-3.032932996749878,3.9433670043945312
1781033598543513900,21.149513916015625,-0.979345977306366,-2.8968091011047363,3.913516998291016
1781033598563024600,21.169024658203124,0.5246250033378601,-2.4110569953918457,3.649561882019043
1781033598582535000,21.188534912109372,0.9715980291366576,-0.797540009021759,3.2741661071777344
1781033598602042000,21.2080419921875,1.2159130573272705,1.1451280117034912,2.7937920093536377
1781033598621550600,21.227550537109376,1.3415080308914185,1.5326939821243286,2.378268957138061
1781033598641059600,21.2470595703125,1.375704050064087,1.9665210247039795,2.2059600353240967
1781033598660566000,21.26656591796875,1.3920550346374512,2.2507619857788086,1.999587059020996
1781033598680075500,21.286075439453125,1.5976359844207764,2.217634916305542,1.847066044807434
1781033598699586300,21.30558642578125,1.5976359844207764,2.217634916305542,1.847066044807434
1781033598719093000,21.325093017578126,1.2080409526824951,1.125705003738403,2.097011089324951
1781033598738596000,21.34459619140625,0.8344159722328186,0.4260269999504089,2.453635931015014
1781033598758102300,21.364102294921874,-0.8650720119476318,-0.0845670029520988,2.8509020805358887
1781033598777608700,21.383608642578125,-0.9672070145606996,-0.2354840040206909,3.114775896072388
1781033598797110000,21.403110107421877,-0.9672070145606996,-0.2354840040206909,3.114775896072388
1781033598816611600,21.422611572265627,-0.8911569714546204,1.654332995414734,3.409993886947632
1781033598836116000,21.44211596679688,-0.8911569714546204,1.654332995414734,3.409993886947632
1781033598855621000,21.46162109375,-1.1935880184173584,1.9715100526809688,5.417185783386231
1781033598875123200,21.481123291015624,-1.4745529890060425,1.6633050441741943,7.109350204467773
1781033598894627600,21.500627685546878,-1.371986985206604,1.234536051750183,7.3905558586120605
1781033598914131200,21.520131103515624,0.4618090093135834,0.8039519786834717,7.43848991394043
1781033598933633500,21.53963354492188,2.0759119987487797,0.3866829872131347,7.098334789276123
1781033598953138000,21.559137939453127,2.441277980804444,0.0949010029435157,6.483147144317627
1781033598972644000,21.57864404296875,2.5891430377960205,-0.1888280063867569,5.947457790374756
1781033598992153300,21.5981533203125,2.358232021331787,-0.3543950021266937,5.568352222442627
1781033599011659300,21.6176591796875,0.3947199881076813,-0.1827169954776764,5.088444232940674
1781033599031167500,21.63716748046875,-1.3865180015563965,0.3046900033950805,4.384926795959473
1781033599050677800,21.656677734375,-2.9657299518585205,1.9926830530166624,2.6087141036987305
1781033599070188500,21.6761884765625,-3.3689589500427246,2.5113680362701416,1.8042550086975095
1781033599089700000,21.6957001953125,-3.793210983276367,2.868098020553589,1.114035964012146
1781033599109212700,21.71521264648437,-3.9120490550994873,2.808082103729248,0.6219000220298767
1781033599128726800,21.734726806640627,-3.5913290977478027,2.198981046676636,0.3254469931125641
1781033599148240400,21.754240478515623,-1.834689021110535,0.3935190141201019,0.0761199966073036
1781033599167752200,21.773752197265622,-1.4169930219650269,-0.192888006567955,-0.2357459962368011
1781033599187263500,21.793263427734374,-0.7567480206489563,-0.927819013595581,-0.5282899737358093
1781033599206777000,21.812777099609374,0.7094050049781799,-1.5308400392532349,-0.7246890068054199
1781033599226289700,21.83228955078125,0.9200260043144226,-1.9507089853286743,-0.845645010471344
1781033599245802200,21.85180224609375,1.0142649412155151,-2.249919891357422,-0.8909599781036377
1781033599265317600,21.871317626953125,0.9825029969215392,-2.4057650566101074,-0.9558429718017578
1781033599284829000,21.89082885742188,0.9132059812545776,-2.4391229152679443,-1.1429239511489868
1781033599304341800,21.910341796875,0.7489659786224365,-2.353743076324463,-1.3716700077056885
1781033599323856600,21.929856689453125,0.4721870124340057,-2.2578060626983643,-1.626194953918457
1781033599343372300,21.949372314453125,0.1603599935770034,-2.2519450187683105,-1.842358946800232
1781033599362886400,21.968886474609373,-0.0533730015158653,-2.29475998878479,-2.1021831035614014
1781033599382397000,21.98839697265625,0.0011139999842271,-2.298563003540039,-2.480510950088501
1781033599401907200,22.0079072265625,0.3080430030822754,-2.180779933929444,-2.943964958190918
1781033599421421800,22.027421875,0.6317870020866394,-2.0670080184936523,-3.305156946182251
1781033599440936400,22.0469365234375,0.8574339747428894,-2.0986549854278564,-3.400763988494873
1781033599460451000,22.066451171875,0.9299650192260742,-2.1216259002685547,-3.3108348846435547
1781033599479967200,22.08596728515625,0.8779090046882629,-2.036216974258423,-3.1962850093841557
1781033599499484200,22.105484130859374,0.8779090046882629,-2.036216974258423,-3.1962850093841557
1781033599518998000,22.124998046875,0.6615149974822998,-1.9299659729003904,-3.0693728923797607
1781033599538506000,22.144506103515624,0.5932859778404236,-2.064547061920166,-2.9228529930114746
1781033599558017000,22.16401708984375,0.5932859778404236,-2.064547061920166,-2.9228529930114746
1781033599577531400,22.183531494140624,0.2524980008602142,-1.7648199796676636,-2.4492709636688232
1781033599597045500,22.20304541015625,0.2524980008602142,-1.7648199796676636,-2.4492709636688232
1781033599616555000,22.222554931640627,-0.1497479975223541,-1.0713800191879272,-2.4145820140838623
1781033599636064500,22.242064453125,-0.4499509930610657,-1.0786789655685425,-2.3349199295043945
1781033599655574000,22.261573974609377,-0.8325499892234802,-1.1587430238723757,-2.2849268913269043
1781033599675085800,22.2810859375,-1.1742990016937256,-1.132897973060608,-2.2509241104125977
1781033599694601700,22.300601806640625,-1.2691359519958496,-1.0088870525360107,-2.3118560314178467
1781033599714119200,22.320119140625,-1.031766057014465,-1.0891180038452148,-2.410262107849121
1781033599733635600,22.339635498046874,-0.5738869905471802,-1.2736259698867798,-2.580414056777954
1781033599753152800,22.35915283203125,-0.3127900063991546,-1.3987590074539185,-2.729008913040161
1781033599772662800,22.378662841796874,-0.2438499927520752,-1.4336539506912231,-2.709402084350586
1781033599792172300,22.39817236328125,-0.1329980045557022,-1.431795954704285,-2.5446550846099854
1781033599811684000,22.41768408203125,0.2328689992427826,-1.4957760572433472,-2.437026023864746
1781033599831192000,22.437192138671875,0.7349429726600647,-1.5718849897384644,-2.522820949554444
1781033599850704400,22.456704345703123,1.0396239757537842,-1.3885279893875122,-2.694674015045166
1781033599870217200,22.47621728515625,0.904002010822296,-0.9283049702644348,-2.7976999282836914
1781033599889727200,22.495727294921878,0.3757149875164032,-0.4014889895915985,-2.6240029335021973
1781033599909236500,22.515236572265625,-0.2112790048122406,-0.0837400034070015,-2.269102096557617
1781033599928749600,22.53474951171875,-0.6741669774055481,0.1462790071964264,-1.958475947380066
1781033599948264400,22.55426440429688,-0.9023230075836182,0.4449619948863983,-1.793895959854126
1781033599967773000,22.57377294921875,-0.9781360030174256,0.7215459942817688,-1.7248120307922363
1781033599987283200,22.593283203125,-1.0139950513839722,1.029237985610962,-1.659980058670044
1781033600006793200,22.612793212890622,-0.972046971321106,1.2163039445877075,-1.6424510478973389
1781033600026303500,22.632303466796877,-1.0481849908828735,1.075163960456848,-1.6574089527130127
1781033600045816600,22.651816650390625,-1.2160240411758425,0.7182090282440186,-1.698536038398743
1781033600065333800,22.67133374023437,-1.3019850254058838,0.4323489964008331,-1.760485053062439
1781033600084848600,22.6908486328125,-1.182486057281494,0.2793129980564117,-1.8183690309524536
1781033600104359000,22.71035888671875,-0.7842140197753906,0.2810460031032562,-1.910956025123596
1781033600123873300,22.729873291015625,-0.2527320086956024,0.4546639919281006,-2.1074140071868896
1781033600143383600,22.74938354492188,0.197950005531311,0.5814470052719116,-2.293001890182495
1781033600162888200,22.76888818359375,0.4129010140895843,0.6069409847259521,-2.3964860439300537
1781033600182394600,22.78839453125,0.406944990158081,0.6369119882583618,-2.3949270248413086
1781033600201904400,22.807904296875,0.2818650007247925,0.7046830058097839,-2.206264019012451
1781033600221418000,22.82741796875,0.1622530072927475,0.8807240128517151,-1.9360779523849487
1781033600240934400,22.84693432617188,0.0511359982192516,1.1001629829406738,-1.654567003250122
1781033600260449000,22.866448974609376,-0.0933469980955123,1.2510550022125244,-1.3417439460754397
1781033600279958800,22.885958740234376,-0.1833969950675964,1.296059012413025,-1.0506470203399658
1781033600299472000,22.905471923828124,-0.1833969950675964,1.296059012413025,-1.0506470203399658
1781033600318986800,22.92498681640625,-0.3203090131282806,1.1784039735794067,-0.576636016368866
1781033600338499000,22.9444990234375,-0.3203090131282806,1.1784039735794067,-0.576636016368866
1781033600358008000,22.964008056640623,-0.1069519966840744,1.0689170360565186,-0.3758710026741028
1781033600377514000,22.983513916015625,-0.1069519966840744,1.0689170360565186,-0.3758710026741028
1781033600397025000,23.00302490234375,0.1976310014724731,0.9434409737586976,-0.2087499946355819
1781033600416542000,23.0225419921875,0.2418970018625259,0.9292089939117432,-0.0918359979987144
1781033600436057000,23.04205712890625,0.2418970018625259,0.9292089939117432,-0.0918359979987144
1781033600455562200,23.06156225585937,0.0313160009682178,1.312633991241455,0.0407649986445903
1781033600475068000,23.08106787109375,-0.1309099942445755,1.4000489711761477,0.1070649996399879
1781033600494578200,23.100578125,-0.2883259952068329,1.3394949436187744,0.167613998055458
1781033600514089200,23.120089111328124,-0.3299570083618164,1.174285054206848,0.2250130027532577
1781033600533600300,23.139600341796875,-0.2319840043783188,0.961670994758606,0.2596110105514526
1781033600553111600,23.159111572265623,-0.1026389971375465,0.8085740208625793,0.2909500002861023
1781033600572623600,23.17862353515625,-0.0219700001180171,0.7326939702033997,0.3352290093898773
1781033600592135700,23.1981357421875,-0.0859259963035583,0.6638720035552979,0.402193009853363
1781033600611650000,23.21765014648437,-0.2235829979181289,0.6467919945716858,0.4402349889278412
1781033600631165400,23.23716552734375,-0.3113299906253814,0.6069149971008301,0.4737919867038727
1781033600650680300,23.256680419921874,-0.2615590095520019,0.6024169921875,0.4601320028305053
1781033600670199300,23.27619921875,-0.085436001420021,0.6683109998703003,0.386923998594284
1781033600689716000,23.295716064453124,-0.0059320000000298,0.7427039742469788,0.383201003074646
1781033600709231600,23.315231689453125,-0.0640039965510368,0.8470810055732727,0.4728719890117645
1781033600728749800,23.334749755859374,-0.149956002831459,0.9397000074386596,0.6648740172386169
1781033600748266500,23.3542666015625,-0.1480789929628372,0.937599003314972,0.8651760220527649
1781033600767781600,23.37378173828125,-0.0285519994795322,0.8559809923171997,0.9890729784965516
1781033600787296500,23.39329663085937,0.175595998764038,0.6766240000724792,0.9474030137062072
1781033600806809600,23.4128095703125,0.3377119898796081,0.4184339940547943,0.7731339931488037
1781033600826320600,23.432320556640622,0.3763979971408844,0.2072439938783645,0.5291280150413513
1781033600845834800,23.451834716796878,0.4368090033531189,0.1107880026102066,0.1478420048952102
1781033600865350000,23.471349853515623,0.5472750067710876,0.0859370008111,-0.2436369955539703
1781033600884860400,23.4908603515625,0.6719920039176941,0.0988589972257614,-0.563497006893158
1781033600904373800,23.510373779296877,0.8089420199394226,0.1452060043811798,-0.7827079892158508
1781033600923886000,23.529885986328125,0.837024986743927,0.1074519976973533,-0.8374220132827759
1781033600943398000,23.54939794921875,0.8212159872055054,0.0493910014629364,-0.8698750138282776
1781033600962914600,23.56891455078125,0.761322021484375,0.023166999220848,-0.9738720059394836
1781033600982431000,23.58843090820313,0.6120150089263916,-0.0122020002454519,-1.139549970626831
1781033601001948200,23.6079482421875,0.4293589890003204,0.0014519999967887,-1.455744981765747
1781033601021465600,23.627465576171875,0.1966769993305206,0.0591449998319149,-1.893653988838196
1781033601040982500,23.646982421875,-0.1079970002174377,0.1318449974060058,-2.402170896530152
1781033601060497700,23.66649755859375,-0.4379200041294098,0.2081650048494339,-2.8824779987335205
1781033601080009000,23.686009033203124,-0.7605000138282776,0.3147180080413818,-3.22268009185791
1781033601099515600,23.705515625,-0.7605000138282776,0.3147180080413818,-3.22268009185791
1781033601119021300,23.725021240234376,-1.2849500179290771,0.4784350097179413,-3.403650045394897
1781033601138527500,23.744527587890627,-1.2849500179290771,0.4784350097179413,-3.403650045394897
1781033601158033400,23.764033447265625,-1.5007389783859253,0.3410519957542419,-3.7066900730133057
1781033601177538600,23.78353857421875,-1.5007389783859253,0.3410519957542419,-3.7066900730133057
1781033601197045000,23.803044921875,-1.1941349506378174,0.0032309999223798,-4.0416178703308105
1781033601216549400,23.82254931640625,-0.9285280108451844,-0.2129330039024353,-4.028863906860352
1781033601236057600,23.8420576171875,-0.9285280108451844,-0.2129330039024353,-4.028863906860352
1781033601255567600,23.861567626953125,-3.273916006088257,-0.1472900062799453,-5.939504146575928
1781033601275074300,23.88107421875,-5.351676940917969,0.0347790010273456,-6.332371234893799
1781033601294575600,23.90057568359375,-5.774045944213867,0.3731740117073059,-6.31708288192749
1781033601314070500,23.920070556640624,-4.30487585067749,0.2196529954671859,-3.55599308013916
1781033601333570800,23.93957080078125,-2.464432954788208,-3.285904884338379,1.1224629878997805
1781033601353076000,23.95907592773437,1.6752699613571167,-4.794164180755615,4.808670997619629
1781033601372576000,23.978575927734376,7.861979007720947,-4.734432220458984,4.571096897125244
1781033601392075800,23.99807568359375,6.279307842254639,-2.1254971027374268,2.561033010482788
1781033601411582200,24.017582275390627,5.652115821838379,0.432015985250473,0.406682014465332
1781033601431091000,24.03709106445313,0.5477489829063416,0.8383499979972839,-1.0497649908065796
1781033601450599400,24.056599365234376,-5.302628040313721,-0.7446359992027283,1.5574320554733276
1781033601470108200,24.076108154296875,-5.252432823181152,-3.937999963760376,3.4354169368743896
1781033601489618000,24.095617919921875,-1.4326859712600708,-5.705430030822754,4.979620933532715
1781033601509128200,24.11512817382813,3.711239099502564,-5.530564785003662,4.623946189880371
1781033601528637200,24.13463720703125,7.563135147094727,-5.28187894821167,4.1728291511535645
1781033601548150500,24.154150634765625,9.262531280517578,-4.680935859680176,3.620207071304321
1781033601567661300,24.173661376953124,8.997983932495117,-2.1263160705566406,1.6616590023040771
1781033601587167700,24.19316772460937,5.587979793548584,-0.3610450029373169,1.40557599067688
1781033601606675500,24.212675537109376,1.7922719717025757,-0.0411989986896514,1.2781269550323486
1781033601626184000,24.232183837890624,-1.2004430294036863,0.1020269989967346,1.1847679615020752
1781033601645690600,24.25169067382813,-1.6291199922561646,-0.0800990015268325,1.4172359704971311
1781033601665195800,24.27119580078125,-2.2114319801330566,-0.6033909916877747,1.847357988357544
1781033601684702700,24.29070263671875,-2.428989887237549,-0.9921000003814696,2.131566047668457
1781033601704214000,24.31021411132813,-2.2186601161956787,-0.8218610286712646,2.2320539951324463
1781033601723723500,24.3297236328125,-2.132546901702881,-0.2600350081920624,2.567641019821167
1781033601743233500,24.349233642578124,-2.0561819076538086,1.344599962234497,2.853682041168213
1781033601762744800,24.368744873046875,-1.7383259534835815,2.0420589447021484,2.9333178997039795
1781033601782257200,24.388257080078127,-1.699015974998474,2.548580884933472,2.937899112701416
1781033601801771500,24.407771484375,-1.6831810474395752,2.614232063293457,2.717622995376587
1781033601821285000,24.42728515625,-1.622514009475708,2.4103329181671143,2.4956130981445312
1781033601840792600,24.44679248046875,-1.5481740236282349,1.909844994544983,2.3025600910186768
1781033601860299500,24.46629956054688,-1.0999629497528076,0.2818329930305481,2.017730951309204
1781033601879807000,24.485806884765623,-1.0999629497528076,0.2818329930305481,2.017730951309204
1781033601899309300,24.50530932617188,-0.7410169839859009,-3.3928210735321045,3.6503920555114746
1781033601918812000,24.52481201171875,-0.7118350267410278,-3.6327779293060303,3.668313980102539
1781033601938316800,24.54431689453125,-0.7118350267410278,-3.6327779293060303,3.668313980102539
1781033601957822500,24.563822509765625,0.9631879925727844,-2.1289141178131104,4.007686138153076
1781033601977326300,24.583326416015623,0.9631879925727844,-2.1289141178131104,4.007686138153076
1781033601996833800,24.602833740234374,0.9631879925727844,-2.1289141178131104,4.007686138153076
1781033602016345600,24.622345703125,2.4876749515533447,2.765136957168579,3.615601062774658
1781033602035854800,24.641854736328124,2.4876749515533447,2.765136957168579,3.615601062774658
1781033602055356000,24.66135595703125,0.1644479930400848,4.612978935241699,3.2915689945220947
1781033602074857000,24.68085693359375,-0.1850800067186355,4.327964782714844,3.0602920055389404
1781033602094361600,24.700361572265624,-0.2115789949893951,3.930016040802002,2.870914936065674
1781033602113863200,24.71986328125,-0.0457199998199939,3.391235113143921,2.843657970428467
1781033602133365000,24.73936499023437,0.2111680060625076,2.833028078079224,3.153518915176392
1781033602152869000,24.758869140625,0.3024539947509765,2.213860988616944,4.957603931427002
1781033602172377000,24.778377197265623,-0.0464110001921653,0.3687939941883087,6.696378231048584
1781033602191889400,24.797889404296875,-0.554623007774353,-0.2583580017089844,8.286203384399414
1781033602211401200,24.817401123046874,-1.0143359899520874,-2.34157395362854,9.672286987304688
1781033602230911000,24.836910888671877,-1.1588950157165527,-4.290947914123535,10.9511079788208
1781033602250417200,24.856417236328124,0.741005003452301,-4.396554946899414,10.879772186279297
1781033602269922600,24.875922607421877,1.0015000104904177,-3.8867380619049072,10.520049095153809
1781033602289431000,24.89543115234375,0.9726240038871764,-0.2897759974002838,9.576507568359377
1781033602308936700,24.914936767578126,-0.6558570265769958,1.7331990003585815,5.539575099945068
1781033602328439000,24.93443896484375,-5.309885025024414,3.563760995864868,3.52931809425354
1781033602347945500,24.953945556640623,-6.985721111297607,3.671766996383667,2.5906291007995605
1781033602367454500,24.973454345703125,-7.390010833740234,3.607867956161499,1.7665319442749023
1781033602386960000,24.9929599609375,-6.912489891052246,3.267375946044922,1.1486129760742188
1781033602406467000,25.012467041015626,-3.18093204498291,2.635335922241211,0.5403540134429932
1781033602425976600,25.0319765625,-1.4010640382766724,1.0051579475402832,-0.1114799976348877
1781033602445483000,25.05148291015625,0.8312569856643677,0.4712919890880584,-0.666949987411499
1781033602464992500,25.070992431640622,1.4268499612808228,-0.1625099927186966,-1.022696018218994
1781033602484505300,25.09050537109375,1.8446110486984253,-0.6974210143089294,-1.1282060146331787
1781033602504014800,25.110014892578125,1.8294990062713623,-1.0112340450286863,-1.0993130207061768
1781033602523523300,25.1295234375,1.5143970251083374,-1.102215051651001,-0.9614629745483398
1781033602543032600,25.149032470703126,1.0579849481582642,-1.0488580465316772,-0.8206830024719238
1781033602562540000,25.1685400390625,0.5475170016288757,-0.8990150094032288,-0.7662490010261536
1781033602582047200,25.188047119140624,0.0543369986116886,-0.7067019939422607,-0.8490440249443054
1781033602601559000,25.20755908203125,-0.4155310094356537,-0.5331979990005493,-1.0649960041046145
1781033602621074000,25.22707397460937,-0.4155310094356537,-0.5331979990005493,-1.0649960041046145
1781033602640588300,25.24658837890625,-0.7286800146102905,-0.2911089956760406,-1.8948819637298584
1781033602660099800,25.266099853515627,-0.605849027633667,-0.3228040039539337,-2.3775479793548584
1781033602679610000,25.285610107421878,-0.3156110048294067,-0.4715070128440857,-2.7823970317840576
1781033602699124500,25.30512451171875,0.0651429966092109,-0.7024289965629578,-3.052069902420044
1781033602718644500,25.32464453125,0.51528400182724,-0.8711320161819458,-3.1911489963531494
1781033602738169900,25.344169921875,0.51528400182724,-0.8711320161819458,-3.1911489963531494
1781033602757691400,25.36369140625,1.451267957687378,-1.046234965324402,-3.3690719604492188
1781033602777207800,25.38320776367188,1.451267957687378,-1.046234965324402,-3.3690719604492188
1781033602796727000,25.40272705078125,1.5855180025100708,-1.2476990222930908,-3.411468982696533
1781033602816246500,25.42224658203125,1.4229600429534912,-1.136984944343567,-3.383280038833618
1781033602835768000,25.44176806640625,1.1240899562835691,-0.9373720288276672,-3.4065639972686768
1781033602855285800,25.46128564453125,0.7859020233154297,-0.7908570170402527,-3.39077091217041
1781033602874798000,25.480798095703125,0.4787270128726959,-0.722599983215332,-3.282841920852661
1781033602894316500,25.500316650390623,0.2630940079689026,-0.6976010203361511,-3.18654203414917
1781033602913838800,25.5198388671875,0.23539899289608,-0.6520919799804688,-3.100053071975708
1781033602933358800,25.53935888671875,0.2351730018854141,-0.6660370230674744,-3.065553903579712
1781033602952877800,25.5588779296875,0.2520219981670379,-0.5560789704322815,-3.083498954772949
1781033602972395000,25.57839501953125,0.2838970124721527,-0.396802008152008,-3.089095115661621
1781033602991915800,25.597915771484374,0.2315910011529922,-0.3699199855327606,-3.0273029804229736
1781033603011438600,25.6174384765625,0.0434670001268386,-0.4213989973068237,-2.9378879070281982
1781033603030955500,25.63695556640625,-0.2163819968700409,-0.5087000131607056,-2.961978912353516
1781033603050469600,25.6564697265625,-0.4585010111331939,-0.6356220245361328,-2.96966290473938
1781033603069990000,25.67598999023437,-0.5315989851951599,-0.636480987071991,-2.8847579956054688
1781033603089510100,25.69551025390625,-0.244937002658844,-0.4631659984588623,-2.866405963897705
1781033603109026600,25.715026611328124,0.1315779983997345,-0.4502510130405426,-2.820513963699341
1781033603128541700,25.73454174804688,0.506663978099823,-0.4250870048999786,-2.8785760402679443
1781033603148061700,25.75406176757813,0.7438759803771973,-0.2795470058917999,-3.033432006835937
1781033603167581200,25.773581298828127,0.7556719779968262,-0.016279999166727,-3.056938886642456
1781033603187096800,25.793096923828124,0.6725770235061646,0.4367989897727966,-2.941011905670166
1781033603206615000,25.812614990234376,0.5367019772529602,0.8605449795722961,-2.735116958618164
1781033603226133200,25.83213330078125,0.3802460134029388,1.0735290050506592,-2.5854580402374268
1781033603245648000,25.85164794921875,0.0856660008430481,1.102457046508789,-2.5729339122772217
1781033603265163500,25.87116357421875,-0.3107230067253113,1.052024006843567,-2.6434481143951416
1781033603284681000,25.890680908203127,-0.6680759787559509,0.9653549790382384,-2.6709721088409424
1781033603304197600,25.91019775390625,-0.8117889761924744,0.9892129898071288,-2.6679298877716064
1781033603323716600,25.929716552734376,-0.7652329802513123,1.057371973991394,-2.614893913269043
1781033603343233300,25.9492333984375,-0.6947739720344543,1.0671939849853516,-2.497267961502075
1781033603362745900,25.968745849609373,-0.7624629735946655,0.9879299998283386,-2.3622050285339355
1781033603382253800,25.98825390625,-0.9294360280036926,0.8535659909248352,-2.1848130226135254
1781033603401760300,26.00776025390625,-0.926527976989746,0.7310940027236938,-2.0432980060577397
1781033603421269200,26.027269287109377,-0.6394739747047424,0.6708430051803589,-1.989838004112244
1781033603440780000,26.04678002929688,-0.1811390072107315,0.6597880125045776,-2.002023935317993
1781033603460290300,26.066290283203124,0.1725880056619644,0.6767110228538513,-2.020925045013428
1781033603479799800,26.0857998046875,0.1725880056619644,0.6767110228538513,-2.020925045013428
1781033603499306200,26.10530615234375,-0.0935169979929924,0.9322969913482666,-2.09466290473938
1781033603518812700,26.124812744140623,-0.3739509880542755,1.0909039974212646,-1.841562032699585
1781033603538321000,26.14432080078125,-0.3739509880542755,1.0909039974212646,-1.841562032699585
1781033603557831700,26.163831787109373,-0.6320180296897888,1.3839349746704102,-1.6037230491638184
1781033603577345000,26.183344970703125,-0.6320180296897888,1.3839349746704102,-1.6037230491638184
1781033603596855800,26.202855712890624,-0.6320180296897888,1.3839349746704102,-1.6037230491638184
1781033603616365300,26.222365234375,-0.6865580081939697,1.5037169456481934,-1.2512799501419067
1781033603635879400,26.24187939453125,-0.658955991268158,1.4404029846191406,-1.099714994430542
1781033603655394000,26.26139404296875,-0.583931028842926,1.3402340412139893,-0.948324978351593
1781033603674907100,26.2809072265625,-0.447627991437912,1.2404669523239136,-0.768347978591919
1781033603694420200,26.300420166015623,-0.2610979974269867,1.1831259727478027,-0.6104239821434021
1781033603713931500,26.319931640625,-0.0701709985733032,1.164443016052246,-0.4776520133018493
1781033603733443000,26.33944311523437,0.0571160018444061,1.1579420566558838,-0.3848559856414795
1781033603752955400,26.358955322265626,0.1068330034613609,1.1360280513763428,-0.3015559911727905
1781033603772467200,26.37846728515625,0.0820809975266456,1.114691972732544,-0.1940629929304123
1781033603791980300,26.397980224609373,0.0299200005829334,1.165827989578247,-0.0777129977941513
1781033603811490000,26.417489990234376,0.0223229993134737,1.2621890306472778,0.0639669969677925
1781033603831006000,26.437005859375,0.0100140003487467,1.36348295211792,0.2016569972038269
1781033603850526200,26.456526123046874,-0.1274410039186477,1.3600280284881592,0.3225780129432678
1781033603870040600,26.47604052734375,-0.356440007686615,1.2525709867477417,0.4510149955749511
1781033603889546200,26.495546142578124,-0.560280978679657,1.0992460250854492,0.5434240102767944
1781033603909048600,26.51504858398437,-0.6401939988136292,0.9242169857025146,0.5803670287132263
1781033603928554800,26.5345546875,-0.4723120033740997,0.8387789726257324,0.5885999798774719
1781033603948064500,26.554064453125,-0.2005289942026138,0.8038550019264221,0.5526109933853149
1781033603967572200,26.573572265625,-0.0064940000884234,0.7464820146560669,0.5075799822807312
1781033603987079400,26.593079345703124,0.0484310016036033,0.6703749895095825,0.4644420146942138
1781033604006589000,26.6125888671875,0.0218749996274709,0.596153974533081,0.4040339887142181
1781033604026103600,26.632103515625,0.0643289983272552,0.5527709722518921,0.329582005739212
1781033604045616400,26.651616455078123,0.0762469992041587,0.5522639751434326,0.226169005036354
1781033604065125400,26.67112548828125,0.0148769998922944,0.5860810279846191,0.1423059999942779
1781033604084634000,26.690634033203125,-0.1710399985313415,0.6234610080718994,0.0425250008702278
1781033604104140800,26.710140869140623,-0.4695079922676086,0.5968469977378845,-0.0766879990696907
1781033604123646500,26.729646484375,-0.6833140254020691,0.5940790176391602,-0.1946769952774047
1781033604143151900,26.74915185546875,-0.8177390098571777,0.5724760293960571,-0.3283419907093048
1781033604162662100,26.768662109375,-0.8217390179634094,0.5582280158996582,-0.478285014629364
1781033604182177300,26.78817724609375,-0.7422509789466858,0.589838981628418,-0.6494889855384827
1781033604201692200,26.807692138671875,-0.6046320199966431,0.6278740167617798,-0.8423920273780823
1781033604221204700,26.82720483398437,-0.6046320199966431,0.6278740167617798,-0.8423920273780823
1781033604240715300,26.84671533203125,-0.3169209957122803,0.7631459832191467,-1.0603339672088623
1781033604260225300,26.866225341796877,-0.2495380043983459,0.8209099769592285,-1.0696699619293213
1781033604279734000,26.885734130859376,-0.2495380043983459,0.8209099769592285,-1.0696699619293213
