time,seconds_elapsed,z,y,x
1781033539321272800,-0.02472705078125,-0.5790125131607056,1.4251874685287476,0.5044875144958496
1781033539488114400,0.142114501953125,-0.5704874992370605,0.6883249878883362,1.0700249671936035
1781033539497867800,0.15186767578125,-0.774399995803833,0.2180749922990799,1.9544249773025513
1781033539517369300,0.171369384765625,-1.0823999643325806,-0.31652501225471497,2.9683499336242676
1781033539536864300,0.1908642578125,-1.3937000036239624,-0.7799000144004822,3.738762378692627
1781033539556360400,0.2103603515625,-1.6183749437332153,-1.112375020980835,4.132287502288818
1781033539575860200,0.229860107421875,-1.7078875303268433,-1.338012456893921,4.221662521362305
1781033539595360300,0.2493603515625,-1.644362449645996,-1.476199984550476,4.076462268829346
1781033539614859500,0.268859619140625,-1.4767500162124634,-1.5417875051498413,3.7845499515533447
1781033539634362400,0.2883623046875,-1.2744874954223633,-1.5512750148773193,3.4248499870300293
1781033539653869800,0.307869873046875,-1.0687874555587769,-1.5233625173568726,3.0405375957489014
1781033539673373000,0.327373046875,-0.8512625098228455,-1.4719375371932983,2.6468749046325684
1781033539692873000,0.346873046875,-0.6177874803543091,-1.4051125049591064,2.2563750743865967
1781033539712372700,0.366372802734375,-0.3983374834060669,-1.3287999629974365,1.893649935722351
1781033539731869200,0.385869140625,-0.23292499780654907,-1.2484999895095825,1.5791875123977661
1781033539751367000,0.405366943359375,-0.13956250250339508,-1.1675125360488892,1.3144999742507935
1781033539770865400,0.424865478515625,-0.11646249890327454,-1.0870749950408936,1.0835000276565552
1781033539790365700,0.44436572265625,-0.1578499972820282,-1.0088374614715576,0.866112470626831
1781033539809868300,0.463868408203125,-0.26083749532699585,-0.9359624981880188,0.6529874801635742
1781033539829374200,0.483374267578125,-0.4101625084877014,-0.8684499859809875,0.4478375017642975
1781033539848877000,0.502876953125,-0.5776374936103821,-0.8020374774932861,0.2634499967098236
1781033539868377900,0.5223779296875,-0.7350749969482422,-0.7310875058174133,0.11247500032186508
1781033539887876400,0.54187646484375,-0.851812481880188,-0.6499624848365784,-0.0004124999977648258
1781033539907373600,0.56137353515625,-0.8948500156402588,-0.5563250184059143,-0.07919999957084656
1781033539926871300,0.580871337890625,-0.8486499786376953,-0.454987496137619,-0.13021250069141388
1781033539946367500,0.600367431640625,-0.7166500091552734,-0.358599990606308,-0.1621125042438507
1781033539965867000,0.619866943359375,-0.5190625190734863,-0.284074991941452,-0.18424999713897705
1781033539985366300,0.6393662109375,-0.3007124960422516,-0.24695000052452087,-0.20116250216960907
1781033540004865500,0.658865478515625,-0.11453749984502792,-0.24722500145435333,-0.2055625021457672
1781033540024366000,0.678365966796875,0.02461249940097332,-0.26317501068115234,-0.17998750507831573
1781033540043868200,0.6978681640625,0.14506250619888306,-0.2652375102043152,-0.10683749616146088
1781033540063367700,0.71736767578125,0.27568748593330383,-0.23952500522136688,0.018699999898672104
1781033540082865400,0.736865478515625,0.42281249165534973,-0.19112500548362732,0.1845249980688095
1781033540102367500,0.756367431640625,0.42281249165534973,-0.19112500548362732,0.1845249980688095
1781033540121873700,0.775873779296875,0.5895999670028687,-0.13378749787807465,0.36684998869895935
1781033540141379800,0.7953798828125,0.775362491607666,-0.08401250094175339,0.5373499989509583
1781033540160883200,0.81488330078125,0.9294999837875366,-0.0648999959230423,0.6474875211715698
1781033540180383700,0.8343837890625,0.9853249788284302,-0.09267500042915344,0.6413000226020813
1781033540199884500,0.853884521484375,0.909974992275238,-0.1611499935388565,0.4936249852180481
1781033540219386400,0.873386474609375,0.7111499905586243,-0.2414499968290329,0.23416249454021454
1781033540238885400,0.892885498046875,0.4725874960422516,-0.28421249985694885,-0.023099999874830246
1781033540258384400,0.91238427734375,0.3278000056743622,-0.2358125001192093,-0.1153625026345253
1781033540277887200,0.93188720703125,0.35612499713897705,-0.07548750191926956,0.05004999786615372
1781033540297387500,0.951387451171875,0.5101249814033508,0.1648624986410141,0.41208750009536743
1781033540316884500,0.970884521484375,0.6619250178337097,0.4193750023841858,0.7921375036239624
1781033540336386000,0.990385986328125,0.7048249840736389,0.6043124794960022,0.98642498254776
1781033540355891000,1.009890869140625,0.5795624852180481,0.6351125240325928,0.8318749666213989
1781033540375394600,1.02939453125,0.28503748774528503,0.4791874885559082,0.29686251282691956
1781033540394895600,1.0488955078125,-0.11275000125169754,0.20377500355243683,-0.46502500772476196
1781033540414395400,1.0683955078125,-0.5244249701499939,-0.06737499684095383,-1.215637445449829
1781033540433894700,1.087894775390625,-0.8646000027656555,-0.24255000054836273,-1.7751250267028809
1781033540453396000,1.10739599609375,-1.0517375469207764,-0.2932874858379364,-2.0465500354766846
1781033540472900900,1.12690087890625,-1.0025124549865723,-0.23938749730587006,-1.9905874729156494
1781033540492407000,1.146406982421875,-0.7005624771118164,-0.12691250443458557,-1.6600375175476074
1781033540511908600,1.16590869140625,-0.23993749916553497,0.0002749999985098839,-1.187037467956543
1781033540531408400,1.185408447265625,0.22495000064373016,0.11453749984502792,-0.7100499868392944
1781033540550910000,1.204909912109375,0.5680124759674072,0.19689999520778656,-0.31679999828338623
1781033540570413000,1.2244130859375,0.7647749781608582,0.2330625057220459,-0.03918749839067459
1781033540589919700,1.243919677734375,0.8586875200271606,0.22192500531673431,0.10573749989271164
1781033540609426700,1.2634267578125,0.8877000212669373,0.17531250417232513,0.11701250076293945
1781033540628932600,1.2829326171875,0.8496124744415283,0.10821250081062317,0.025299999862909317
1781033540648435700,1.302435791015625,0.734250009059906,0.03355000168085098,-0.1223749965429306
1781033540667937800,1.321937744140625,0.5673249959945679,-0.03616249933838844,-0.27857500314712524
1781033540687441700,1.341441650390625,0.39022499322891235,-0.09019999951124191,-0.4047999978065491
1781033540706947000,1.360947021484375,0.22522500157356262,-0.11893749982118607,-0.47052499651908875
1781033540726453200,1.380453369140625,0.0966624990105629,-0.10670000314712524,-0.44673749804496765
1781033540745956600,1.39995654296875,0.04097500070929527,-0.040699999779462814,-0.32023748755455017
1781033540765458400,1.41945849609375,0.07122500240802765,0.07809999585151672,-0.1083500012755394
1781033540784960000,1.4389599609375,0.16060000658035278,0.23278750479221344,0.15015000104904175
1781033540804459300,1.458459228515625,0.26592499017715454,0.39627498388290405,0.41208750009536743
1781033540823957000,1.47795703125,0.36272498965263367,0.5406500101089478,0.6448749899864197
1781033540843453700,1.49745361328125,0.43779999017715454,0.6356624960899353,0.8152375221252441
1781033540862950400,1.516950439453125,0.48179998993873596,0.654087483882904,0.8802750110626221
1781033540882447000,1.536447021484375,0.48179998993873596,0.654087483882904,0.8802750110626221
1781033540901943800,1.55594384765625,0.48179998993873596,0.654087483882904,0.8802750110626221
1781033540921442000,1.575442138671875,0.40892499685287476,0.4236375093460083,0.5416125059127808
1781033540940941600,1.594941650390625,0.24914999306201935,0.2180749922990799,0.17943750321865082
1781033540960439600,1.614439453125,0.0317624993622303,0.022549999877810478,-0.16238750517368317
1781033540979936500,1.6339365234375,-0.17682500183582306,-0.10999999940395355,-0.3716624975204468
1781033540999432200,1.65343212890625,-0.3020874857902527,-0.1545500010251999,-0.4064500033855438
1781033541018929200,1.67292919921875,-0.2919124960899353,-0.11797499656677246,-0.29081249237060547
1781033541038427100,1.69242724609375,-0.15991249680519104,-0.02667500078678131,-0.09336250275373459
1781033541057926100,1.711926025390625,0.018424998968839645,0.08415000140666962,0.09707500040531158
1781033541077426700,1.7314267578125,0.16458749771118164,0.17448750138282776,0.20514999330043793
1781033541096929000,1.750928955078125,0.23526249825954437,0.20886249840259552,0.20198750495910645
1781033541116433200,1.77043310546875,0.21821250021457672,0.17104999721050262,0.10216250270605087
1781033541135935000,1.78993505859375,0.12278749793767929,0.08318749815225601,-0.04702499881386757
1781033541155433200,1.80943310546875,-0.0057749999687075615,-0.004124999977648258,-0.18424999713897705
1781033541174924000,1.828924072265625,-0.10752499848604202,-0.04922499880194664,-0.2662000060081482
1781033541194415000,1.8484150390625,-0.1443749964237213,-0.04496249929070473,-0.27816250920295715
1781033541213913600,1.86791357421875,-0.11357499659061432,-0.012649999931454659,-0.23045000433921814
1781033541233415200,1.887415283203125,-0.035887498408555984,0.023512499406933784,-0.15138749778270721
1781033541252917500,1.90691748046875,0.062424998730421066,0.05169999971985817,-0.07699999958276749
1781033541272415500,1.92641552734375,0.14877499639987946,0.07548750191926956,-0.03272499889135361
1781033541291909600,1.94590966796875,0.195250004529953,0.10656250268220901,-0.024062499403953552
1781033541311408000,1.965408203125,0.19580000638961792,0.15166249871253967,-0.043449997901916504
1781033541330910700,1.98491064453125,0.16802500188350677,0.20542499423027039,-0.07768750190734863
1781033541350412300,2.004412353515625,0.13529999554157257,0.25341248512268066,-0.1120624989271164
1781033541369912300,2.023912353515625,0.10958749800920486,0.2835249900817871,-0.13392500579357147
1781033541389413400,2.043413330078125,0.10298749804496765,0.2952125072479248,-0.14038750529289246
1781033541408912400,2.062912353515625,0.1289750039577484,0.29534998536109924,-0.14038750529289246
1781033541428413400,2.082413330078125,0.18576249480247498,0.2890250086784363,-0.14547500014305115
1781033541447917300,2.101917236328125,0.2521750032901764,0.2759625017642975,-0.1639000028371811
1781033541467421000,2.1214208984375,0.30236250162124634,0.2531374990940094,-0.19676250219345093
1781033541486920400,2.14092041015625,0.3166624903678894,0.219587504863739,-0.23704999685287476
1781033541506420200,2.160420166015625,0.29163751006126404,0.17957499623298645,-0.27403751015663147
1781033541525921300,2.17992138671875,0.2410375028848648,0.14162500202655792,-0.3004375100135803
1781033541545419000,2.1994189453125,0.18713749945163727,0.11343749612569809,-0.3148750066757202
1781033541564918500,2.21891845703125,0.18713749945163727,0.11343749612569809,-0.3148750066757202
1781033541584413000,2.238412841796875,0.07796250283718109,0.09501250088214874,-0.2998875081539154
1781033541603902200,2.257902099609375,0.005362499970942736,0.10408750176429749,-0.271699994802475
1781033541623395600,2.2773955078125,-0.06517499685287476,0.11838749796152115,-0.24406249821186066
1781033541642891300,2.296891357421875,-0.1083500012755394,0.11866249889135361,-0.2363625019788742
1781033541662387700,2.3163876953125,-0.1083500012755394,0.11866249889135361,-0.2363625019788742
1781033541681881300,2.33588134765625,-0.10628750175237656,0.07768750190734863,-0.2620750069618225
1781033541701372000,2.355371826171875,-0.057750001549720764,-0.0193875003606081,-0.317487508058548
1781033541720862500,2.374862548828125,0.020762499421834946,-0.1541374921798706,-0.37537500262260437
1781033541740353500,2.394353515625,0.08992499858140945,-0.28008750081062317,-0.39586248993873596
1781033541759847400,2.413847412109375,0.11192499846220016,-0.35942500829696655,-0.3539249897003174
1781033541779346000,2.433345947265625,0.08621250092983246,-0.3917374908924103,-0.2554749846458435
1781033541798844400,2.452844482421875,0.045375000685453415,-0.4045250117778778,-0.133650004863739
1781033541818337300,2.472337158203125,0.015124999918043613,-0.4273499846458435,-0.030387500301003456
1781033541837829600,2.49182958984375,-0.013199999928474426,-0.4735499918460846,0.022824998944997787
1781033541857326300,2.511326416015625,-0.057337500154972076,-0.5491750240325928,0.01966249942779541
1781033541876827400,2.530827392578125,-0.10284999758005142,-0.6610999703407288,-0.015949999913573265
1781033541896329000,2.550328857421875,-0.11783749610185623,-0.8045125007629395,-0.035475000739097595
1781033541915831000,2.5698310546875,-0.09350000321865082,-0.9543874859809875,0.0004124999977648258
1781033541935335400,2.58933544921875,-0.05444999784231186,-1.0793750286102295,0.08772499859333038
1781033541954843100,2.608843017578125,-0.028187500312924385,-1.1600874662399292,0.18851250410079956
1781033541974350000,2.62835009765625,-0.025987500324845314,-1.1941875219345093,0.26468750834465027
1781033541993858600,2.647858642578125,-0.05335000157356262,-1.1914374828338623,0.2993375062942505
1781033542013368800,2.667368896484375,-0.11467500030994415,-1.1706750392913818,0.2923249900341034
1781033542032877000,2.686876953125,-0.21051250398159027,-1.1521124839782715,0.2475000023841858
1781033542052385500,2.706385498046875,-0.3217499852180481,-1.1442749500274658,0.16609999537467957
1781033542071891700,2.7258916015625,-0.41401249170303345,-1.1397374868392944,0.05472499877214432
1781033542091394600,2.74539453125,-0.46873748302459717,-1.1225500106811523,-0.06613750010728836
1781033542110900700,2.764900634765625,-0.5035250186920166,-1.0779999494552612,-0.16335000097751617
1781033542130409200,2.7844091796875,-0.5425750017166138,-1.0023750066757202,-0.20514999330043793
1781033542149912300,2.803912353515625,-0.5703499913215637,-0.905162513256073,-0.17627499997615814
1781033542169414000,2.823413818359375,-0.5491750240325928,-0.8034124970436096,-0.0873124971985817
1781033542188919000,2.8429189453125,-0.46406251192092896,-0.7129374742507935,0.02969999983906746
1781033542208423700,2.862423583984375,-0.32711249589920044,-0.6466624736785889,0.14190000295639038
1781033542227931000,2.881930908203125,-0.12278749793767929,-0.634975016117096,0.24268749356269836
1781033542247436300,2.901436279296875,0.2213750034570694,-0.73232501745224,0.35227498412132263
1781033542266939400,2.920939453125,0.7539125084877014,-0.9553499817848206,0.49582499265670776
1781033542286443500,2.940443603515625,1.4166624546051025,-1.2373625040054321,0.6861249804496765
1781033542305949000,2.959948974609375,2.0468249320983887,-1.473175048828125,0.9096999764442444
1781033542325452300,2.979452392578125,2.4774749279022217,-1.5992624759674072,1.131350040435791
1781033542344957400,2.99895751953125,2.4774749279022217,-1.5992624759674072,1.131350040435791
1781033542364468200,3.01846826171875,2.524362564086914,-1.5071375370025635,1.4433374404907227
1781033542383975000,3.037974853515625,2.1711249351501465,-1.3103749752044678,1.4976500272750854
1781033542403477000,3.05747705078125,1.6803874969482422,-1.0656249523162842,1.4834874868392944
1781033542422979000,3.07697900390625,1.1819499731063843,-0.8171625137329102,1.410062551498413
1781033542442478300,3.096478271484375,1.1819499731063843,-0.8171625137329102,1.410062551498413
1781033542461978400,3.115978271484375,1.1819499731063843,-0.8171625137329102,1.410062551498413
1781033542481480400,3.13548046875,0.4109874963760376,-0.34485000371932983,1.0507750511169434
1781033542500982000,3.15498193359375,0.06751249730587006,-0.10353749990463257,0.7068874835968018
1781033542520484400,3.174484375,-0.2630375027656555,0.12264999747276306,0.2937000095844269
1781033542539988000,3.193988037109375,-0.5130124688148499,0.30758750438690186,-0.08799999952316284
1781033542559490800,3.21349072265625,-0.6267250180244446,0.4408249855041504,-0.36492499709129333
1781033542578992000,3.2329921875,-0.632224977016449,0.5340499877929688,-0.5391374826431274
1781033542598494200,3.252494140625,-0.5971624851226807,0.6065124869346619,-0.644599974155426
1781033542617998300,3.271998291015625,-0.5660874843597412,0.668524980545044,-0.7084000110626221
1781033542637500700,3.291500732421875,-0.5531625151634216,0.7187125086784363,-0.7539125084877014
1781033542657001700,3.311001708984375,-0.5578374862670898,0.7528125047683716,-0.7999749779701233
1781033542676507600,3.330507568359375,-0.5660874843597412,0.775362491607666,-0.8556625247001648
1781033542696014600,3.3500146484375,-0.5543999671936035,0.7986000180244446,-0.9231749773025513
1781033542715523000,3.369523193359375,-0.5288249850273132,0.8305000066757202,-1.0067750215530396
1781033542735030000,3.389030029296875,-0.5262125134468079,0.8699625134468079,-1.1089375019073486
1781033542754537000,3.408536865234375,-0.5780500173568726,0.9121749997138977,-1.2223750352859497
1781033542774047200,3.428047119140625,-0.6866750121116638,0.9523249864578247,-1.3300374746322632
1781033542793559600,3.4475595703125,-0.8346250057220459,0.9889000058174133,-1.4111624956130981
1781033542813069300,3.4670693359375,-0.9895874857902527,1.0214874744415283,-1.4474624395370483
1781033542832576000,3.486575927734375,-1.104812502861023,1.047474980354309,-1.4260125160217285
1781033542852075800,3.50607568359375,-1.1574749946594238,1.062600016593933,-1.3452999591827393
1781033542871571700,3.52557177734375,-1.167099952697754,1.0649374723434448,-1.2160500288009644
1781033542891072800,3.54507275390625,-1.1567875146865845,1.0539374351501465,-1.0528374910354614
1781033542910579000,3.564578857421875,-1.107699990272522,1.0272624492645264,-0.8684499859809875
1781033542930091800,3.584091796875,-0.9814749956130981,0.9836750030517578,-0.6712750196456909
1781033542949604400,3.603604248046875,-0.7895249724388123,0.9323874711990356,-0.468874990940094
1781033542969111300,3.623111328125,-0.603487491607666,0.8907250165939331,-0.27486249804496765
1781033542988620500,3.64262060546875,-0.48688748478889465,0.8694124817848206,-0.11027500033378601
1781033543008129000,3.66212890625,-0.43326249718666077,0.8626750111579895,0.0056374999694526196
1781033543027637500,3.681637451171875,-0.3940750062465668,0.8586875200271606,0.06668750196695328
1781033543047142700,3.701142578125,-0.34952500462532043,0.8525000214576721,0.08621250092983246
1781033543066643200,3.720643310546875,-0.31927499175071716,0.8472750186920166,0.08910000324249268
1781033543086146600,3.740146484375,-0.31652501225471497,0.8458999991416931,0.09363749623298645
1781033543105653200,3.7596533203125,-0.32752498984336853,0.8452125191688538,0.10477499663829803
1781033543125161200,3.7791611328125,-0.3357749879360199,0.8387500047683716,0.12278749793767929
1781033543144668200,3.798668212890625,-0.33467498421669006,0.8193625211715698,0.15070000290870667
1781033543164173000,3.818173095703125,-0.3251875042915344,0.7852625250816345,0.19208750128746033
1781033543183680300,3.83768017578125,-0.3063499927520752,0.7415375113487244,0.24722500145435333
1781033543203190000,3.85718994140625,-0.2727999985218048,0.6945124864578247,0.31349998712539673
1781033543222696700,3.87669677734375,-0.2727999985218048,0.6945124864578247,0.31349998712539673
1781033543242200000,3.896199951171875,-0.2727999985218048,0.6945124864578247,0.31349998712539673
1781033543261702400,3.915702392578125,-0.1214125007390976,0.6022499799728394,0.4395875036716461
1781033543281205000,3.935205078125,0.0016499999910593033,0.5626500248908997,0.4670875072479248
1781033543300706800,3.954706787109375,0.11192499846220016,0.5328124761581421,0.4684624969959259
1781033543320208100,3.9742080078125,0.15372499823570251,0.5138375163078308,0.4582875072956085
1781033543339705600,3.99370556640625,0.12278749793767929,0.5059999823570251,0.4456374943256378
1781033543359203300,4.013203369140625,0.07809999585151672,0.5072374939918518,0.4222624897956848
1781033543378701000,4.032701171875,0.08057499676942825,0.5132874846458435,0.37894999980926514
1781033543398199000,4.052198974609375,0.13983750343322754,0.5178250074386597,0.32298749685287476
1781033543417696000,4.071696044921875,0.22907499969005585,0.5128750205039978,0.2667500078678131
1781033543437193500,4.091193359375,0.32284998893737793,0.4923875033855438,0.2153249979019165
1781033543456699400,4.110699462890625,0.39682498574256897,0.4558124840259552,0.16940000653266907
1781033543476207000,4.13020703125,0.4258374869823456,0.40700000524520874,0.13337500393390656
1781033543495711200,4.149711181640625,0.40136250853538513,0.35062500834465027,0.11316250264644623
1781033543515217200,4.169217041015625,0.3460874855518341,0.28943750262260437,0.10821250081062317
1781033543534729200,4.188729248046875,0.30346250534057617,0.22384999692440033,0.10766249895095825
1781033543554238500,4.208238525390625,0.3059374988079071,0.15633749961853027,0.0976250022649765
1781033543573739300,4.2277392578125,0.3493874967098236,0.09239999949932098,0.07315000146627426
1781033543593237200,4.2472373046875,0.3942124843597412,0.0387750007212162,0.04358749836683273
1781033543612737300,4.2667373046875,0.3975124955177307,0,0.023099999874830246
1781033543632240600,4.28624072265625,0.3513124883174896,-0.02433750033378601,0.015675000846385956
1781033543651745300,4.305745361328125,0.2937000095844269,-0.03932499885559082,0.00989999994635582
1781033543671254500,4.325254638671875,0.26977500319480896,-0.05115000158548355,-0.006324999965727329
1781033543690762500,4.344762451171875,0.27953749895095825,-0.06393750011920929,-0.028462499380111694
1781033543710266400,4.364266357421875,0.28792500495910645,-0.07837499678134918,-0.03987500071525574
1781033543729771800,4.383771728515625,0.2780250012874603,-0.09184999763965607,-0.03423750028014183
1781033543749276400,4.4032763671875,0.2662000060081482,-0.10092499852180481,-0.020075000822544098
1781033543768781300,4.42278125,0.2718375027179718,-0.10353749990463257,-0.009487500414252281
1781033543788290300,4.442290283203125,0.2843500077724457,-0.09968750178813934,-0.0030249999836087227
1781033543807800300,4.46180029296875,0.2677125036716461,-0.08813749998807907,0.010862499475479126
1781033543827311400,4.481311279296875,0.19112500548362732,-0.06558749824762344,0.04441250115633011
1781033543846826000,4.500825927734375,0.06503749638795853,-0.027499999850988388,0.09707500040531158
1781033543866340400,4.52034033203125,-0.06984999775886536,0.026399999856948853,0.1564749926328659
1781033543885850000,4.53985009765625,-0.18369999527931213,0.09212499856948853,0.21230000257492065
1781033543905358300,4.5593583984375,-0.2679874897003174,0.16321249306201935,0.2605625092983246
1781033543924867000,4.5788671875,-0.2679874897003174,0.16321249306201935,0.2605625092983246
1781033543944375800,4.598375732421875,-0.31913748383522034,0.23649999499320984,0.2975499927997589
1781033543963886000,4.617885986328125,-0.38183748722076416,0.41497498750686646,0.34485000371932983
1781033543983395600,4.6373955078125,-0.46172499656677246,0.5219500064849854,0.37482500076293945
1781033544002903800,4.65690380859375,-0.5685625076293945,0.6179249882698059,0.4078249931335449
1781033544022412000,4.676412109375,-0.5685625076293945,0.6179249882698059,0.4078249931335449
1781033544041919700,4.695919677734375,-0.6608250141143799,0.6859874725341797,0.43078750371932983
1781033544061428000,4.715427978515625,-0.7108749747276306,0.7268249988555908,0.4342249929904938
1781033544080932600,4.7349326171875,-0.7148625254631042,0.7484124898910522,0.4170374870300293
1781033544100437800,4.754437744140625,-0.6778749823570251,0.7517125010490417,0.38087499141693115
1781033544119944700,4.77394482421875,-0.6125624775886536,0.7338374853134155,0.3302749991416931
1781033544139449000,4.793448974609375,-0.544362485408783,0.706475019454956,0.27761250734329224
1781033544158951000,4.812950927734375,-0.5112249851226807,0.7119749784469604,0.2433750033378601
1781033544178454300,4.832454345703125,-0.5388625264167786,0.8009374737739563,0.24447499215602875
1781033544197957400,4.851957275390625,-0.6147624850273132,0.9798250198364258,0.28049999475479126
1781033544217462800,4.871462890625,-0.7023500204086304,1.215499997138977,0.34127500653266907
1781033544236968200,4.89096826171875,-0.7712374925613403,1.4682250022888184,0.420199990272522
1781033544256467700,4.9104677734375,-0.8101499676704407,1.721637487411499,0.5167250037193298
1781033544275969800,4.9299697265625,-0.8080874681472778,1.9859124422073364,0.6208124756813049
1781033544295472400,4.949472412109375,-0.7499250173568726,2.2644875049591064,0.7045499682426453
1781033544314973700,4.9689736328125,-0.6267250180244446,2.4418625831604004,0.7170624732971191
1781033544334475300,4.988475341796875,-0.4372499883174896,2.214437484741211,0.5982624888420105
1781033544353981000,5.00798095703125,-0.1905750036239624,1.3734874725341797,0.33508750796318054
1781033544373490400,5.027490478515625,0.09941250085830688,0.11756250262260437,-0.010862499475479126
1781033544393000700,5.047000732421875,0.39723750948905945,-1.0756624937057495,-0.3316499888896942
1781033544412506000,5.066506103515625,0.6373124718666077,-1.8276499509811401,-0.5376250147819519
1781033544432008200,5.08600830078125,0.7651875019073486,-2.073087453842163,-0.6095374822616577
1781033544451511300,5.10551123046875,0.777287483215332,-1.983162522315979,-0.5890499949455261
1781033544471018000,5.12501806640625,0.7204999923706055,-1.7825499773025513,-0.5388625264167786
1781033544490530300,5.1445302734375,0.6571124792098999,-1.6069624423980713,-0.5029749870300293
1781033544510043000,5.16404296875,0.6221874952316284,-1.4722124338150024,-0.48867499828338623
1781033544529552100,5.18355224609375,0.6106374859809875,-1.3420000076293945,-0.4782249927520752
1781033544549062000,5.203061767578125,0.5945500135421753,-1.1901999711990356,-0.4512749910354614
1781033544568570400,5.2225703125,0.5512375235557556,-1.0220375061035156,-0.4016374945640564
1781033544588078300,5.242078369140625,0.4816625118255615,-0.8629499673843384,-0.3423750102519989
1781033544607583200,5.261583251953125,0.4030124843120575,-0.7303999662399292,-0.29493749141693115
1781033544627086300,5.28108642578125,0.334262490272522,-0.6294749975204468,-0.2747249901294708
1781033544646590200,5.300590087890625,0.28971248865127563,-0.5695250034332275,-0.28806251287460327
1781033544666095000,5.32009521484375,0.2723875045776367,-0.5574250221252441,-0.32958748936653137
1781033544685603800,5.339603759765625,0.27527499198913574,-0.5763999819755554,-0.3830749988555908
1781033544705116200,5.3591162109375,0.29438748955726624,-0.5906999707221985,-0.4314749836921692
1781033544724629000,5.37862890625,0.3345375061035156,-0.5747500061988831,-0.4614500105381012
1781033544744139300,5.39813916015625,0.4010874927043915,-0.5357000231742859,-0.46598750352859497
1781033544763647700,5.417647705078125,0.48454999923706055,-0.49720001220703125,-0.4423374831676483
1781033544783156200,5.43715625,0.5611374974250793,-0.4716250002384186,-0.3942124843597412
1781033544802665200,5.456665283203125,0.5611374974250793,-0.4716250002384186,-0.3942124843597412
1781033544822180000,5.47618017578125,0.5611374974250793,-0.4716250002384186,-0.3942124843597412
1781033544841696300,5.4956962890625,0.6656374931335449,-0.4633750021457672,-0.2881999909877777
1781033544861205000,5.515205078125,0.6967124938964844,-0.4978874921798706,-0.25808748602867126
1781033544880712200,5.534712158203125,0.6931374669075012,-0.5609999895095825,-0.23539999127388
1781033544900221000,5.554220947265625,0.6507874727249146,-0.6352499723434448,-0.20308749377727509
1781033544919731500,5.5737314453125,0.6061000227928162,-0.7071624994277954,-0.15496249496936798
1781033544939241500,5.593241455078125,0.5878124833106995,-0.7704125046730042,-0.09583749622106552
1781033544958749200,5.612749267578125,0.5649874806404114,-0.8100125193595886,-0.03341250121593475
1781033544978256600,5.632256591796875,0.4731374979019165,-0.8047875165939331,0.02502499893307686
1781033544997762300,5.65176220703125,0.27018749713897705,-0.7496500015258789,0.07535000145435333
1781033545017267000,5.671266845703125,-0.026537500321865082,-0.6615124940872192,0.11935000121593475
1781033545036765400,5.690765380859375,-0.34952500462532043,-0.5704874992370605,0.15908749401569366
1781033545056258800,5.7102587890625,-0.6190249919891357,-0.5025625228881836,0.19002500176429749
1781033545075759900,5.729759765625,-0.7925499677658081,-0.4683249890804291,0.20116250216960907
1781033545095263700,5.749263671875,-0.889074981212616,-0.46543750166893005,0.1816374957561493
1781033545114765600,5.768765625,-0.9534249901771545,-0.4852375090122223,0.13062499463558197
1781033545134269200,5.788269287109375,-1.0048500299453735,-0.5216749906539917,0.06641250103712082
1781033545153772000,5.80777197265625,-1.005674958229065,-0.5747500061988831,0.043449997901916504
1781033545173273600,5.827273681640625,-0.8860499858856201,-0.6462500095367432,0.12622499465942383
1781033545192778200,5.8467783203125,-0.5972999930381775,-0.7275124788284302,0.3441624939441681
1781033545212285700,5.86628564453125,-0.16967499256134033,-0.7957124710083008,0.6595875024795532
1781033545231793200,5.885793212890625,0.27541249990463257,-0.8331124782562256,0.9693750143051147
1781033545251298300,5.90529833984375,0.6159999966621399,-0.8434249758720398,1.1706750392913818
1781033545270803200,5.92480322265625,0.8016250133514404,-0.851812481880188,1.1923999786376953
1781033545290307300,5.944307373046875,0.8801375031471252,-0.8973249793052673,1.0232750177383423
1781033545309809000,5.963808837890625,0.953837513923645,-1.005674958229065,0.7239375114440918
1781033545329312300,5.983312255859375,1.1098999977111816,-1.1705374717712402,0.3955875039100647
1781033545348817400,6.0028173828125,1.3828375339508057,-1.359737515449524,0.14135000109672546
1781033545368320300,6.0223203125,1.7142125368118286,-1.5290000438690186,0.010449999943375587
1781033545387823000,6.041822998046875,1.993749976158142,-1.6445000171661377,-0.0028874999843537807
1781033545407330800,6.061330810546875,2.1373000144958496,-1.6879500150680542,0.07012499868869781
1781033545426836200,6.080836181640625,2.1183249950408936,-1.6530250310897827,0.18768750131130219
1781033545446335200,6.100335205078125,1.957450032234192,-1.543025016784668,0.3114374876022339
1781033545465839000,6.119839111328125,1.6795624494552612,-1.36537504196167,0.4047999978065491
1781033545485346600,6.1393466796875,1.2926374673843384,-1.1369874477386475,0.43037500977516174
1781033545504851700,6.158851806640625,1.2926374673843384,-1.1369874477386475,0.43037500977516174
1781033545524353800,6.178353759765625,0.824037492275238,-0.8938875198364258,0.3675374984741211
1781033545543858400,6.1978583984375,0.3097875118255615,-0.6653624773025513,0.21078750491142273
1781033545563362300,6.2173623046875,-0.18191249668598175,-0.45787498354911804,-0.015812499448657036
1781033545582862800,6.23686279296875,-0.816474974155426,-0.07851249724626541,-0.45938751101493835
1781033545602365200,6.256365234375,-0.816474974155426,-0.07851249724626541,-0.45938751101493835
1781033545621867000,6.275866943359375,-0.9446250200271606,0.06916250288486481,-0.5935875177383423
1781033545641367800,6.295367919921875,-0.9913749694824219,0.16101250052452087,-0.6615124940872192
1781033545660866300,6.3148662109375,-0.963325023651123,0.19497500360012054,-0.6747124791145325
1781033545680365300,6.334365234375,-0.8615750074386597,0.18782499432563782,-0.6441875100135803
1781033545699869400,6.353869384765625,-0.7140374779701233,0.16513749957084656,-0.5828624963760376
1781033545719377000,6.373376953125,-0.5597624778747559,0.147537499666214,-0.5035250186920166
1781033545738886400,6.392886474609375,-0.41359999775886536,0.13887499272823334,-0.4152500033378601
1781033545758393900,6.412393798828125,-0.27665001153945923,0.13887499272823334,-0.3264249861240387
1781033545777895200,6.431895263671875,-0.17132499814033508,0.15853749215602875,-0.2516250014305115
1781033545797398000,6.45139794921875,-0.12828749418258667,0.21175000071525574,-0.20666250586509705
1781033545816905500,6.470905517578125,-0.1451999992132187,0.29961249232292175,-0.20253749191761017
1781033545836414700,6.490414794921875,-0.18081249296665192,0.4071374833583832,-0.24296249449253082
1781033545855921200,6.509921142578125,-0.21133749186992645,0.5131499767303467,-0.3282124996185303
1781033545875423000,6.529423095703125,-0.2513499855995178,0.602524995803833,-0.45223748683929443
1781033545894924500,6.548924560546875,-0.30937498807907104,0.6672874689102173,-0.5995000004768372
1781033545914429700,6.5684296875,-0.36684998869895935,0.7050999999046326,-0.7510250210762024
1781033545933932800,6.587932861328125,-0.40878748893737793,0.7195374965667725,-0.8885250091552734
1781033545953436400,6.6074365234375,-0.4357374906539917,0.7233874797821045,-0.9887624979019165
1781033545972942000,6.626942138671875,-0.4409624934196472,0.7317749857902527,-1.0300124883651733
1781033545992448500,6.646448486328125,-0.40974998474121094,0.7470374703407288,-1.0102125406265259
1781033546011953400,6.665953369140625,-0.34402498602867126,0.7591375112533569,-0.9502624869346619
1781033546031460400,6.68546044921875,-0.2569875121116638,0.7613375186920166,-0.8747749924659729
1781033546050969600,6.704969482421875,-0.15619999170303345,0.7584499716758728,-0.792412519454956
1781033546070476800,6.724476806640625,-0.06297499686479568,0.7612000107765198,-0.7037249803543091
1781033546089983200,6.743983154296875,-0.021449999883770943,0.7783874869346619,-0.613937497138977
1781033546109486000,6.763486083984375,-0.07067500054836273,0.8163374662399292,-0.5354250073432922
1781033546128988000,6.78298779296875,-0.20954999327659607,0.8806874752044678,-0.4769875109195709
1781033546148488700,6.80248876953125,-0.38843750953674316,0.9721249938011169,-0.4358749985694885
1781033546167983600,6.821983642578125,-0.5387250185012817,1.0799249410629272,-0.4020499885082245
1781033546187478500,6.841478515625,-0.6220499873161316,1.185937523841858,-0.37248748540878296
1781033546206975700,6.860975830078125,-0.6582124829292297,1.2770999670028687,-0.35420000553131104
1781033546226472700,6.88047265625,-0.6928625106811523,1.3499749898910522,-0.3513124883174896
1781033546245975800,6.899975830078125,-0.7402999997138977,1.4022250175476074,-0.35420000553131104
1781033546265484000,6.919484130859375,-0.7612000107765198,1.4236749410629272,-0.3470500111579895
1781033546284983300,6.9389833984375,-0.7612000107765198,1.4236749410629272,-0.3470500111579895
1781033546304479200,6.958479248046875,-0.7085375189781189,1.4038749933242798,-0.32243749499320984
1781033546323981600,6.977981689453125,-0.4226749837398529,1.2896125316619873,-0.22907499969005585
1781033546343484700,6.997484619140625,-0.27761250734329224,1.2342000007629395,-0.16885000467300415
1781033546362983200,7.016983154296875,-0.17201249301433563,1.1815375089645386,-0.1073874980211258
1781033546382481000,7.03648095703125,-0.17201249301433563,1.1815375089645386,-0.1073874980211258
1781033546401983000,7.05598291015625,-0.17201249301433563,1.1815375089645386,-0.1073874980211258
1781033546421487000,7.075487060546875,-0.05197500064969063,1.0356500148773193,0.014024999924004078
1781033546440989000,7.094989013671875,0.020899999886751175,0.926337480545044,0.06764999777078629
1781033546460487700,7.11448779296875,0.13241249322891235,0.7953000068664551,0.09982500225305557
1781033546479991800,7.13399169921875,0.26317501068115234,0.6554625034332275,0.10491249710321426
1781033546499502600,7.153502685546875,0.3777124881744385,0.5229125022888184,0.09226249903440475
1781033546519005200,7.173005126953125,0.4536125063896179,0.40411248803138733,0.07590000331401825
1781033546538505200,7.192505126953125,0.49197500944137573,0.297962486743927,0.06324999779462814
1781033546558011600,7.21201171875,0.5048999786376953,0.20198750495910645,0.05472499877214432
1781033546577520000,7.23152001953125,0.5003625154495239,0.11316250264644623,0.05073750019073486
1781033546597030100,7.251030029296875,0.48537498712539673,0.031212499365210533,0.052662499248981476
1781033546616537600,7.27053759765625,0.469837486743927,-0.040699999779462814,0.06173750013113022
1781033546636044300,7.290044189453125,0.4628250002861023,-0.09790000319480896,0.07864999771118164
1781033546655549200,7.309549072265625,0.46543750166893005,-0.13626250624656677,0.10051249712705612
1781033546675053000,7.329052978515625,0.4716250002384186,-0.15482500195503235,0.11866249889135361
1781033546694557400,7.348557373046875,0.4684624969959259,-0.1555124968290329,0.12319999933242798
1781033546714057500,7.368057373046875,0.4408249855041504,-0.1434125006198883,0.11137499660253525
1781033546733563400,7.3875634765625,0.38362500071525574,-0.12443749606609344,0.08896250277757645
1781033546753074200,7.40707421875,0.30483749508857727,-0.10326249897480011,0.06710000336170197
1781033546772577500,7.42657763671875,0.210099995136261,-0.08043749630451202,0.057612501084804535
1781033546792082400,7.44608251953125,0.1036750003695488,-0.055137500166893005,0.0658624991774559
1781033546811592400,7.465592529296875,0.0038499999791383743,-0.02983750030398369,0.0849749967455864
1781033546831101400,7.485101318359375,-0.060362499207258224,-0.010174999944865704,0.10326249897480011
1781033546850606000,7.504606201171875,-0.07438749819993973,-0.0006874999962747097,0.11659999936819077
1781033546870112000,7.524112060546875,-0.052799999713897705,-0.0017874999903142452,0.13186250627040863
1781033546889621200,7.543621337890625,-0.014987500384449959,-0.011824999935925007,0.1541374921798706
1781033546909127000,7.563126953125,0.030799999833106995,-0.027775000780820847,0.17874999344348907
1781033546928631000,7.582631103515625,0.08002500236034393,-0.04427500069141388,0.19676250219345093
1781033546948137200,7.60213720703125,0.1260875016450882,-0.05431250110268593,0.20281249284744263
1781033546967644000,7.621643798828125,0.15661250054836273,-0.05087500065565109,0.19772499799728394
1781033546987152000,7.64115185546875,0.16032500565052032,-0.031212499365210533,0.18768750131130219
1781033547006654500,7.660654541015625,0.12113749980926514,0.0031624999828636646,0.1839749962091446
1781033547026155000,7.680155029296875,0.030387500301003456,0.04661250114440918,0.19676250219345093
1781033547045663500,7.69966357421875,-0.08332499861717224,0.09019999951124191,0.22192500531673431
1781033547065175600,7.719175537109375,-0.16898749768733978,0.12691250443458557,0.24365000426769257
1781033547084688400,7.7386884765625,-0.16898749768733978,0.12691250443458557,0.24365000426769257
1781033547104200000,7.758199951171875,-0.2633124887943268,0.18383750319480896,0.2769249975681305
1781033547123707000,7.777706787109375,-0.2633124887943268,0.18383750319480896,0.2769249975681305
1781033547143214800,7.79721484375,-0.33274999260902405,0.21889999508857727,0.3106124997138977
1781033547162724000,7.81672412109375,-0.3910500109195709,0.26358750462532043,0.34251248836517334
1781033547182231800,7.836231689453125,-0.3910500109195709,0.26358750462532043,0.34251248836517334
1781033547201739000,7.855739013671875,-0.4081000089645386,0.39806249737739563,0.34814998507499695
1781033547221240800,7.87524072265625,-0.41167500615119934,0.49197500944137573,0.3353624939918518
1781033547240742000,7.894741943359375,-0.4278999865055084,0.5882250070571899,0.3258749842643738
1781033547260243000,7.914242919921875,-0.4614500105381012,0.6712750196456909,0.32711249589920044
1781033547279744300,7.933744140625,-0.5176874995231628,0.7411249876022339,0.3443000018596649
1781033547299249200,7.953249267578125,-0.5770875215530396,0.8018999695777893,0.36918750405311584
1781033547318752300,7.972752197265625,-0.6018375158309937,0.8516749739646912,0.3830749988555908
1781033547338254800,7.9922548828125,-0.5830000042915344,0.8886625170707703,0.3796375095844269
1781033547357753900,8.01175390625,-0.5505499839782715,0.9191874861717224,0.3716624975204468
1781033547377253400,8.03125341796875,-0.5335000157356262,0.9575499892234802,0.369049996137619
1781033547396755200,8.050755126953124,-0.5361124873161316,1.0194250345230103,0.3669874966144562
1781033547416258600,8.070258544921876,-0.5479375123977661,1.1129250526428223,0.35530000925064087
1781033547435762400,8.089762451171875,-0.5597624778747559,1.2324124574661255,0.329862505197525
1781033547455262500,8.109262451171874,-0.5647125244140625,1.3593250513076782,0.2899875044822693
1781033547474765600,8.128765625,-0.5659499764442444,1.4998500347137451,0.23746250569820404
1781033547494272000,8.14827197265625,-0.5748875141143799,1.6785999536514282,0.18369999527931213
1781033547513782000,8.167781982421875,-0.5609999895095825,1.8334250450134277,0.15125000476837158
1781033547533290800,8.187290771484374,-0.4296875,1.7399250268936157,0.15867500007152557
1781033547552798000,8.2067978515625,-0.11522500216960907,1.1585749387741089,0.19139999151229858
1781033547572307200,8.22630712890625,0.3316499888896942,0.10532499849796295,0.17723749577999115
1781033547591819300,8.2458193359375,0.7537750005722046,-1.124887466430664,0.016362499445676804
1781033547611331300,8.265331298828125,0.9641500115394592,-2.109112501144409,-0.06902500241994858
1781033547630841600,8.284841552734376,0.8838499784469604,-2.5059375762939453,0.006187499966472387
1781033547650347000,8.304346923828126,0.607200026512146,-2.290062427520752,-0.10449999570846558
1781033547669852000,8.323851806640626,0.30758750438690186,-1.7542250156402588,-0.2718375027179718
1781033547689360000,8.34335986328125,0.09693749994039536,-1.2640374898910522,-0.29411250352859497
1781033547708870100,8.3628701171875,-0.00976249948143959,-0.9945374727249146,-0.30428749322891235
1781033547728381200,8.382381103515625,-0.030524998903274536,-0.911899983882904,-0.33934998512268066
1781033547747884300,8.40188427734375,0.023237500339746475,-0.9242749810218811,-0.3723500072956085
1781033547767383000,8.421383056640625,0.14135000109672546,-0.963325023651123,-0.3713875114917755
1781033547786884400,8.44088427734375,0.29493749141693115,-0.9898625016212463,-0.33934998512268066
1781033547806387200,8.46038720703125,0.4221250116825104,-0.9752874970436096,-0.31075000762939453
1781033547825893600,8.4798935546875,0.46447500586509705,-0.9072250127792358,-0.3137750029563904
1781033547845403100,8.499403076171875,0.4265249967575073,-0.80121248960495,-0.34113749861717224
1781033547864910800,8.518910888671876,0.369049996137619,-0.6851624846458435,-0.3628624975681305
1781033547884415000,8.5384150390625,0.369049996137619,-0.6851624846458435,-0.3628624975681305
1781033547903921200,8.557921142578126,0.3639625012874603,-0.5820375084877014,-0.357637494802475
1781033547923431200,8.57743115234375,0.5798375010490417,-0.4544374942779541,-0.28462499380111694
1781033547942940700,8.596940673828126,0.7217375040054321,-0.42899999022483826,-0.2461249977350235
1781033547962442800,8.61644287109375,0.7217375040054321,-0.42899999022483826,-0.2461249977350235
1781033547981940200,8.635940185546875,0.8178499937057495,-0.41497498750686646,-0.21312500536441803
1781033548001443000,8.655443115234375,0.8320124745368958,-0.38376250863075256,-0.18150000274181366
1781033548020952800,8.674952880859376,0.7697250247001648,-0.3363249897956848,-0.15592500567436218
1781033548040466400,8.694466552734376,0.7057874798774719,-0.3345375061035156,-0.14739999175071716
1781033548059980300,8.713980224609376,0.7559750080108643,-0.45691248774528503,-0.14918750524520874
1781033548079495400,8.733495361328124,0.964287519454956,-0.6880499720573425,-0.1251250058412552
1781033548099010800,8.7530107421875,1.1721874475479126,-0.8685874938964844,-0.07823749631643295
1781033548118521600,8.772521484375,1.1309374570846558,-0.8794500231742859,-0.10615000128746033
1781033548138033200,8.792033203125,0.768625020980835,-0.7618874907493591,-0.2777499854564667
1781033548157545200,8.811545166015625,0.24584999680519104,-0.6348375082015991,-0.42666250467300415
1781033548177058600,8.83105859375,-0.2087250053882599,-0.5919374823570251,-0.5407875180244446
1781033548196572200,8.850572265625,-0.47519999742507935,-0.6573874950408936,-0.6434999704360962
1781033548216084500,8.87008447265625,-0.602524995803833,-0.7818250060081482,-0.6305750012397766
1781033548235596500,8.889596435546874,-0.6953374743461609,-0.8823375105857849,-0.5384500026702881
1781033548255107000,8.909107177734375,-0.8083624839782715,-0.9114875197410583,-0.392425000667572
1781033548274619100,8.928619140625,-0.9461374878883362,-0.8802750110626221,-0.2283875048160553
1781033548294132200,8.94813232421875,-1.0770374536514282,-0.8256874680519104,-0.0658624991774559
1781033548313642800,8.967642822265624,-1.1515624523162842,-0.7818250060081482,0.10656250268220901
1781033548333151000,8.98715087890625,-1.1211750507354736,-0.7745375037193298,0.30799999833106995
1781033548352659700,9.00665966796875,-0.9795500040054321,-0.8119375109672546,0.5303375124931335
1781033548372168200,9.026168212890624,-0.7664250135421753,-0.8852249979972839,0.7360374927520752
1781033548391679200,9.04567919921875,-0.49156248569488525,-1.0128250122070312,0.9065374732017517
1781033548411191000,9.06519091796875,-0.09624999761581421,-1.2622499465942383,1.0506374835968018
1781033548430702300,9.084702392578125,0.5321249961853027,-1.6924874782562256,1.2280124425888062
1781033548450214000,9.1042138671875,1.4635499715805054,-2.257200002670288,1.548662543296814
1781033548469730600,9.12373046875,2.58032488822937,-2.7894625663757324,2.0713000297546387
1781033548489245700,9.14324560546875,3.5936999320983887,-3.1267499923706055,2.721400022506714
1781033548508759000,9.162759033203125,4.217812538146973,-3.211174964904785,3.3202123641967773
1781033548528269800,9.182269775390624,4.301000118255615,-3.0643250942230225,3.681837558746338
1781033548547778600,9.201778564453125,3.892625093460083,-2.7409250736236572,3.6645123958587646
1781033548567288600,9.22128857421875,3.2290499210357666,-2.3203125,3.2544875144958496
1781033548586800400,9.24080029296875,2.5576374530792236,-1.8837499618530273,2.59586238861084
1781033548606317000,9.260317138671875,1.9816499948501587,-1.471387505531311,1.8601000308990479
1781033548625826300,9.279826416015625,1.45722496509552,-1.0613625049591064,1.131350040435791
1781033548645329000,9.299328857421875,0.9153375029563904,-0.6194375157356262,0.4160749912261963
1781033548664832300,9.318832275390625,0.340862512588501,-0.15963749587535858,-0.2677125036716461
1781033548684335400,9.33833544921875,0.340862512588501,-0.15963749587535858,-0.2677125036716461
1781033548703839000,9.3578388671875,-0.7233874797821045,0.5817624926567078,-1.3256374597549438
1781033548723344400,9.377344482421876,-0.7233874797821045,0.5817624926567078,-1.3256374597549438
1781033548742850800,9.396850830078124,-1.3227499723434448,0.9333499670028687,-1.8430500030517578
1781033548762356500,9.4163564453125,-1.4184499979019165,1.0181875228881836,-1.9212875366210938
1781033548781864400,9.435864501953125,-1.4184499979019165,1.0181875228881836,-1.9212875366210938
1781033548801378300,9.45537841796875,-1.4140499830245972,1.0716749429702759,-1.9017624855041504
1781033548820894700,9.474894775390625,-1.3573999404907227,1.1023374795913696,-1.8232499361038208
1781033548840407300,9.4944072265625,-1.305287480354309,1.1243374347686768,-1.7326375246047974
1781033548859918000,9.51391796875,-1.2934625148773193,1.1544499397277832,-1.6526124477386475
1781033548879427800,9.533427734375,-1.3318250179290771,1.202299952507019,-1.5853749513626099
1781033548898936300,9.552936279296874,-1.3895750045776367,1.2585375308990479,-1.5192375183105469
1781033548918443000,9.572443115234375,-1.417349934577942,1.3110624551773071,-1.4491125345230103
1781033548937949700,9.59194970703125,-1.3913625478744507,1.3583624362945557,-1.3818750381469727
1781033548957462000,9.6114619140625,-1.3272874355316162,1.4026374816894531,-1.3168375492095947
1781033548976978400,9.630978515625,-1.2610124349594116,1.4441624879837036,-1.2417625188827515
1781033548996495400,9.650495361328124,-1.2000999450683594,1.4737249612808228,-1.1416624784469604
1781033549016006400,9.67000634765625,-1.1298375129699707,1.4803249835968018,-1.019837498664856
1781033549035521000,9.68952099609375,-1.0390875339508057,1.4606624841690063,-0.8978750109672546
1781033549055042600,9.70904248046875,-0.9296374917030334,1.4207874536514282,-0.7940624952316284
1781033549074560300,9.728560302734374,-0.821150004863739,1.3696374893188477,-0.7060624957084656
1781033549094068500,9.748068359375,-0.7375500202178955,1.3129874467849731,-0.6175125241279602
1781033549113576000,9.767575927734375,-0.6909375190734863,1.2534500360488892,-0.5189250111579895
1781033549133086700,9.787086669921875,-0.6716874837875366,1.195425033569336,-0.4193750023841858
1781033549152598800,9.806598876953124,-0.6579374670982361,1.1457874774932861,-0.3371500074863434
1781033549172111000,9.826111083984374,-0.634975016117096,1.109487533569336,-0.2807750105857849
1781033549191622400,9.845622314453125,-0.600600004196167,1.085012435913086,-0.24213749170303345
1781033549211132700,9.865132568359375,-0.5616874694824219,1.0665874481201172,-0.2069374918937683
1781033549230645000,9.88464501953125,-0.5347374677658081,1.0514625310897827,-0.16692499816417694
1781033549250157800,9.90415771484375,-0.533637523651123,1.0410125255584717,-0.12278749793767929
1781033549269666600,9.92366650390625,-0.5368000268936157,1.031387448310852,-0.08208750188350677
1781033549289175800,9.94317578125,-0.49059998989105225,1.0092500448226929,-0.05596249923110008
1781033549308687600,9.9626875,-0.36616250872612,0.9629124999046326,-0.05169999971985817
1781033549328198700,9.98219873046875,-0.1909874975681305,0.8922374844551086,-0.06544999778270721
1781033549347709400,10.00170947265625,-0.01759999990463257,0.8046500086784363,-0.08470000326633453
1781033549367216400,10.02121630859375,0.1264999955892563,0.7074375152587891,-0.0999625027179718
1781033549386722600,10.04072265625,0.23897500336170197,0.6045874953269958,-0.11055000126361847
1781033549406234400,10.060234375,0.3258749842643738,0.49953749775886536,-0.11990000307559967
1781033549425747700,10.079747802734374,0.3900874853134155,0.3969624936580658,-0.1284250020980835
1781033549445255400,10.09925537109375,0.42570000886917114,0.3044250011444092,-0.12925000488758087
1781033549464764200,10.11876416015625,0.42570000886917114,0.3044250011444092,-0.12925000488758087
1781033549484277200,10.13827734375,0.44398748874664307,0.17270000278949738,-0.082225002348423
1781033549503787000,10.157787109375,0.4702500104904175,0.13282500207424164,-0.040562499314546585
1781033549523294000,10.1772939453125,0.5025625228881836,0.10807500034570694,0.0009624999947845936
1781033549542801400,10.196801513671875,0.5025625228881836,0.10807500034570694,0.0009624999947845936
1781033549562308600,10.21630859375,0.5025625228881836,0.10807500034570694,0.0009624999947845936
1781033549581815300,10.235815185546874,0.4973374903202057,0.09569999575614929,0.05953750014305115
1781033549601326300,10.255326416015626,0.47011250257492065,0.10106249898672104,0.07479999959468842
1781033549620838000,10.274837890625,0.45416250824928284,0.10683749616146088,0.08139999955892563
1781033549640348000,10.294347900390624,0.45319998264312744,0.10903749614953995,0.08139999955892563
1781033549659857200,10.313857177734375,0.4446749985218048,0.11027500033378601,0.08181250095367432
1781033549679362800,10.33336279296875,0.40191251039505005,0.11852499842643738,0.09391249716281891
1781033549698865200,10.352865234375,0.32848748564720154,0.13653749227523804,0.12251249700784683
1781033549718366200,10.3723662109375,0.26138749718666077,0.15619999170303345,0.16087499260902405
1781033549737864000,10.391864013671874,0.23732499778270721,0.1667875051498413,0.19634999334812164
1781033549757365000,10.411364990234375,0.2601499855518341,0.16321249306201935,0.2194499969482422
1781033549776867600,10.43086767578125,0.305525004863739,0.14698749780654907,0.22866250574588776
1781033549796373200,10.450373291015625,0.3359124958515167,0.1251250058412552,0.23251250386238098
1781033549815881000,10.469880859375,0.32023748755455017,0.10615000128746033,0.24310000240802765
1781033549835387600,10.4893876953125,0.2525874972343445,0.09831249713897705,0.26688748598098755
1781033549854892300,10.508892333984376,0.1498750001192093,0.10752499848604202,0.3018124997615814
1781033549874397400,10.5283974609375,0.03698749840259552,0.13420000672340393,0.3436124920845032
1781033549893907500,10.547907470703125,-0.07452499866485596,0.172837495803833,0.39448750019073486
1781033549913415000,10.567414794921875,-0.17668749392032623,0.21422499418258667,0.4581499993801117
1781033549932922000,10.586922119140626,-0.2494249939918518,0.2480500042438507,0.5308874845504761
1781033549952431900,10.606431884765625,-0.26647499203681946,0.2653749883174896,0.5974375009536743
1781033549971941600,10.625941650390626,-0.21312500536441803,0.26028749346733093,0.6370375156402588
1781033549991451100,10.645451171875,-0.10821250081062317,0.23361249268054962,0.6380000114440918
1781033550010957300,10.664957275390625,0.0030249999836087227,0.18933749198913574,0.6039000153541565
1781033550030464500,10.684464599609376,0.08139999955892563,0.1331000030040741,0.5476624965667725
1781033550049971200,10.70397119140625,0.11659999936819077,0.07122500240802765,0.48042500019073486
1781033550069474300,10.723474365234376,0.12292499840259552,0.010724999941885471,0.4078249931335449
1781033550088976400,10.742976318359375,0.11426249891519547,-0.04124999791383743,0.33467498421669006
1781033550108479500,10.7624794921875,0.0906125009059906,-0.08016250282526016,0.2681249976158142
1781033550127983900,10.78198388671875,0.05101250112056732,-0.10353749990463257,0.21546250581741333
1781033550147490000,10.801489990234375,0.004812499973922968,-0.11110000312328339,0.17998750507831573
1781033550166998500,10.82099853515625,-0.030937500298023224,-0.10436250269412994,0.15826250612735748
1781033550186508300,10.84050830078125,-0.04028749838471413,-0.0849749967455864,0.14176249504089355
1781033550206015200,10.86001513671875,-0.02736249938607216,-0.052662499248981476,0.12443749606609344
1781033550225521400,10.879521484375,-0.026537500321865082,-0.007149999961256981,0.10944999754428864
1781033550245026000,10.899026123046875,-0.07356250286102295,0.04922499880194664,0.10284999758005142
1781033550264529400,10.918529296875,-0.07356250286102295,0.04922499880194664,0.10284999758005142
1781033550284029200,10.938029296875,-0.16664999723434448,0.11137499660253525,0.10326249897480011
1781033550303528400,10.957528564453124,-0.27156248688697815,0.17902499437332153,0.10271249711513519
1781033550323030800,10.97703076171875,-0.45223748683929443,0.3577750027179718,0.10037499666213989
1781033550342539800,10.996539794921874,-0.45223748683929443,0.3577750027179718,0.10037499666213989
1781033550362050300,11.01605029296875,-0.5458750128746033,0.46626248955726624,0.11687500029802322
1781033550381551400,11.03555126953125,-0.6334624886512756,0.5677375197410583,0.14767499268054962
1781033550401051600,11.0550517578125,-0.6965749859809875,0.6579374670982361,0.1849374920129776
1781033550420556300,11.074556396484375,-0.7207750082015991,0.7416750192642212,0.21683749556541443
1781033550440056000,11.09405615234375,-0.7015249729156494,0.8193625211715698,0.23100000619888306
1781033550459554800,11.113554931640625,-0.6517499685287476,0.8916875123977661,0.22247499227523804
1781033550479057400,11.133057373046874,-0.5979874730110168,0.9635999798774719,0.19882500171661377
1781033550498561000,11.15256103515625,-0.5618249773979187,1.0393625497817993,0.17613749206066132
1781033550518063900,11.17206396484375,-0.5468375086784363,1.1127874851226807,0.1667875051498413
1781033550537565400,11.1915654296875,-0.5402374863624573,1.1698499917984009,0.17668749392032623
1781033550557070300,11.2110703125,-0.5218124985694885,1.1996874809265137,0.20487499237060547
1781033550576572000,11.230572021484376,-0.47574999928474426,1.2020249366760254,0.24021250009536743
1781033550596073500,11.250073486328125,-0.403425008058548,1.1895124912261963,0.267300009727478
1781033550615575600,11.269575439453124,-0.328900009393692,1.1921249628067017,0.27761250734329224
1781033550635074600,11.289074462890625,-0.2854500114917755,1.2446500062942505,0.2730749845504761
1781033550654571800,11.30857177734375,-0.2858625054359436,1.3491499423980713,0.25478750467300415
1781033550674071000,11.328071044921876,-0.3082749843597412,1.4264249801635742,0.21587499976158142
1781033550693574700,11.34757470703125,-0.29878750443458557,1.2817749977111816,0.14011250436306
1781033550713078000,11.367078125,-0.20899999141693115,0.7106000185012817,0.016499999910593033
1781033550732578000,11.386578125,-0.03135000169277191,-0.27953749895095825,-0.14767499268054962
1781033550752077000,11.4060771484375,0.20308749377727509,-1.4047000408172607,-0.32766249775886536
1781033550771577300,11.425577392578125,0.41786250472068787,-2.244687557220459,-0.47533750534057617
1781033550791076400,11.445076416015626,0.5476624965667725,-2.516249895095825,-0.5244249701499939
1781033550810576600,11.46457666015625,0.6265875101089478,-2.2490875720977783,-0.421162486076355
1781033550830084400,11.48408447265625,0.7449749708175659,-1.6823124885559082,-0.1621125042438507
1781033550849589800,11.50358984375,0.9334874749183655,-1.0825375318527222,0.18603749573230743
1781033550869092400,11.52309228515625,1.110450029373169,-0.6257625222206116,0.4998124837875366
1781033550888594000,11.542593994140624,1.1901999711990356,-0.41346248984336853,0.6395124793052673
1781033550908093700,11.56209375,1.1786500215530396,-0.48413750529289246,0.526075005531311
1781033550927597300,11.581597412109375,1.1177375316619873,-0.7518500089645386,0.2059749960899353
1781033550947107300,11.601107421875,1.0089750289916992,-1.0355124473571777,-0.18383750319480896
1781033550966616600,11.620616455078125,0.8262374997138977,-1.1862125396728516,-0.5277249813079834
1781033550986121500,11.64012158203125,0.5988125205039978,-1.1666874885559082,-0.767799973487854
1781033551005626000,11.659626220703124,0.4064500033855438,-1.0250624418258667,-0.8827499747276306
1781033551025132300,11.67913232421875,0.3115749955177307,-0.8399875164031982,-0.8791750073432922
1781033551044638700,11.698638671875,0.3115749955177307,-0.8399875164031982,-0.8791750073432922
1781033551064146200,11.718146240234375,0.3971000015735626,-0.5275874733924866,-0.6430875062942505
1781033551083657700,11.73765771484375,0.4666749835014343,-0.38885000348091125,-0.4787749946117401
1781033551103164000,11.757163818359375,0.4772624969482422,-0.24763749539852142,-0.3297249972820282
1781033551122663700,11.77666357421875,0.4772624969482422,-0.24763749539852142,-0.3297249972820282
1781033551142163000,11.796162841796875,0.4772624969482422,-0.24763749539852142,-0.3297249972820282
1781033551161664800,11.815664794921876,0.3689124882221222,-0.15234999358654022,-0.24296249449253082
1781033551181166000,11.835166015625,0.36410000920295715,-0.35089999437332153,-0.3422375023365021
1781033551200664800,11.854664794921876,0.40755000710487366,-0.6654999852180481,-0.45842498540878296
1781033551220162800,11.874162841796876,0.4259749948978424,-0.9318374991416931,-0.5376250147819519
1781033551239660800,11.893660888671874,0.32298749685287476,-1.0023750066757202,-0.5597624778747559
1781033551259167000,11.9131669921875,0.06311249732971191,-0.8366875052452087,-0.5043500065803528
1781033551278676500,11.932676513671876,-0.2824249863624573,-0.5101249814033508,-0.3870624899864197
1781033551298184000,11.952183837890624,-0.5828624963760376,-0.1662375032901764,-0.2303124964237213
1781033551317692200,11.971692138671875,-0.7376874685287476,0.0471624992787838,-0.06847500056028366
1781033551337198000,11.991197998046875,-0.7303999662399292,0.050187498331069946,0.06228749826550484
1781033551356699600,12.01069970703125,-0.6059625148773193,-0.1531749963760376,0.13859999179840088
1781033551376196400,12.0301962890625,-0.42803749442100525,-0.4871625006198883,0.15372499823570251
1781033551395696000,12.049696044921875,-0.24186250567436218,-0.861299991607666,0.11453749984502792
1781033551415200800,12.06920068359375,-0.055687498301267624,-1.2187999486923218,0.03932499885559082
1781033551434704100,12.0887041015625,0.13516250252723694,-1.5300999879837036,-0.03753750026226044
1781033551454204700,12.10820458984375,0.30428749322891235,-1.7674249410629272,-0.08071249723434448
1781033551473708500,12.12770849609375,0.41222500801086426,-1.9116624593734741,-0.07466249912977219
1781033551493214200,12.147214111328125,0.4758875072002411,-1.9878374338150024,-0.026399999856948853
1781033551512720400,12.166720458984376,0.5647125244140625,-2.0410499572753906,0.048124998807907104
1781033551532227600,12.1862275390625,0.7382375001907349,-2.102787494659424,0.13557499647140503
1781033551551733500,12.2057333984375,1.0250624418258667,-2.1997249126434326,0.22756250202655792
1781033551571236400,12.225236328125,1.4134999513626099,-2.3264999389648438,0.33192500472068787
1781033551590740000,12.244739990234375,1.7997374534606934,-2.4044625759124756,0.4587000012397766
1781033551610246700,12.26424658203125,2.0195999145507812,-2.336400032043457,0.6140750050544739
1781033551629753900,12.28375390625,1.979587435722351,-2.101412534713745,0.7959874868392944
1781033551649259300,12.30325927734375,1.737862467765808,-1.7803499698638916,0.988349974155426
1781033551668764400,12.322764404296874,1.4333000183105469,-1.4797749519348145,1.171774983406067
1781033551688268000,12.34226806640625,1.173699975013733,-1.2548249959945679,1.3300374746322632
1781033551707771400,12.361771484375,0.9982500076293945,-1.0993125438690186,1.458050012588501
1781033551727277300,12.38127734375,0.8718875050544739,-0.9689624905586243,1.5310624837875366
1781033551746785300,12.400785400390625,0.7408499717712402,-0.8226624727249146,1.5131875276565552
1781033551766293800,12.420293701171875,0.5814874768257141,-0.6451500058174133,1.4022250175476074
1781033551785802200,12.43980224609375,0.38885000348091125,-0.4395875036716461,1.2181124687194824
1781033551805310200,12.459310302734375,0.18411250412464142,-0.22357499599456787,0.991100013256073
1781033551824815000,12.478815185546875,0.18411250412464142,-0.22357499599456787,0.991100013256073
1781033551844320000,12.498320068359375,-0.06270000338554382,0.15441249310970306,0.5186499953269958
1781033551863827700,12.51782763671875,-0.09927500039339066,0.29534998536109924,0.26785001158714294
1781033551883333400,12.53733349609375,-0.1471250057220459,0.40246251225471497,-0.0028874999843537807
1781033551902839000,12.556839111328125,-0.23608750104904175,0.4791874885559082,-0.28366249799728394
1781033551922347800,12.57634765625,-0.36492499709129333,0.5318499803543091,-0.5655375123023987
1781033551941854000,12.59585400390625,-0.36492499709129333,0.5318499803543091,-0.5655375123023987
1781033551961361400,12.615361328125,-0.5295125246047974,0.571862518787384,-0.8417750000953674
1781033551980873200,12.634873291015625,-0.7123875021934509,0.6168249845504761,-1.0837750434875488
1781033552000381400,12.65438134765625,-0.8762875199317932,0.681725025177002,-1.2581249475479126
1781033552019888600,12.673888671875,-0.9938499927520752,0.7660124897956848,-1.3611124753952026
1781033552039395600,12.6933955078125,-1.0613625049591064,0.8625375032424927,-1.4141875505447388
1781033552058906000,12.712906005859375,-1.0951875448226929,0.9673125147819519,-1.4327499866485596
1781033552078418400,12.73241845703125,-1.1254374980926514,1.0819875001907349,-1.4234000444412231
1781033552097929200,12.75192919921875,-1.1866250038146973,1.2065625190734863,-1.4011249542236328
1781033552117438000,12.77143798828125,-1.296762466430664,1.3331999778747559,-1.377750039100647
1781033552136941300,12.79094140625,-1.429587483406067,1.4559874534606934,-1.3437875509262085
1781033552156446200,12.8104462890625,-1.5423375368118286,1.5723124742507935,-1.27943754196167
1781033552175950600,12.82995068359375,-1.6229125261306763,1.6777750253677368,-1.178375005722046
1781033552195451600,12.84945166015625,-1.681762456893921,1.7623374462127686,-1.0513249635696411
1781033552214954000,12.8689541015625,-1.70912504196167,1.812387466430664,-0.9131374955177307
1781033552234461400,12.88846142578125,-1.6654000282287598,1.8173375129699707,-0.7716500163078308
1781033552253970000,12.907969970703125,-1.525012493133545,1.7782875299453735,-0.6285125017166138
1781033552273474000,12.92747412109375,-1.3000625371932983,1.7051374912261963,-0.48688748478889465
1781033552292980700,12.946980712890625,-1.035099983215332,1.6095750331878662,-0.3577750027179718
1781033552312492500,12.966492431640624,-0.7842999696731567,1.5016374588012695,-0.254925012588501
1781033552332004000,12.986004150390626,-0.5838249921798706,1.390262484550476,-0.18342499434947968
1781033552351515400,13.005515380859375,-0.4376625120639801,1.2849375009536743,-0.13653749227523804
1781033552371024100,13.025024169921876,-0.33550000190734863,1.1966625452041626,-0.10216250270605087
1781033552390533000,13.044533203125,-0.2653749883174896,1.131350040435791,-0.07150000333786011
1781033552410043600,13.064043701171874,-0.202674999833107,1.0808874368667603,-0.04496249929070473
1781033552429554700,13.0835546875,-0.11728750169277191,1.0278124809265137,-0.02681249938905239
1781033552449062700,13.103062744140624,-0.00494999997317791,0.9596124887466431,-0.0147124994546175
1781033552468569300,13.1225693359375,0.11082500219345093,0.8765624761581421,0.0016499999910593033
1781033552488080000,13.142079833984376,0.21656249463558197,0.7840250134468079,0.025162499397993088
1781033552507592200,13.16159228515625,0.31418749690055847,0.6880499720573425,0.04441250115633011
1781033552527103500,13.181103515625,0.39338749647140503,0.5961999893188477,0.04619999974966049
1781033552546615600,13.200615478515624,0.42391249537467957,0.515625,0.03135000169277191
1781033552566128600,13.220128662109374,0.39723750948905945,0.44673749804496765,0.010724999941885471
1781033552585643000,13.23964306640625,0.36726251244544983,0.37991249561309814,-0.014987500384449959
1781033552605156400,13.25915625,0.3971000015735626,0.30717501044273376,-0.0541750006377697
1781033552624668000,13.27866796875,0.3971000015735626,0.30717501044273376,-0.0541750006377697
1781033552644177400,13.298177490234375,0.5150749683380127,0.18741250038146973,-0.15056249499320984
1781033552663688700,13.317688720703124,0.45842498540878296,0.17434999346733093,-0.17434999346733093
1781033552683202300,13.337202392578124,0.45842498540878296,0.17434999346733093,-0.17434999346733093
1781033552702714400,13.35671435546875,0.3338499963283539,0.18809999525547028,-0.1779250055551529
1781033552722221000,13.376220947265624,0.16554999351501465,0.21917499601840973,-0.1621125042438507
1781033552741727200,13.395727294921874,0.16554999351501465,0.21917499601840973,-0.1621125042438507
1781033552761235700,13.415235595703125,0.15771250426769257,0.21834999322891235,-0.1467124968767166
1781033552780745000,13.434744873046874,0.16169999539852142,0.20858749747276306,-0.11948750168085098
1781033552800259300,13.45425927734375,0.1742125004529953,0.1896124929189682,-0.07906249910593033
1781033552819769000,13.47376904296875,0.21642500162124634,0.16183750331401825,-0.030937500298023224
1781033552839274200,13.493274169921875,0.29411250352859497,0.1317249983549118,0.020487500354647636
1781033552858782700,13.51278271484375,0.3772999942302704,0.11082500219345093,0.07796250283718109
1781033552878291000,13.532291015625,0.43037500977516174,0.10711249709129333,0.14767499268054962
1781033552897799200,13.551799072265625,0.4386250078678131,0.11948750168085098,0.2307250052690506
1781033552917307100,13.57130712890625,0.4113999903202057,0.14066250622272491,0.3143250048160553
1781033552936813600,13.5908134765625,0.3718000054359436,0.15991249680519104,0.3759250044822693
1781033552956320500,13.610320556640625,0.3260124921798706,0.16733749210834503,0.40136250853538513
1781033552975825000,13.629824951171875,0.2583625018596649,0.15633749961853027,0.39393749833106995
1781033552995328800,13.649328857421875,0.16417500376701355,0.12361250072717667,0.3653374910354614
1781033553014830300,13.668830322265626,0.06407500058412552,0.07039999961853027,0.32573750615119934
1781033553034336000,13.6883359375,-0.017875000834465027,0.004812499973922968,0.28476250171661377
1781033553053846500,13.707846435546875,-0.08621250092983246,-0.059950001537799835,0.2569875121116638
1781033553073354000,13.72735400390625,-0.1592250019311905,-0.11329999566078186,0.2532750070095062
1781033553092861700,13.74686181640625,-0.22811250388622284,-0.1531749963760376,0.2679874897003174
1781033553112367900,13.766367919921874,-0.2605625092983246,-0.18383750319480896,0.28503748774528503
1781033553131874600,13.78587451171875,-0.23319999873638153,-0.2079000025987625,0.2905375063419342
1781033553151384300,13.80538427734375,-0.15895000100135803,-0.22316250205039978,0.282150000333786
1781033553170894600,13.82489453125,-0.07067500054836273,-0.22605000436306,0.26317501068115234
1781033553190402600,13.844402587890626,0.009349999949336052,-0.21697500348091125,0.2358125001192093
1781033553209908200,13.863908203125,0.06324999779462814,-0.20019999146461487,0.20487499237060547
1781033553229412600,13.88341259765625,0.07878749817609787,-0.18095000088214874,0.17847499251365662
1781033553248916500,13.90291650390625,0.05582499876618385,-0.16169999539852142,0.1625249981880188
1781033553268420900,13.9224208984375,0.005362499970942736,-0.14135000109672546,0.15895000100135803
1781033553287927800,13.941927734375,-0.06283749639987946,-0.11646249890327454,0.16802500188350677
1781033553307432000,13.961431884765625,-0.14685000479221344,-0.08373750001192093,0.19030000269412994
1781033553326935300,13.980935302734375,-0.23430000245571136,-0.04358749836683273,0.2209624946117401
1781033553346445000,14.000445068359374,-0.304562509059906,0.0002749999985098839,0.2502500116825104
1781033553365948400,14.019948486328126,-0.3488374948501587,0.0448249988257885,0.27073749899864197
1781033553385450000,14.039449951171875,-0.3774375021457672,0.09019999951124191,0.2810499966144562
1781033553404955100,14.058955078125,-0.3774375021457672,0.09019999951124191,0.2810499966144562
1781033553424458000,14.0784580078125,-0.39861249923706055,0.14011250436306,0.28091248869895935
1781033553443956500,14.09795654296875,-0.4111250042915344,0.20514999330043793,0.2714250087738037
1781033553463458000,14.1174580078125,-0.4558124840259552,0.42625001072883606,0.26633748412132263
1781033553482962700,14.136962646484376,-0.5149375200271606,0.5669124722480774,0.2937000095844269
1781033553502472200,14.15647216796875,-0.5875374674797058,0.6924499869346619,0.3375625014305115
1781033553521979400,14.1759794921875,-0.5875374674797058,0.6924499869346619,0.3375625014305115
1781033553541483000,14.19548291015625,-0.6447374820709229,0.7900750041007996,0.3823874890804291
1781033553560992000,14.214991943359376,-0.6627500057220459,0.8713374733924866,0.41456249356269836
1781033553580501800,14.234501708984375,-0.6337375044822693,0.951912522315979,0.4258374869823456
1781033553600005000,14.254005126953125,-0.5676000118255615,1.0276750326156616,0.41497498750686646
1781033553619506400,14.27350634765625,-0.48785001039505005,1.0891374349594116,0.3899500072002411
1781033553639010600,14.293010498046876,-0.41346248984336853,1.13423752784729,0.3620375096797943
1781033553658517000,14.31251708984375,-0.3484250009059906,1.166137456893921,0.33550000190734863
1781033553678024400,14.3320244140625,-0.2909500002861023,1.187037467956543,0.30855000019073486
1781033553697532000,14.351531982421875,-0.24584999680519104,1.1892374753952026,0.2820124924182892
1781033553717037000,14.371037109375,-0.22220000624656677,1.1626999378204346,0.2609750032424927
1781033553736538400,14.390538330078124,-0.22082500159740448,1.1070125102996826,0.2525874972343445
1781033553756040700,14.410040771484375,-0.23498749732971191,1.055037498474121,0.26688748598098755
1781033553775550700,14.42955078125,-0.256850004196167,1.0701625347137451,0.3092375099658966
1781033553795064600,14.449064697265625,-0.26936250925064087,1.16902494430542,0.3590124845504761
1781033553814573600,14.468573486328125,-0.24323749542236328,1.2438249588012695,0.36547499895095825
1781033553834081300,14.488081298828124,-0.16087499260902405,1.0870749950408936,0.2844874858856201
1781033553853588000,14.507587890625,-0.03753750026226044,0.5590749979019165,0.1153625026345253
1781033553873095000,14.527094970703125,0.09776250272989273,-0.254925012588501,-0.10147500038146973
1781033553892601000,14.54660107421875,0.21972499787807465,-1.047337532043457,-0.2985124886035919
1781033553912106500,14.5661064453125,0.3232625126838684,-1.47427499294281,-0.3862375020980835
1781033553931612700,14.58561279296875,0.4295499920845032,-1.4210624694824219,-0.30744999647140503
1781033553951123200,14.605123291015625,0.5634750127792358,-1.0696125030517578,-0.09624999761581421
1781033553970632400,14.624632568359376,0.7189875245094299,-0.7558375000953674,0.11027500033378601
1781033553990140200,14.64414013671875,0.8504375219345093,-0.7442874908447266,0.14932499825954437
1781033554009645800,14.663645751953124,0.9304624795913696,-1.0562750101089478,-0.035612501204013824
1781033554029148000,14.68314794921875,0.9579625129699707,-1.4632749557495117,-0.34952500462532043
1781033554048653800,14.70265380859375,0.9253749847412109,-1.6948249340057373,-0.6362124681472778
1781033554068165600,14.72216552734375,0.8166124820709229,-1.6594874858856201,-0.8129000067710876
1781033554087677000,14.741677001953125,0.6406124830245972,-1.4317874908447266,-0.8857749700546265
1781033554107189200,14.761189208984375,0.4460499882698059,-1.1325875520706177,-0.8883875012397766
1781033554126700000,14.780699951171876,0.28847500681877136,-0.8454874753952026,-0.8450750112533569
1781033554146208000,14.8002080078125,0.21656249463558197,-0.6169624924659729,-0.767662525177002
1781033554165718000,14.819718017578126,0.25561249256134033,-0.4651624858379364,-0.6664624810218811
1781033554185230000,14.83922998046875,0.3797749876976013,-0.3770250082015991,-0.550962507724762
1781033554204740400,14.858740234375,0.3797749876976013,-0.3770250082015991,-0.550962507724762
1781033554224247800,14.878247802734375,0.5300624966621399,-0.3377000093460083,-0.4328500032424927
1781033554243753000,14.8977529296875,0.7841625213623047,-0.39723750948905945,-0.233474999666214
1781033554263260700,14.9172607421875,0.7841625213623047,-0.39723750948905945,-0.233474999666214
1781033554282775000,14.936775146484376,0.8877000212669373,-0.4666749835014343,-0.15289999544620514
1781033554302288000,14.956287841796875,0.8877000212669373,-0.4666749835014343,-0.15289999544620514
1781033554321795600,14.975795654296874,0.8942999839782715,-0.5299249887466431,0.02199999988079071
1781033554341301800,14.9953017578125,0.7793499827384949,-0.5277249813079834,0.11728750169277191
1781033554360813000,15.01481298828125,0.6402000188827515,-0.5464249849319458,0.19552500545978546
1781033554380323600,15.034323486328125,0.5031124949455261,-0.6204000115394592,0.20102499425411224
1781033554399827700,15.05382763671875,0.370012491941452,-0.7775624990463257,0.07232499867677689
1781033554419332900,15.073332763671875,0.25286251306533813,-1.0187374353408813,-0.15633749961853027
1781033554438841000,15.092841064453125,0.1611499935388565,-1.2854875326156616,-0.3969624936580658
1781033554458350800,15.112350830078125,0.06696250289678574,-1.4792250394821167,-0.5758500099182129
1781033554477857800,15.13185791015625,-0.07961250096559525,-1.5300999879837036,-0.6364874839782715
1781033554497361400,15.151361328125,-0.2854500114917755,-1.4405875205993652,-0.5852000117301941
1781033554516866800,15.17086669921875,-0.5066875219345093,-1.2721500396728516,-0.46268749237060547
1781033554536375800,15.190375732421876,-0.7081249952316284,-1.1005499362945557,-0.30896249413490295
1781033554555887400,15.209887451171875,-0.8772500157356262,-0.982574999332428,-0.16335000097751617
1781033554575398700,15.229398681640625,-0.997837483882904,-0.9428374767303467,-0.05582499876618385
1781033554594911000,15.248910888671874,-1.0542124509811401,-0.9724000096321106,0.004124999977648258
1781033554614425300,15.26842529296875,-1.049399971961975,-1.0430749654769897,0.029424998909235
1781033554633938200,15.287938232421874,-0.9710249900817871,-1.1610499620437622,0.04331250116229057
1781033554653449700,15.30744970703125,-0.7605124711990356,-1.3917750120162964,0.07590000331401825
1781033554672957000,15.32695703125,-0.5340499877929688,-1.7982250452041626,0.18988749384880066
1781033554692463600,15.346463623046875,-0.013887500390410423,-2.349874973297119,0.47189998626708984
1781033554711975400,15.365975341796876,0.8934749960899353,-2.891624927520752,0.9833999872207642
1781033554731489300,15.3854892578125,1.746250033378601,-3.2410125732421875,1.6977125406265259
1781033554751004000,15.40500390625,2.3519375324249268,-3.307149887084961,2.4836626052856445
1781033554770515500,15.424515380859376,2.608649969100952,-3.1215250492095947,3.1810624599456787
1781033554790026000,15.44402587890625,2.5453999042510986,-2.7823123931884766,3.648562431335449
1781033554809532700,15.46353271484375,2.280987501144409,-2.387962579727173,3.7950000762939453
1781033554829040600,15.48304052734375,1.9464499950408936,-1.993749976158142,3.608412504196167
1781033554848547600,15.502547607421874,1.6117750406265259,-1.6106749773025513,3.146275043487549
1781033554868053200,15.52205322265625,1.2754499912261963,-1.2318625450134277,2.4851748943328857
1781033554887558100,15.54155810546875,0.8974624872207642,-0.8592374920845032,1.6913875341415405
1781033554907066000,15.561066162109375,0.4538874924182892,-0.5163124799728394,0.8388875126838684
1781033554926576600,15.58057666015625,-0.025575000792741776,-0.2283875048160553,0.03671250119805336
1781033554946086100,15.600086181640625,-0.4464625120162964,-0.004812499973922968,-0.5904250144958496
1781033554965593600,15.619593505859376,-0.7089499831199646,0.16224999725818634,-0.9707499742507935
1781033554985096400,15.639096435546875,-0.8018999695777893,0.2782999873161316,-1.1250250339508057
1781033555004601300,15.658601318359375,-0.8018999695777893,0.2782999873161316,-1.1250250339508057
1781033555024109300,15.678109375,-0.8120750188827515,0.3651999831199646,-1.1402875185012817
1781033555043620600,15.69762060546875,-0.8321499824523926,0.38472500443458557,-1.121999979019165
1781033555063138600,15.717138671875,-0.8300874829292297,0.4217124879360199,-1.0797874927520752
1781033555082655000,15.736655029296875,-0.8300874829292297,0.4217124879360199,-1.0797874927520752
1781033555102167600,15.75616748046875,-0.8300874829292297,0.4217124879360199,-1.0797874927520752
1781033555121678800,15.775678955078124,-0.720912516117096,0.5354250073432922,-0.9539750218391418
1781033555141185800,15.795185791015625,-0.6755374670028687,0.611050009727478,-0.9435250163078308
1781033555160693000,15.81469287109375,-0.6590374708175659,0.6972625255584717,-0.9794124960899353
1781033555180205800,15.834205810546875,-0.6484500169754028,0.7749499678611755,-1.0305625200271606
1781033555199721700,15.8537216796875,-0.6166874766349792,0.8347625136375427,-1.0778625011444092
1781033555219235300,15.8732353515625,-0.5743374824523926,0.8839874863624573,-1.127637505531311
1781033555238750200,15.892750244140625,-0.56045001745224,0.9355499744415283,-1.1833250522613525
1781033555258268200,15.91226806640625,-0.5941374897956848,0.9961875081062317,-1.231587529182434
1781033555277783600,15.931783447265625,-0.6474875211715698,1.0619125366210938,-1.2560625076293945
1781033555297301500,15.951301513671876,-0.6628875136375427,1.1222749948501587,-1.2534500360488892
1781033555316822500,15.970822509765625,-0.6113250255584717,1.1701250076293945,-1.238187551498413
1781033555336341800,15.990341796875,-0.5233250260353088,1.2086249589920044,-1.2284250259399414
1781033555355858400,16.0098583984375,-0.4622749984264374,1.2475374937057495,-1.2309000492095947
1781033555375374300,16.029374267578124,-0.46584999561309814,1.2944250106811523,-1.2377749681472778
1781033555394893600,16.0488935546875,-0.5215374827384949,1.3479125499725342,-1.2387374639511108
1781033555414409200,16.0684091796875,-0.5931749939918518,1.4029124975204468,-1.2285624742507935
1781033555433923800,16.087923828125,-0.6506500244140625,1.4576375484466553,-1.203262448310852
1781033555453439200,16.107439208984374,-0.6752625107765198,1.5104374885559082,-1.1570625305175781
1781033555472954400,16.126954345703126,-0.6686624884605408,1.558424949645996,-1.089687466621399
1781033555492471600,16.146471435546875,-0.656837522983551,1.6013250350952148,-1.012274980545044
1781033555511988000,16.165988037109376,-0.6659125089645386,1.6416125297546387,-0.9374749660491943
1781033555531498800,16.185498779296875,-0.6917625069618225,1.6791499853134155,-0.8670749664306641
1781033555551009300,16.20500927734375,-0.7060624957084656,1.7033499479293823,-0.7900750041007996
1781033555570520600,16.2245205078125,-0.6767749786376953,1.694962501525879,-0.6902499794960022
1781033555590036500,16.244036376953126,-0.5878124833106995,1.6368000507354736,-0.5619624853134155
1781033555609553000,16.263552978515627,-0.4456374943256378,1.5272125005722046,-0.41813749074935913
1781033555629065700,16.283065673828126,-0.2780250012874603,1.383525013923645,-0.2835249900817871
1781033555648580600,16.30258056640625,-0.12264999747276306,1.2319999933242798,-0.1775124967098236
1781033555668097000,16.322096923828123,0.0016499999910593033,1.0913374423980713,-0.10436250269412994
1781033555687615200,16.341615234375,0.09913749992847443,0.9673125147819519,-0.05637500062584877
1781033555707133400,16.361133544921874,0.18205000460147858,0.8589624762535095,-0.021449999883770943
1781033555726648000,16.38064794921875,0.25891250371932983,0.764912486076355,0.009487500414252281
1781033555746163000,16.400162841796874,0.33233749866485596,0.6837875247001648,0.03904999792575836
1781033555765680000,16.41968017578125,0.40796250104904175,0.6128374934196472,0.06187500059604645
1781033555785197600,16.439197509765624,0.4824874997138977,0.5516499876976013,0.07246249914169312
1781033555804712400,16.45871240234375,0.5322625041007996,0.5048999786376953,0.07301250100135803
1781033555824224000,16.47822412109375,0.5322625041007996,0.5048999786376953,0.07301250100135803
1781033555843736600,16.497736572265627,0.4567750096321106,0.4749250113964081,0.07397499680519104
1781033555863250200,16.517250244140627,0.3455374836921692,0.48221248388290405,0.06929999589920044
1781033555882756400,16.53675634765625,0.2358125001192093,0.4870249927043915,0.052937500178813934
1781033555902259200,16.55625927734375,0.2358125001192093,0.4870249927043915,0.052937500178813934
1781033555921767700,16.575767578125,0.15468749403953552,0.4772624969482422,0.03258749842643738
1781033555941275600,16.595275634765624,0.11233749985694885,0.44852501153945923,0.028599999845027924
1781033555960782300,16.6147822265625,0.11219999939203262,0.4016374945640564,0.05623750016093254
1781033555980290600,16.63429052734375,0.15207499265670776,0.3396250009536743,0.11275000125169754
1781033555999802400,16.65380224609375,0.22165000438690186,0.27018749713897705,0.18273749947547913
1781033556019315200,16.673315185546876,0.29163751006126404,0.20432500541210175,0.2529999911785126
1781033556038819300,16.6928193359375,0.33219999074935913,0.1504250019788742,0.32120001316070557
1781033556058323200,16.7123232421875,0.33783748745918274,0.11123749613761902,0.3854124844074249
1781033556077835000,16.7318349609375,0.32670000195503235,0.08401250094175339,0.43353748321533203
1781033556097345300,16.75134521484375,0.31817498803138733,0.06599999964237213,0.4553999900817871
1781033556116854000,16.77085400390625,0.3110249936580658,0.05719999969005585,0.454025000333786
1781033556136362200,16.7903623046875,0.30566251277923584,0.055412501096725464,0.4361499845981598
1781033556155871200,16.809871337890623,0.31790000200271606,0.055275000631809235,0.403425008058548
1781033556175380700,16.829380615234374,0.34264999628067017,0.052799999713897705,0.3628624975681305
1781033556194890500,16.848890380859373,0.340862512588501,0.04702499881386757,0.3305499851703644
1781033556214397700,16.868397705078124,0.28476250171661377,0.03684999793767929,0.31776249408721924
1781033556233905400,16.887905517578126,0.19497500360012054,0.01966249942779541,0.31927499175071716
1781033556253414100,16.9074140625,0.11096250265836716,-0.004124999977648258,0.3240875005722046
1781033556272917000,16.9269169921875,0.04358749836683273,-0.028049999848008156,0.3287625014781952
1781033556292422000,16.946421875,-0.016637500375509262,-0.04221250116825104,0.33316248655319214
1781033556311929600,16.9659296875,-0.06778749823570251,-0.04097500070929527,0.33137500286102295
1781033556331434500,16.9854345703125,-0.09748750180006027,-0.025575000792741776,0.3161124885082245
1781033556350940700,17.004940673828123,-0.10546249896287918,-0.0038499999791383743,0.29026249051094055
1781033556370447000,17.024447021484374,-0.10436250269412994,0.014162499457597733,0.26468750834465027
1781033556389950000,17.043949951171875,-0.09844999760389328,0.021587500348687172,0.24557499587535858
1781033556409452000,17.0634521484375,-0.08181250095367432,0.015812499448657036,0.22962500154972076
1781033556428958200,17.082958251953126,-0.050462499260902405,-0.0013749999925494194,0.21147499978542328
1781033556448465700,17.102465576171873,-0.0034374999813735485,-0.028187500312924385,0.1886499971151352
1781033556467972400,17.121972412109375,0.06421250104904175,-0.06091250106692314,0.16101250052452087
1781033556487481000,17.141481201171874,0.14561249315738678,-0.09322500228881836,0.13378749787807465
1781033556506995000,17.160994873046874,0.20542499423027039,-0.11701250076293945,0.11948750168085098
1781033556526508000,17.180508056640626,0.20239999890327454,-0.12416250258684158,0.12773749232292175
1781033556546024700,17.200024658203127,0.1311749964952469,-0.10876250267028809,0.1531749963760376
1781033556565541000,17.219541015625,0.025987500324845314,-0.06902500241994858,0.1802625060081482
1781033556585053400,17.239053466796875,-0.08744999766349792,-0.008387500420212746,0.20253749191761017
1781033556604566000,17.25856591796875,-0.21408750116825104,0.06641250103712082,0.22769999504089355
1781033556624080400,17.278080322265627,-0.36217498779296875,0.15234999358654022,0.2644124925136566
1781033556643595300,17.29759521484375,-0.36217498779296875,0.15234999358654022,0.2644124925136566
1781033556663111200,17.317111083984376,-0.5159000158309937,0.25423750281333923,0.31088748574256897
1781033556682630400,17.33663037109375,-0.6536750197410583,0.38472500443458557,0.3634124994277954
1781033556702147600,17.356147705078126,-0.6536750197410583,0.38472500443458557,0.3634124994277954
1781033556721656800,17.37565673828125,-0.8573125004768372,0.7386500239372253,0.4908750057220459
1781033556741166300,17.395166259765624,-0.90420001745224,0.9084625244140625,0.5495874881744385
1781033556760679000,17.414678955078124,-0.8988375067710876,1.0291874408721924,0.5831375122070312
1781033556780188400,17.4341884765625,-0.8386124968528748,1.094362497329712,0.5827249884605408
1781033556799696400,17.4536962890625,-0.7336999773979187,1.1273624897003174,0.5556374788284302
1781033556819208000,17.4732080078125,-0.6052749752998352,1.1549999713897705,0.519474983215332
1781033556838721300,17.49272119140625,-0.47987499833106995,1.190887451171875,0.49004998803138733
1781033556858228000,17.51222802734375,-0.3782624900341034,1.2386000156402588,0.4725874960422516
1781033556877731000,17.53173095703125,-0.3078624904155731,1.2930500507354736,0.4595249891281128
1781033556897235700,17.551235595703126,-0.2694999873638153,1.35794997215271,0.44398748874664307
1781033556916740900,17.570740966796876,-0.26647499203681946,1.4664374589920044,0.4349125027656555
1781033556936238600,17.590238525390625,-0.2891624867916107,1.611912488937378,0.43793749809265137
1781033556955735000,17.609735107421876,-0.31322500109672546,1.6559125185012817,0.41593748331069946
1781033556975239400,17.629239501953126,-0.3235374987125397,1.4048374891281128,0.30524998903274536
1781033556994745600,17.64874560546875,-0.3217499852180481,0.7739874720573425,0.06916250288486481
1781033557014244000,17.668244140625,-0.3152875006198883,-0.10449999570846558,-0.2623499929904938
1781033557033747200,17.687747314453127,-0.31267499923706055,-0.8896250128746033,-0.5839625000953674
1781033557053254700,17.707254638671873,-0.297962486743927,-1.2684375047683716,-0.7749499678611755
1781033557072764400,17.726764404296876,-0.21408750116825104,-1.2735249996185303,-0.7911750078201294
1781033557092276700,17.74627685546875,-0.025849999859929085,-1.2225124835968018,-0.6936874985694885
1781033557111784700,17.76578466796875,0.2363625019788742,-1.3488750457763672,-0.5890499949455261
1781033557131293700,17.785293701171874,0.509987473487854,-1.61947500705719,-0.5468375086784363
1781033557150806000,17.804805908203125,0.742775022983551,-1.8760499954223633,-0.5729625225067139
1781033557170315800,17.824315673828124,0.8992499709129333,-2.0117623805999756,-0.6353874802589417
1781033557189823500,17.843823486328127,0.9535624980926514,-1.981237530708313,-0.6946499943733215
1781033557209329700,17.86332958984375,0.9145125150680542,-1.7967125177383423,-0.7260000109672546
1781033557228830500,17.88283056640625,0.824037492275238,-1.5303750038146973,-0.7246249914169312
1781033557248334000,17.902333984375,0.734250009059906,-1.264449954032898,-0.6902499794960022
1781033557267841800,17.921841796875,0.6887375116348267,-1.0495375394821167,-0.6213625073432922
1781033557287350300,17.941350341796873,0.694237470626831,-0.8914124965667725,-0.523187518119812
1781033557306861600,17.960861572265625,0.7155500054359436,-0.7657374739646912,-0.4218499958515167
1781033557326370300,17.980370361328124,0.690387487411499,-0.6459749937057495,-0.3669874966144562
1781033557345878500,17.99987841796875,0.5677375197410583,-0.5112249851226807,-0.39723750948905945
1781033557365385700,18.0193857421875,0.35227498412132263,-0.3583250045776367,-0.5026999711990356
1781033557384890400,18.038890380859375,0.35227498412132263,-0.3583250045776367,-0.5026999711990356
1781033557404393500,18.0583935546875,-0.09102500230073929,-0.07466249912977219,-0.6902499794960022
1781033557423900700,18.077900634765626,-0.1839749962091446,0.006462499964982271,-0.6216375231742859
1781033557443408400,18.097408447265625,-0.1839749962091446,0.006462499964982271,-0.6216375231742859
1781033557462915300,18.116915283203124,-0.14011250436306,-0.028462499380111694,-0.11866249889135361
1781033557482421200,18.136421142578126,-0.14011250436306,-0.028462499380111694,-0.11866249889135361
1781033557501922600,18.155922607421875,-0.14011250436306,-0.028462499380111694,-0.11866249889135361
1781033557521425200,18.175425048828124,0.2609750032424927,-0.6237000226974487,0.4614500105381012
1781033557540927500,18.194927490234374,0.48496249318122864,-1.0870749950408936,0.5559124946594238
1781033557560432600,18.2144326171875,0.5830000042915344,-1.486649990081787,0.4692874848842621
1781033557579939000,18.23393896484375,0.5427125096321106,-1.727412462234497,0.2870999872684479
1781033557599444700,18.25344482421875,0.40700000524520874,-1.8126624822616577,0.10312499850988388
1781033557618954000,18.2729541015625,0.2176624983549118,-1.7983624935150146,-0.04977500066161156
1781033557638460000,18.2924599609375,0.019112499430775642,-1.73580002784729,-0.16321249306201935
1781033557657964500,18.311964599609375,-0.1541374921798706,-1.6579749584197998,-0.22082500159740448
1781033557677473300,18.331473388671874,-0.2942500114440918,-1.5907374620437622,-0.2139499932527542
1781033557696981000,18.35098095703125,-0.39668750762939453,-1.5522375106811523,-0.14272500574588776
1781033557716481500,18.3704814453125,-0.43133750557899475,-1.5540249347686768,-0.015949999913573265
1781033557735980500,18.38998046875,-0.33316248655319214,-1.6211249828338623,0.1564749926328659
1781033557755483400,18.4094833984375,-0.022549999877810478,-1.8042750358581543,0.3735874891281128
1781033557774989800,18.42898974609375,0.5396875143051147,-2.1341373920440674,0.6456999778747559
1781033557794496500,18.44849658203125,1.3235750198364258,-2.572624921798706,0.9868375062942505
1781033557814002400,18.46800244140625,2.2010998725891113,-3.008087396621704,1.3861374855041504
1781033557833510100,18.48751025390625,2.953087568283081,-3.2950499057769775,1.7764999866485596
1781033557853018400,18.507018310546876,3.3726000785827637,-3.338362455368042,2.08174991607666
1781033557872527000,18.526527099609375,3.3404250144958496,-3.121387481689453,2.2483999729156494
1781033557892034800,18.546034912109373,2.8943750858306885,-2.709162473678589,2.256925106048584
1781033557911543300,18.565543212890624,2.2433125972747803,-2.2254374027252197,2.1518750190734863
1781033557931047200,18.585047119140626,1.6288249492645264,-1.7883249521255493,2.017124891281128
1781033557950547700,18.604547607421875,1.1730124950408936,-1.4530999660491943,1.8837499618530273
1781033557970049800,18.6240498046875,0.8531875014305115,-1.1988625526428223,1.6863000392913818
1781033557989553000,18.643552978515626,0.5927624702453613,-0.9597499966621399,1.3496999740600586
1781033558009061400,18.663061279296876,0.35199999809265137,-0.6766374707221985,0.866937518119812
1781033558028570000,18.682570068359375,0.11219999939203262,-0.3283500075340271,0.272662490606308
1781033558048074500,18.702074462890625,-0.16775000095367432,0.06393750011920929,-0.390500009059906
1781033558067583200,18.721583251953124,-0.5097125172615051,0.4449499845504761,-1.0353749990463257
1781033558087094500,18.741094482421875,-0.8727124929428101,0.7624375224113464,-1.5463249683380127
1781033558106601200,18.760601318359374,-1.1512874364852905,0.9814749956130981,-1.857487440109253
1781033558126108400,18.7801083984375,-1.273937463760376,1.0969749689102173,-1.989074945449829
1781033558145621000,18.79962109375,-1.277512550354004,1.140974998474121,-2.0153374671936035
1781033558165134300,18.81913427734375,-1.2639000415802002,1.1643500328063965,-2.006124973297119
1781033558184647200,18.838647216796875,-1.2639000415802002,1.1643500328063965,-2.006124973297119
1781033558204156200,18.85815625,-1.4013999700546265,1.2953875064849854,-1.9588249921798706
1781033558223656000,18.877656005859375,-1.496000051498413,1.400712490081787,-1.919087529182434
1781033558243156500,18.897156494140624,-1.5500375032424927,1.4980624914169312,-1.8673875331878662
1781033558262658000,18.916657958984374,-1.5500375032424927,1.4980624914169312,-1.8673875331878662
1781033558282162000,18.936161865234375,-1.5500375032424927,1.4980624914169312,-1.8673875331878662
1781033558301670000,18.955669921875,-1.5428874492645264,1.6259374618530273,-1.7173750400543213
1781033558321170200,18.975170166015626,-1.5530624389648438,1.6841000318527222,-1.6513749361038208
1781033558340671200,18.994671142578124,-1.5698374509811401,1.741575002670288,-1.5943125486373901
1781033558360179000,19.014178955078126,-1.5226750373840332,1.7605500221252441,-1.5016374588012695
1781033558379693000,19.033693115234374,-1.3726625442504883,1.7193000316619873,-1.353274941444397
1781033558399206000,19.053205810546874,-1.1479874849319458,1.6266249418258667,-1.1752125024795532
1781033558418712800,19.072712890625,-0.9161624908447266,1.5115374326705933,-1.01419997215271
1781033558438222000,19.09222216796875,-0.7334250211715698,1.411025047302246,-0.903237521648407
1781033558457731600,19.111731689453126,-0.6150375008583069,1.3472249507904053,-0.8467249870300293
1781033558477239000,19.131239013671873,-0.5310249924659729,1.3139499425888062,-0.8292624950408936
1781033558496746500,19.15074658203125,-0.4446749985218048,1.285212516784668,-0.8273375034332275
1781033558516253700,19.170253662109374,-0.3474625051021576,1.2387374639511108,-0.8178499937057495
1781033558535761400,19.189761474609377,-0.25712499022483826,1.1730124950408936,-0.7834749817848206
1781033558555269400,19.209269287109375,-0.18424999713897705,1.0973875522613525,-0.7132124900817871
1781033558574773200,19.228773193359373,-0.11522500216960907,1.0154374837875366,-0.6103624701499939
1781033558594276000,19.248276123046875,-0.032862499356269836,0.9261999726295471,-0.49527499079704285
1781033558613776400,19.2677763671875,0.06091250106692314,0.8342124819755554,-0.3932499885559082
1781033558633275600,19.287275634765624,0.15125000476837158,0.754462480545044,-0.3152875006198883
1781033558652777500,19.306777587890625,0.22769999504089355,0.7039999961853027,-0.2503874897956848
1781033558672280000,19.326280029296875,0.28283751010894775,0.6917625069618225,-0.1788875013589859
1781033558691778800,19.34577880859375,0.31308749318122864,0.7090874910354614,-0.09019999951124191
1781033558711280400,19.3652802734375,0.33329999446868896,0.7309499979019165,0.007149999961256981
1781033558730786300,19.384786376953127,0.36739999055862427,0.7341125011444092,0.09239999949932098
1781033558750293500,19.40429345703125,0.414837509393692,0.7154124975204468,0.147537499666214
1781033558769797400,19.42379736328125,0.44343748688697815,0.6914874911308289,0.1681624948978424
1781033558789298200,19.443298095703124,0.4254249930381775,0.6778749823570251,0.16224999725818634
1781033558808798000,19.4627978515625,0.3656125068664551,0.6773250102996826,0.14630000293254852
1781033558828294400,19.48229443359375,0.3016749918460846,0.6803500056266785,0.13722500205039978
1781033558847792400,19.50179248046875,0.27156248688697815,0.6752625107765198,0.14423750340938568
1781033558867298300,19.52129833984375,0.28476250171661377,0.658762514591217,0.16362500190734863
1781033558886806300,19.54080615234375,0.3161124885082245,0.6363499760627747,0.18287499248981476
1781033558906311400,19.5603115234375,0.32573750615119934,0.6175125241279602,0.19359999895095825
1781033558925817300,19.5798173828125,0.3020874857902527,0.604449987411499,0.19415000081062317
1781033558945323000,19.599322998046876,0.27568748593330383,0.5879499912261963,0.18658749759197235
1781033558964827600,19.61882763671875,0.27568748593330383,0.5879499912261963,0.18658749759197235
1781033558984335600,19.638335693359377,0.3596999943256378,0.5011875033378601,0.16541250050067902
1781033559003843800,19.65784375,0.4371125102043152,0.43779999017715454,0.17476250231266022
1781033559023349500,19.677349609375,0.46860000491142273,0.3830749988555908,0.20652499794960022
1781033559042857000,19.69685693359375,0.46860000491142273,0.3830749988555908,0.20652499794960022
1781033559062364200,19.7163642578125,0.4450874924659729,0.34677499532699585,0.2480500042438507
1781033559081869800,19.735869873046877,0.4008125066757202,0.32491248846054077,0.2825624942779541
1781033559101379000,19.755379150390624,0.36465001106262207,0.3115749955177307,0.3081375062465668
1781033559120887600,19.774887451171875,0.33274999260902405,0.30277499556541443,0.33219999074935913
1781033559140393500,19.7943935546875,0.296037495136261,0.29315000772476196,0.3562625050544739
1781033559159901000,19.81390087890625,0.25533750653266907,0.28022500872612,0.3796375095844269
1781033559179403000,19.833403076171876,0.21188749372959137,0.2644124925136566,0.4017750024795532
1781033559198906000,19.852906005859374,0.17943750321865082,0.24255000054836273,0.4175874888896942
1781033559218415900,19.872415771484373,0.17971250414848328,0.20845000445842743,0.4174500107765198
1781033559237924900,19.8919248046875,0.2083124965429306,0.16183750331401825,0.3987500071525574
1781033559257431800,19.911431884765626,0.22907499969005585,0.1106875017285347,0.3722124993801117
1781033559276939300,19.930939208984373,0.22027499973773956,0.0625625029206276,0.3485625088214874
1781033559296448800,19.95044873046875,0.20253749191761017,0.01677500084042549,0.32848748564720154
1781033559315961600,19.969961669921876,0.21381250023841858,-0.030662499368190765,0.3096500039100647
1781033559335469800,19.9894697265625,0.26276248693466187,-0.07933750003576279,0.2957625091075897
1781033559354979000,20.00897900390625,0.31308749318122864,-0.1223749965429306,0.2975499927997589
1781033559374492200,20.0284921875,0.32202500104904175,-0.15358750522136688,0.3198249936103821
1781033559394001700,20.048001708984376,0.2849000096321106,-0.17311249673366547,0.35241249203681946
1781033559413510000,20.067510009765623,0.22632500529289246,-0.18466250598430634,0.38032498955726624
1781033559433021400,20.087021484375,0.16183750331401825,-0.18933749198913574,0.3971000015735626
1781033559452529700,20.10652978515625,0.08937499672174454,-0.18424999713897705,0.404387503862381
1781033559472038100,20.1260380859375,0.010862499475479126,-0.16458749771118164,0.4025999903678894
1781033559491551200,20.14555126953125,-0.05706249922513962,-0.1280124932527542,0.38940000534057617
1781033559511055000,20.16505517578125,-0.10381250083446503,-0.07562500238418579,0.36726251244544983
1781033559530559000,20.18455908203125,-0.13461250066757202,-0.013337500393390656,0.3443000018596649
1781033559550069000,20.204069091796875,-0.15936249494552612,0.04881250113248825,0.32615000009536743
1781033559569571000,20.223571044921876,-0.18479999899864197,0.0999625027179718,0.31308749318122864
1781033559589073700,20.24307373046875,-0.2059749960899353,0.1307625025510788,0.30016249418258667
1781033559608585500,20.26258544921875,-0.21271249651908875,0.1363999992609024,0.2844874858856201
1781033559628094700,20.2820947265625,-0.1975875049829483,0.11838749796152115,0.267300009727478
1781033559647598800,20.301598876953125,-0.15798750519752502,0.08524999767541885,0.2488749921321869
1781033559667108000,20.321108154296876,-0.10188750177621841,0.050187498331069946,0.22824999690055847
1781033559686617300,20.340617431640624,-0.0424874983727932,0.024062499403953552,0.20253749191761017
1781033559706125600,20.36012548828125,0.006324999965727329,0.011412499472498894,0.17077499628067017
1781033559725632800,20.3796328125,0.02956249937415123,0.011549999937415123,0.13901250064373016
1781033559745142800,20.399142822265624,0.01223750039935112,0.022549999877810478,0.11893749982118607
1781033559764656400,20.418656494140624,0.01223750039935112,0.022549999877810478,0.11893749982118607
1781033559784163600,20.43816357421875,-0.050187498331069946,0.045099999755620956,0.12168750166893005
1781033559803666400,20.45766650390625,-0.14767499268054962,0.08786249905824661,0.14904999732971191
1781033559823168500,20.47716845703125,-0.37619999051094055,0.27211248874664307,0.23704999685287476
1781033559842676000,20.496676025390624,-0.37619999051094055,0.27211248874664307,0.23704999685287476
1781033559862183200,20.51618310546875,-0.37619999051094055,0.27211248874664307,0.23704999685287476
1781033559881689600,20.535689697265624,-0.5226374864578247,0.512737512588501,0.2858625054359436
1781033559901198000,20.555197998046875,-0.5475249886512756,0.6338750123977661,0.2909500002861023
1781033559920705300,20.574705322265626,-0.5508249998092651,0.757349967956543,0.29122498631477356
1781033559940214000,20.594214111328125,-0.5333625078201294,0.8652874827384949,0.2870999872684479
1781033559959722500,20.613722412109375,-0.5044875144958496,0.9417374730110168,0.2827000021934509
1781033559979233300,20.6332333984375,-0.48592498898506165,0.9882124662399292,0.2910875082015991
1781033559998749400,20.65274951171875,-0.495137482881546,1.0168124437332153,0.32243749499320984
1781033560018267600,20.672267578125,-0.5335000157356262,1.0582000017166138,0.3760625123977661
1781033560037781200,20.69178125,-0.5874000191688538,1.1488125324249268,0.43931248784065247
1781033560057296100,20.711296142578124,-0.6323624849319458,1.2974499464035034,0.49445000290870667
1781033560076812500,20.7308125,-0.6424000263214111,1.477025032043457,0.5257999897003174
1781033560096326700,20.75032666015625,-0.6028000116348267,1.6407874822616577,0.5255249738693237
1781033560115843300,20.76984326171875,-0.5310249924659729,1.772512435913086,0.49912500381469727
1781033560135360000,20.789360107421874,-0.4633750021457672,1.8844374418258667,0.4542999863624573
1781033560154871600,20.80887158203125,-0.4195125102996826,1.952775001525879,0.38376250863075256
1781033560174381300,20.82838134765625,-0.3852750062942505,1.8232499361038208,0.2615250051021576
1781033560193896400,20.847896484375,-0.33563750982284546,1.280674934387207,0.06998749822378159
1781033560213413400,20.867413330078126,-0.26124998927116394,0.2895750105381012,-0.17434999346733093
1781033560232927700,20.886927734375,-0.16403749585151672,-0.9218000173568726,-0.4342249929904938
1781033560252439800,20.906439697265625,-0.0411125011742115,-1.917162537574768,-0.6364874839782715
1781033560271952100,20.9259521484375,0.11288750171661377,-2.2695748805999756,-0.6656374931335449
1781033560291463700,20.945463623046876,0.2952125072479248,-1.8815499544143677,-0.4526500105857849
1781033560310975500,20.9649755859375,0.49994999170303345,-1.0929875373840332,-0.07576250284910202
1781033560330490400,20.984490478515625,0.6863999962806702,-0.4137375056743622,0.26138749718666077
1781033560350006800,21.0040068359375,0.765874981880188,-0.12787500023841858,0.3768875002861023
1781033560369524500,21.0235244140625,0.6741625070571899,-0.24117499589920044,0.20982499420642853
1781033560389041700,21.043041748046875,0.4492124915122986,-0.6334624886512756,-0.17379999160766602
1781033560408558300,21.062558349609375,0.22316250205039978,-1.1279125213623047,-0.6186124682426453
1781033560428073200,21.0820732421875,0.09047500044107437,-1.5349124670028687,-0.9754250049591064
1781033560447588400,21.10158837890625,0.052937500178813934,-1.718887448310852,-1.1588499546051025
1781033560467106800,21.12110693359375,0.09006249904632568,-1.6468374729156494,-1.1346499919891357
1781033560486624300,21.140624267578126,0.2050125002861023,-1.3763749599456787,-0.9204249978065491
1781033560506144500,21.16014453125,0.39682498574256897,-1.01419997215271,-0.5944125056266785
1781033560525662500,21.179662353515624,0.6188874840736389,-0.6632999777793884,-0.2730749845504761
1781033560545179000,21.199178955078125,0.7864999771118164,-0.40039998292922974,-0.06379999965429306
1781033560564695300,21.2186953125,0.7864999771118164,-0.40039998292922974,-0.06379999965429306
1781033560584212200,21.238212158203126,0.8274750113487244,-0.27293750643730164,-0.02419999986886978
1781033560603730000,21.25772998046875,0.7345250248908997,-0.29548749327659607,-0.1498750001192093
1781033560623245000,21.2772451171875,0.4259749948978424,-0.6271374821662903,-0.5923500061035156
1781033560642758400,21.29675830078125,0.4259749948978424,-0.6271374821662903,-0.5923500061035156
1781033560662276000,21.316276123046876,0.4259749948978424,-0.6271374821662903,-0.5923500061035156
1781033560681795600,21.335795654296874,0.30332499742507935,-0.8787624835968018,-0.706475019454956
1781033560701313800,21.355313720703126,0.37798750400543213,-0.8722999691963196,-0.48138749599456787
1781033560720832000,21.37483203125,0.534600019454956,-0.7884249687194824,-0.06201250106096268
1781033560740349000,21.394348876953124,0.7177500128746033,-0.6586250066757202,0.48358750343322754
1781033560759863000,21.413863037109376,0.8648750185966492,-0.5308874845504761,1.043487548828125
1781033560779371800,21.433371826171875,0.9513624906539917,-0.4526500105857849,1.5151125192642212
1781033560798881800,21.4528818359375,0.9384375214576721,-0.45980000495910645,1.7931374311447144
1781033560818391600,21.4723916015625,0.7895249724388123,-0.5619624853134155,1.8033125400543213
1781033560837900300,21.491900390625,0.5505499839782715,-0.7407125234603882,1.572450041770935
1781033560857411000,21.5114111328125,0.3326124846935272,-0.9780374765396118,1.1998250484466553
1781033560876922600,21.530922607421875,0.23594999313354492,-1.2508374452590942,0.8043749928474426
1781033560896439800,21.550439697265624,0.2540999948978424,-1.5057624578475952,0.4657124876976013
1781033560915959000,21.569958984375,0.2989250123500824,-1.6798374652862549,0.2180749922990799
1781033560935470800,21.589470947265625,0.30195000767707825,-1.7496874332427979,0.06187500059604645
1781033560954982100,21.608982177734376,0.2899875044822693,-1.7657749652862549,-0.0317624993622303
1781033560974495200,21.6284951171875,0.37661248445510864,-1.817199945449829,-0.09487500041723251
1781033560994007800,21.6480078125,0.6451500058174133,-1.9485124349594116,-0.13997499644756317
1781033561013517600,21.667517578125,0.9824374914169312,-2.1225874423980713,-0.15950000286102295
1781033561033026000,21.687026123046873,1.352312445640564,-2.257200002670288,-0.142037495970726
1781033561052534300,21.7065341796875,1.6905624866485596,-2.294600009918213,-0.08043749630451202
1781033561072044300,21.726044189453123,1.8484125137329102,-2.2310750484466553,0.049912501126527786
1781033561091556000,21.74555615234375,1.8579000234603882,-2.0952250957489014,0.3016749918460846
1781033561111067400,21.7650673828125,1.7883249521255493,-1.9347624778747559,0.7273749709129333
1781033561130583600,21.78458349609375,1.7294750213623047,-1.802899956703186,1.3326499462127686
1781033561150098400,21.804098388671875,1.7151750326156616,-1.7212250232696533,2.0278499126434326
1781033561169608700,21.823608642578126,1.6993625164031982,-1.6627874374389648,2.6245999336242676
1781033561189122600,21.84312255859375,1.5978875160217285,-1.5665374994277954,2.881037473678589
1781033561208637200,21.86263720703125,1.349287509918213,-1.375137448310852,2.6426124572753906
1781033561228151600,21.882151611328126,0.9527375102043152,-1.0781375169754028,1.957450032234192
1781033561247664600,21.90166455078125,0.4553999900817871,-0.7213249802589417,1.0334500074386597
1781033561267177500,21.921177490234374,-0.05472499877214432,-0.3745499849319458,0.10752499848604202
1781033561286687500,21.9406875,-0.5094375014305115,-0.0798875018954277,-0.6819999814033508
1781033561306199800,21.96019970703125,-0.8898999691009521,0.1568875014781952,-1.288100004196167
1781033561325715500,21.979715576171873,-1.1798875331878662,0.3390749990940094,-1.6915249824523926
1781033561345224400,21.999224365234376,-1.3659249544143677,0.47066250443458557,-1.9006625413894653
1781033561364733700,22.018733642578123,-1.3659249544143677,0.47066250443458557,-1.9006625413894653
1781033561384247000,22.0382470703125,-1.4689124822616577,0.6238374710083008,-1.9340749979019165
1781033561403757800,22.0577578125,-1.4612125158309937,0.676087498664856,-1.8939249515533447
1781033561423264300,22.07726416015625,-1.44760000705719,0.7236624956130981,-1.8603750467300415
1781033561442772200,22.096772216796875,-1.44760000705719,0.7236624956130981,-1.8603750467300415
1781033561462281700,22.11628173828125,-1.44760000705719,0.7236624956130981,-1.8603750467300415
1781033561481786400,22.135786376953124,-1.3480499982833862,0.7981874942779541,-1.7509249448776245
1781033561501293000,22.15529296875,-1.2941499948501587,0.8428750038146973,-1.6671874523162842
1781033561520796200,22.174796142578124,-1.255924940109253,0.8991125226020813,-1.5712125301361084
1781033561540298200,22.19429833984375,-1.200237512588501,0.9457250237464905,-1.456262469291687
1781033561559805000,22.213804931640624,-1.1119624376296997,0.9648374915122986,-1.3336124420166016
1781033561579307800,22.233307861328125,-1.013100028038025,0.9560375213623047,-1.218250036239624
1781033561598808000,22.25280810546875,-0.9253749847412109,0.9308750033378601,-1.110587477684021
1781033561618312200,22.272312255859376,-0.8468624949455261,0.9003499746322632,-1.0020999908447266
1781033561637818400,22.291818359375,-0.7761874794960022,0.8690000176429749,-0.8926500082015991
1781033561657322800,22.31132275390625,-0.7154124975204468,0.8351749777793884,-0.7959874868392944
1781033561676827000,22.330826904296874,-0.6550499796867371,0.7972249984741211,-0.7246249914169312
1781033561696335000,22.350335205078125,-0.5780500173568726,0.7587249875068665,-0.676087498664856
1781033561715845000,22.36984521484375,-0.4875749945640564,0.7290250062942505,-0.6386874914169312
1781033561735353600,22.389353515625,-0.40974998474121094,0.7173374891281128,-0.6045874953269958
1781033561754861000,22.408861083984377,-0.3606624901294708,0.7262749671936035,-0.5688375234603882
1781033561793875500,22.44787548828125,-0.23086249828338623,0.7567999958992004,-0.44756248593330383
1781033561813377300,22.467377197265623,-0.0789249986410141,0.7433249950408936,-0.3460874855518341
1781033561832878800,22.48687890625,0.10711249709129333,0.7062000036239624,-0.2414499968290329
1781033561852388900,22.506388916015624,0.2722499966621399,0.6635749936103821,-0.16843749582767487
1781033561871900700,22.525900634765627,0.36726251244544983,0.64267498254776,-0.14630000293254852
1781033561891410700,22.54541064453125,0.36547499895095825,0.6634374856948853,-0.16775000095367432
1781033561910923000,22.564923095703126,0.2670249938964844,0.7254499793052673,-0.21312500536441803
1781033561930435600,22.584435546875,0.10656250268220901,0.8062999844551086,-0.26881250739097595
1781033561949948700,22.60394873046875,-0.0658624991774559,0.8775249719619751,-0.3293125033378601
1781033561969458200,22.623458251953124,-0.21615000069141388,0.9231749773025513,-0.38609999418258667
1781033561988966000,22.6429658203125,-0.322299987077713,0.9410499930381775,-0.4218499958515167
1781033562008473600,22.6624736328125,-0.3609375059604645,0.9315624833106995,-0.4221250116825104
1781033562027981800,22.68198193359375,-0.32243749499320984,0.8959500193595886,-0.3870624899864197
1781033562047490000,22.701489990234375,-0.22384999692440033,0.8398500084877014,-0.3312374949455261
1781033562066995500,22.720995361328125,-0.09583749622106552,0.772475004196167,-0.272662490606308
1781033562086503700,22.740503662109376,0.030937500298023224,0.7022125124931335,-0.22151249647140503
1781033562106017000,22.76001708984375,0.1303499937057495,0.6355249881744385,-0.1769624948501587
1781033562125530400,22.7795302734375,0.18975000083446503,0.5750250220298767,-0.13378749787807465
1781033562145044500,22.79904443359375,0.23952500522136688,0.5145249962806702,-0.09652499854564667
1781033562164556500,22.818556640625,0.23952500522136688,0.5145249962806702,-0.09652499854564667
1781033562184067600,22.838067626953126,0.45058751106262207,0.3763374984264374,-0.07576250284910202
1781033562203579400,22.857579345703126,0.5398250222206116,0.32615000009536743,-0.07562500238418579
1781033562223091500,22.877091552734374,0.5495874881744385,0.30524998903274536,-0.06283749639987946
1781033562242603800,22.896603759765625,0.5495874881744385,0.30524998903274536,-0.06283749639987946
1781033562262115000,22.916114990234377,0.4998124837875366,0.3051125109195709,-0.04138749837875366
1781033562281624600,22.93562451171875,0.4395875036716461,0.3102000057697296,-0.02199999988079071
1781033562301133000,22.955133056640626,0.3975124955177307,0.3128125071525574,-0.006324999965727329
1781033562320640800,22.974640869140625,0.38651248812675476,0.3119874894618988,0.011137500405311584
1781033562340151000,22.994151123046876,0.4113999903202057,0.3086875081062317,0.02969999983906746
1781033562359658200,23.013658203125,0.46406251192092896,0.3067624866962433,0.04166249930858612
1781033562379165400,23.03316552734375,0.5097125172615051,0.3096500039100647,0.04441250115633011
1781033562398678500,23.052678466796873,0.5054500102996826,0.3180375099182129,0.04743750020861626
1781033562418191400,23.07219140625,0.44288748502731323,0.32848748564720154,0.06421250104904175
1781033562437704000,23.091703857421876,0.3605250120162964,0.33329999446868896,0.09611249715089798
1781033562457212000,23.1112119140625,0.30483749508857727,0.32491248846054077,0.13282500207424164
1781033562476717600,23.130717529296874,0.2835249900817871,0.30250000953674316,0.16692499816417694
1781033562496231700,23.150231689453125,0.26455000042915344,0.2712875008583069,0.20239999890327454
1781033562515748000,23.169748046875,0.21779999136924744,0.23787499964237213,0.24818749725818634
1781033562535256800,23.1892568359375,0.1461624950170517,0.20446249842643738,0.305525004863739
1781033562554767000,23.20876708984375,0.07644999772310257,0.1691250056028366,0.3638249933719635
1781033562574278700,23.228278564453124,0.03203750029206276,0.1289750039577484,0.40933749079704285
1781033562593785300,23.247785400390626,0.016087500378489494,0.0849749967455864,0.4353249967098236
1781033562613292800,23.267292724609376,0.018012499436736107,0.04207500070333481,0.44398748874664307
1781033562632807000,23.286806884765625,0.025712499395012856,0.005499999970197678,0.4408249855041504
1781033562652320300,23.3063203125,0.028599999845027924,-0.021449999883770943,0.4305124878883362
1781033562671830500,23.32583056640625,0.021449999883770943,-0.03904999792575836,0.41456249356269836
1781033562691339500,23.345339599609375,0.0028874999843537807,-0.0494999997317791,0.3946250081062317
1781033562710849300,23.364849365234374,-0.022687500342726707,-0.055412501096725464,0.3741374909877777
1781033562730359000,23.384359130859377,-0.04138749837875366,-0.060087498277425766,0.3554374873638153
1781033562749868300,23.403868408203124,-0.04166249930858612,-0.06558749824762344,0.34017500281333923
1781033562769377300,23.423377197265626,-0.024062499403953552,-0.07246249914169312,0.329862505197525
1781033562788888800,23.442888916015626,0.002062499988824129,-0.07961250096559525,0.3240875005722046
1781033562808400100,23.462400146484374,0.02956249937415123,-0.0849749967455864,0.31913748383522034
1781033562827910700,23.48191064453125,0.05719999969005585,-0.08717499673366547,0.3097875118255615
1781033562847420000,23.501419921875,0.0826374962925911,-0.08703749626874924,0.29301249980926514
1781033562866932700,23.5209326171875,0.10326249897480011,-0.0859375,0.26922500133514404
1781033562886446300,23.5404462890625,0.1200374960899353,-0.08442500233650208,0.2404875010251999
1781033562905954800,23.559954833984374,0.1326874941587448,-0.08030000329017639,0.20982499420642853
1781033562925460700,23.579460693359376,0.1303499937057495,-0.06833750009536743,0.18328750133514404
1781033562944966100,23.598966064453126,0.09652499854564667,-0.040699999779462814,0.1662375032901764
1781033562964475100,23.61847509765625,0.09652499854564667,-0.040699999779462814,0.1662375032901764
1781033562983988500,23.637988525390625,-0.07851249724626541,0.08071249723434448,0.1625249981880188
1781033563003506400,23.65750634765625,-0.07851249724626541,0.08071249723434448,0.1625249981880188
1781033563023019800,23.677019775390626,-0.3077250123023987,0.27018749713897705,0.18754999339580536
1781033563042525400,23.696525390625,-0.4047999978065491,0.3573625087738037,0.2116124927997589
1781033563062030300,23.7160302734375,-0.4047999978065491,0.3573625087738037,0.2116124927997589
1781033563081539600,23.73553955078125,-0.47464999556541443,0.42239999771118164,0.23938749730587006
1781033563101047600,23.755047607421876,-0.5208500027656555,0.46915000677108765,0.2675749957561493
1781033563120555300,23.77455517578125,-0.5581125020980835,0.5088874697685242,0.2952125072479248
1781033563140065300,23.794065185546874,-0.5953750014305115,0.5455999970436096,0.319412499666214
1781033563159575600,23.813575439453125,-0.6327750086784363,0.5784624814987183,0.3348124921321869
1781033563179084300,23.833084228515624,-0.6632999777793884,0.6052749752998352,0.3361875116825104
1781033563198589400,23.85258935546875,-0.6895624995231628,0.6320874691009521,0.32711249589920044
1781033563218097400,23.872097412109376,-0.7260000109672546,0.6716874837875366,0.319412499666214
1781033563237608000,23.89160791015625,-0.7775624990463257,0.7339749932289124,0.3218874931335449
1781033563257118700,23.91111865234375,-0.8294000029563904,0.8229374885559082,0.3338499963283539
1781033563276630800,23.930630859375,-0.8596500158309937,0.9361000061035156,0.3497999906539917
1781033563296140000,23.95014013671875,-0.8684499859809875,1.0771750211715698,0.3731749951839447
1781033563315648800,23.969648681640624,-0.8795874714851379,1.265412449836731,0.42198750376701355
1781033563335156200,23.98915625,-0.9079124927520752,1.520337462425232,0.5110874772071838
1781033563354663000,24.008662841796873,-0.9345874786376953,1.8463499546051025,0.6333249807357788
1781033563374167600,24.02816748046875,-0.9227625131607056,2.218975067138672,0.7602375149726868
1781033563393674800,24.0476748046875,-0.8516749739646912,2.5739998817443848,0.8581374883651733
1781033563413179600,24.0671796875,-0.7320500016212463,2.798262596130371,0.9009000062942505
1781033563432683000,24.08668310546875,-0.5856124758720398,2.6976125240325928,0.8648750185966492
1781033563452189000,24.10618896484375,-0.41731250286102295,2.067312479019165,0.7260000109672546
1781033563471693300,24.125693359375,-0.2079000025987625,0.8690000176429749,0.4683249890804291
1781033563491198700,24.14519873046875,0.06847500056028366,-0.6261749863624573,0.11591249704360962
1781033563510705200,24.164705078125,0.3823874890804291,-1.8847124576568604,-0.23086249828338623
1781033563530211800,24.1842119140625,0.6274124979972839,-2.4747250080108643,-0.44769999384880066
1781033563549717000,24.203717041015626,0.7211874723434448,-2.382187604904175,-0.49114999175071716
1781033563569225000,24.223224853515624,0.691349983215332,-1.9112499952316284,-0.4113999903202057
1781033563588731400,24.2427314453125,0.6275500059127808,-1.3916374444961548,-0.28613749146461487
1781033563608236800,24.26223681640625,0.6059625148773193,-1.0154374837875366,-0.17902499437332153
