time,seconds_elapsed,z,y,x
1780564139620393000,0.45839306640625,7.111950397491455,6.337950229644775,1.6570501327514648
1780564139630146600,0.468146484375,7.024050235748291,6.535950183868408,1.7959500551223755
1780564139649653500,0.487653564453125,6.874050140380859,6.753000259399414,2.1060001850128174
1780564139669161500,0.507161376953125,6.723000526428223,6.801000118255615,2.425950050354004
1780564139688676000,0.526676025390625,6.669000148773193,6.796950340270996,2.754000186920166
1780564139708192000,0.54619189453125,6.667050361633301,6.77400016784668,3.055950164794922
1780564139727707100,0.56570703125,6.672000408172607,6.745950222015381,3.2539501190185547
1780564139747223600,0.5852236328125,6.676050186157227,6.76200008392334,3.415950059890747
1780564139766739000,0.604739013671875,6.579000473022461,6.784950256347656,3.513000249862671
1780564139786253800,0.62425390625,6.418950080871582,6.817050457000732,3.5880000591278076
1780564139805767200,0.64376708984375,6.277050495147705,6.885000228881836,3.693000078201294
1780564139825282000,0.663281982421875,6.168000221252441,6.946950435638428,3.8230502605438232
1780564139844793900,0.6827939453125,6.037050247192383,7.042050361633301,4.009050369262695
1780564139864308700,0.702308837890625,5.842950344085693,7.16295051574707,4.254000186920166
1780564139883826000,0.721825927734375,5.599050045013428,7.300950527191162,4.555050373077393
1780564139903339500,0.741339599609375,5.319000244140625,7.407000541687012,4.867950439453125
1780564139922856000,0.76085595703125,5.181000232696533,7.414050579071045,5.172000408172607
1780564139942374000,0.780373779296875,5.317950248718262,7.303050518035889,5.397000312805176
1780564139961891800,0.799891845703125,5.6170501708984375,7.030050277709961,5.545950412750244
1780564139981411800,0.819411865234375,6.031050205230713,6.6160502433776855,5.725950241088867
1780564140000932600,0.8389326171875,6.448950290679932,6.150000095367432,5.90595006942749
1780564140020452600,0.85845263671875,6.841950416564941,5.718000411987305,6.1020002365112305
1780564140039968800,0.87796875,7.225050449371338,5.3359503746032715,6.253950119018555
1780564140059482600,0.897482666015625,7.5010504722595215,4.945050239562988,6.325050354003906
1780564140078999800,0.916999755859375,7.654050350189209,4.558050155639648,6.409050464630127
1780564140098517000,0.93651708984375,7.699050426483154,4.168950080871582,6.50700044631958
1780564140118028500,0.956028564453125,7.635000228881836,3.765000104904175,6.580050468444824
1780564140137544000,0.9755439453125,7.408050537109375,3.4519500732421875,6.592950344085693
1780564140157064400,0.995064453125,6.95805025100708,3.2149500846862793,6.631950378417969
1780564140176583700,1.014583740234375,5.227950096130371,3.00600004196167,6.796950340270996
1780564140196098000,1.03409814453125,4.921050071716309,2.8410000801086426,7.0249505043029785
1780564140215610400,1.0536103515625,4.573950290679932,2.6550002098083496,7.203000545501709
1780564140235123500,1.07312353515625,4.371000289916992,2.4079501628875732,7.2460503578186035
1780564140254633700,1.0926337890625,4.256999969482422,2.0650501251220703,7.1260504722595215
1780564140274144500,1.11214453125,4.125,1.651050090789795,7.014000415802002
1780564140293653800,1.13165380859375,3.8770501613616943,1.2499500513076782,7.042050361633301
1780564140313169000,1.1511689453125,3.5650501251220703,0.8860500454902649,7.099950313568115
1780564140332689000,1.17068896484375,3.214050054550171,0.609000027179718,7.152000427246094
1780564140352210400,1.19021044921875,2.8570501804351807,0.3949500322341919,7.243050575256348
1780564140371734300,1.209734375,2.4760501384735107,0.21900001168251038,7.336950302124023
1780564140391252700,1.229252685546875,2.1060001850128174,0.07605000585317612,7.470000267028809
1780564140410765800,1.248765869140625,1.7310000658035278,-0.07200000435113907,7.621950149536133
1780564140430280000,1.268280029296875,1.4059500694274902,-0.1980000138282776,7.765050411224365
1780564140449795000,1.287795166015625,1.2400500774383545,-0.3570000231266022,7.927050590515137
1780564140469311500,1.3073115234375,1.1329500675201416,-0.5809500217437744,8.079000473022461
1780564140488827400,1.326827392578125,1.125,-0.8670000433921814,8.23905086517334
1780564140508342500,1.346342529296875,1.1890500783920288,-1.1929500102996826,8.320050239562988
1780564140527861000,1.365861083984375,1.3530000448226929,-1.4359500408172607,8.356050491333008
1780564140547379700,1.385379638671875,1.537950038909912,-1.5870001316070557,8.40000057220459
1780564140566897200,1.404897216796875,1.659000039100647,-1.5979501008987427,8.439000129699707
1780564140586412000,1.424412109375,1.6470000743865967,-1.4659500122070312,8.539050102233887
1780564140605928200,1.44392822265625,1.4329500198364258,-1.2649500370025635,8.690999984741211
1780564140625447400,1.463447509765625,1.0939500331878662,-0.9919500350952148,8.83905029296875
1780564140644968400,1.482968505859375,0.6919500231742859,-0.7110000252723694,8.967000007629395
1780564140664486100,1.502486083984375,0.34005001187324524,-0.46995002031326294,9.103050231933594
1780564140684001500,1.52200146484375,0.12405000627040863,-0.32505002617836,9.157950401306152
1780564140703523600,1.541523681640625,0.11805000901222229,-0.31800001859664917,9.157050132751465
1780564140723044000,1.561044189453125,0.4050000309944153,-0.3840000033378601,9.121950149536133
1780564140742563600,1.5805634765625,0.9220500588417053,-0.5220000147819519,8.962950706481934
1780564140762083000,1.6000830078125,2.584050178527832,-0.6970500349998474,8.707050323486328
1780564140781599500,1.619599609375,2.8510501384735107,-0.8250000476837158,8.461950302124023
1780564140801117400,1.639117431640625,3.186000108718872,-0.8970000147819519,8.36205005645752
1780564140820641800,1.658641845703125,3.372000217437744,-0.9190500378608704,8.397000312805176
1780564140840164900,1.678164794921875,3.388050079345703,-0.8770500421524048,8.521950721740723
1780564140859683600,1.69768359375,3.2730002403259277,-0.8419500589370728,8.63700008392334
1780564140879203000,1.717203125,3.082050085067749,-0.8659500479698181,8.643000602722168
1780564140898718700,1.73671875,2.962050199508667,-0.895050048828125,8.629950523376465
1780564140918233600,1.756233642578125,2.9200501441955566,-0.9420000314712524,8.557050704956055
1780564140937752800,1.7757529296875,2.977950096130371,-1.0150500535964966,8.434950828552246
1780564140957270800,1.795270751953125,3.175950050354004,-1.0900501012802124,8.275050163269043
1780564140976790000,1.8147900390625,3.385050058364868,-1.1560500860214233,8.071050643920898
1780564140996313000,1.83431298828125,3.5470502376556396,-1.15500009059906,7.9170002937316895
1780564141015836200,1.853836181640625,3.553950071334839,-1.0720500946044922,7.819050312042236
1780564141035355600,1.873355712890625,3.4210500717163086,-1.0300500392913818,7.762950420379639
1780564141054870500,1.89287060546875,3.2130000591278076,-1.1299500465393066,7.788000583648682
1780564141074385400,1.912385498046875,2.9580001831054688,-1.4280000925064087,7.843950271606445
1780564141093900500,1.931900634765625,2.9569501876831055,-1.9450501203536987,7.872000217437744
1780564141113415400,1.95141552734375,3.3480000495910645,-3.3829500675201416,7.797000408172607
1780564141132935200,1.97093505859375,5.263950347900391,-3.81000018119812,7.630950450897217
1780564141152455200,1.990455078125,5.680950164794922,-4.434000015258789,7.497000217437744
1780564141171971800,2.009971923828125,6.0769500732421875,-5.023950099945068,7.402950286865234
1780564141191489500,2.029489501953125,6.061950206756592,-5.436000347137451,7.333950519561768
1780564141211005700,2.049005615234375,5.527950286865234,-5.5849504470825195,7.282950401306152
1780564141230518300,2.068518310546875,3.5250000953674316,-5.379000186920166,7.182000160217285
1780564141250031600,2.088031494140625,1.9519500732421875,-4.951050281524658,7.063050270080566
1780564141269547000,2.107547119140625,1.3650000095367432,-4.455000400543213,6.9910502433776855
1780564141289062100,2.127062255859375,0.7950000166893005,-4.114950180053711,7.006050109863281
1780564141308577800,2.146577880859375,0.49605002999305725,-4.000050067901611,7.096050262451172
1780564141328092700,2.1660927734375,0.5989500284194946,-4.1509504318237305,7.332000255584717
1780564141347606800,2.185606689453125,1.111050009727478,-4.468050003051758,7.635000228881836
1780564141367124000,2.2051240234375,2.8810501098632812,-4.833000183105469,7.792050361633301
1780564141386641200,2.22464111328125,3.3730502128601074,-5.205000400543213,7.7410502433776855
1780564141406161000,2.244160888671875,3.6790502071380615,-5.449950218200684,7.503000259399414
1780564141425681700,2.263681640625,3.5299501419067383,-5.557950496673584,7.264050483703613
1780564141445198600,2.283198486328125,3.1270501613616943,-5.418000221252441,6.9970502853393555
1780564141464714200,2.30271435546875,2.82705020904541,-5.017050266265869,6.753000259399414
1780564141484229600,2.322229736328125,2.662950038909912,-4.579950332641602,6.6910505294799805
1780564141503742500,2.341742431640625,2.244000196456909,-4.22504997253418,6.502950191497803
1780564141523255300,2.36125537109375,0.6469500064849854,-4.306950092315674,6.430950164794922
1780564141542770400,2.3807705078125,0.4350000321865082,-4.773000240325928,6.348000526428223
1780564141562285600,2.40028564453125,0.6160500049591064,-5.3520002365112305,6.256950378417969
1780564141581798000,2.4197978515625,2.7940502166748047,-6.928050518035889,6.4609503746032715
1780564141601315600,2.439315673828125,4.558050155639648,-7.138950347900391,6.628050327301025
1780564141620836900,2.4588369140625,4.744050025939941,-7.306950569152832,6.868950366973877
1780564141640349000,2.478348876953125,4.7059502601623535,-7.351950168609619,7.009950160980225
1780564141659861800,2.49786181640625,4.3560004234313965,-7.07205057144165,6.979950428009033
1780564141679382300,2.51738232421875,3.784050226211548,-6.676050186157227,7.005000114440918
1780564141698901000,2.53690087890625,3.2260501384735107,-6.3510003089904785,7.108950138092041
1780564141718415400,2.556415283203125,3.0259501934051514,-6.217950344085693,7.32105016708374
1780564141737928700,2.5759287109375,3.2730002403259277,-6.168000221252441,7.504950523376465
1780564141757443800,2.59544384765625,3.5280001163482666,-6.11400032043457,7.62000036239624
1780564141776958700,2.614958740234375,3.384000062942505,-6.016050338745117,7.657950401306152
1780564141796470300,2.63447021484375,1.7620500326156616,-5.85705041885376,7.566000461578369
1780564141815985400,2.6539853515625,1.4860501289367676,-5.769000053405762,7.492950439453125
1780564141835504600,2.673504638671875,1.533000111579895,-5.614050388336182,7.588050365447998
1780564141855020800,2.693020751953125,1.9789501428604126,-5.230950355529785,7.6620001792907715
1780564141874532400,2.712532470703125,2.4370501041412354,-4.822050094604492,7.8100504875183105
1780564141894045700,2.732045654296875,2.845950126647949,-4.5329999923706055,8.202000617980957
1780564141913562600,2.751562744140625,2.9130001068115234,-4.012050151824951,8.27595043182373
1780564141933082400,2.771082275390625,2.6260502338409424,-3.630000114440918,8.09595012664795
1780564141952604000,2.79060400390625,2.364000082015991,-3.457050085067749,7.738950252532959
1780564141972127500,2.81012744140625,2.224950075149536,-3.1879501342773438,6.087000370025635
1780564141991649000,2.82964892578125,2.2870500087738037,-3.2539501190185547,5.848950386047363
1780564142011165200,2.849165283203125,2.5390501022338867,-3.6670501232147217,5.8470001220703125
1780564142030682600,2.8686826171875,3.003000259399414,-4.168950080871582,5.93595027923584
1780564142050200800,2.888200927734375,3.384000062942505,-5.85705041885376,6.12600040435791
1780564142069714700,2.907714599609375,3.271050214767456,-6.289050102233887,6.324000358581543
1780564142089227300,2.927227294921875,2.820000171661377,-6.922950267791748,6.652050495147705
1780564142108746000,2.94674609375,1.1080501079559326,-7.348050117492676,6.942000389099121
1780564142128267500,2.966267578125,0.609000027179718,-7.566000461578369,6.943950176239014
1780564142147786200,2.9857861328125,-1.4850000143051147,-7.53000020980835,6.77400016784668
1780564142167299600,3.005299560546875,-3.1999502182006836,-7.039050102233887,6.325050354003906
1780564142186810400,3.024810302734375,-3.6499502658843994,-5.581050395965576,5.776050090789795
1780564142206325500,3.044325439453125,-3.996000289916992,-5.311950206756592,5.595000267028809
1780564142225842000,3.063842041015625,-3.5719501972198486,-5.0560503005981445,5.632050037384033
1780564142245359600,3.083359619140625,-1.3840500116348267,-5.076000213623047,5.622000217437744
1780564142264876000,3.1028759765625,1.2750000953674316,-5.338050365447998,5.638050079345703
1780564142284393200,3.122393310546875,3.44700026512146,-5.55495023727417,5.680950164794922
1780564142303911200,3.1419111328125,3.9150002002716064,-5.506950378417969,5.653950214385986
1780564142323430400,3.161430419921875,4.01894998550415,-5.065950393676758,5.580000400543213
1780564142342952400,3.180952392578125,3.66795015335083,-3.3480000495910645,5.533950328826904
1780564142362467800,3.2004677734375,3.207000255584717,-3.1909501552581787,5.641050338745117
1780564142381979000,3.219978759765625,3.1240501403808594,-2.9670002460479736,5.82705020904541
1780564142401492700,3.23949267578125,3.520050048828125,-2.986950159072876,6.115050315856934
1780564142421011200,3.25901123046875,3.991950273513794,-3.2790000438690186,6.469950199127197
1780564142440527600,3.278527587890625,4.348050117492676,-3.6529502868652344,6.57705020904541
1780564142460042800,3.298042724609375,4.41795015335083,-4.1170501708984375,6.595950126647949
1780564142479559000,3.317558837890625,4.219950199127197,-4.489050388336182,6.6409502029418945
1780564142499075000,3.337074951171875,3.895050287246704,-4.819950103759766,6.66795015335083
1780564142518591700,3.356591796875,3.5280001163482666,-5.125050067901611,6.739950180053711
1780564142538106600,3.376106689453125,3.085050106048584,-5.362950325012207,6.771000385284424
1780564142557620500,3.395620361328125,2.5480501651763916,-5.569050312042236,6.8359503746032715
1780564142577138000,3.415137939453125,2.041949987411499,-5.698050498962402,6.901050090789795
1780564142596655900,3.43465576171875,1.7089500427246094,-5.854950428009033,6.994950294494629
1780564142616173300,3.45417333984375,1.5940500497817993,-6.078000068664551,7.186950206756592
1780564142635694300,3.4736943359375,1.659000039100647,-6.382050514221191,7.33305025100708
1780564142655212800,3.493212890625,1.8370500802993774,-6.757050514221191,7.426950454711914
1780564142674726100,3.51272607421875,2.0710501670837402,-7.06695032119751,7.509000301361084
1780564142694242800,3.532242919921875,2.2549500465393066,-7.234950542449951,7.555050373077393
1780564142713760800,3.5517607421875,2.2759501934051514,-7.299000263214111,7.72005033493042
1780564142733278200,3.5712783203125,2.083050012588501,-7.27500057220459,8.082000732421875
1780564142752790000,3.5907900390625,1.7080501317977905,-7.194000244140625,8.529000282287598
1780564142772298200,3.61029833984375,1.3339500427246094,-7.204050540924072,9.009000778198242
1780564142791810000,3.62981005859375,1.0950000286102295,-7.291950225830078,9.379050254821777
1780564142811321000,3.649321044921875,1.0840500593185425,-7.4659504890441895,9.493950843811035
1780564142830832400,3.668832275390625,1.2520500421524048,-7.699950218200684,9.379950523376465
1780564142850344400,3.688344482421875,1.5130500793457031,-7.866000175476074,9.055950164794922
1780564142869853700,3.707853759765625,1.6900501251220703,-7.944000244140625,8.71095085144043
1780564142889365800,3.72736572265625,1.6770000457763672,-8.083050727844238,8.463000297546387
1780564142908877300,3.746877197265625,1.4899500608444214,-8.068050384521484,8.302050590515137
1780564142928390000,3.766389892578125,1.2019500732421875,-7.786050319671631,8.284049987792969
1780564142947907800,3.785907958984375,0.8680500388145447,-7.294050216674805,8.368050575256348
1780564142967423200,3.80542333984375,0.5260500311851501,-5.734050273895264,8.527050018310547
1780564142986938400,3.8249384765625,0.226950004696846,-5.269050121307373,8.73900032043457
1780564143006453200,3.844453369140625,-0.06599999964237213,-4.839000225067139,8.87505054473877
1780564143025963300,3.86396337890625,-0.24495001137256622,-4.579950332641602,8.838000297546387
1780564143045471000,3.883470947265625,-0.2580000162124634,-4.425000190734863,8.608050346374512
1780564143064980000,3.90297998046875,-0.1969500035047531,-4.341000080108643,8.233050346374512
1780564143084492000,3.922491943359375,-0.039000000804662704,-4.3030500411987305,7.852950572967529
1780564143104002600,3.94200244140625,0.10305000841617584,-4.285050392150879,7.522950172424316
1780564143123513000,3.96151318359375,0.23100000619888306,-4.309950351715088,7.3309502601623535
1780564143143027700,3.98102783203125,0.48900002241134644,-4.546050071716309,7.279950141906738
1780564143162539300,4.000539306640625,0.9660000205039978,-4.8919501304626465,7.225050449371338
1780564143182052600,4.020052490234375,1.5529500246047974,-5.236950397491455,7.200000286102295
1780564143201570600,4.039570556640625,2.0869500637054443,-5.518050193786621,7.174050331115723
1780564143221086700,4.059086669921875,2.433000087738037,-5.557950496673584,7.116000175476074
1780564143240598300,4.078598388671875,2.5230000019073486,-5.514000415802002,7.182000160217285
1780564143260107500,4.098107421875,2.599950075149536,-5.38800048828125,7.273950576782227
1780564143279621400,4.117621337890625,2.7679500579833984,-5.217000484466553,7.288950443267822
1780564143299140900,4.137140869140625,2.7739500999450684,-5.193000316619873,7.327950477600098
1780564143318657500,4.156657470703125,2.5789501667022705,-5.196000099182129,7.315950393676758
1780564143338170000,4.176170166015625,2.2729501724243164,-5.206050395965576,7.183050155639648
1780564143357682700,4.1956826171875,2.2789502143859863,-5.247000217437744,7.029000282287598
1780564143377198600,4.215198486328125,2.6610000133514404,-5.3020501136779785,6.730950355529785
1780564143396716500,4.234716552734375,4.308000087738037,-5.400000095367432,6.384000301361084
1780564143416233500,4.2542333984375,4.5520501136779785,-5.443050384521484,6.073950290679932
1780564143435751400,4.27375146484375,4.627050399780273,-5.341950416564941,5.812950134277344
1780564143455272200,4.293272216796875,4.405050277709961,-5.055000305175781,5.740050315856934
1780564143474791400,4.31279150390625,2.8120501041412354,-4.480050086975098,5.766000270843506
1780564143494310100,4.33231005859375,2.290950059890747,-3.091050148010254,5.884050369262695
1780564143513830100,4.351830078125,0.5879999995231628,-2.803950071334839,6.051000118255615
1780564143533347800,4.371347900390625,0.30705001950263977,-2.3479502201080322,6.091050148010254
1780564143552868400,4.390868408203125,0.0970500037074089,-2.0820000171661377,6.076050281524658
1780564143572389600,4.4103896484375,0.08295000344514847,-2.035950183868408,6.094050407409668
1780564143591905800,4.42990576171875,0.19200000166893005,-2.1760501861572266,6.022050380706787
1780564143611422200,4.449422119140625,0.37005001306533813,-2.511000156402588,5.838000297546387
1780564143630943700,4.46894384765625,0.547950029373169,-2.839050054550171,5.610000133514404
1780564143650463000,4.488462890625,0.6910500526428223,-3.072000026702881,5.4210004806518555
1780564143669980700,4.507980712890625,0.673050045967102,-3.268050193786621,5.3959503173828125
1780564143689501200,4.527501220703125,0.5140500068664551,-3.418950080871582,5.530050277709961
1780564143709019400,4.547019287109375,0.4630500078201294,-3.6000001430511475,5.892000198364258
1780564143728536600,4.56653662109375,0.6760500073432922,-3.7819502353668213,6.39300012588501
1780564143748053200,4.58605322265625,1.1239500045776367,-4.03095006942749,6.850050449371338
1780564143767575000,4.605574951171875,2.6010000705718994,-4.243950366973877,7.215000152587891
1780564143787098400,4.625098388671875,3.0510001182556152,-4.2709503173828125,7.327950477600098
1780564143806616000,4.644615966796875,3.6379501819610596,-4.2619500160217285,7.264050483703613
1780564143826132500,4.664132568359375,4.275000095367432,-4.128000259399414,7.291950225830078
1780564143845652700,4.68365283203125,4.873950004577637,-3.949050188064575,7.446000576019287
1780564143865175000,4.703175048828125,5.47005033493042,-3.7420501708984375,7.567950248718262
1780564143884693800,4.72269384765625,5.944050312042236,-3.438000202178955,7.515000343322754
1780564143904212000,4.7422119140625,6.4710001945495605,-3.160950183868408,7.341000556945801
1780564143923732500,4.761732421875,7.042050361633301,-3.0049500465393066,7.185000419616699
1780564143943255800,4.781255859375,7.537050247192383,-2.914950132369995,7.044000148773193
1780564143962777600,4.800777587890625,7.834050178527832,-2.914950132369995,6.838950157165527
1780564143982298400,4.82029833984375,7.45395040512085,-3.0240001678466797,6.472950458526611
1780564144001819100,4.839819091796875,5.4340500831604,-3.1110000610351562,5.9920501708984375
1780564144021336800,4.8593369140625,4.926000118255615,-3.1050002574920654,5.632050037384033
1780564144040854500,4.8788544921875,4.491000175476074,-3.097050189971924,5.386950492858887
1780564144060372700,4.898372802734375,4.573050022125244,-2.9070000648498535,5.133000373840332
1780564144079890400,4.917890380859375,5.158050060272217,-2.647050142288208,4.939950466156006
1780564144099408600,4.93740869140625,5.707050323486328,-2.7210001945495605,4.88100004196167
1780564144118926300,4.95692626953125,6.283050060272217,-3.031050205230713,4.903050422668457
1780564144138442200,4.976442138671875,7.669950485229492,-4.6650004386901855,5.028000354766846
1780564144157957400,4.995957275390625,7.795050144195557,-5.004000186920166,5.011050224304199
1780564144177470200,5.01547021484375,7.945950508117676,-5.449050426483154,4.767000198364258
1780564144196982000,5.03498193359375,8.082000732421875,-5.878950119018555,4.545000076293945
1780564144216495000,5.0544951171875,8.196000099182129,-6.20805025100708,4.413000106811523
1780564144236012000,5.074011962890625,8.500950813293457,-6.490950107574463,4.341000080108643
1780564144255531800,5.09353173828125,8.995050430297852,-6.679050445556641,4.189949989318848
1780564144275051000,5.113051025390625,10.648050308227539,-6.7819504737854,3.949050188064575
1780564144294570500,5.132570556640625,10.837050437927246,-6.8020501136779785,3.6640501022338867
1780564144314089200,5.152089111328125,11.10300064086914,-6.805050373077393,3.3139500617980957
1780564144333613000,5.171613037109375,11.38800048828125,-6.906000137329102,3.085050106048584
1780564144353139000,5.191138916015625,11.56605052947998,-6.9210004806518555,2.802000045776367
1780564144372657200,5.2106572265625,11.72700023651123,-6.865050315856934,2.410950183868408
1780564144392171500,5.230171630859375,11.767951011657715,-6.78000020980835,2.1469500064849854
1780564144411688000,5.24968798828125,11.688000679016113,-6.667050361633301,1.8850500583648682
1780564144431207000,5.26920703125,11.548050880432129,-6.591000080108643,1.662000060081482
1780564144450725000,5.28872509765625,11.320950508117676,-6.514050483703613,1.6230000257492065
1780564144470244900,5.308244873046875,11.035050392150879,-6.430050373077393,1.7010000944137573
1780564144489763800,5.327763916015625,10.678950309753418,-6.375000476837158,1.8540000915527344
1780564144509279000,5.347279052734375,10.297050476074219,-6.345000267028809,2.0560500621795654
1780564144528797700,5.366797607421875,9.931950569152832,-6.379950523376465,2.206050157546997
1780564144548317700,5.386317626953125,9.6670503616333,-6.454050540924072,2.3370001316070557
1780564144567837000,5.4058369140625,9.580950736999512,-6.499050140380859,2.455050230026245
1780564144587357400,5.425357421875,9.562950134277344,-6.652050495147705,2.5470001697540283
1780564144606877400,5.44487744140625,9.52500057220459,-6.879000186920166,2.710050106048584
1780564144626396000,5.46439599609375,9.564000129699707,-6.949950218200684,2.91195011138916
1780564144645909000,5.483908935546875,9.751049995422363,-6.913050174713135,3.075000047683716
1780564144665425400,5.50342529296875,9.86205005645752,-6.77400016784668,3.3630001544952393
1780564144684944100,5.522944091796875,9.754050254821777,-6.517050266265869,3.5470502376556396
1780564144704459500,5.54245947265625,9.417000770568848,-6.247950077056885,3.676950216293335
1780564144723976700,5.561976806640625,7.719000339508057,-5.974950313568115,3.985950231552124
1780564144743495000,5.581494873046875,7.431000232696533,-5.707950115203857,4.336950302124023
1780564144763014100,5.60101416015625,7.132950305938721,-5.377050399780273,4.558950424194336
1780564144782533000,5.620533203125,6.733950138092041,-5.07705020904541,4.62000036239624
1780564144802049300,5.64004931640625,6.342000484466553,-4.827000141143799,4.809000015258789
1780564144821568500,5.659568603515625,5.893050193786621,-4.6620001792907715,5.154000282287598
1780564144841085000,5.6790849609375,5.254950046539307,-4.651950359344482,5.604000091552734
1780564144860597000,5.698596923828125,4.753950119018555,-4.61400032043457,5.881950378417969
1780564144880118000,5.718117919921875,4.336050033569336,-4.558050155639648,5.722950458526611
1780564144899639600,5.7376396484375,4.25100040435791,-4.276950359344482,5.5320000648498535
1780564144919154200,5.757154296875,4.3279500007629395,-3.835050106048584,5.85105037689209
1780564144938671900,5.776671875,4.218000411987305,-3.3160500526428223,6.466950416564941
1780564144958189600,5.796189453125,3.9079501628875732,-1.6780500411987305,6.957000255584717
1780564144977706200,5.815706298828125,3.38100004196167,-1.6249500513076782,6.98805046081543
1780564144997222400,5.835222412109375,3.003000259399414,-1.64805006980896,6.535950183868408
1780564145016739000,5.854739013671875,2.9239501953125,-1.815000057220459,6.169950485229492
1780564145036254200,5.874254150390625,2.9640002250671387,-2.3400001525878906,6.168000221252441
1780564145055770400,5.893770263671875,3.1410000324249268,-3.790950298309326,6.318000316619873
1780564145075289000,5.9132890625,3.2440502643585205,-3.7350001335144043,6.403050422668457
1780564145094808300,5.932808349609375,3.139050245285034,-3.7890002727508545,6.661050319671631
1780564145114329000,5.9523291015625,2.8470001220703125,-3.6250500679016113,7.0600504875183105
1780564145133849900,5.971849853515625,2.3650500774383545,-3.315000057220459,7.5960001945495605
1780564145153366000,5.991365966796875,1.981950044631958,-3.1879501342773438,8.994000434875488
1780564145172881700,6.010881591796875,1.8550500869750977,-3.2500500679016113,9.027000427246094
1780564145192401700,6.030401611328125,2.0789999961853027,-3.2629501819610596,8.854050636291504
1780564145211921700,6.049921630859375,2.4160501956939697,-3.331050157546997,8.692950248718262
1780564145231434500,6.0694345703125,2.539950132369995,-3.5280001163482666,8.479949951171875
1780564145250945300,6.0889453125,2.5690500736236572,-3.6760501861572266,8.229000091552734
1780564145270459100,6.108459228515625,2.593950033187866,-3.9190502166748047,7.725000381469727
1780564145289973500,6.127973388671875,2.565000057220459,-4.056000232696533,6.0960001945495605
1780564145309491000,6.147490966796875,2.697000026702881,-4.014000415802002,5.986050128936768
1780564145329009200,6.167009033203125,2.968050241470337,-3.826050281524658,6.006000518798828
1780564145348526000,6.186526123046875,3.145050048828125,-3.6940500736236572,6.511050224304199
1780564145368042000,6.2060419921875,3.4710001945495605,-3.646050214767456,8.16195011138916
1780564145387556900,6.225556884765625,3.7579500675201416,-3.5710501670837402,8.307000160217285
1780564145407072500,6.245072509765625,3.7639501094818115,-3.5220000743865967,8.302050590515137
1780564145426589200,6.264589111328125,3.6000001430511475,-3.5029501914978027,8.0110502243042
1780564145446106000,6.284106201171875,3.267000198364258,-3.364950180053711,7.477050304412842
1780564145465618700,6.30361865234375,2.8620002269744873,-3.249000072479248,6.865950107574463
1780564145485131000,6.323131103515625,2.4619500637054443,-3.123000144958496,6.3070502281188965
1780564145504648700,6.342648681640625,2.1310501098632812,-2.9730000495910645,5.9760003089904785
1780564145524165600,6.36216552734375,2.0719501972198486,-3.000000238418579,6.052950382232666
1780564145543681300,6.381681396484375,2.328000068664551,-3.1470000743865967,6.2989501953125
1780564145563197000,6.401197021484375,2.69100022315979,-3.364950180053711,6.6160502433776855
1780564145582713300,6.42071337890625,3.100050210952759,-3.520050048828125,6.862950325012207
1780564145602227000,6.44022705078125,3.267000198364258,-3.6690001487731934,6.952950477600098
1780564145621739300,6.4597392578125,3.136050224304199,-3.82200026512146,6.943950176239014
1780564145641253000,6.479253173828125,2.9100000858306885,-3.8749501705169678,6.802950382232666
1780564145660769500,6.49876953125,2.6710500717163086,-3.939000129699707,6.646050453186035
1780564145680284000,6.518283935546875,2.527050018310547,-4.009950160980225,6.493950366973877
1780564145699798500,6.537798583984375,2.4370501041412354,-4.03695011138916,6.379050254821777
1780564145719318300,6.557318359375,2.425950050354004,-4.0320000648498535,6.3510003089904785
1780564145738839300,6.57683935546875,2.3340001106262207,-4.009050369262695,6.346050262451172
1780564145758360800,6.59636083984375,2.0680501461029053,-3.9970502853393555,6.346950531005859
1780564145777878500,6.61587841796875,1.8720000982284546,-3.901050090789795,6.253950119018555
1780564145797397500,6.6353974609375,1.6609500646591187,-3.7320001125335693,6.040050506591797
1780564145816917200,6.654917236328125,1.4590500593185425,-3.513000249862671,5.800050258636475
1780564145836435500,6.674435546875,1.374000072479248,-3.4099502563476562,5.623950481414795
1780564145855959800,6.693959716796875,1.3000500202178955,-3.3349502086639404,5.383050441741943
1780564145875478000,6.71347802734375,1.3690500259399414,-3.352950096130371,5.178000450134277
1780564145894988500,6.732988525390625,1.4860501289367676,-3.5250000953674316,5.110050201416016
1780564145914504000,6.75250390625,1.7280000448226929,-3.475050210952759,5.035950183868408
1780564145934022400,6.7720224609375,1.9609501361846924,-3.334050178527832,5.074950218200684
1780564145953542400,6.79154248046875,2.0749499797821045,-3.328050136566162,5.44005012512207
1780564145973062400,6.8110625,2.509050130844116,-3.262050151824951,5.910000324249268
1780564145992582700,6.830582763671875,3.1080000400543213,-3.2320501804351807,6.214950084686279
1780564146012106500,6.8501064453125,3.702000141143799,-3.2970001697540283,6.457950115203857
1780564146031629000,6.869629150390625,4.249950408935547,-3.235950231552124,6.582000255584717
1780564146051149800,6.88914990234375,4.45395040512085,-3.069000244140625,6.289950370788574
1780564146070669600,6.908669677734375,4.212000370025635,-2.854950189590454,5.889000415802002
1780564146090185500,6.928185546875,3.9000000953674316,-2.6230502128601074,5.523000240325928
1780564146109702100,6.9477021484375,3.7080001831054688,-2.5230000019073486,5.079000473022461
1780564146129220000,6.96722021484375,3.664950132369995,-2.5009500980377197,4.674000263214111
1780564146148739000,6.986739013671875,3.8140501976013184,-2.533050060272217,4.5420002937316895
1780564146168260400,7.00626025390625,3.951000213623047,-2.743950128555298,4.7910003662109375
1780564146187776000,7.02577587890625,4.051949977874756,-3.0079500675201416,5.290950298309326
1780564146207292000,7.0452919921875,4.105950355529785,-3.1660501956939697,6.804000377655029
1780564146226815200,7.064815185546875,4.06695032119751,-3.3190500736236572,6.736950397491455
1780564146246339800,7.08433984375,4.2330002784729,-3.5329501628875732,6.490950107574463
1780564146265863200,7.10386328125,4.573950290679932,-3.813000202178955,6.304050445556641
1780564146285384700,7.123384765625,5.100000381469727,-4.276050090789795,6.031050205230713
1780564146304907500,7.142907470703125,6.523050308227539,-4.773000240325928,5.74500036239624
1780564146324427500,7.162427490234375,6.853050231933594,-5.124000072479248,5.454000473022461
1780564146343949000,7.181948974609375,7.408950328826904,-5.371950149536133,5.082000255584717
1780564146363475700,7.201475830078125,8.02695083618164,-5.565000057220459,4.687950134277344
1780564146382999800,7.220999755859375,8.611950874328613,-5.742000102996826,4.381050109863281
1780564146402523600,7.240523681640625,8.958000183105469,-5.836050510406494,3.876000165939331
1780564146422045000,7.260044921875,9.009000778198242,-5.833950042724609,3.3070502281188965
1780564146441560800,7.279560791015625,8.809050559997559,-5.878950119018555,2.914950132369995
1780564146461080000,7.299080078125,8.692049980163574,-5.962950229644775,2.710050106048584
1780564146480604400,7.3186044921875,8.82194995880127,-6.0769500732421875,2.6539502143859863
1780564146500124200,7.338124267578125,9.18600082397461,-6.19005012512207,2.4090001583099365
1780564146519643000,7.357642822265625,9.721050262451172,-6.29295015335083,2.0820000171661377
1780564146539162600,7.37716259765625,10.077000617980957,-6.441000461578369,1.8349500894546509
1780564146558679000,7.396678955078125,10.177050590515137,-6.76200008392334,1.711050033569336
1780564146578195700,7.41619580078125,10.05405044555664,-7.105050563812256,1.735050082206726
1780564146597711600,7.435711669921875,9.859050750732422,-7.384950160980225,1.6819500923156738
1780564146617232000,7.45523193359375,9.789000511169434,-7.540950298309326,1.579050064086914
1780564146636748800,7.474748779296875,9.744000434875488,-7.554000377655029,1.297950029373169
1780564146656264000,7.494263916015625,9.760050773620605,-7.594950199127197,0.8520000576972961
1780564146675781600,7.51378173828125,9.77595043182373,-7.612050533294678,0.38895002007484436
1780564146695300900,7.53330078125,9.819000244140625,-7.621950149536133,-0.006000000052154064
1780564146714817000,7.552817138671875,9.892050743103027,-7.551000595092773,-0.283050000667572
1780564146734329600,7.57232958984375,9.904050827026367,-7.359000205993652,-0.4519500136375427
1780564146753844200,7.59184423828125,9.940950393676758,-7.191000461578369,-0.4849500358104706
1780564146773364000,7.611364013671875,9.957000732421875,-7.126950263977051,-0.4720500111579895
1780564146792883200,7.63088330078125,9.996000289916992,-7.182000160217285,-0.43800002336502075
1780564146812394800,7.650394775390625,10.1089506149292,-7.243950366973877,-0.39900001883506775
1780564146831902000,7.66990185546875,10.207050323486328,-7.336950302124023,-0.3570000231266022
1780564146851409700,7.68940966796875,10.231950759887695,-7.470000267028809,-0.31200000643730164
1780564146870921200,7.708921142578125,10.141050338745117,-7.795950412750244,-0.2070000171661377
1780564146890433000,7.72843310546875,9.880950927734375,-8.18595027923584,-0.025950001552700996
1780564146909945000,7.747945068359375,9.601950645446777,-8.401050567626953,0.2560500204563141
1780564146929456400,7.767456298828125,9.487950325012207,-8.473050117492676,0.595050036907196
1780564146948970200,7.78697021484375,9.616950035095215,-8.289000511169434,0.9160500168800354
1780564146968481300,7.806481201171875,9.915000915527344,-7.900050163269043,1.0699501037597656
1780564146987990000,7.825989990234375,10.098000526428223,-7.4760003089904785,1.125
1780564147007507700,7.8455078125,9.985950469970703,-6.924000263214111,1.2829500436782837
1780564147027030300,7.8650302734375,9.769050598144531,-5.490000247955322,1.5829501152038574
1780564147046556400,7.884556396484375,9.450000762939453,-5.232000350952148,3.30495023727417
1780564147066078700,7.90407861328125,9.103950500488281,-4.890000343322754,3.6820502281188965
1780564147085594000,7.923593994140625,8.824049949645996,-4.534049987792969,4.285950183868408
1780564147105104100,7.943104248046875,8.472000122070312,-4.258950233459473,4.777950286865234
1780564147124617700,7.96261767578125,7.9360504150390625,-4.276950359344482,5.134050369262695
1780564147144137700,7.9821376953125,7.423050403594971,-4.354050159454346,5.36400032043457
1780564147163655000,8.001655029296876,7.176000118255615,-4.393050193786621,5.236050128936768
1780564147183175700,8.02117578125,7.045050144195557,-4.635000228881836,5.10705041885376
1780564147202696200,8.0406962890625,7.132950305938721,-4.549050331115723,4.876950263977051
1780564147222212600,8.060212646484375,7.318950176239014,-4.34505033493042,4.669950008392334
1780564147241725200,8.07972509765625,7.252050399780273,-4.3720502853393555,4.777050018310547
1780564147261234400,8.099234375,6.901050090789795,-4.240050315856934,5.022000312805176
1780564147280750800,8.118750732421875,6.4830002784729,-4.080000400543213,5.181000232696533
1780564147300272000,8.138272216796874,6.154050350189209,-3.873000144958496,5.188050270080566
1780564147319792600,8.157792724609376,5.818950176239014,-3.706050157546997,5.509950160980225
1780564147339310600,8.177310546875,5.622000217437744,-3.712050199508667,6.127950191497803
1780564147358830300,8.196830322265624,5.334000110626221,-3.7039501667022705,6.739050388336182
1780564147378351600,8.2163515625,3.579000234603882,-3.9049501419067383,7.240950107574463
1780564147397869600,8.23586962890625,3.370950222015381,-3.936000108718872,7.1419501304626465
1780564147417390000,8.25539013671875,1.5660001039505005,-3.592050075531006,6.670950412750244
1780564147436913700,8.27491357421875,1.311000108718872,-3.367950201034546,6.469950199127197
1780564147456434700,8.2944345703125,1.0279500484466553,-3.181950092315674,6.426000118255615
1780564147475955500,8.31395556640625,0.8359500169754028,-2.8279502391815186,6.361050128936768
1780564147495479800,8.333479736328124,0.8620500564575195,-2.704050064086914,6.289950370788574
1780564147514997500,8.35299755859375,1.1239500045776367,-2.6929500102996826,6.097050189971924
1780564147534513700,8.372513671875,1.4659500122070312,-2.647050142288208,5.800050258636475
1780564147554031600,8.392031494140625,1.8760501146316528,-2.6479501724243164,5.698050498962402
1780564147573546500,8.41154638671875,2.2159500122070312,-2.728950023651123,5.724000453948975
1780564147593063000,8.43106298828125,2.284050226211548,-2.956050157546997,5.943000316619873
1780564147612580400,8.450580322265624,2.3010001182556152,-3.123000144958496,6.339000225067139
1780564147632101400,8.470101318359376,2.2139999866485596,-3.3450002670288086,6.765000343322754
1780564147651626500,8.48962646484375,2.134050130844116,-3.5370001792907715,7.150050163269043
1780564147671150600,8.509150634765625,2.026050090789795,-3.5689501762390137,7.383000373840332
1780564147690671600,8.528671630859375,1.8169500827789307,-3.6250500679016113,7.51800012588501
1780564147710193400,8.548193359375,1.5829501152038574,-3.8010001182556152,7.597950458526611
1780564147729716700,8.567716796875,1.4100000858306885,-3.8749501705169678,7.5319504737854
1780564147749238300,8.58723828125,1.3060500621795654,-3.913950204849243,7.408950328826904
1780564147768756500,8.606756591796875,1.2130500078201294,-4.114050388336182,7.33905029296875
1780564147788280300,8.6262802734375,1.0699501037597656,-4.357950210571289,7.260000228881836
1780564147807809000,8.64580908203125,1.0309500694274902,-4.555950164794922,7.099050521850586
1780564147827331300,8.665331298828125,1.024049997329712,-4.708950042724609,6.790950298309326
1780564147846853600,8.684853515625,1.068000078201294,-4.7719502449035645,6.459000110626221
1780564147866378200,8.704378173828125,1.2019500732421875,-4.885050296783447,6.117000102996826
1780564147885902800,8.72390283203125,1.297950029373169,-5.158050060272217,5.914050102233887
1780564147905422000,8.743422119140625,1.5510001182556152,-5.3680500984191895,5.899050235748291
1780564147924938500,8.7629384765625,1.8360000848770142,-5.496000289916992,5.850000381469727
1780564147944459000,8.782458984375,2.107950210571289,-5.400000095367432,5.875050067901611
1780564147963978800,8.801978759765625,2.473950147628784,-5.139000415802002,5.953050136566162
1780564147983498800,8.821498779296874,2.9389500617980957,-4.863000392913818,6.0259504318237305
1780564148003018800,8.841018798828125,3.454050064086914,-4.546950340270996,6.169950485229492
1780564148022540800,8.860540771484375,3.8680500984191895,-4.2709503173828125,6.2749505043029785
1780564148042065000,8.88006494140625,4.111050128936768,-3.9430501461029053,6.294000148773193
1780564148061588200,8.899588134765626,4.085999965667725,-3.634050130844116,6.183000087738037
1780564148081109000,8.91910888671875,3.867000102996826,-3.3919501304626465,5.967000484466553
1780564148100628200,8.938628173828125,3.649050235748291,-3.1410000324249268,5.785950183868408
1780564148120150500,8.958150634765625,3.3439502716064453,-3.0010502338409424,5.734950065612793
1780564148139675100,8.977675048828125,3.2320501804351807,-2.905050039291382,5.7210001945495605
1780564148159198500,8.997198486328125,3.1090500354766846,-2.7910501956939697,5.629050254821777
1780564148178722600,9.01672265625,2.9290502071380615,-2.742000102996826,5.503950119018555
1780564148198243800,9.036243896484375,2.7049500942230225,-2.8000500202178955,5.527050495147705
1780564148217759700,9.055759765625,2.434950113296509,-2.8969502449035645,5.718000411987305
1780564148237271300,9.075271240234375,2.2110002040863037,-2.877000093460083,5.767950057983398
1780564148256784600,9.09478466796875,1.8030000925064087,-2.887050151824951,5.742000102996826
1780564148276305200,9.11430517578125,1.2790501117706299,-2.902050256729126,5.797050476074219
1780564148295826000,9.133825927734375,0.7440000176429749,-2.883000135421753,5.7900004386901855
1780564148315344100,9.15334423828125,0.42795002460479736,-3.0229501724243164,5.974950313568115
1780564148334865000,9.172864990234375,0.5110500454902649,-3.268050193786621,6.331050395965576
1780564148354386700,9.19238671875,1.045050024986267,-3.3979501724243164,6.4770002365112305
1780564148373911600,9.21191162109375,1.6399500370025635,-3.541950225830078,6.529950141906738
1780564148393434600,9.2314345703125,3.3859500885009766,-3.7200002670288086,6.618000507354736
1780564148412955600,9.25095556640625,3.6730501651763916,-3.7920002937316895,6.703050136566162
1780564148432480500,9.27048046875,4.080000400543213,-3.8830502033233643,6.8110504150390625
1780564148452001300,9.290001220703125,4.4160003662109375,-3.9600002765655518,6.9120001792907715
1780564148471520000,9.30952001953125,4.543950080871582,-3.9850502014160156,6.979950428009033
1780564148491041500,9.32904150390625,4.584000110626221,-4.096950054168701,7.023000240325928
1780564148510563000,9.34856298828125,4.565999984741211,-4.255949974060059,7.021050453186035
1780564148530082800,9.368082763671875,4.582950115203857,-4.360949993133545,6.9720001220703125
1780564148549601500,9.3876015625,4.549050331115723,-4.468050003051758,7.020000457763672
1780564148569119700,9.40711962890625,4.497000217437744,-4.531050205230713,7.033050537109375
1780564148588635100,9.42663525390625,4.444950103759766,-4.563000202178955,7.099950313568115
1780564148608149500,9.4461494140625,4.570950031280518,-4.672950267791748,7.255050182342529
1780564148627669000,9.4656689453125,4.981950283050537,-4.7310004234313965,7.234950542449951
1780564148647193000,9.485193115234376,5.4810004234313965,-4.761000156402588,7.012950420379639
1780564148666717700,9.5047177734375,6.067950248718262,-4.980000019073486,6.7069501876831055
1780564148686242800,9.524242919921875,6.579000473022461,-5.290050029754639,6.2470502853393555
1780564148705764600,9.5437646484375,6.955050468444824,-5.673000335693359,5.871000289916992
1780564148725286000,9.563285888671874,7.158000469207764,-5.93595027923584,5.683050155639648
1780564148744806700,9.582806640625,7.1770501136779785,-5.9760003089904785,5.310000419616699
1780564148764329700,9.602329833984374,7.069950103759766,-5.926950454711914,4.8259501457214355
1780564148783850500,9.6218505859375,7.071000099182129,-5.746950149536133,4.23105001449585
1780564148803367000,9.641366943359374,7.23900032043457,-5.671050071716309,2.7829501628875732
1780564148822881300,9.66088134765625,7.528950214385986,-5.734050273895264,2.512050151824951
1780564148842398200,9.680398193359375,8.017050743103027,-5.833950042724609,2.329050064086914
1780564148861919000,9.6999189453125,8.485050201416016,-6.093000411987305,2.2960500717163086
1780564148881439700,9.719439697265624,8.836950302124023,-6.41295051574707,2.3449501991271973
1780564148900959700,9.738959716796876,9.022950172424316,-6.565950393676758,2.281050205230713
1780564148920475400,9.758475341796874,8.968950271606445,-6.627000331878662,2.044950008392334
1780564148939992000,9.777991943359375,8.75100040435791,-6.61305046081543,1.8960001468658447
1780564148959511800,9.79751171875,8.51205062866211,-6.58905029296875,1.9180500507354736
1780564148979030000,9.817030029296875,8.353950500488281,-6.670050144195557,2.1000001430511475
1780564148998551800,9.8365517578125,8.32800006866455,-6.744000434875488,2.116950035095215
1780564149018077700,9.85607763671875,8.496000289916992,-6.799050331115723,1.9360500574111938
1780564149037603600,9.875603515625,8.756999969482422,-6.747000217437744,1.5919500589370728
1780564149057128200,9.895128173828125,8.997000694274902,-6.684000492095947,1.3290001153945923
1780564149076651800,9.91465185546875,9.184050559997559,-6.76200008392334,1.3650000095367432
1780564149096177200,9.93417724609375,9.28695011138916,-6.916950225830078,1.4110500812530518
1780564149115702000,9.953701904296874,9.355950355529785,-7.05495023727417,1.3399500846862793
1780564149135230700,9.973230712890626,9.471000671386719,-7.0600504875183105,1.15500009059906
1780564149154752300,9.992752197265625,9.62505054473877,-7.009050369262695,0.9949500560760498
1780564149174269200,10.012269287109374,9.790950775146484,-6.948000431060791,0.9289500713348389
1780564149193787100,10.031787109375,9.907050132751465,-6.987000465393066,0.9370500445365906
1780564149213304000,10.051303955078126,9.886950492858887,-7.210050106048584,1.0470000505447388
1780564149232820200,10.0708203125,9.907950401306152,-7.468950271606445,1.2360000610351562
1780564149252338700,10.090338623046875,10.039950370788574,-7.711050510406494,1.4719500541687012
1780564149271861200,10.109861328125,10.422000885009766,-7.813050270080566,1.6249500513076782
1780564149291385900,10.1293857421875,11.043000221252441,-7.773000240325928,1.7590501308441162
1780564149310911200,10.1489111328125,11.61405086517334,-7.674000263214111,1.8930001258850098
1780564149330435000,10.16843505859375,11.938950538635254,-7.497000217437744,1.9360500574111938
1780564149349956400,10.187956298828125,11.620950698852539,-7.417050361633301,1.9009500741958618
1780564149369474000,10.20747412109375,9.73905086517334,-7.408050537109375,1.894050121307373
1780564149388992500,10.226992431640625,8.218950271606445,-7.266000270843506,1.9900500774383545
1780564149408514000,10.24651416015625,7.6710004806518555,-6.850050449371338,2.1070501804351807
1780564149428035000,10.26603515625,7.203000545501709,-5.185050010681152,2.2139999866485596
1780564149447557400,10.285557373046874,6.868950366973877,-4.978950023651123,2.2669501304626465
1780564149467078000,10.305077880859375,6.628950119018555,-4.852950096130371,2.4120001792907715
1780564149486595600,10.324595703125,6.529050350189209,-4.948950290679932,2.7970502376556396
1780564149506111700,10.34411181640625,6.388950347900391,-5.190000057220459,3.2950501441955566
1780564149525632300,10.36363232421875,6.502050399780273,-5.316000461578369,3.748950242996216
1780564149545155800,10.38315576171875,6.562950134277344,-5.212050437927246,4.111950397491455
1780564149564672800,10.4026728515625,6.223050117492676,-5.115000247955322,4.489050388336182
1780564149584186400,10.422186279296875,5.800950050354004,-5.022000312805176,4.9710001945495605
1780564149603701800,10.44170166015625,5.220000267028809,-4.872000217437744,5.371950149536133
1780564149623220000,10.461219970703125,4.642050266265869,-4.666950225830078,5.7019500732421875
1780564149642735600,10.480735595703125,4.22504997253418,-4.4509501457214355,6.001950263977051
1780564149662251500,10.50025146484375,3.879000186920166,-4.174050331115723,6.234000205993652
1780564149681767200,10.51976708984375,3.6889500617980957,-3.9720001220703125,6.463050365447998
1780564149701284400,10.539284423828125,3.7140002250671387,-3.828000068664551,6.522000312805176
1780564149720803000,10.558802978515626,3.7170002460479736,-3.5839502811431885,6.430950164794922
1780564149740319700,10.57831982421875,3.718050241470337,-3.3130502700805664,6.32295036315918
1780564149759834400,10.59783447265625,3.550950050354004,-3.010050058364868,6.3259501457214355
1780564149779348700,10.6173486328125,3.1680002212524414,-2.8000500202178955,6.517050266265869
1780564149798865400,10.636865478515626,2.9130001068115234,-2.742000102996826,6.682950496673584
1780564149818382800,10.6563828125,2.968950033187866,-2.6290500164031982,6.720000267028809
1780564149837899500,10.6758994140625,3.0979502201080322,-2.473050117492676,6.790950298309326
1780564149857412900,10.695412841796875,3.186000108718872,-2.491950035095215,7.123050212860107
1780564149876929300,10.71492919921875,3.309000253677368,-2.620950222015381,7.42995023727417
1780564149896451600,10.73445166015625,3.4590001106262207,-2.8030500411987305,7.461000442504883
1780564149915972600,10.75397265625,3.604950189590454,-2.9140501022338867,7.507950305938721
1780564149935494100,10.773494140625,3.624000072479248,-3.0400500297546387,7.689000129699707
1780564149955016700,10.7930166015625,3.510000228881836,-3.204000234603882,7.813050270080566
1780564149974533000,10.812533203125,3.3130502700805664,-3.306000232696533,7.89900016784668
1780564149994049000,10.832049072265624,3.2370002269744873,-3.516000270843506,7.870050430297852
1780564150013568800,10.85156884765625,3.214050054550171,-3.6229500770568848,7.557000160217285
1780564150033085200,10.871085205078124,3.046950101852417,-3.6790502071380615,7.336950302124023
1780564150052603400,10.890603271484375,2.581050157546997,-3.9469501972198486,7.4410505294799805
1780564150072125000,10.910125,2.098950147628784,-4.255050182342529,7.555950164794922
1780564150091641600,10.9296416015625,1.7179501056671143,-4.609050273895264,7.609050273895264
1780564150111155500,10.949155517578125,1.3960500955581665,-4.777950286865234,7.6110005378723145
1780564150130670600,10.968670654296876,1.051050066947937,-4.900050163269043,7.501950263977051
1780564150150188500,10.9881884765625,0.6570000052452087,-5.104950428009033,7.360050201416016
1780564150169710000,11.0077099609375,0.5850000381469727,-5.121000289916992,7.1260504722595215
1780564150189232400,11.027232421875,0.8449500203132629,-5.160000324249268,6.9370503425598145
1780564150208754200,11.046754150390624,1.141950011253357,-5.284050464630127,7.122000217437744
1780564150228277000,11.066277099609374,1.4089500904083252,-5.527050495147705,7.594950199127197
1780564150247801000,11.085801025390625,1.7179501056671143,-5.809950351715088,7.957950592041016
1780564150267326200,11.105326171875,1.9620001316070557,-6.058050155639648,8.023050308227539
1780564150286854100,11.124854248046875,2.2159500122070312,-6.021000385284424,7.522950172424316
1780564150306379000,11.14437890625,1.9639500379562378,-3.787050247192383,5.530050277709961
1780564150325902300,11.16390234375,-0.04905000329017639,-1.984950065612793,5.14995002746582
1780564150345423600,11.183423583984375,-1.9450501203536987,-1.7160000801086426,4.933950424194336
1780564150364944600,11.202944580078125,-2.086050033569336,-1.5649501085281372,4.879050254821777
1780564150384469500,11.222469482421875,0.24900001287460327,-3.553950071334839,5.056950092315674
1780564150403992300,11.241992431640625,3.0229501724243164,-5.152950286865234,5.167050361633301
1780564150423512800,11.261512939453125,4.8259501457214355,-6.831000328063965,5.082000255584717
1780564150443031000,11.281031005859376,4.863000392913818,-6.913050174713135,5.206050395965576
1780564150462550500,11.300550537109375,3.1960501670837402,-6.718950271606445,5.443050384521484
1780564150482070800,11.32007080078125,1.0720500946044922,-4.857000350952148,5.73900032043457
1780564150501590000,11.339590087890626,-0.5389500260353088,-4.53000020980835,6.1620001792907715
1780564150521111800,11.35911181640625,-0.5940000414848328,-4.003050327301025,6.478050231933594
1780564150540637200,11.37863720703125,-0.25394999980926514,-3.5680501461029053,6.502950191497803
1780564150560156000,11.398156005859375,1.3380000591278076,-3.4650001525878906,6.313950061798096
1780564150579674000,11.417674072265624,3.0300002098083496,-3.52305006980896,5.995950222015381
1780564150599198700,11.43719873046875,3.4050002098083496,-3.6439502239227295,5.599950313568115
1780564150618722600,11.45672265625,3.604950189590454,-3.6220502853393555,5.233950138092041
1780564150638243800,11.476243896484375,3.4270501136779785,-3.331050157546997,4.813050270080566
1780564150657765400,11.495765380859375,1.8310500383377075,-2.953050136566162,4.498050212860107
1780564150677288700,11.515288818359375,1.3039500713348389,-2.7529501914978027,4.498050212860107
1780564150696814800,11.53481494140625,0.7950000166893005,-2.7120001316070557,4.788000106811523
1780564150716339000,11.5543388671875,0.46995002031326294,-2.92995023727417,5.302950382232666
1780564150735856600,11.573856689453125,0.6130500435829163,-3.376950263977051,5.848950386047363
1780564150755374600,11.59337451171875,0.9310500621795654,-3.7420501708984375,6.274050235748291
1780564150774893300,11.612893310546875,1.1050500869750977,-4.009050369262695,6.505050182342529
1780564150794406100,11.63240625,1.1069999933242798,-4.120950222015381,6.735000133514404
1780564150813921500,11.651921630859375,0.9750000238418579,-4.023000240325928,7.105950355529785
1780564150833441800,11.67144189453125,0.7450500130653381,-3.8179502487182617,8.723999977111816
1780564150852957400,11.69095751953125,0.7339500188827515,-3.544950246810913,8.923050880432129
1780564150872473300,11.710473388671875,0.9720000624656677,-3.4330501556396484,9.11205005645752
1780564150891993600,11.72999365234375,2.6020500659942627,-3.5119502544403076,9.157050132751465
1780564150911513600,11.749513671875,3.0259501934051514,-3.652050256729126,8.740050315856934
1780564150931030800,11.76903076171875,3.598950147628784,-3.9409501552581787,8.161050796508789
1780564150950546400,11.78854638671875,3.9850502014160156,-4.23105001449585,7.717950344085693
1780564150970067000,11.80806689453125,3.9660000801086426,-4.3909502029418945,7.266000270843506
1780564150989587700,11.827587646484375,3.6979501247406006,-4.394999980926514,6.847950458526611
1780564151009102600,11.8471025390625,3.183000087738037,-4.22504997253418,6.499050140380859
1780564151028619800,11.866619873046876,2.8819501399993896,-3.8989500999450684,6.157050132751465
1780564151048139300,11.88613916015625,2.808000087738037,-3.4740002155303955,5.902950286865234
1780564151067661600,11.90566162109375,2.9449501037597656,-3.20205020904541,5.871000289916992
1780564151087182600,11.9251826171875,4.785000324249268,-3.204000234603882,6.067950248718262
1780564151106703600,11.94470361328125,5.134050369262695,-3.3420002460479736,6.2440505027771
1780564151126224400,11.964224365234376,5.698050498962402,-3.68595027923584,6.228000164031982
1780564151145737500,11.983737548828126,6.237000465393066,-4.128000259399414,6.145050525665283
1780564151165254700,12.003254638671875,6.76800012588501,-4.554000377655029,5.9730000495910645
1780564151184775200,12.022775146484374,7.302000522613525,-5.07705020904541,5.8969502449035645
1780564151204291000,12.042291015625,7.896000385284424,-5.5759501457214355,5.788050174713135
1780564151223808000,12.06180810546875,9.384000778198242,-5.8660502433776855,5.551050186157227
1780564151243325000,12.081324951171876,9.622950553894043,-6.100950241088867,5.353050231933594
1780564151262845200,12.10084521484375,9.775050163269043,-6.313950061798096,5.308050155639648
1780564151282368300,12.1203681640625,9.616950035095215,-6.60705041885376,5.430000305175781
1780564151301892600,12.139892578125,9.235050201416016,-6.990000247955322,5.500950336456299
1780564151321419500,12.15941943359375,8.749950408935547,-7.108050346374512,5.116950035095215
1780564151340939300,12.178939208984374,8.425050735473633,-6.955050468444824,3.5149502754211426
1780564151360457000,12.19845703125,8.251049995422363,-6.7099504470825195,3.1459500789642334
1780564151379981000,12.21798095703125,8.112000465393066,-6.576000213623047,2.677950143814087
1780564151399507200,12.237507080078124,7.933950424194336,-6.589950084686279,2.5489501953125
1780564151419034400,12.257034423828125,7.689000129699707,-6.804000377655029,2.671950101852417
1780564151438562300,12.276562255859375,7.549950122833252,-6.871950149536133,2.668950080871582
1780564151458091000,12.296091064453124,7.462050437927246,-6.76800012588501,2.5830001831054688
1780564151477616600,12.31561669921875,7.3720502853393555,-6.648000240325928,2.2699501514434814
1780564151497142800,12.335142822265626,7.521000385284424,-6.4110002517700195,1.76895010471344
1780564151516672800,12.3546728515625,7.9069504737854,-6.225000381469727,1.2679500579833984
1780564151536203300,12.374203369140625,8.454000473022461,-6.079050064086914,0.89205002784729
1780564151555730200,12.393730224609374,9.016950607299805,-5.871000289916992,0.6930000185966492
1780564151575255600,12.413255615234375,9.30405044555664,-5.647950172424316,0.5779500007629395
1780564151594781400,12.432781494140626,9.327000617980957,-5.491950035095215,0.47895002365112305
1780564151614307000,12.45230712890625,9.067950248718262,-5.392050266265869,0.32505002617836
1780564151633829000,12.4718291015625,8.706000328063965,-5.440950393676758,0.13395000994205475
1780564151653352200,12.491352294921874,8.551950454711914,-5.584050178527832,-0.037950001657009125
1780564151672882000,12.5108818359375,8.743950843811035,-5.736000061035156,-0.15900000929832458
1780564151692409000,12.5304091796875,9.319050788879395,-5.968950271606445,-0.17505000531673431
1780564151711932700,12.5499326171875,9.97800064086914,-6.259050369262695,-0.1080000028014183
1780564151731459600,12.56945947265625,10.51395034790039,-6.558000087738037,0.013950000517070293
1780564151750985700,12.58898583984375,10.768050193786621,-6.853950500488281,0.21000000834465027
1780564151770505500,12.60850537109375,10.705050468444824,-7.119000434875488,0.4540500342845917
1780564151790023000,12.62802294921875,10.447050094604492,-7.336950302124023,0.6910500526428223
1780564151809542000,12.6475419921875,10.033050537109375,-7.581000328063965,0.9070500135421753
1780564151829060400,12.667060302734376,9.613950729370117,-7.735050201416016,1.1059499979019165
1780564151848577800,12.686577880859375,9.333000183105469,-7.882050514221191,1.3459500074386597
1780564151868097500,12.70609765625,9.229950904846191,-8.13705062866211,1.6609500646591187
1780564151887620900,12.725620849609374,9.211050033569336,-8.41200065612793,2.16195011138916
1780564151907142700,12.745142578125,9.187050819396973,-8.605050086975098,3.67995023727417
1780564151926657500,12.764657470703124,9.04800033569336,-8.571000099182129,3.973050117492676
1780564151946170600,12.784170654296876,8.794950485229492,-8.271000862121582,4.237950325012207
1780564151965686800,12.803686767578125,8.37405014038086,-7.800000190734863,4.207950115203857
1780564151985202200,12.8232021484375,7.813950538635254,-7.384050369262695,3.9220502376556396
1780564152004716800,12.842716796875,7.158000469207764,-7.029000282287598,3.856950283050537
1780564152024235000,12.862235107421874,5.691000461578369,-6.739050388336182,4.2709503173828125
1780564152043753200,12.881753173828125,5.305050373077393,-6.3319501876831055,5.8060503005981445
1780564152063275500,12.901275634765625,4.72605037689209,-5.886000156402588,6.094950199127197
1780564152082796300,12.92079638671875,4.075050354003906,-5.659950256347656,6.246000289916992
1780564152102314500,12.940314453125,3.52305006980896,-5.398050308227539,6.049050331115723
1780564152121832700,12.959832763671875,3.258000135421753,-5.161050319671631,5.914950370788574
1780564152141349000,12.97934912109375,3.1600501537323,-4.933950424194336,6.139050483703613
1780564152160866000,12.998865966796876,3.0769500732421875,-4.7029500007629395,6.418050289154053
1780564152180380700,13.018380615234374,3.0580501556396484,-4.468050003051758,6.820050239562988
1780564152199896000,13.03789599609375,3.007050037384033,-4.23900032043457,7.224000453948975
1780564152219414500,13.05741455078125,3.0010502338409424,-4.108950138092041,7.537050247192383
1780564152238931200,13.07693115234375,2.9359500408172607,-3.9720001220703125,7.777950286865234
1780564152258446300,13.0964462890625,2.602950096130371,-3.954000234603882,7.9170002937316895
1780564152277962500,13.11596240234375,2.2099502086639404,-4.050000190734863,7.993050575256348
1780564152297481000,13.13548095703125,1.9230000972747803,-4.065000057220459,7.98900032043457
1780564152317000000,13.155,1.864050030708313,-4.135950088500977,8.077950477600098
1780564152336515800,13.174515869140626,2.116950035095215,-4.140000343322754,8.101950645446777
1780564152356029200,13.194029296875,2.382000207901001,-4.000950336456299,7.836000442504883
1780564152375541000,13.213541015625,2.2680001258850098,-3.9679501056671143,7.588050365447998
1780564152395054600,13.2330546875,1.9639500379562378,-3.9660000801086426,7.420950412750244
1780564152414566700,13.252566650390625,1.651050090789795,-3.8340001106262207,7.192050457000732
1780564152434076000,13.272075927734376,1.3270500898361206,-3.7800002098083496,6.990000247955322
1780564152453596000,13.291595947265625,1.1530500650405884,-3.868950128555298,7.003050327301025
1780564152473119500,13.311119384765625,1.0360500812530518,-3.864000082015991,7.198950290679932
1780564152492635400,13.330635498046876,0.8479500412940979,-3.916950225830078,7.381950378417969
1780564152512150000,13.35014990234375,0.7999500632286072,-4.116000175476074,7.5610504150390625
1780564152531668700,13.369668701171875,0.8100000619888306,-4.252050399780273,7.6020002365112305
1780564152551186000,13.38918603515625,0.9049500226974487,-4.359000205993652,7.566000461578369
1780564152570699500,13.408699462890626,1.0470000505447388,-4.591050148010254,7.581000328063965
1780564152590216400,13.428216552734375,1.1460000276565552,-4.7220001220703125,7.3750505447387695
1780564152609734700,13.447734619140626,1.01895010471344,-4.773000240325928,5.4120001792907715
1780564152629253000,13.467253173828125,-0.6889500617980957,-4.879050254821777,4.939950466156006
1780564152648769800,13.486769775390625,-0.8800500631332397,-4.897950172424316,4.582050323486328
1780564152668286700,13.50628662109375,-0.9550500512123108,-4.996950149536133,4.7719502449035645
1780564152687802000,13.525802001953124,-0.625950038433075,-5.1660003662109375,6.598050117492676
1780564152707313700,13.545313720703126,1.7299500703811646,-5.2230000495910645,6.952950477600098
1780564152726830000,13.564830078125,3.0829501152038574,-5.329950332641602,7.093950271606445
1780564152746348000,13.58434814453125,2.7310500144958496,-5.344950199127197,6.733050346374512
1780564152765862100,13.603862060546875,2.1510000228881836,-5.034000396728516,5.068950176239014
1780564152785373400,13.62337353515625,0.14205001294612885,-3.3480000495910645,4.866000175476074
1780564152804885200,13.64288525390625,-0.4129500091075897,-3.1300501823425293,4.8070502281188965
1780564152824396500,13.662396484375,-0.7680000066757202,-2.9320502281188965,4.956000328063965
1780564152843908600,13.68190869140625,-0.9070500135421753,-3.123000144958496,5.179050445556641
1780564152863428600,13.7014287109375,-0.6690000295639038,-5.049000263214111,5.350950241088867
1780564152882947600,13.720947509765624,0.9340500235557556,-5.416050434112549,5.320050239562988
1780564152902464500,13.740464599609375,1.2889500856399536,-5.94195032119751,5.298000335693359
1780564152921980000,13.75997998046875,1.6960500478744507,-6.319950103759766,5.464950084686279
1780564152941493200,13.7794931640625,1.755000114440918,-6.441000461578369,5.742000102996826
1780564152961008600,13.799008544921875,1.5390000343322754,-6.406050205230713,6.0960001945495605
1780564152980523800,13.818523681640626,1.2630000114440918,-6.246000289916992,6.388950347900391
1780564153000037000,13.838037109375,1.180050015449524,-6.076050281524658,6.601950168609619
1780564153019549400,13.857549560546875,1.4590500593185425,-5.8690505027771,6.696000099182129
1780564153039059200,13.87705908203125,1.8240001201629639,-5.695950508117676,6.760050296783447
1780564153058568000,13.89656787109375,2.104950189590454,-5.47005033493042,6.7699503898620605
1780564153078081000,13.9160810546875,2.3149502277374268,-5.086950302124023,6.580050468444824
1780564153097600000,13.93560009765625,2.2159500122070312,-4.711950302124023,6.2749505043029785
1780564153117120500,13.95512060546875,1.9420500993728638,-4.264050006866455,5.8909502029418945
1780564153136636000,13.974635986328124,1.6240500211715698,-3.8899502754211426,5.557950496673584
1780564153156149500,13.9941494140625,1.258950114250183,-3.6790502071380615,5.361000061035156
1780564153175666000,14.013666015625,1.0060499906539917,-3.630000114440918,5.347950458526611
1780564153195185400,14.033185302734376,0.9769500494003296,-3.7600502967834473,5.577000141143799
1780564153214704600,14.05270458984375,0.970050036907196,-4.011000156402588,5.910000324249268
1780564153234220300,14.07222021484375,0.9330000281333923,-4.24500036239624,6.208950519561768
1780564153253735000,14.09173486328125,0.8280000686645508,-4.449000358581543,6.366000175476074
1780564153273249800,14.111249755859374,0.46605002880096436,-4.560000419616699,6.349950313568115
1780564153292765000,14.130764892578124,-0.09405000507831573,-4.600050449371338,6.216000080108643
1780564153312282600,14.15028271484375,-1.7809500694274902,-4.7029500007629395,6.091950416564941
1780564153331801300,14.16980126953125,-1.9590001106262207,-4.747950077056885,6.139950275421143
1780564153351317000,14.18931689453125,-2.1190500259399414,-4.749000072479248,6.337950229644775
1780564153370828800,14.208828857421874,-2.284050226211548,-4.7029500007629395,6.538950443267822
1780564153390338800,14.2283388671875,-2.3929500579833984,-4.5960001945495605,6.676950454711914
1780564153409852000,14.247851806640625,-2.3580000400543213,-4.495950222015381,6.702000141143799
1780564153429363700,14.26736376953125,-2.2099502086639404,-4.361999988555908,6.859050273895264
1780564153448876000,14.2868759765625,-1.7839500904083252,-4.2210001945495605,7.146000385284424
1780564153468391700,14.3063916015625,-0.11805000901222229,-4.153950214385986,7.459050178527832
1780564153487903700,14.32590380859375,0.18195000290870667,-4.156050205230713,7.794000148773193
1780564153507416800,14.345416748046874,0.7990500330924988,-4.062000274658203,7.872000217437744
1780564153526934500,14.3649345703125,2.2420501708984375,-4.0219502449035645,7.762950420379639
1780564153546449400,14.384449462890625,2.5000500679016113,-4.1449503898620605,7.597950458526611
1780564153565963500,14.403963623046875,2.8350000381469727,-4.147950172424316,7.31505012512207
1780564153585477600,14.4234775390625,3.2920501232147217,-4.093050003051758,7.048050403594971
1780564153604990500,14.442990478515625,3.7680001258850098,-4.156949996948242,6.916050434112549
1780564153624503600,14.462503662109375,4.162950038909912,-4.117949962615967,6.856050491333008
1780564153644017000,14.482016845703125,4.42995023727417,-4.174050331115723,6.7860002517700195
1780564153663527200,14.501527099609374,4.543950080871582,-4.52400016784668,6.733050346374512
1780564153683036200,14.5210361328125,4.834050178527832,-4.837950229644775,6.724050521850586
1780564153702548000,14.5405478515625,5.164950370788574,-5.152050018310547,6.7819504737854
1780564153722063000,14.56006298828125,5.365950107574463,-5.488950252532959,6.898050308227539
1780564153741578000,14.579577880859375,5.278950214385986,-5.848050117492676,7.081050395965576
1780564153761091600,14.599091552734375,5.046000003814697,-6.237000465393066,7.153950214385986
1780564153780607700,14.618607666015626,4.843950271606445,-6.481950283050537,6.999000549316406
1780564153800126000,14.6381259765625,4.78695011138916,-6.598050117492676,6.604050159454346
1780564153819644400,14.65764453125,4.8480000495910645,-6.720000267028809,6.091050148010254
1780564153839163400,14.677163330078125,4.987950325012207,-6.8610005378723145,5.683050155639648
1780564153858681000,14.69668115234375,5.377950191497803,-6.97605037689209,5.371950149536133
1780564153878195000,14.71619482421875,7.25700044631958,-7.069950103759766,5.056950092315674
1780564153897710300,14.73571044921875,7.549950122833252,-7.062000274658203,4.573950290679932
1780564153917227500,14.7552275390625,7.906050205230713,-6.957000255584717,2.902050256729126
1780564153936743400,14.774743408203125,8.326050758361816,-6.97005033493042,2.7910501956939697
1780564153956261000,14.79426123046875,8.743950843811035,-7.062000274658203,2.6329500675201416
1780564153975779300,14.813779296875,9.133049964904785,-7.087950229644775,2.367000102996826
1780564153995295200,14.833295166015626,9.31605052947998,-7.234950542449951,2.164950132369995
1780564154014817000,14.852817138671876,9.318000793457031,-7.53000020980835,1.9459501504898071
1780564154034341000,14.872341064453124,9.268950462341309,-7.729050159454346,1.7070001363754272
1780564154053861400,14.891861328125,9.355950355529785,-7.81095027923584,1.4899500608444214
1780564154073378300,14.91137841796875,9.562050819396973,-7.8100504875183105,1.3429501056671143
1780564154092898300,14.930898193359376,9.585000038146973,-7.657950401306152,1.2090001106262207
1780564154112420600,14.950420654296876,9.333000183105469,-7.560000419616699,1.0950000286102295
1780564154131945200,14.9699453125,8.878050804138184,-7.537050247192383,1.0120500326156616
1780564154151471600,14.9894716796875,8.419950485229492,-7.434000492095947,0.8910000324249268
1780564154170998800,15.008998779296874,8.011950492858887,-7.303950309753418,0.7930500507354736
1780564154190526500,15.0285263671875,7.677000522613525,-7.261950492858887,0.739050030708313
1780564154210049800,15.0480498046875,7.488000392913818,-7.318050384521484,0.7729500532150269
1780564154229569500,15.067569580078125,7.486950397491455,-7.365000247955322,0.7740000486373901
1780564154249091300,15.08709130859375,7.764000415802002,-7.381950378417969,0.8160000443458557
1780564154268612600,15.106612548828124,8.140950202941895,-7.3810505867004395,0.9139500260353088
1780564154288132400,15.12613232421875,8.440950393676758,-7.401000499725342,1.0180500745773315
1780564154307652600,15.145652587890625,8.60205078125,-7.521000385284424,1.0990500450134277
1780564154327171300,15.16517138671875,8.554950714111328,-7.699950218200684,1.1809500455856323
1780564154346692600,15.184692626953124,8.484000205993652,-7.765050411224365,1.2790501117706299
1780564154366220500,15.204220458984375,8.545949935913086,-7.717950344085693,1.4410500526428223
1780564154385748500,15.22374853515625,8.695950508117676,-7.612950325012207,1.6150500774383545
1780564154405272800,15.24327294921875,8.820000648498535,-7.513950347900391,1.7920501232147217
1780564154424795100,15.262795166015625,8.784000396728516,-7.558950424194336,2.0250000953674316
1780564154444316200,15.282316162109375,8.566950798034668,-7.735950469970703,2.3110501766204834
1780564154463839000,15.3018388671875,8.368950843811035,-7.82205057144165,2.6680500507354736
1780564154483359700,15.32135986328125,8.229000091552734,-7.830000400543213,3.0550501346588135
1780564154502879500,15.34087939453125,7.903950214385986,-7.9200005531311035,3.475950241088867
1780564154522400000,15.36039990234375,7.440000534057617,-8.072999954223633,3.9589502811431885
1780564154541924000,15.379924072265625,5.722950458526611,-8.193000793457031,4.3660502433776855
1780564154561450800,15.39945068359375,5.454000473022461,-8.158050537109375,4.537050247192383
1780564154580977400,15.418977294921875,5.334000110626221,-7.789950370788574,4.497000217437744
1780564154600499700,15.438499755859375,5.4120001792907715,-7.216950416564941,4.335000038146973
1780564154620017200,15.45801708984375,5.614950180053711,-6.76200008392334,4.209000110626221
1780564154639538000,15.477537841796876,5.874000072479248,-6.522000312805176,4.242000102996826
1780564154659057000,15.497056884765625,6.157050132751465,-6.508950233459473,4.498950004577637
1780564154678573600,15.516573486328125,6.379050254821777,-6.523950099945068,4.876950263977051
1780564154698095400,15.536095458984375,6.561000347137451,-6.456000328063965,5.248950481414795
1780564154717614600,15.555614501953125,6.60705041885376,-6.217950344085693,5.572050094604492
1780564154737133800,15.5751337890625,6.454950332641602,-5.671950340270996,5.797050476074219
1780564154756656000,15.59465625,6.213000297546387,-5.212050437927246,6.009000301361084
1780564154776176000,15.614176025390625,5.743950366973877,-4.930050373077393,6.424950122833252
1780564154795694600,15.633694580078124,5.340000152587891,-4.735050201416016,6.8680500984191895
1780564154815216000,15.653216064453124,4.978050231933594,-4.744950294494629,7.0909504890441895
1780564154834737400,15.6727373046875,4.560000419616699,-4.771050453186035,7.147950172424316
1780564154854255000,15.692255126953125,4.315950393676758,-4.717050075531006,7.243950366973877
1780564154873773300,15.711773193359376,4.1170501708984375,-4.703999996185303,7.534950256347656
1780564154893294000,15.731294189453125,3.870000123977661,-4.617000102996826,7.945050239562988
1780564154912815600,15.750815673828125,3.4680001735687256,-4.318050384521484,8.104949951171875
1780564154932334800,15.7703349609375,2.9160001277923584,-4.2210001945495605,7.9710001945495605
1780564154951854000,15.78985400390625,2.3340001106262207,-4.320000171661377,7.80495023727417
1780564154971370500,15.80937060546875,1.908000111579895,-4.309950351715088,7.35105037689209
1780564154990884900,15.828884765625,1.8139500617980957,-4.443000316619873,6.813000202178955
1780564155010399000,15.84839892578125,1.908000111579895,-4.477050304412842,6.465000152587891
1780564155029912300,15.867912353515624,2.127000093460083,-4.308000087738037,6.103050231933594
1780564155049429000,15.887428955078125,2.284050226211548,-4.275000095367432,5.883000373840332
1780564155068947500,15.906947509765626,2.2960500717163086,-4.336050033569336,5.887050151824951
1780564155088463600,15.926463623046875,2.2549500465393066,-4.333950042724609,5.81505012512207
1780564155107978500,15.945978515625,2.199000120162964,-4.185000419616699,5.56095027923584
1780564155127493000,15.9654931640625,1.9560000896453857,-4.200000286102295,5.434950351715088
1780564155147008000,15.985008056640625,1.3819500207901,-4.276050090789795,5.493000030517578
1780564155166523100,16.004523193359375,-0.1870500147342682,-4.453050136566162,5.523000240325928
1780564155186039000,16.0240390625,-0.597000002861023,-4.8259501457214355,5.518050193786621
1780564155205556700,16.043556640625,-0.9469500184059143,-5.023050308227539,5.4340500831604
1780564155225070300,16.0630703125,-1.1209501028060913,-4.900050163269043,5.181000232696533
1780564155244584200,16.082584228515625,-1.3699500560760498,-4.507050037384033,4.794000148773193
1780564155264100600,16.1021005859375,-1.9380000829696655,-4.069950103759766,4.522950172424316
1780564155283615700,16.12161572265625,-3.3409502506256104,-3.894000291824341,4.462050437927246
1780564155303128600,16.141128662109374,-3.4390501976013184,-4.05495023727417,4.477050304412842
1780564155322641400,16.160641357421873,-3.172950267791748,-4.5,4.540050029754639
1780564155342160400,16.180160400390626,-1.6350001096725464,-5.09505033493042,4.650000095367432
1780564155361683000,16.199682861328125,-0.08205000311136246,-5.647950172424316,4.864050388336182
1780564155381203500,16.219203369140626,1.6819500923156738,-6.061950206756592,5.1820502281188965
1780564155400721200,16.23872119140625,1.8450000286102295,-6.201000213623047,5.57295036315918
1780564155420244200,16.258244140625,1.9030500650405884,-6.091950416564941,6.0420002937316895
1780564155439766000,16.27776611328125,1.7539501190185547,-5.785950183868408,6.475050449371338
1780564155459283200,16.297283203125,1.5660001039505005,-5.419950485229492,6.891000270843506
1780564155478801000,16.31680078125,1.5769500732421875,-5.125950336456299,7.153050422668457
1780564155498316000,16.33631591796875,1.9069501161575317,-4.978050231933594,7.135050296783447
1780564155517832000,16.35583203125,3.9409501552581787,-4.957950115203857,6.967950344085693
1780564155537345300,16.37534521484375,4.273950099945068,-4.984950065612793,6.829050540924072
1780564155556855600,16.39485546875,4.593000411987305,-5.00700044631958,6.841950416564941
1780564155576371500,16.414371337890625,4.677000045776367,-5.022000312805176,6.904050350189209
1780564155595889400,16.433889404296874,4.246950149536133,-4.942050457000732,6.903000354766846
1780564155615405000,16.453405029296874,2.6989500522613525,-4.699950218200684,6.739050388336182
1780564155634924500,16.472924560546875,2.3740501403808594,-4.336050033569336,6.346050262451172
1780564155654447600,16.492447509765626,2.182950019836426,-4.0819501876831055,5.961000442504883
1780564155673968600,16.51196875,2.5690500736236572,-4.093050003051758,5.884050369262695
1780564155693487600,16.531487548828125,4.063050270080566,-4.501950263977051,6.321000099182129
1780564155713005300,16.55100537109375,4.132050037384033,-4.936950206756592,6.874050140380859
1780564155732526600,16.570526611328123,3.7680001258850098,-5.0560503005981445,7.158000469207764
1780564155752052000,16.590052001953126,0.24900001287460327,-4.936950206756592,6.951000213623047
1780564155771576600,16.60957666015625,-1.606950044631958,-4.615050315856934,5.314950466156006
1780564155791096800,16.629096923828126,-3.7510502338409424,-4.4320502281188965,4.870050430297852
1780564155810613500,16.648613525390626,-5.320050239562988,-4.555950164794922,4.623000144958496
1780564155830127600,16.668127685546875,-5.569950103759766,-4.819950103759766,4.761000156402588
1780564155849638700,16.687638671875,-5.257050037384033,-5.170050144195557,5.248050212860107
1780564155869149400,16.7071494140625,-3.613950252532959,-5.4210004806518555,5.764050483703613
1780564155888660000,16.726659912109376,-3.094050168991089,-5.467050075531006,6.118950366973877
1780564155908171500,16.746171630859376,-2.6389501094818115,-5.37600040435791,6.3919501304626465
1780564155927687400,16.7656875,-2.4160501956939697,-5.145000457763672,6.667050361633301
1780564155947207000,16.78520703125,-2.3620500564575195,-4.692000389099121,6.879000186920166
1780564155966725400,16.804725341796875,-2.158050060272217,-4.14900016784668,6.9649505615234375
1780564155986241000,16.824240966796875,-1.6180500984191895,-3.52905011177063,6.744000434875488
1780564156005757400,16.84375732421875,0.22605000436306,-2.9700000286102295,6.432000160217285
1780564156025272600,16.8632724609375,0.6430500149726868,-2.7169501781463623,6.256950378417969
1780564156044789800,16.882789794921877,2.2110002040863037,-2.596950054168701,6.093000411987305
1780564156064308700,16.902308837890626,4.114950180053711,-2.6580002307891846,5.851950168609619
1780564156083828500,16.921828369140623,4.578000068664551,-2.8470001220703125,5.683050155639648
1780564156103349800,16.941349853515625,6.297000408172607,-3.007050037384033,5.680050373077393
1780564156122872300,16.960872314453123,6.487950325012207,-3.1519501209259033,5.715000152587891
1780564156142391300,16.980391357421876,6.4710001945495605,-3.306000232696533,5.803950309753418
1780564156161908000,16.999907958984377,6.127050399780273,-3.4399502277374268,5.7960004806518555
1780564156181428000,17.019427978515626,5.571000099182129,-3.8149502277374268,5.815950393676758
1780564156200951600,17.03895166015625,5.133000373840332,-4.387050151824951,6.289050102233887
1780564156220469500,17.058469482421874,4.950000286102295,-4.9009504318237305,8.035950660705566
1780564156239978000,17.07797802734375,5.089950084686279,-5.341950416564941,8.419950485229492
1780564156259490800,17.09749072265625,5.305950164794922,-5.758950233459473,8.723999977111816
1780564156279006200,17.117006103515624,5.5759501457214355,-6.1180500984191895,8.761950492858887
1780564156298523100,17.136523193359373,6.027000427246094,-6.373050212860107,8.560050010681152
1780564156318044200,17.156044189453127,6.370050430297852,-6.580050468444824,8.313000679016113
1780564156337566700,17.175566650390625,6.582000255584717,-6.69795036315918,7.930050373077393
1780564156357088300,17.195088134765626,6.6660003662109375,-6.807000160217285,7.368000507354736
1780564156376607500,17.214607421875,6.487950325012207,-6.910950183868408,5.781000137329102
1780564156396127000,17.234126953125,6.226950168609619,-6.754050254821777,4.050000190734863
1780564156415645000,17.25364501953125,5.812950134277344,-6.49500036239624,3.7110002040863037
1780564156435160800,17.273160888671875,3.9210002422332764,-6.535950183868408,3.201000213623047
1780564156454678000,17.292677978515623,3.267000198364258,-6.652050495147705,1.5420000553131104
1780564156474198300,17.3121982421875,2.980950117111206,-6.4800004959106445,1.2460500001907349
1780564156493718500,17.331718505859374,4.459050178527832,-6.2220001220703125,0.984000027179718
1780564156513235500,17.3512353515625,6.892950534820557,-6.085050106048584,1.0009500980377197
1780564156532753000,17.3707529296875,9.519000053405762,-6.364950180053711,1.3720500469207764
1780564156552277000,17.390277099609374,11.547000885009766,-7.939050197601318,2.848950147628784
1780564156571809800,17.409809814453126,11.782950401306152,-9.646050453186035,2.9419500827789307
1780564156591331800,17.429331787109376,12.030000686645508,-9.703950881958008,2.628000020980835
1780564156610848500,17.4488486328125,12.058050155639648,-9.5910005569458,2.095050096511841
1780564156630369800,17.468369873046875,11.568000793457031,-9.634950637817383,1.67205011844635
1780564156649891000,17.48789111328125,10.97295093536377,-9.655050277709961,1.2220500707626343
1780564156669414400,17.507414306640626,10.522050857543945,-9.409049987792969,0.7330500483512878
1780564156688938500,17.5269384765625,10.207050323486328,-9.131999969482422,0.30705001950263977
1780564156708463600,17.546463623046876,9.949050903320312,-8.866950035095215,-0.18000000715255737
1780564156727989200,17.5659892578125,9.598050117492676,-8.55405044555664,-0.5689499974250793
1780564156747513900,17.585513916015625,9.142950057983398,-8.307000160217285,-0.7429500222206116
1780564156767040500,17.60504052734375,7.23900032043457,-8.105999946594238,-0.7540500164031982
1780564156786564000,17.624564208984374,6.8680500984191895,-7.777950286865234,-0.8689500689506531
1780564156806082800,17.644082763671875,6.319950103759766,-7.345950126647949,-0.9580500721931458
1780564156825602300,17.663602294921876,5.7900004386901855,-6.960000514984131,-0.8830500245094299
1780564156845119000,17.683118896484373,5.3580002784729,-6.642000198364258,-0.8809500336647034
1780564156864634400,17.70263427734375,5.050050258636475,-6.403950214385986,-0.9280500411987305
1780564156884150500,17.722150634765626,4.992000102996826,-6.325050354003906,-0.9400500655174255
1780564156903663900,17.741663818359374,5.211000442504883,-6.339000225067139,-0.9199500679969788
1780564156923176200,17.76117626953125,5.695950508117676,-6.375000476837158,-0.8400000333786011
1780564156942695400,17.7806953125,6.319950103759766,-6.505950450897217,-0.7000500559806824
1780564156962215400,17.80021533203125,7.698000431060791,-6.718950271606445,-0.5500500202178955
1780564156981733400,17.8197333984375,7.833000183105469,-6.994950294494629,-0.3679500222206116
1780564157001256200,17.839256103515623,7.947000503540039,-7.429050445556641,-0.08895000070333481
1780564157020780000,17.858780029296874,8.031000137329102,-7.944000244140625,0.23595000803470612
1780564157040301800,17.8783017578125,7.966050148010254,-9.628950119018555,0.5890500545501709
1780564157059823000,17.897822998046873,8.056950569152832,-9.699000358581543,0.9109500646591187
1780564157079342800,17.9173427734375,9.802950859069824,-9.277050018310547,1.0249500274658203
1780564157098864600,17.93686474609375,10.156050682067871,-7.597950458526611,1.1899501085281372
1780564157118386200,17.95638623046875,10.489950180053711,-7.423050403594971,1.636950135231018
1780564157137904600,17.975904541015623,10.398000717163086,-7.224000453948975,2.1529500484466553
1780564157157425400,17.99542529296875,8.689050674438477,-7.354050159454346,2.659950017929077
1780564157176948500,18.014948486328127,6.918000221252441,-7.617000579833984,2.9659502506256104
1780564157196473600,18.0344736328125,6.547050476074219,-7.666050434112549,2.860950231552124
1780564157215997700,18.053997802734376,6.39300012588501,-7.648950576782227,2.6479501724243164
1780564157235523300,18.0735234375,6.654000282287598,-7.6080002784729,2.574000120162964
1780564157255050800,18.09305078125,7.003950119018555,-7.464000225067139,2.7049500942230225
1780564157274573800,18.11257373046875,7.182000160217285,-7.249950408935547,3.0040502548217773
1780564157294093800,18.13209375,6.960000514984131,-7.0489501953125,3.307950258255005
1780564157313616100,18.1516162109375,5.017950057983398,-6.874950408935547,3.658950090408325
1780564157333138700,18.171138671875,4.690950393676758,-6.645000457763672,4.120050430297852
1780564157352659000,18.190658935546875,4.335000038146973,-6.328050136566162,4.516050338745117
1780564157372183800,18.210183837890625,4.045950412750244,-6.045000076293945,4.669050216674805
1780564157391708700,18.229708740234376,3.9439501762390137,-5.761950492858887,4.6120500564575195
1780564157411230700,18.249230712890625,3.741000175476074,-5.595000267028809,4.41195011138916
1780564157430752500,18.26875244140625,3.4360501766204834,-5.488950252532959,4.108050346374512
1780564157450274600,18.288274658203125,3.4999501705169678,-5.088000297546387,3.6880502700805664
1780564157469800200,18.30780029296875,3.750000238418579,-4.494000434875488,3.1240501403808594
1780564157489322500,18.327322509765626,3.936000108718872,-3.910950183868408,2.710050106048584
1780564157508842200,18.34684228515625,3.7990500926971436,-3.555000066757202,2.814000129699707
1780564157528369200,18.366369140625,3.430950164794922,-3.463050127029419,4.45395040512085
1780564157547893200,18.385893310546876,2.8750500679016113,-3.6690001487731934,4.879050254821777
1780564157567412500,18.40541259765625,2.4720001220703125,-4.0219502449035645,6.346950531005859
1780564157586934300,18.424934326171876,2.221950054168701,-4.260000228881836,6.8110504150390625
1780564157606454800,18.444454833984373,1.9860000610351562,-4.599000453948975,8.344050407409668
1780564157625975300,18.463975341796875,1.915950059890747,-5.0209503173828125,8.976000785827637
1780564157645496600,18.48349658203125,2.107950210571289,-5.340000152587891,9.378000259399414
1780564157665016600,18.5030166015625,2.461050033569336,-5.539950370788574,9.354000091552734
1780564157684535800,18.522535888671875,2.4529500007629395,-5.880000114440918,9.291000366210938
1780564157704058000,18.54205810546875,2.305950164794922,-6.217050075531006,9.286050796508789
1780564157723580400,18.561580322265623,2.313000202178955,-6.367950439453125,9.17805004119873
1780564157743101200,18.58110107421875,2.439000129699707,-6.421050071716309,8.88705062866211
1780564157762625000,18.600625,2.6539502143859863,-6.22005033493042,8.41200065612793
1780564157782153200,18.6201533203125,2.6479501724243164,-5.91795015335083,8.006999969482422
1780564157801682400,18.639682373046874,2.3519999980926514,-5.641050338745117,7.7910003662109375
1780564157821213200,18.659213134765626,2.038950204849243,-5.287950038909912,7.701000213623047
1780564157840742400,18.678742431640625,1.7959500551223755,-4.945950031280518,7.711950302124023
1780564157860265500,18.698265380859375,1.696950078010559,-4.603950023651123,7.821000576019287
1780564157879788300,18.717788330078125,1.6309500932693481,-4.323000431060791,8.062950134277344
1780564157899310000,18.73731005859375,1.6530001163482666,-4.264050006866455,8.391000747680664
1780564157918830300,18.756830322265625,1.8610501289367676,-4.311000347137451,8.583000183105469
1780564157938355700,18.776355712890624,2.230950117111206,-4.328999996185303,8.461950302124023
1780564157957880800,18.795880859375,2.5230000019073486,-4.426949977874756,8.224950790405273
1780564157977407200,18.8154072265625,2.584050178527832,-4.52400016784668,7.998000144958496
1780564157996934700,18.8349345703125,2.407050132751465,-4.516050338745117,7.732950210571289
1780564158016452400,18.854452392578125,1.9459501504898071,-4.5960001945495605,7.44795036315918
1780564158035968000,18.873968017578125,1.489050030708313,-4.650000095367432,7.07295036315918
1780564158055490300,18.893490234375,1.1239500045776367,-4.683000087738037,6.660000324249268
1780564158075012600,18.9130126953125,0.831000030040741,-4.732950210571289,6.369000434875488
1780564158094532900,18.932532958984375,0.6960000395774841,-4.764000415802002,6.204000473022461
1780564158114049800,18.9520498046875,0.6649500131607056,-4.837050437927246,6.130050182342529
1780564158133565200,18.971565185546876,0.6910500526428223,-4.950000286102295,6.168000221252441
1780564158153082400,18.991082275390625,0.7920000553131104,-5.134950160980225,6.29295015335083
1780564158172597200,19.01059716796875,0.9970500469207764,-5.3680500984191895,6.484050273895264
1780564158192114400,19.030114501953125,1.3870500326156616,-5.697000503540039,6.763950347900391
1780564158211637000,19.049636962890624,1.8510000705718994,-6.010050296783447,7.002000331878662
1780564158231159800,19.069159912109374,2.244000196456909,-6.087000370025635,7.089000225067139
1780564158250683100,19.08868310546875,2.1160500049591064,-5.842950344085693,6.891000270843506
1780564158270203400,19.108203369140625,0.23205001652240753,-5.338950157165527,6.379950523376465
1780564158289729300,19.127729248046876,-1.7050501108169556,-3.516000270843506,5.767950057983398
1780564158309256400,19.14725634765625,-2.2210500240325928,-3.331050157546997,5.2819504737854
1780564158328777500,19.166777587890625,-2.3269500732421875,-3.38700008392334,5.155050277709961
1780564158348299300,19.18629931640625,0.1680000126361847,-3.813000202178955,5.320950031280518
1780564158367819800,19.20581982421875,2.2390501499176025,-5.334000110626221,5.622000217437744
1780564158387337000,19.2253369140625,2.593050241470337,-5.8309502601623535,5.904000282287598
1780564158406850300,19.244850341796877,2.739000082015991,-6.1080002784729,6.040050506591797
1780564158426363100,19.264363037109376,1.0140000581741333,-6.03795051574707,6.13200044631958
1780564158445882600,19.283882568359374,0.5580000281333923,-5.731050491333008,6.189000129699707
1780564158465404400,19.303404296875,0.2639999985694885,-5.4559502601623535,6.21405029296875
1780564158484928800,19.3229287109375,0.5689499974250793,-5.461950302124023,6.283950328826904
1780564158504450000,19.342449951171876,2.347050189971924,-5.689050197601318,6.369000434875488
1780564158523971800,19.361971923828126,4.039950370788574,-6.013950347900391,6.511950492858887
1780564158543496400,19.381496337890624,4.085999965667725,-6.112950325012207,6.687000274658203
1780564158563020800,19.401020751953126,3.96405029296875,-5.779950141906738,6.808050155639648
1780564158582546700,19.420546630859373,3.6040501594543457,-5.212050437927246,6.871950149536133
1780564158602069000,19.440069091796875,3.049950122833252,-3.5380501747131348,6.849000453948975
1780564158621591300,19.45959130859375,2.473950147628784,-3.492000102996826,6.721950531005859
1780564158641115000,19.479114990234375,1.9870500564575195,-3.6670501232147217,6.549000263214111
1780564158660636400,19.498636474609373,1.8760501146316528,-3.973050117492676,6.4360504150390625
1780564158680157200,19.5181572265625,2.080049991607666,-4.317000389099121,6.298050403594971
1780564158699676200,19.53767626953125,2.3560500144958496,-4.642950057983398,6.136950492858887
1780564158719193600,19.557193603515625,2.4979500770568848,-4.8070502281188965,5.959050178527832
1780564158738714000,19.576714111328126,2.275050163269043,-4.831050395965576,5.854950428009033
1780564158758237000,19.59623681640625,1.7230501174926758,-4.762950420379639,5.877000331878662
1780564158777756000,19.615755859375,0.07605000585317612,-4.624950408935547,5.983950138092041
1780564158797272800,19.63527294921875,-0.3660000264644623,-4.383000373840332,6.139950275421143
1780564158816789800,19.654789794921875,-0.8610000610351562,-4.293000221252441,6.349950313568115
1780564158836305400,19.674305419921875,-1.453950047492981,-4.51200008392334,6.676950454711914
1780564158855825000,19.693824951171877,-1.7280000448226929,-4.732950210571289,7.06695032119751
1780564158875345000,19.713344970703126,-1.6050000190734863,-4.978050231933594,7.285050392150879
1780564158894866000,19.732865966796876,-1.120050072669983,-5.131050109863281,7.222050189971924
1780564158914389800,19.7523896484375,1.1950500011444092,-4.972050189971924,7.020000457763672
1780564158933912600,19.77191259765625,3.05400013923645,-4.7470502853393555,6.718050479888916
1780564158953435600,19.791435546875,4.959000110626221,-4.554000377655029,6.454050540924072
1780564158972955600,19.81095556640625,5.224050045013428,-4.146000385284424,6.159000396728516
1780564158992474600,19.830474609375,5.521050453186035,-3.6349501609802246,5.725050449371338
1780564159011996200,19.84999609375,5.689950466156006,-3.145050048828125,5.316000461578369
1780564159031516000,19.869515869140624,5.722950458526611,-2.5759501457214355,4.984050273895264
1780564159051035000,19.889034912109373,5.7460503578186035,-2.137050151824951,4.786050319671631
1780564159070551600,19.908551513671874,5.869950294494629,-1.8960001468658447,4.557000160217285
1780564159090065000,19.92806494140625,6.144000053405762,-1.9579501152038574,4.452000141143799
1780564159109585400,19.94758544921875,6.556950092315674,-2.1790502071380615,4.783950328826904
1780564159129108500,19.9671083984375,6.9120001792907715,-3.807000160217285,5.244000434875488
1780564159148628700,19.986628662109375,6.730950355529785,-5.395050048828125,5.85705041885376
1780564159168146000,20.00614599609375,6.20205020904541,-5.623050212860107,6.244950294494629
1780564159187664100,20.0256640625,4.497000217437744,-5.931000232696533,6.309000492095947
1780564159207184400,20.045184326171874,4.000050067901611,-6.082950115203857,6.535950183868408
1780564159226700500,20.064700439453127,3.5689501762390137,-6.01200008392334,6.844950199127197
1780564159246213400,20.08421337890625,3.2160000801086426,-5.818950176239014,7.159050464630127
1780564159265728000,20.10372802734375,3.2280001640319824,-5.866950511932373,7.297050476074219
1780564159285244200,20.123244140625,3.43500018119812,-6.067950248718262,7.23900032043457
1780564159304757500,20.142757568359375,3.7680001258850098,-6.213000297546387,7.2210001945495605
1780564159324269600,20.16226953125,4.174950122833252,-6.447000503540039,7.197000503540039
1780564159343784400,20.181784423828127,4.522050380706787,-6.7699503898620605,7.080000400543213
1780564159363299600,20.201299560546875,4.788000106811523,-6.89400053024292,6.967950344085693
1780564159382814200,20.220814208984375,5.056950092315674,-6.865950107574463,6.609000205993652
1780564159402332700,20.240332763671876,5.092950344085693,-7.011000156402588,6.198000431060791
1780564159421850000,20.25985009765625,5.085000038146973,-7.051950454711914,5.743950366973877
1780564159441362400,20.279362548828125,5.205000400543213,-6.94605016708374,3.8989500999450684
1780564159460881200,20.298881103515626,5.383050441741943,-6.841950416564941,3.630000114440918
1780564159480404000,20.318404052734376,5.634000301361084,-6.6910505294799805,3.1870501041412354
1780564159499921400,20.33792138671875,5.754000186920166,-6.637050151824951,2.8189501762390137
1780564159519438300,20.357438232421874,5.881950378417969,-6.775050163269043,2.545950174331665
1780564159538952000,20.376951904296874,6.23205041885376,-6.816000461578369,2.203050136566162
1780564159558467000,20.396467041015626,6.799050331115723,-6.705000400543213,1.7509500980377197
1780564159577989600,20.41598974609375,8.463000297546387,-6.682950496673584,1.2079501152038574
1780564159597513700,20.435513671875,8.716050148010254,-6.78795051574707,0.6349500417709351
1780564159617034000,20.455033935546876,9.13800048828125,-7.0660505294799805,0.23595000803470612
1780564159636548600,20.474548583984376,9.68595027923584,-7.332000255584717,0.05505000427365303
1780564159656066300,20.49406640625,10.254000663757324,-7.437000274658203,-0.025950001552700996
1780564159675587600,20.513587646484375,10.61400032043457,-7.482000350952148,-0.13095000386238098
1780564159695107800,20.53310791015625,10.7760009765625,-7.555050373077393,-0.24705001711845398
1780564159714627000,20.552626953125,10.759050369262695,-7.7500505447387695,-0.40905001759529114
1780564159734143000,20.57214306640625,10.666050910949707,-8.022000312805176,-0.51705002784729
1780564159753654300,20.591654296875,10.588050842285156,-8.251049995422363,-0.5160000324249268
1780564159773171200,20.611171142578126,10.518000602722168,-8.377050399780273,-0.3829500079154968
1780564159792690000,20.63068994140625,10.417950630187988,-8.358000755310059,-0.10200000554323196
1780564159812208400,20.65020849609375,10.201950073242188,-8.329050064086914,0.25095000863075256
1780564159831730400,20.66973046875,9.79800033569336,-8.461050033569336,0.5350500345230103
1780564159851247000,20.6892470703125,8.245050430297852,-8.677950859069824,0.4639500081539154
1780564159870767000,20.70876708984375,7.882950305938721,-8.410050392150879,0.11295000463724136
1780564159890286000,20.7282861328125,7.789950370788574,-6.682950496673584,-0.2639999985694885
1780564159909805800,20.747805908203127,7.782000541687012,-6.556950092315674,-0.4020000100135803
1780564159929333200,20.767333251953126,7.996950149536133,-6.403050422668457,-0.4030500054359436
1780564159948859400,20.786859375,8.080050468444824,-6.553950309753418,-0.3379500210285187
1780564159968382200,20.80638232421875,7.723950386047363,-7.996950149536133,0.022950001060962677
1780564159987907600,20.825907470703125,7.326000213623047,-7.843950271606445,0.48705002665519714
1780564160007438000,20.84543798828125,6.897000312805176,-7.669950485229492,1.0770000219345093
1780564160026971100,20.86497119140625,6.69795036315918,-7.717050552368164,2.5099501609802246
1780564160046503200,20.884503173828126,6.7099504470825195,-7.7910003662109375,2.680950164794922
1780564160066032400,20.904032470703125,6.805050373077393,-8.017950057983398,2.8440001010894775
1780564160085559800,20.923559814453125,7.002000331878662,-8.185050010681152,3.115950107574463
1780564160105086700,20.943086669921875,7.006050109863281,-8.214000701904297,3.3580501079559326
1780564160124612900,20.96261279296875,6.913050174713135,-8.121000289916992,3.1680002212524414
1780564160144138800,20.982138671875,6.759000301361084,-7.821000576019287,2.7720000743865967
1780564160163665400,21.00166552734375,6.648000240325928,-7.474950313568115,2.593950033187866
1780564160183189200,21.021189208984374,6.592950344085693,-7.093050479888916,2.8590002059936523
1780564160202715600,21.040715576171873,6.223950386047363,-6.819000244140625,4.89300012588501
1780564160222244400,21.060244384765625,4.6180500984191895,-6.669000148773193,5.380050182342529
1780564160241772800,21.079772705078124,2.92995023727417,-6.4519500732421875,5.962050437927246
1780564160261301200,21.09930126953125,2.6200501918792725,-6.13800048828125,6.262050151824951
1780564160280830200,21.118830322265627,2.2300500869750977,-5.671950340270996,6.462000370025635
1780564160300358700,21.138358642578126,2.1379501819610596,-5.118000030517578,6.86400032043457
1780564160319882200,21.15788232421875,2.1310501098632812,-4.777050018310547,7.26300048828125
1780564160339407400,21.177407470703123,1.9990501403808594,-4.843950271606445,7.564950466156006
1780564160358922800,21.1969228515625,2.0350501537323,-4.978950023651123,7.681950569152832
1780564160378433800,21.216433837890627,2.0340001583099365,-5.047950267791748,7.410000324249268
1780564160397951200,21.235951171875,1.8540000915527344,-5.0119500160217285,7.147950172424316
1780564160417467100,21.255467041015624,1.6230000257492065,-4.798050403594971,7.017000198364258
1780564160436987600,21.274987548828125,1.2820500135421753,-4.659000396728516,6.95805025100708
1780564160456514300,21.294514404296876,1.1539500951766968,-4.528950214385986,6.901050090789795
1780564160476040700,21.314040771484375,1.2799500226974487,-4.344000339508057,6.841950416564941
1780564160495567600,21.333567626953126,1.5090000629425049,-4.256999969482422,7.0489501953125
1780564160515095600,21.353095458984374,1.8400501012802124,-4.246950149536133,7.419000148773193
1780564160534626000,21.3726259765625,2.1600000858306885,-4.2870001792907715,7.711950302124023
1780564160554158600,21.39215869140625,2.590050220489502,-4.332000255584717,7.92495059967041
1780564160573690600,21.411690673828126,3.0079500675201416,-4.312950134277344,8.004000663757324
1780564160593222000,21.431221923828126,3.312000274658203,-4.189949989318848,7.996950149536133
1780564160612747800,21.450747802734377,3.453000068664551,-4.005000114440918,7.972050189971924
1780564160632276700,21.47027685546875,3.271050214767456,-3.7729501724243164,7.939050197601318
1780564160651809800,21.489809814453125,2.871000051498413,-3.564000129699707,7.9170002937316895
1780564160671341800,21.509341796875,2.602950096130371,-3.2380502223968506,7.815000534057617
1780564160690870000,21.5288701171875,2.4589500427246094,-3.046950101852417,7.7410502433776855
1780564160710393600,21.5483935546875,2.3269500732421875,-3.2280001640319824,7.744950294494629
1780564160729917000,21.5679169921875,2.3560500144958496,-3.4480502605438232,7.70205020904541
1780564160749443800,21.58744384765625,2.328000068664551,-3.6540002822875977,7.594050407409668
1780564160768972500,21.60697265625,1.9369500875473022,-3.9049501419067383,7.498050212860107
1780564160788497700,21.62649755859375,1.4179500341415405,-3.9979500770568848,7.332000255584717
1780564160808022300,21.646022216796876,0.8659500479698181,-3.933000087738037,7.0570502281188965
1780564160827548700,21.665548583984375,0.3360000252723694,-3.835050106048584,6.826950550079346
1780564160847075300,21.685075439453126,-0.0019500000635161996,-3.6940500736236572,6.687000274658203
1780564160866600200,21.70460009765625,-0.208950012922287,-3.6229500770568848,6.703050136566162
1780564160886124300,21.724124267578127,-0.3139500021934509,-3.5689501762390137,6.808050155639648
1780564160905648400,21.7436484375,-0.38805001974105835,-3.538950204849243,6.95805025100708
1780564160925170400,21.76317041015625,-0.4330500066280365,-3.490950107574463,7.095000267028809
1780564160944691700,21.782691650390625,-0.37905001640319824,-3.343050241470337,7.224000453948975
1780564160964215800,21.8022158203125,-0.28200000524520874,-3.430950164794922,7.324950218200684
1780564160983744000,21.821743896484374,0.027000000700354576,-3.6720001697540283,7.44705057144165
1780564161003264500,21.841264404296876,0.5929500460624695,-3.9790501594543457,7.630050182342529
1780564161022779100,21.860779052734376,1.1899501085281372,-4.156949996948242,7.648050308227539
1780564161042302500,21.880302490234374,1.6470000743865967,-4.075050354003906,7.582950592041016
1780564161061833700,21.899833740234374,1.702950119972229,-4.000050067901611,7.540950298309326
1780564161081364000,21.919364013671874,1.546950101852417,-3.876000165939331,7.392000198364258
1780564161100890600,21.938890625,1.4299501180648804,-3.811950206756592,7.207050323486328
1780564161120411400,21.958411376953126,1.3980001211166382,-3.9090001583099365,7.080000400543213
1780564161139929300,21.977929443359375,1.4500501155853271,-4.090050220489502,6.960000514984131
1780564161159448800,21.99744873046875,1.5120000839233398,-4.357950210571289,6.856950283050537
1780564161178973400,22.016973388671875,1.5630000829696655,-4.708950042724609,6.838950157165527
1780564161198503000,22.0365029296875,1.686000108718872,-5.008050441741943,6.886050224304199
1780564161218030800,22.05603076171875,1.8750001192092896,-5.2230000495910645,6.96405029296875
1780564161237561300,22.075561279296874,2.055000066757202,-5.403000354766846,7.06095027923584
1780564161257090000,22.095090087890625,2.158950090408325,-5.583000183105469,7.1670002937316895
1780564161276617500,22.114617431640625,2.1760501861572266,-5.788050174713135,7.285050392150879
1780564161296144000,22.134143798828124,2.0749499797821045,-5.9160003662109375,7.354050159454346
1780564161315670800,22.1536708984375,1.8169500827789307,-5.9070000648498535,7.392000198364258
1780564161335200500,22.173200439453126,1.4410500526428223,-5.760000228881836,7.387050151824951
1780564161354729500,22.1927294921875,1.0429500341415405,-5.482950210571289,7.362000465393066
1780564161374257400,22.21225732421875,0.7350000143051147,-5.254050254821777,7.377000331878662
1780564161393781500,22.231781494140623,0.612000048160553,-5.017050266265869,7.36305046081543
1780564161413304000,22.251303955078125,0.6000000238418579,-4.8070502281188965,7.335000514984131
1780564161432825900,22.270825927734375,0.5920500159263611,-4.6210503578186035,7.270050525665283
1780564161452347400,22.290347412109377,0.6180000305175781,-4.443000316619873,7.135950565338135
1780564161471873500,22.30987353515625,0.6469500064849854,-4.338000297546387,6.948000431060791
1780564161491400200,22.329400146484375,0.6430500149726868,-4.212000370025635,6.61305046081543
1780564161510930000,22.348929931640626,0.5670000314712524,-4.090950012207031,6.186000347137451
1780564161530461000,22.3684609375,0.2650500237941742,-3.9060001373291016,5.8470001220703125
1780564161549990000,22.387989990234374,-0.13500000536441803,-3.715050220489502,5.697000503540039
1780564161569520000,22.40752001953125,-0.4990500211715698,-3.6000001430511475,5.707050323486328
1780564161589048300,22.42704833984375,-0.690000057220459,-3.5749502182006836,5.877000331878662
1780564161608575200,22.4465751953125,-0.547950029373169,-3.6010501384735107,6.078000068664551
1780564161628100900,22.466100830078126,-0.2580000162124634,-3.61995005607605,6.20205020904541
1780564161647618800,22.485618896484375,0.021000001579523087,-3.7140002250671387,6.373950481414795
1780564161667134000,22.505134033203124,0.24900001287460327,-3.81000018119812,6.5560503005981445
1780564161686655700,22.52465576171875,0.30300000309944153,-3.8149502277374268,6.613950252532959
1780564161706181600,22.544181640625,0.2740500271320343,-3.8490002155303955,6.636000156402588
1780564161725704200,22.5637041015625,0.34095001220703125,-3.879000186920166,6.816000461578369
1780564161745227000,22.58322705078125,0.4830000102519989,-3.8430001735687256,7.027950286865234
1780564161764753000,22.6027529296875,0.7300500273704529,-3.882000207901001,7.147950172424316
1780564161784273400,22.6222734375,1.0660500526428223,-3.9690001010894775,7.294050216674805
1780564161803791400,22.641791259765625,1.3690500259399414,-4.06695032119751,7.453050136566162
1780564161823312600,22.661312744140623,1.6060501337051392,-4.207050323486328,7.546950340270996
1780564161842838300,22.68083837890625,1.675950050354004,-4.318950176239014,7.548000335693359
1780564161862364400,22.700364501953125,1.755000114440918,-4.183050155639648,7.405950546264648
1780564161881889500,22.7198896484375,1.6750500202178955,-4.0980000495910645,7.086000442504883
1780564161901418800,22.739418701171875,1.446000099182129,-4.222050189971924,6.817950248718262
1780564161920948200,22.7589482421875,1.3560000658035278,-4.408050060272217,6.835050106048584
1780564161940473900,22.778473876953125,1.4350500106811523,-4.762050151824951,7.089000225067139
1780564161959998200,22.797998291015624,1.8550500869750977,-5.0400004386901855,7.402950286865234
1780564161979523800,22.81752392578125,3.766050100326538,-5.143050193786621,7.582050323486328
1780564161999051500,22.837051513671874,5.650050163269043,-5.176950454711914,7.552050590515137
1780564162018578400,22.856578369140625,5.93595027923584,-5.152050018310547,7.2709503173828125
1780564162038107400,22.876107421875,6.283050060272217,-5.257050037384033,6.859950542449951
1780564162057633800,22.8956337890625,6.430950164794922,-5.425950050354004,6.276000499725342
1780564162077155300,22.9151552734375,6.394050121307373,-5.482950210571289,4.521000385284424
1780564162096677000,22.934677001953126,6.322050094604492,-5.434950351715088,4.069050312042236
1780564162116198000,22.954197998046876,6.457950115203857,-5.218950271606445,3.682950258255005
1780564162135718700,22.97371875,6.654000282287598,-5.034000396728516,3.5899500846862793
1780564162155243300,22.9932431640625,6.810000419616699,-5.161050319671631,3.769050121307373
1780564162174771700,23.012771728515624,6.8359503746032715,-5.493000030517578,4.01894998550415
1780564162194297300,23.03229736328125,6.8710503578186035,-5.835000514984131,4.074000358581543
1780564162213823700,23.05182373046875,7.056000232696533,-6.103050231933594,3.8580002784729004
1780564162233358300,23.0713583984375,8.676000595092773,-6.261000156402588,3.5710501670837402
1780564162252891600,23.0908916015625,9.160950660705566,-6.498000144958496,3.2500500679016113
1780564162272416800,23.110416748046877,9.669000625610352,-6.9720001220703125,2.959050178527832
1780564162291935500,23.129935546875,9.858000755310059,-8.82194995880127,2.920950174331665
1780564162311457500,23.14945751953125,9.58905029296875,-9.118050575256348,3.046950101852417
1780564162330985000,23.16898486328125,8.96505069732666,-9.301050186157227,3.121950149536133
1780564162350512600,23.1885126953125,7.464000225067139,-9.156000137329102,2.9059500694274902
1780564162370040000,23.2080400390625,7.231050491333008,-8.817000389099121,2.449050188064575
1780564162389562000,23.22756201171875,7.2210001945495605,-8.322000503540039,1.8229501247406006
1780564162409083100,23.247083251953125,7.501950263977051,-8.029050827026367,1.204050064086914
1780564162428607000,23.26660693359375,9.115950584411621,-7.930950164794922,0.8380500674247742
1780564162448136700,23.28613671875,9.462000846862793,-7.755000591278076,0.6529500484466553
1780564162467669000,23.3056689453125,9.871950149536133,-7.636950492858887,0.6640500426292419
1780564162487200000,23.325199951171875,9.979050636291504,-7.548000335693359,0.7110000252723694
1780564162506735900,23.34473583984375,9.79800033569336,-7.426950454711914,0.6619500517845154
1780564162526274300,23.3642744140625,9.564000129699707,-7.321950435638428,0.5149500370025635
1780564162545805800,23.383805908203126,9.373050689697266,-7.240950107574463,0.33000001311302185
1780564162565332500,23.40333251953125,9.301950454711914,-7.171950340270996,0.20595000684261322
1780564162584857000,23.422857177734375,9.352950096130371,-7.053000450134277,0.1080000028014183
1780564162604383700,23.4423837890625,9.436050415039062,-6.891000270843506,0.004050000105053186
1780564162623910100,23.46191015625,9.700950622558594,-6.576000213623047,-0.17505000531673431
1780564162643435000,23.48143505859375,10.05405044555664,-6.19005012512207,-0.22995001077651978
1780564162662963000,23.500962890625,10.31100082397461,-5.781000137329102,-0.0799500048160553
1780564162682487000,23.520487060546873,10.28895092010498,-5.5570502281188965,0.09795000404119492
1780564162702011400,23.540011474609376,9.897000312805176,-5.697000503540039,0.30000001192092896
1780564162721544000,23.5595439453125,9.519000053405762,-6.082050323486328,0.3520500063896179
1780564162741072400,23.579072265625,9.27495002746582,-6.553950309753418,0.25995001196861267
1780564162760596700,23.5985966796875,9.091950416564941,-6.838950157165527,0.33900001645088196
1780564162780123000,23.618122802734376,8.967000007629395,-6.880050182342529,0.690000057220459
1780564162799648800,23.637648681640623,8.707950592041016,-6.766050338745117,1.2300000190734863
1780564162819177200,23.65717724609375,8.395050048828125,-6.670050144195557,2.740950107574463
1780564162838707500,23.67670751953125,8.29800033569336,-6.645000457763672,3.1410000324249268
1780564162858235400,23.6962353515625,8.248050689697266,-6.735000133514404,3.592050075531006
1780564162877763300,23.715763427734377,8.082000732421875,-6.973950386047363,4.116000175476074
1780564162897292500,23.73529248046875,7.959000587463379,-7.24500036239624,4.437000274658203
1780564162916817400,23.7548173828125,7.882950305938721,-7.453050136566162,4.8070502281188965
1780564162936341200,23.77434130859375,7.780050277709961,-7.5859503746032715,5.032950401306152
1780564162955870700,23.79387060546875,7.701000213623047,-7.680000305175781,4.864950180053711
1780564162975400700,23.813400634765625,7.612050533294678,-7.4920501708984375,4.474950313568115
1780564162994931700,23.832931640625,7.41795015335083,-7.054050445556641,2.7870001792907715
1780564163014467000,23.852467041015625,6.949050426483154,-6.5809502601623535,2.725950241088867
1780564163034004000,23.87200390625,6.355950355529785,-6.072000503540039,2.863950252532959
1780564163053535500,23.891535400390627,4.861950397491455,-5.539050102233887,3.2320501804351807
1780564163073065200,23.911065185546875,4.359000205993652,-5.07105016708374,3.5590500831604004
1780564163092596200,23.93059619140625,4.003950119018555,-4.545000076293945,3.7920002937316895
1780564163112123000,23.950122802734374,3.8080501556396484,-3.9430501461029053,3.922950267791748
1780564163131651300,23.9696513671875,3.703050136566162,-3.418950080871582,4.087950229644775
1780564163151182300,23.989182373046877,3.693000078201294,-3.0709500312805176,4.447050094604492
1780564163170709800,24.008709716796876,3.699000120162964,-2.8399500846862793,4.88700008392334
1780564163190237700,24.02823779296875,3.6040501594543457,-2.6170501708984375,5.308050155639648
1780564163209769700,24.047769775390623,3.3550500869750977,-2.6620500087738037,5.685000419616699
1780564163229298700,24.067298583984375,3.118950128555298,-2.829000234603882,6.034050464630127
1780564163248821800,24.08682177734375,2.9860501289367676,-3.1909501552581787,6.384000301361084
1780564163268345300,24.106345458984375,3.0870001316070557,-3.652050256729126,6.757950305938721
1780564163287869700,24.12586962890625,3.1080000400543213,-4.06695032119751,7.027950286865234
1780564163307395600,24.1453955078125,2.995950222015381,-4.470000267028809,7.171950340270996
1780564163326926000,24.164926025390624,2.659050226211548,-4.777050018310547,7.1610002517700195
1780564163346455600,24.18445556640625,2.205000162124634,-5.086950302124023,7.027050495147705
1780564163365983700,24.203983642578127,1.9429501295089722,-5.332050323486328,6.844950199127197
1780564163385512700,24.2235126953125,1.6930500268936157,-5.550000190734863,6.6250505447387695
1780564163405037800,24.243037841796873,1.4640001058578491,-5.800950050354004,6.346050262451172
1780564163424562200,24.262562255859375,1.068000078201294,-6.111000061035156,6.23205041885376
1780564163444089600,24.282089599609375,0.8020500540733337,-6.313050270080566,6.3349504470825195
1780564163463614200,24.3016142578125,0.8880000710487366,-6.339000225067139,6.6250505447387695
1780564163483139600,24.3211396484375,1.1700000762939453,-6.229950428009033,7.219050407409668
1780564163502666800,24.340666748046875,1.6200001239776611,-5.949000358581543,8.607000350952148
1780564163522192600,24.360192626953125,1.974000096321106,-5.629950046539307,8.608050346374512
1780564163541722600,24.37972265625,2.0929501056671143,-5.1660003662109375,8.419950485229492
1780564163561248000,24.399248046875,1.7569501399993896,-3.526050090789795,7.9609503746032715
1780564163580761600,24.41876171875,-0.15600000321865082,-3.1249501705169678,7.309950351715088
1780564163600280000,24.438280029296877,-2.0310001373291016,-2.8759500980377197,6.777000427246094
1780564163619808800,24.457808837890624,-2.3329501152038574,-2.8650002479553223,6.192000389099121
1780564163639340000,24.477340087890624,-2.026050090789795,-3.0990002155303955,4.803000450134277
1780564163658869800,24.496869873046876,1.0720500946044922,-3.6030001640319824,4.771050453186035
1780564163678396200,24.516396240234375,3.157050132751465,-4.111050128936768,4.686000347137451
1780564163697922800,24.5359228515625,3.2130000591278076,-4.558050155639648,4.7059502601623535
1780564163717454300,24.555454345703126,3.117000102996826,-4.956000328063965,4.929000377655029
1780564163736986600,24.574986572265626,2.8309500217437744,-4.9009504318237305,5.103000164031982
1780564163756515600,24.594515625,2.260050058364868,-4.591050148010254,5.362950325012207
1780564163776037000,24.614037109375,1.8510000705718994,-4.223999977111816,5.794950485229492
1780564163795557400,24.633557373046877,1.5970500707626343,-3.9250502586364746,6.219000339508057
1780564163815083000,24.6530830078125,1.6060501337051392,-3.8989500999450684,6.529050350189209
1780564163834611700,24.67261181640625,1.9200000762939453,-4.110000133514404,6.723000526428223
1780564163854145300,24.692145263671875,2.319000005722046,-4.462050437927246,6.816000461578369
1780564163873675800,24.71167578125,2.700000047683716,-4.8319501876831055,6.903000354766846
1780564163893201400,24.731201416015626,2.91195011138916,-5.14995002746582,6.993000507354736
1780564163912728800,24.750728759765625,2.9130001068115234,-5.425050258636475,7.021050453186035
1780564163932257300,24.77025732421875,2.7810001373291016,-5.713050365447998,7.024050235748291
1780564163951783400,24.789783447265624,2.5849502086639404,-5.952000141143799,6.952950477600098
1780564163971308300,24.809308349609374,2.2740001678466797,-6.144000053405762,6.811950206756592
1780564163990832000,24.82883203125,1.8859500885009766,-6.118950366973877,6.66195011138916
1780564164010350600,24.8483505859375,1.4310001134872437,-5.920050144195557,6.498000144958496
1780564164029873200,24.867873046875,-0.3460500240325928,-5.712000370025635,6.388050079345703
1780564164049400800,24.88740087890625,-0.6079500317573547,-5.4280500411987305,6.369000434875488
1780564164068930600,24.9069306640625,-0.8970000147819519,-5.064000129699707,6.388050079345703
1780564164088462000,24.926462158203126,-1.1359500885009766,-4.786050319671631,6.438000202178955
1780564164107995600,24.94599560546875,-1.2430500984191895,-4.633950233459473,6.558000087738037
1780564164127527700,24.965527587890627,-1.1230500936508179,-4.540950298309326,6.60705041885376
1780564164147055400,24.985055419921874,-1.0380001068115234,-4.597050189971924,6.631050109863281
1780564164166585000,25.004585205078126,-0.9520500302314758,-4.635000228881836,6.723000526428223
1780564164186111200,25.024111328125,-0.7330500483512878,-4.39995002746582,6.724950313568115
1780564164205629000,25.04362890625,-0.6739500164985657,-4.075050354003906,6.684000492095947
1780564164225148400,25.0631484375,-0.697950005531311,-3.7680001258850098,6.781050205230713
1780564164244673500,25.082673583984374,-0.6240000128746033,-3.5269501209259033,6.952950477600098
1780564164264200700,25.10220068359375,-0.3379500210285187,-3.4009501934051514,7.042050361633301
1780564164283722200,25.12172216796875,0.05895000323653221,-3.4150502681732178,7.057950496673584
1780564164303238700,25.14123876953125,0.5890500545501709,-3.436950206756592,6.961950302124023
1780564164322762500,25.160762451171873,1.0969500541687012,-3.415950059890747,6.760950088500977
1780564164342289700,25.18028955078125,1.5289500951766968,-3.388050079345703,6.594000339508057
1780564164361813000,25.19981298828125,2.1070501804351807,-3.4099502563476562,6.544050216674805
1780564164381340000,25.21933984375,2.754000186920166,-3.561000108718872,6.663000106811523
1780564164400867300,25.238867431640625,4.420050144195557,-3.8430001735687256,6.856050491333008
1780564164420392200,25.25839208984375,4.606950283050537,-4.206000328063965,7.102950572967529
1780564164439921000,25.2779208984375,4.783050060272217,-4.605000019073486,7.401000499725342
1780564164459449900,25.297449951171874,4.7989501953125,-5.004000186920166,7.587000370025635
1780564164478976000,25.31697607421875,4.797000408172607,-5.188950061798096,7.624950408935547
1780564164498499300,25.336499267578127,4.642050266265869,-5.3620500564575195,7.6620001792907715
1780564164518021600,25.356021728515625,4.5420002937316895,-5.610000133514404,7.566000461578369
1780564164537545000,25.375544921875,4.537050247192383,-5.917050361633301,7.162050247192383
1780564164557068500,25.395068603515625,4.723050117492676,-6.207000255584717,5.410950183868408
1780564164576593400,25.414593505859376,5.004000186920166,-6.444000244140625,5.214000225067139
1780564164596118800,25.434118896484375,5.331000328063965,-6.526050090789795,5.079000473022461
1780564164615644400,25.45364453125,5.671950340270996,-6.375000476837158,5.178000450134277
1780564164635169800,25.473169677734376,5.677950382232666,-6.23805046081543,5.704950332641602
1780564164654696700,25.49269677734375,5.407050132751465,-5.977050304412842,6.3259501457214355
