time,seconds_elapsed,z,y,x
1781033541564918500,2.21891845703125,0.1871374994516372,0.113437496125698,-0.3148750066757202
1781033541584413000,2.238412841796875,0.077962502837181,0.0950125008821487,-0.2998875081539154
1781033541603902200,2.257902099609375,0.0053624999709427,0.1040875017642974,-0.271699994802475
1781033541623395600,2.2773955078125,-0.0651749968528747,0.1183874979615211,-0.2440624982118606
1781033541642891300,2.296891357421875,-0.1083500012755394,0.1186624988913536,-0.2363625019788742
1781033541662387700,2.3163876953125,-0.1083500012755394,0.1186624988913536,-0.2363625019788742
1781033541681881300,2.33588134765625,-0.1062875017523765,0.0776875019073486,-0.2620750069618225
1781033541701372000,2.355371826171875,-0.0577500015497207,-0.0193875003606081,-0.317487508058548
1781033541720862500,2.374862548828125,0.0207624994218349,-0.1541374921798706,-0.3753750026226043
1781033541740353500,2.394353515625,0.0899249985814094,-0.2800875008106231,-0.3958624899387359
1781033541759847400,2.413847412109375,0.1119249984622001,-0.3594250082969665,-0.3539249897003174
1781033541779346000,2.433345947265625,0.0862125009298324,-0.3917374908924103,-0.2554749846458435
1781033541798844400,2.452844482421875,0.0453750006854534,-0.4045250117778778,-0.133650004863739
1781033541818337300,2.472337158203125,0.0151249999180436,-0.4273499846458435,-0.0303875003010034
1781033541837829600,2.49182958984375,-0.0131999999284744,-0.4735499918460846,0.0228249989449977
1781033541857326300,2.511326416015625,-0.057337500154972,-0.5491750240325928,0.0196624994277954
1781033541876827400,2.530827392578125,-0.1028499975800514,-0.6610999703407288,-0.0159499999135732
1781033541896329000,2.550328857421875,-0.1178374961018562,-0.8045125007629395,-0.0354750007390975
1781033541915831000,2.5698310546875,-0.0935000032186508,-0.9543874859809875,0.0004124999977648
1781033541935335400,2.58933544921875,-0.0544499978423118,-1.0793750286102295,0.0877249985933303
1781033541954843100,2.608843017578125,-0.0281875003129243,-1.1600874662399292,0.1885125041007995
1781033541974350000,2.62835009765625,-0.0259875003248453,-1.1941875219345093,0.2646875083446502
1781033541993858600,2.647858642578125,-0.0533500015735626,-1.1914374828338623,0.2993375062942505
1781033542013368800,2.667368896484375,-0.1146750003099441,-1.1706750392913818,0.2923249900341034
1781033542032877000,2.686876953125,-0.2105125039815902,-1.1521124839782717,0.2475000023841858
1781033542052385500,2.706385498046875,-0.3217499852180481,-1.1442749500274658,0.1660999953746795
1781033542071891700,2.7258916015625,-0.4140124917030334,-1.1397374868392944,0.0547249987721443
1781033542091394600,2.74539453125,-0.4687374830245971,-1.1225500106811523,-0.0661375001072883
1781033542110900700,2.764900634765625,-0.5035250186920166,-1.0779999494552612,-0.1633500009775161
1781033542130409200,2.7844091796875,-0.5425750017166138,-1.0023750066757202,-0.2051499933004379
1781033542149912300,2.803912353515625,-0.5703499913215637,-0.905162513256073,-0.1762749999761581
1781033542169414000,2.823413818359375,-0.5491750240325928,-0.8034124970436096,-0.0873124971985817
1781033542188919000,2.8429189453125,-0.4640625119209289,-0.7129374742507935,0.0296999998390674
1781033542208423700,2.862423583984375,-0.3271124958992004,-0.6466624736785889,0.1419000029563903
1781033542227931000,2.881930908203125,-0.1227874979376792,-0.634975016117096,0.2426874935626983
1781033542247436300,2.901436279296875,0.2213750034570694,-0.73232501745224,0.3522749841213226
1781033542266939400,2.920939453125,0.7539125084877014,-0.9553499817848206,0.4958249926567077
1781033542286443500,2.940443603515625,1.4166624546051023,-1.237362504005432,0.6861249804496765
1781033542305949000,2.959948974609375,2.0468249320983887,-1.473175048828125,0.9096999764442444
1781033542325452300,2.979452392578125,2.4774749279022217,-1.5992624759674072,1.131350040435791
1781033542344957400,2.99895751953125,2.4774749279022217,-1.5992624759674072,1.131350040435791
1781033542364468200,3.01846826171875,2.524362564086914,-1.5071375370025637,1.4433374404907229
1781033542383975000,3.037974853515625,2.1711249351501465,-1.3103749752044678,1.4976500272750854
1781033542403477000,3.05747705078125,1.6803874969482422,-1.0656249523162842,1.4834874868392944
1781033542422979000,3.07697900390625,1.1819499731063845,-0.8171625137329102,1.410062551498413
1781033542442478300,3.096478271484375,1.1819499731063845,-0.8171625137329102,1.410062551498413
1781033542461978400,3.115978271484375,1.1819499731063845,-0.8171625137329102,1.410062551498413
1781033542481480400,3.13548046875,0.4109874963760376,-0.3448500037193298,1.0507750511169434
1781033542500982000,3.15498193359375,0.06751249730587,-0.1035374999046325,0.7068874835968018
1781033542520484400,3.174484375,-0.2630375027656555,0.122649997472763,0.2937000095844269
1781033542539988000,3.193988037109375,-0.5130124688148499,0.3075875043869018,-0.0879999995231628
1781033542559490800,3.21349072265625,-0.6267250180244446,0.4408249855041504,-0.3649249970912933
1781033542578992000,3.2329921875,-0.632224977016449,0.5340499877929688,-0.5391374826431274
1781033542598494200,3.252494140625,-0.5971624851226807,0.6065124869346619,-0.644599974155426
1781033542617998300,3.271998291015625,-0.5660874843597412,0.668524980545044,-0.7084000110626221
1781033542637500700,3.291500732421875,-0.5531625151634216,0.7187125086784363,-0.7539125084877014
1781033542657001700,3.311001708984375,-0.5578374862670898,0.7528125047683716,-0.7999749779701233
1781033542676507600,3.330507568359375,-0.5660874843597412,0.775362491607666,-0.8556625247001648
1781033542696014600,3.3500146484375,-0.5543999671936035,0.7986000180244446,-0.9231749773025512
1781033542715523000,3.369523193359375,-0.5288249850273132,0.8305000066757202,-1.0067750215530396
1781033542735030000,3.389030029296875,-0.5262125134468079,0.8699625134468079,-1.1089375019073486
1781033542754537000,3.408536865234375,-0.5780500173568726,0.9121749997138976,-1.2223750352859497
1781033542774047200,3.428047119140625,-0.6866750121116638,0.9523249864578248,-1.3300374746322632
1781033542793559600,3.4475595703125,-0.8346250057220459,0.9889000058174132,-1.411162495613098
1781033542813069300,3.4670693359375,-0.9895874857902528,1.0214874744415283,-1.4474624395370483
1781033542832576000,3.486575927734375,-1.104812502861023,1.047474980354309,-1.4260125160217283
1781033542852075800,3.50607568359375,-1.1574749946594238,1.062600016593933,-1.3452999591827393
1781033542871571700,3.52557177734375,-1.167099952697754,1.0649374723434448,-1.2160500288009644
1781033542891072800,3.54507275390625,-1.1567875146865845,1.0539374351501465,-1.0528374910354614
1781033542910579000,3.564578857421875,-1.107699990272522,1.0272624492645264,-0.8684499859809875
1781033542930091800,3.584091796875,-0.981474995613098,0.9836750030517578,-0.6712750196456909
1781033542949604400,3.603604248046875,-0.7895249724388123,0.9323874711990356,-0.468874990940094
1781033542969111300,3.623111328125,-0.603487491607666,0.8907250165939331,-0.2748624980449676
1781033542988620500,3.64262060546875,-0.4868874847888946,0.8694124817848206,-0.110275000333786
1781033543008129000,3.66212890625,-0.4332624971866607,0.8626750111579895,0.0056374999694526
1781033543027637500,3.681637451171875,-0.3940750062465668,0.8586875200271606,0.0666875019669532
1781033543047142700,3.701142578125,-0.3495250046253204,0.8525000214576721,0.0862125009298324
1781033543066643200,3.720643310546875,-0.3192749917507171,0.8472750186920166,0.0891000032424926
1781033543086146600,3.740146484375,-0.3165250122547149,0.8458999991416931,0.0936374962329864
1781033543105653200,3.7596533203125,-0.3275249898433685,0.8452125191688538,0.104774996638298
1781033543125161200,3.7791611328125,-0.3357749879360199,0.8387500047683716,0.1227874979376792
1781033543144668200,3.798668212890625,-0.33467498421669,0.8193625211715698,0.1507000029087066
1781033543164173000,3.818173095703125,-0.3251875042915344,0.7852625250816345,0.1920875012874603
1781033543183680300,3.83768017578125,-0.3063499927520752,0.7415375113487244,0.2472250014543533
1781033543203190000,3.85718994140625,-0.2727999985218048,0.6945124864578247,0.3134999871253967
1781033543222696700,3.87669677734375,-0.2727999985218048,0.6945124864578247,0.3134999871253967
1781033543242200000,3.896199951171875,-0.2727999985218048,0.6945124864578247,0.3134999871253967
1781033543261702400,3.915702392578125,-0.1214125007390976,0.6022499799728394,0.4395875036716461
1781033543281205000,3.935205078125,0.0016499999910593,0.5626500248908997,0.4670875072479248
1781033543300706800,3.954706787109375,0.1119249984622001,0.5328124761581421,0.4684624969959259
1781033543320208100,3.9742080078125,0.1537249982357025,0.5138375163078308,0.4582875072956085
1781033543339705600,3.99370556640625,0.1227874979376792,0.5059999823570251,0.4456374943256378
1781033543359203300,4.013203369140625,0.0780999958515167,0.5072374939918518,0.4222624897956848
1781033543378701000,4.032701171875,0.0805749967694282,0.5132874846458435,0.3789499998092651
1781033543398199000,4.052198974609375,0.1398375034332275,0.5178250074386597,0.3229874968528747
1781033543417696000,4.071696044921875,0.2290749996900558,0.5128750205039978,0.2667500078678131
1781033543437193500,4.091193359375,0.3228499889373779,0.4923875033855438,0.2153249979019165
1781033543456699400,4.110699462890625,0.3968249857425689,0.4558124840259552,0.169400006532669
1781033543476207000,4.13020703125,0.4258374869823456,0.4070000052452087,0.1333750039339065
1781033543495711200,4.149711181640625,0.4013625085353851,0.3506250083446502,0.1131625026464462
1781033543515217200,4.169217041015625,0.3460874855518341,0.2894375026226043,0.1082125008106231
1781033543534729200,4.188729248046875,0.3034625053405761,0.2238499969244003,0.1076624989509582
1781033543554238500,4.208238525390625,0.3059374988079071,0.1563374996185302,0.0976250022649765
1781033543573739300,4.2277392578125,0.3493874967098236,0.0923999994993209,0.0731500014662742
1781033543593237200,4.2472373046875,0.3942124843597412,0.0387750007212162,0.0435874983668327
1781033543612737300,4.2667373046875,0.3975124955177307,0.0,0.0230999998748302
1781033543632240600,4.28624072265625,0.3513124883174896,-0.024337500333786,0.0156750008463859
1781033543651745300,4.305745361328125,0.2937000095844269,-0.0393249988555908,0.0098999999463558
1781033543671254500,4.325254638671875,0.2697750031948089,-0.0511500015854835,-0.0063249999657273
1781033543690762500,4.344762451171875,0.2795374989509582,-0.0639375001192092,-0.0284624993801116
1781033543710266400,4.364266357421875,0.2879250049591064,-0.0783749967813491,-0.0398750007152557
1781033543729771800,4.383771728515625,0.2780250012874603,-0.091849997639656,-0.0342375002801418
1781033543749276400,4.4032763671875,0.2662000060081482,-0.1009249985218048,-0.020075000822544
1781033543768781300,4.42278125,0.2718375027179718,-0.1035374999046325,-0.0094875004142522
1781033543788290300,4.442290283203125,0.2843500077724457,-0.0996875017881393,-0.0030249999836087
1781033543807800300,4.46180029296875,0.2677125036716461,-0.088137499988079,0.0108624994754791
1781033543827311400,4.481311279296875,0.1911250054836273,-0.0655874982476234,0.0444125011563301
1781033543846826000,4.500825927734375,0.0650374963879585,-0.0274999998509883,0.0970750004053115
1781033543866340400,4.52034033203125,-0.0698499977588653,0.0263999998569488,0.1564749926328659
1781033543885850000,4.53985009765625,-0.1836999952793121,0.0921249985694885,0.2123000025749206
1781033543905358300,4.5593583984375,-0.2679874897003174,0.1632124930620193,0.2605625092983246
1781033543924867000,4.5788671875,-0.2679874897003174,0.1632124930620193,0.2605625092983246
1781033543944375800,4.598375732421875,-0.3191374838352203,0.2364999949932098,0.2975499927997589
1781033543963886000,4.617885986328125,-0.3818374872207641,0.4149749875068664,0.3448500037193298
1781033543983395600,4.6373955078125,-0.4617249965667724,0.5219500064849854,0.3748250007629394
1781033544002903800,4.65690380859375,-0.5685625076293945,0.6179249882698059,0.4078249931335449
1781033544022412000,4.676412109375,-0.5685625076293945,0.6179249882698059,0.4078249931335449
1781033544041919700,4.695919677734375,-0.6608250141143799,0.6859874725341797,0.4307875037193298
1781033544061428000,4.715427978515625,-0.7108749747276306,0.7268249988555908,0.4342249929904938
1781033544080932600,4.7349326171875,-0.7148625254631042,0.7484124898910522,0.4170374870300293
1781033544100437800,4.754437744140625,-0.6778749823570251,0.7517125010490417,0.3808749914169311
1781033544119944700,4.77394482421875,-0.6125624775886536,0.7338374853134155,0.3302749991416931
1781033544139449000,4.793448974609375,-0.544362485408783,0.706475019454956,0.2776125073432922
1781033544158951000,4.812950927734375,-0.5112249851226807,0.7119749784469604,0.2433750033378601
1781033544178454300,4.832454345703125,-0.5388625264167786,0.8009374737739563,0.2444749921560287
1781033544197957400,4.851957275390625,-0.6147624850273132,0.9798250198364258,0.2804999947547912
1781033544217462800,4.871462890625,-0.7023500204086304,1.215499997138977,0.341275006532669
1781033544236968200,4.89096826171875,-0.7712374925613403,1.4682250022888184,0.420199990272522
1781033544256467700,4.9104677734375,-0.8101499676704407,1.721637487411499,0.5167250037193298
1781033544275969800,4.9299697265625,-0.8080874681472778,1.9859124422073364,0.6208124756813049
1781033544295472400,4.949472412109375,-0.7499250173568726,2.2644875049591064,0.7045499682426453
1781033544314973700,4.9689736328125,-0.6267250180244446,2.4418625831604004,0.7170624732971191
1781033544334475300,4.988475341796875,-0.4372499883174896,2.214437484741211,0.5982624888420105
1781033544353981000,5.00798095703125,-0.1905750036239624,1.3734874725341797,0.3350875079631805
1781033544373490400,5.027490478515625,0.0994125008583068,0.1175625026226043,-0.0108624994754791
1781033544393000700,5.047000732421875,0.3972375094890594,-1.0756624937057495,-0.3316499888896942
1781033544412506000,5.066506103515625,0.6373124718666077,-1.82764995098114,-0.5376250147819519
1781033544432008200,5.08600830078125,0.7651875019073486,-2.073087453842163,-0.6095374822616577
1781033544451511300,5.10551123046875,0.777287483215332,-1.983162522315979,-0.5890499949455261
1781033544471018000,5.12501806640625,0.7204999923706055,-1.7825499773025513,-0.5388625264167786
1781033544490530300,5.1445302734375,0.6571124792098999,-1.6069624423980713,-0.5029749870300293
1781033544510043000,5.16404296875,0.6221874952316284,-1.4722124338150024,-0.4886749982833862
1781033544529552100,5.18355224609375,0.6106374859809875,-1.3420000076293943,-0.4782249927520752
1781033544549062000,5.203061767578125,0.5945500135421753,-1.1901999711990356,-0.4512749910354614
1781033544568570400,5.2225703125,0.5512375235557556,-1.0220375061035156,-0.4016374945640564
1781033544588078300,5.242078369140625,0.4816625118255615,-0.8629499673843384,-0.3423750102519989
1781033544607583200,5.261583251953125,0.4030124843120575,-0.7303999662399292,-0.2949374914169311
1781033544627086300,5.28108642578125,0.334262490272522,-0.6294749975204468,-0.2747249901294708
1781033544646590200,5.300590087890625,0.2897124886512756,-0.5695250034332275,-0.2880625128746032
1781033544666095000,5.32009521484375,0.2723875045776367,-0.5574250221252441,-0.3295874893665313
1781033544685603800,5.339603759765625,0.2752749919891357,-0.5763999819755554,-0.3830749988555908
1781033544705116200,5.3591162109375,0.2943874895572662,-0.5906999707221985,-0.4314749836921692
1781033544724629000,5.37862890625,0.3345375061035156,-0.5747500061988831,-0.4614500105381012
1781033544744139300,5.39813916015625,0.4010874927043915,-0.5357000231742859,-0.4659875035285949
1781033544763647700,5.417647705078125,0.4845499992370605,-0.4972000122070312,-0.4423374831676483
1781033544783156200,5.43715625,0.5611374974250793,-0.4716250002384186,-0.3942124843597412
1781033544802665200,5.456665283203125,0.5611374974250793,-0.4716250002384186,-0.3942124843597412
1781033544822180000,5.47618017578125,0.5611374974250793,-0.4716250002384186,-0.3942124843597412
1781033544841696300,5.4956962890625,0.6656374931335449,-0.4633750021457672,-0.2881999909877777
1781033544861205000,5.515205078125,0.6967124938964844,-0.4978874921798706,-0.2580874860286712
1781033544880712200,5.534712158203125,0.6931374669075012,-0.5609999895095825,-0.23539999127388
1781033544900221000,5.554220947265625,0.6507874727249146,-0.6352499723434448,-0.203087493777275
1781033544919731500,5.5737314453125,0.6061000227928162,-0.7071624994277954,-0.1549624949693679
1781033544939241500,5.593241455078125,0.5878124833106995,-0.7704125046730042,-0.0958374962210655
1781033544958749200,5.612749267578125,0.5649874806404114,-0.8100125193595886,-0.0334125012159347
1781033544978256600,5.632256591796875,0.4731374979019165,-0.8047875165939331,0.0250249989330768
1781033544997762300,5.65176220703125,0.270187497138977,-0.7496500015258789,0.0753500014543533
1781033545017267000,5.671266845703125,-0.026537500321865,-0.6615124940872192,0.1193500012159347
1781033545036765400,5.690765380859375,-0.3495250046253204,-0.5704874992370605,0.1590874940156936
1781033545056258800,5.7102587890625,-0.6190249919891357,-0.5025625228881836,0.1900250017642974
1781033545075759900,5.729759765625,-0.7925499677658081,-0.4683249890804291,0.201162502169609
1781033545095263700,5.749263671875,-0.889074981212616,-0.46543750166893,0.1816374957561493
1781033545114765600,5.768765625,-0.9534249901771544,-0.4852375090122223,0.1306249946355819
1781033545134269200,5.788269287109375,-1.0048500299453735,-0.5216749906539917,0.0664125010371208
1781033545153772000,5.80777197265625,-1.005674958229065,-0.5747500061988831,0.0434499979019165
1781033545173273600,5.827273681640625,-0.8860499858856201,-0.6462500095367432,0.1262249946594238
1781033545192778200,5.8467783203125,-0.5972999930381775,-0.7275124788284302,0.3441624939441681
1781033545212285700,5.86628564453125,-0.1696749925613403,-0.7957124710083008,0.6595875024795532
1781033545231793200,5.885793212890625,0.2754124999046325,-0.8331124782562256,0.9693750143051147
1781033545251298300,5.90529833984375,0.6159999966621399,-0.8434249758720398,1.1706750392913818
1781033545270803200,5.92480322265625,0.8016250133514404,-0.851812481880188,1.192399978637695
1781033545290307300,5.944307373046875,0.8801375031471252,-0.8973249793052673,1.0232750177383425
1781033545309809000,5.963808837890625,0.953837513923645,-1.005674958229065,0.7239375114440918
1781033545329312300,5.983312255859375,1.1098999977111816,-1.1705374717712402,0.3955875039100647
1781033545348817400,6.0028173828125,1.3828375339508057,-1.359737515449524,0.1413500010967254
1781033545368320300,6.0223203125,1.7142125368118286,-1.5290000438690186,0.0104499999433755
1781033545387823000,6.041822998046875,1.993749976158142,-1.6445000171661377,-0.0028874999843537
1781033545407330800,6.061330810546875,2.1373000144958496,-1.6879500150680542,0.0701249986886978
1781033545426836200,6.080836181640625,2.1183249950408936,-1.6530250310897827,0.1876875013113021
1781033545446335200,6.100335205078125,1.957450032234192,-1.543025016784668,0.3114374876022339
1781033545465839000,6.119839111328125,1.6795624494552612,-1.36537504196167,0.4047999978065491
1781033545485346600,6.1393466796875,1.2926374673843384,-1.1369874477386477,0.4303750097751617
1781033545504851700,6.158851806640625,1.2926374673843384,-1.1369874477386477,0.4303750097751617
1781033545524353800,6.178353759765625,0.824037492275238,-0.8938875198364258,0.3675374984741211
1781033545543858400,6.1978583984375,0.3097875118255615,-0.6653624773025513,0.2107875049114227
1781033545563362300,6.2173623046875,-0.1819124966859817,-0.457874983549118,-0.015812499448657
1781033545582862800,6.23686279296875,-0.816474974155426,-0.0785124972462654,-0.4593875110149383
1781033545602365200,6.256365234375,-0.816474974155426,-0.0785124972462654,-0.4593875110149383
1781033545621867000,6.275866943359375,-0.9446250200271606,0.0691625028848648,-0.5935875177383423
1781033545641367800,6.295367919921875,-0.991374969482422,0.1610125005245208,-0.6615124940872192
1781033545660866300,6.3148662109375,-0.963325023651123,0.1949750036001205,-0.6747124791145325
1781033545680365300,6.334365234375,-0.8615750074386597,0.1878249943256378,-0.6441875100135803
1781033545699869400,6.353869384765625,-0.7140374779701233,0.1651374995708465,-0.5828624963760376
1781033545719377000,6.373376953125,-0.5597624778747559,0.147537499666214,-0.5035250186920166
1781033545738886400,6.392886474609375,-0.4135999977588653,0.1388749927282333,-0.4152500033378601
1781033545758393900,6.412393798828125,-0.2766500115394592,0.1388749927282333,-0.3264249861240387
1781033545777895200,6.431895263671875,-0.171324998140335,0.1585374921560287,-0.2516250014305115
1781033545797398000,6.45139794921875,-0.1282874941825866,0.2117500007152557,-0.206662505865097
1781033545816905500,6.470905517578125,-0.1451999992132187,0.2996124923229217,-0.2025374919176101
1781033545836414700,6.490414794921875,-0.1808124929666519,0.4071374833583832,-0.2429624944925308
1781033545855921200,6.509921142578125,-0.2113374918699264,0.5131499767303467,-0.3282124996185303
1781033545875423000,6.529423095703125,-0.2513499855995178,0.602524995803833,-0.4522374868392944
1781033545894924500,6.548924560546875,-0.309374988079071,0.6672874689102173,-0.5995000004768372
1781033545914429700,6.5684296875,-0.3668499886989593,0.7050999999046326,-0.7510250210762024
1781033545933932800,6.587932861328125,-0.4087874889373779,0.7195374965667725,-0.8885250091552734
1781033545953436400,6.6074365234375,-0.4357374906539917,0.7233874797821045,-0.9887624979019164
1781033545972942000,6.626942138671875,-0.4409624934196472,0.7317749857902527,-1.0300124883651731
1781033545992448500,6.646448486328125,-0.4097499847412109,0.7470374703407288,-1.010212540626526
1781033546011953400,6.665953369140625,-0.3440249860286712,0.7591375112533569,-0.950262486934662
1781033546031460400,6.68546044921875,-0.2569875121116638,0.7613375186920166,-0.8747749924659729
1781033546050969600,6.704969482421875,-0.1561999917030334,0.7584499716758728,-0.792412519454956
1781033546070476800,6.724476806640625,-0.0629749968647956,0.7612000107765198,-0.7037249803543091
1781033546089983200,6.743983154296875,-0.0214499998837709,0.7783874869346619,-0.613937497138977
1781033546109486000,6.763486083984375,-0.0706750005483627,0.8163374662399292,-0.5354250073432922
1781033546128988000,6.78298779296875,-0.209549993276596,0.8806874752044678,-0.4769875109195709
1781033546148488700,6.80248876953125,-0.3884375095367431,0.9721249938011168,-0.4358749985694885
1781033546167983600,6.821983642578125,-0.5387250185012817,1.0799249410629272,-0.4020499885082245
1781033546187478500,6.841478515625,-0.6220499873161316,1.185937523841858,-0.3724874854087829
1781033546206975700,6.860975830078125,-0.6582124829292297,1.2770999670028689,-0.354200005531311
1781033546226472700,6.88047265625,-0.6928625106811523,1.3499749898910522,-0.3513124883174896
1781033546245975800,6.899975830078125,-0.7402999997138977,1.4022250175476074,-0.354200005531311
1781033546265484000,6.919484130859375,-0.7612000107765198,1.4236749410629272,-0.3470500111579895
1781033546284983300,6.9389833984375,-0.7612000107765198,1.4236749410629272,-0.3470500111579895
1781033546304479200,6.958479248046875,-0.7085375189781189,1.4038749933242798,-0.3224374949932098
1781033546323981600,6.977981689453125,-0.4226749837398529,1.2896125316619873,-0.2290749996900558
1781033546343484700,6.997484619140625,-0.2776125073432922,1.2342000007629397,-0.1688500046730041
1781033546362983200,7.016983154296875,-0.1720124930143356,1.1815375089645386,-0.1073874980211258
1781033546382481000,7.03648095703125,-0.1720124930143356,1.1815375089645386,-0.1073874980211258
1781033546401983000,7.05598291015625,-0.1720124930143356,1.1815375089645386,-0.1073874980211258
1781033546421487000,7.075487060546875,-0.0519750006496906,1.0356500148773191,0.014024999924004
1781033546440989000,7.094989013671875,0.0208999998867511,0.926337480545044,0.0676499977707862
1781033546460487700,7.11448779296875,0.1324124932289123,0.7953000068664551,0.0998250022530555
1781033546479991800,7.13399169921875,0.2631750106811523,0.6554625034332275,0.1049124971032142
1781033546499502600,7.153502685546875,0.3777124881744385,0.5229125022888184,0.0922624990344047
1781033546519005200,7.173005126953125,0.4536125063896179,0.4041124880313873,0.0759000033140182
1781033546538505200,7.192505126953125,0.4919750094413757,0.297962486743927,0.0632499977946281
1781033546558011600,7.21201171875,0.5048999786376953,0.2019875049591064,0.0547249987721443
1781033546577520000,7.23152001953125,0.5003625154495239,0.1131625026464462,0.0507375001907348
1781033546597030100,7.251030029296875,0.4853749871253967,0.0312124993652105,0.0526624992489814
1781033546616537600,7.27053759765625,0.469837486743927,-0.0406999997794628,0.0617375001311302
1781033546636044300,7.290044189453125,0.4628250002861023,-0.0979000031948089,0.0786499977111816
1781033546655549200,7.309549072265625,0.46543750166893,-0.1362625062465667,0.1005124971270561
1781033546675053000,7.329052978515625,0.4716250002384186,-0.1548250019550323,0.1186624988913536
1781033546694557400,7.348557373046875,0.4684624969959259,-0.1555124968290329,0.1231999993324279
1781033546714057500,7.368057373046875,0.4408249855041504,-0.1434125006198883,0.1113749966025352
1781033546733563400,7.3875634765625,0.3836250007152557,-0.1244374960660934,0.0889625027775764
1781033546753074200,7.40707421875,0.3048374950885772,-0.1032624989748001,0.0671000033617019
1781033546772577500,7.42657763671875,0.210099995136261,-0.080437496304512,0.0576125010848045
1781033546792082400,7.44608251953125,0.1036750003695488,-0.055137500166893,0.0658624991774559
1781033546811592400,7.465592529296875,0.0038499999791383,-0.0298375003039836,0.0849749967455864
1781033546831101400,7.485101318359375,-0.0603624992072582,-0.0101749999448657,0.1032624989748001
1781033546850606000,7.504606201171875,-0.0743874981999397,-0.0006874999962747,0.1165999993681907
1781033546870112000,7.524112060546875,-0.0527999997138977,-0.0017874999903142,0.1318625062704086
1781033546889621200,7.543621337890625,-0.0149875003844499,-0.011824999935925,0.1541374921798706
1781033546909127000,7.563126953125,0.0307999998331069,-0.0277750007808208,0.178749993443489
1781033546928631000,7.582631103515625,0.0800250023603439,-0.0442750006914138,0.1967625021934509
1781033546948137200,7.60213720703125,0.1260875016450882,-0.0543125011026859,0.2028124928474426
1781033546967644000,7.621643798828125,0.1566125005483627,-0.050875000655651,0.1977249979972839
1781033546987152000,7.64115185546875,0.1603250056505203,-0.0312124993652105,0.1876875013113021
1781033547006654500,7.660654541015625,0.1211374998092651,0.0031624999828636,0.1839749962091446
1781033547026155000,7.680155029296875,0.0303875003010034,0.0466125011444091,0.1967625021934509
1781033547045663500,7.69966357421875,-0.0833249986171722,0.0901999995112419,0.2219250053167343
1781033547065175600,7.719175537109375,-0.1689874976873397,0.1269125044345855,0.2436500042676925
1781033547084688400,7.7386884765625,-0.1689874976873397,0.1269125044345855,0.2436500042676925
1781033547104200000,7.758199951171875,-0.2633124887943268,0.1838375031948089,0.2769249975681305
1781033547123707000,7.777706787109375,-0.2633124887943268,0.1838375031948089,0.2769249975681305
1781033547143214800,7.79721484375,-0.332749992609024,0.2188999950885772,0.3106124997138977
1781033547162724000,7.81672412109375,-0.3910500109195709,0.2635875046253204,0.3425124883651733
1781033547182231800,7.836231689453125,-0.3910500109195709,0.2635875046253204,0.3425124883651733
1781033547201739000,7.855739013671875,-0.4081000089645386,0.3980624973773956,0.3481499850749969
1781033547221240800,7.87524072265625,-0.4116750061511993,0.4919750094413757,0.3353624939918518
1781033547240742000,7.894741943359375,-0.4278999865055084,0.5882250070571899,0.3258749842643738
1781033547260243000,7.914242919921875,-0.4614500105381012,0.6712750196456909,0.3271124958992004
1781033547279744300,7.933744140625,-0.5176874995231628,0.7411249876022339,0.3443000018596649
1781033547299249200,7.953249267578125,-0.5770875215530396,0.8018999695777893,0.3691875040531158
1781033547318752300,7.972752197265625,-0.6018375158309937,0.8516749739646912,0.3830749988555908
1781033547338254800,7.9922548828125,-0.5830000042915344,0.8886625170707703,0.3796375095844269
1781033547357753900,8.01175390625,-0.5505499839782715,0.9191874861717224,0.3716624975204468
1781033547377253400,8.03125341796875,-0.5335000157356262,0.9575499892234802,0.369049996137619
1781033547396755200,8.050755126953124,-0.5361124873161316,1.0194250345230105,0.3669874966144562
1781033547416258600,8.070258544921876,-0.5479375123977661,1.1129250526428225,0.3553000092506408
1781033547435762400,8.089762451171875,-0.5597624778747559,1.2324124574661257,0.329862505197525
1781033547455262500,8.109262451171874,-0.5647125244140625,1.3593250513076782,0.2899875044822693
1781033547474765600,8.128765625,-0.5659499764442444,1.4998500347137451,0.237462505698204
1781033547494272000,8.14827197265625,-0.5748875141143799,1.6785999536514282,0.1836999952793121
1781033547513782000,8.167781982421875,-0.5609999895095825,1.833425045013428,0.1512500047683715
1781033547533290800,8.187290771484374,-0.4296875,1.7399250268936155,0.1586750000715255
1781033547552798000,8.2067978515625,-0.115225002169609,1.1585749387741089,0.1913999915122985
1781033547572307200,8.22630712890625,0.3316499888896942,0.1053249984979629,0.1772374957799911
1781033547591819300,8.2458193359375,0.7537750005722046,-1.124887466430664,0.0163624994456768
1781033547611331300,8.265331298828125,0.9641500115394592,-2.109112501144409,-0.0690250024199485
1781033547630841600,8.284841552734376,0.8838499784469604,-2.5059375762939453,0.0061874999664723
1781033547650347000,8.304346923828126,0.607200026512146,-2.290062427520752,-0.1044999957084655
1781033547669852000,8.323851806640626,0.3075875043869018,-1.7542250156402588,-0.2718375027179718
1781033547689360000,8.34335986328125,0.0969374999403953,-1.2640374898910522,-0.2941125035285949
1781033547708870100,8.3628701171875,-0.0097624994814395,-0.9945374727249146,-0.3042874932289123
1781033547728381200,8.382381103515625,-0.0305249989032745,-0.911899983882904,-0.3393499851226806
1781033547747884300,8.40188427734375,0.0232375003397464,-0.9242749810218812,-0.3723500072956085
1781033547767383000,8.421383056640625,0.1413500010967254,-0.963325023651123,-0.3713875114917755
1781033547786884400,8.44088427734375,0.2949374914169311,-0.9898625016212464,-0.3393499851226806
1781033547806387200,8.46038720703125,0.4221250116825104,-0.9752874970436096,-0.3107500076293945
1781033547825893600,8.4798935546875,0.464475005865097,-0.9072250127792358,-0.3137750029563904
1781033547845403100,8.499403076171875,0.4265249967575073,-0.80121248960495,-0.3411374986171722
1781033547864910800,8.518910888671876,0.369049996137619,-0.6851624846458435,-0.3628624975681305
1781033547884415000,8.5384150390625,0.369049996137619,-0.6851624846458435,-0.3628624975681305
1781033547903921200,8.557921142578126,0.3639625012874603,-0.5820375084877014,-0.357637494802475
1781033547923431200,8.57743115234375,0.5798375010490417,-0.4544374942779541,-0.2846249938011169
1781033547942940700,8.596940673828126,0.7217375040054321,-0.4289999902248382,-0.2461249977350235
1781033547962442800,8.61644287109375,0.7217375040054321,-0.4289999902248382,-0.2461249977350235
1781033547981940200,8.635940185546875,0.8178499937057495,-0.4149749875068664,-0.213125005364418
1781033548001443000,8.655443115234375,0.8320124745368958,-0.3837625086307525,-0.1815000027418136
1781033548020952800,8.674952880859376,0.7697250247001648,-0.3363249897956848,-0.1559250056743621
1781033548040466400,8.694466552734376,0.7057874798774719,-0.3345375061035156,-0.1473999917507171
1781033548059980300,8.713980224609376,0.7559750080108643,-0.456912487745285,-0.1491875052452087
1781033548079495400,8.733495361328124,0.964287519454956,-0.6880499720573425,-0.1251250058412552
1781033548099010800,8.7530107421875,1.1721874475479126,-0.8685874938964844,-0.0782374963164329
1781033548118521600,8.772521484375,1.1309374570846558,-0.8794500231742859,-0.1061500012874603
1781033548138033200,8.792033203125,0.768625020980835,-0.7618874907493591,-0.2777499854564667
1781033548157545200,8.811545166015625,0.245849996805191,-0.6348375082015991,-0.4266625046730041
1781033548177058600,8.83105859375,-0.2087250053882599,-0.5919374823570251,-0.5407875180244446
1781033548196572200,8.850572265625,-0.4751999974250793,-0.6573874950408936,-0.6434999704360962
1781033548216084500,8.87008447265625,-0.602524995803833,-0.7818250060081482,-0.6305750012397766
1781033548235596500,8.889596435546874,-0.6953374743461609,-0.8823375105857849,-0.5384500026702881
1781033548255107000,8.909107177734375,-0.8083624839782715,-0.9114875197410583,-0.392425000667572
1781033548274619100,8.928619140625,-0.9461374878883362,-0.8802750110626221,-0.2283875048160553
1781033548294132200,8.94813232421875,-1.0770374536514282,-0.8256874680519104,-0.0658624991774559
1781033548313642800,8.967642822265624,-1.1515624523162842,-0.7818250060081482,0.106562502682209
1781033548333151000,8.98715087890625,-1.1211750507354736,-0.7745375037193298,0.3079999983310699
1781033548352659700,9.00665966796875,-0.979550004005432,-0.8119375109672546,0.5303375124931335
1781033548372168200,9.026168212890624,-0.7664250135421753,-0.8852249979972839,0.7360374927520752
1781033548391679200,9.04567919921875,-0.4915624856948852,-1.0128250122070312,0.9065374732017516
1781033548411191000,9.06519091796875,-0.0962499976158142,-1.2622499465942385,1.0506374835968018
1781033548430702300,9.084702392578125,0.5321249961853027,-1.6924874782562256,1.2280124425888062
1781033548450214000,9.1042138671875,1.4635499715805054,-2.257200002670288,1.548662543296814
1781033548469730600,9.12373046875,2.58032488822937,-2.7894625663757324,2.0713000297546387
1781033548489245700,9.14324560546875,3.5936999320983887,-3.126749992370605,2.721400022506714
1781033548508759000,9.162759033203123,4.217812538146973,-3.211174964904785,3.3202123641967773
1781033548528269800,9.182269775390624,4.301000118255615,-3.0643250942230225,3.681837558746338
1781033548547778600,9.201778564453123,3.892625093460083,-2.740925073623657,3.6645123958587646
1781033548567288600,9.22128857421875,3.2290499210357666,-2.3203125,3.2544875144958496
1781033548586800400,9.24080029296875,2.557637453079224,-1.8837499618530276,2.59586238861084
1781033548606317000,9.260317138671876,1.9816499948501587,-1.471387505531311,1.860100030899048
1781033548625826300,9.279826416015624,1.45722496509552,-1.0613625049591064,1.131350040435791
1781033548645329000,9.299328857421877,0.9153375029563904,-0.6194375157356262,0.4160749912261963
1781033548664832300,9.318832275390625,0.340862512588501,-0.1596374958753585,-0.2677125036716461
1781033548684335400,9.33833544921875,0.340862512588501,-0.1596374958753585,-0.2677125036716461
1781033548703839000,9.3578388671875,-0.7233874797821045,0.5817624926567078,-1.3256374597549438
1781033548723344400,9.377344482421876,-0.7233874797821045,0.5817624926567078,-1.3256374597549438
1781033548742850800,9.396850830078124,-1.3227499723434448,0.9333499670028688,-1.8430500030517576
1781033548762356500,9.4163564453125,-1.4184499979019165,1.0181875228881836,-1.9212875366210935
1781033548781864400,9.435864501953125,-1.4184499979019165,1.0181875228881836,-1.9212875366210935
1781033548801378300,9.45537841796875,-1.4140499830245972,1.071674942970276,-1.9017624855041504
1781033548820894700,9.474894775390624,-1.3573999404907229,1.1023374795913696,-1.8232499361038208
1781033548840407300,9.4944072265625,-1.305287480354309,1.1243374347686768,-1.7326375246047974
1781033548859918000,9.51391796875,-1.2934625148773191,1.1544499397277832,-1.6526124477386477
1781033548879427800,9.533427734375,-1.3318250179290771,1.202299952507019,-1.58537495136261
1781033548898936300,9.552936279296874,-1.3895750045776367,1.258537530899048,-1.5192375183105469
1781033548918443000,9.572443115234377,-1.417349934577942,1.3110624551773071,-1.4491125345230105
1781033548937949700,9.59194970703125,-1.391362547874451,1.3583624362945557,-1.3818750381469729
1781033548957462000,9.6114619140625,-1.3272874355316162,1.4026374816894531,-1.3168375492095947
1781033548976978400,9.630978515625,-1.2610124349594116,1.4441624879837036,-1.2417625188827517
1781033548996495400,9.650495361328124,-1.2000999450683594,1.4737249612808228,-1.1416624784469604
1781033549016006400,9.67000634765625,-1.1298375129699707,1.4803249835968018,-1.019837498664856
1781033549035521000,9.68952099609375,-1.0390875339508057,1.4606624841690063,-0.8978750109672546
1781033549055042600,9.70904248046875,-0.9296374917030334,1.4207874536514282,-0.7940624952316284
1781033549074560300,9.728560302734374,-0.821150004863739,1.3696374893188477,-0.7060624957084656
1781033549094068500,9.748068359375,-0.7375500202178955,1.3129874467849731,-0.6175125241279602
1781033549113576000,9.767575927734375,-0.6909375190734863,1.2534500360488892,-0.5189250111579895
1781033549133086700,9.787086669921877,-0.6716874837875366,1.195425033569336,-0.4193750023841858
1781033549152598800,9.806598876953124,-0.6579374670982361,1.145787477493286,-0.3371500074863434
1781033549172111000,9.826111083984374,-0.634975016117096,1.109487533569336,-0.2807750105857849
1781033549191622400,9.845622314453124,-0.600600004196167,1.085012435913086,-0.2421374917030334
1781033549211132700,9.865132568359376,-0.5616874694824219,1.0665874481201172,-0.2069374918937683
1781033549230645000,9.88464501953125,-0.5347374677658081,1.0514625310897827,-0.1669249981641769
1781033549250157800,9.90415771484375,-0.533637523651123,1.0410125255584717,-0.1227874979376792
1781033549269666600,9.92366650390625,-0.5368000268936157,1.031387448310852,-0.0820875018835067
1781033549289175800,9.94317578125,-0.4905999898910522,1.0092500448226929,-0.0559624992311
1781033549308687600,9.9626875,-0.36616250872612,0.9629124999046326,-0.0516999997198581
1781033549328198700,9.98219873046875,-0.1909874975681305,0.8922374844551086,-0.0654499977827072
1781033549347709400,10.00170947265625,-0.0175999999046325,0.8046500086784363,-0.0847000032663345
1781033549367216400,10.02121630859375,0.1264999955892563,0.7074375152587891,-0.0999625027179718
1781033549386722600,10.04072265625,0.2389750033617019,0.6045874953269958,-0.1105500012636184
1781033549406234400,10.060234375,0.3258749842643738,0.4995374977588653,-0.1199000030755996
1781033549425747700,10.079747802734374,0.3900874853134155,0.3969624936580658,-0.1284250020980835
1781033549445255400,10.09925537109375,0.4257000088691711,0.3044250011444092,-0.1292500048875808
1781033549464764200,10.11876416015625,0.4257000088691711,0.3044250011444092,-0.1292500048875808
1781033549484277200,10.13827734375,0.443987488746643,0.1727000027894973,-0.082225002348423
1781033549503787000,10.157787109375,0.4702500104904175,0.1328250020742416,-0.0405624993145465
1781033549523294000,10.1772939453125,0.5025625228881836,0.1080750003457069,0.0009624999947845
1781033549542801400,10.196801513671875,0.5025625228881836,0.1080750003457069,0.0009624999947845
1781033549562308600,10.21630859375,0.5025625228881836,0.1080750003457069,0.0009624999947845
1781033549581815300,10.235815185546874,0.4973374903202057,0.0956999957561492,0.0595375001430511
1781033549601326300,10.255326416015626,0.4701125025749206,0.101062498986721,0.0747999995946884
1781033549620838000,10.274837890625,0.4541625082492828,0.1068374961614608,0.0813999995589256
1781033549640348000,10.294347900390624,0.4531999826431274,0.1090374961495399,0.0813999995589256
1781033549659857200,10.313857177734375,0.4446749985218048,0.110275000333786,0.0818125009536743
1781033549679362800,10.33336279296875,0.40191251039505,0.1185249984264373,0.0939124971628189
1781033549698865200,10.352865234375,0.3284874856472015,0.136537492275238,0.1225124970078468
1781033549718366200,10.3723662109375,0.2613874971866607,0.1561999917030334,0.160874992609024
1781033549737864000,10.391864013671874,0.2373249977827072,0.1667875051498413,0.1963499933481216
1781033549757365000,10.411364990234375,0.2601499855518341,0.1632124930620193,0.2194499969482422
1781033549776867600,10.43086767578125,0.305525004863739,0.146987497806549,0.2286625057458877
1781033549796373200,10.450373291015625,0.3359124958515167,0.1251250058412552,0.2325125038623809
1781033549815881000,10.469880859375,0.3202374875545501,0.1061500012874603,0.2431000024080276
1781033549835387600,10.4893876953125,0.2525874972343445,0.098312497138977,0.2668874859809875
1781033549854892300,10.508892333984376,0.1498750001192093,0.107524998486042,0.3018124997615814
1781033549874397400,10.5283974609375,0.0369874984025955,0.1342000067234039,0.3436124920845032
1781033549893907500,10.547907470703125,-0.0745249986648559,0.172837495803833,0.3944875001907348
1781033549913415000,10.567414794921875,-0.1766874939203262,0.2142249941825866,0.4581499993801117
1781033549932922000,10.586922119140626,-0.2494249939918518,0.2480500042438507,0.5308874845504761
1781033549952431900,10.606431884765623,-0.2664749920368194,0.2653749883174896,0.5974375009536743
1781033549971941600,10.625941650390626,-0.213125005364418,0.2602874934673309,0.6370375156402588
1781033549991451100,10.645451171875,-0.1082125008106231,0.2336124926805496,0.6380000114440918
1781033550010957300,10.664957275390623,0.0030249999836087,0.1893374919891357,0.6039000153541565
1781033550030464500,10.684464599609376,0.0813999995589256,0.1331000030040741,0.5476624965667725
1781033550049971200,10.70397119140625,0.1165999993681907,0.0712250024080276,0.4804250001907348
1781033550069474300,10.723474365234376,0.1229249984025955,0.0107249999418854,0.4078249931335449
1781033550088976400,10.742976318359377,0.1142624989151954,-0.0412499979138374,0.33467498421669
1781033550108479500,10.7624794921875,0.0906125009059906,-0.0801625028252601,0.2681249976158142
1781033550127983900,10.78198388671875,0.0510125011205673,-0.1035374999046325,0.2154625058174133
1781033550147490000,10.801489990234376,0.0048124999739229,-0.1111000031232833,0.1799875050783157
1781033550166998500,10.82099853515625,-0.0309375002980232,-0.1043625026941299,0.1582625061273574
1781033550186508300,10.84050830078125,-0.0402874983847141,-0.0849749967455864,0.1417624950408935
1781033550206015200,10.86001513671875,-0.0273624993860721,-0.0526624992489814,0.1244374960660934
1781033550225521400,10.879521484375,-0.026537500321865,-0.0071499999612569,0.1094499975442886
1781033550245026000,10.899026123046877,-0.0735625028610229,0.0492249988019466,0.1028499975800514
1781033550264529400,10.918529296875,-0.0735625028610229,0.0492249988019466,0.1028499975800514
1781033550284029200,10.938029296875,-0.1666499972343444,0.1113749966025352,0.1032624989748001
1781033550303528400,10.957528564453124,-0.2715624868869781,0.1790249943733215,0.1027124971151351
1781033550323030800,10.97703076171875,-0.4522374868392944,0.3577750027179718,0.1003749966621398
1781033550342539800,10.996539794921874,-0.4522374868392944,0.3577750027179718,0.1003749966621398
1781033550362050300,11.01605029296875,-0.5458750128746033,0.4662624895572662,0.1168750002980232
1781033550381551400,11.03555126953125,-0.6334624886512756,0.5677375197410583,0.1476749926805496
1781033550401051600,11.0550517578125,-0.6965749859809875,0.6579374670982361,0.1849374920129776
1781033550420556300,11.074556396484375,-0.7207750082015991,0.7416750192642212,0.2168374955654144
1781033550440056000,11.09405615234375,-0.7015249729156494,0.8193625211715698,0.231000006198883
1781033550459554800,11.113554931640625,-0.6517499685287476,0.8916875123977661,0.222474992275238
1781033550479057400,11.133057373046874,-0.5979874730110168,0.963599979877472,0.1988250017166137
1781033550498561000,11.15256103515625,-0.5618249773979187,1.039362549781799,0.1761374920606613
1781033550518063900,11.17206396484375,-0.5468375086784363,1.1127874851226809,0.1667875051498413
1781033550537565400,11.1915654296875,-0.5402374863624573,1.1698499917984009,0.1766874939203262
1781033550557070300,11.2110703125,-0.5218124985694885,1.1996874809265137,0.2048749923706054
1781033550576572000,11.230572021484376,-0.4757499992847442,1.2020249366760254,0.2402125000953674
1781033550596073500,11.250073486328125,-0.403425008058548,1.1895124912261963,0.267300009727478
1781033550615575600,11.269575439453124,-0.328900009393692,1.1921249628067017,0.2776125073432922
1781033550635074600,11.289074462890625,-0.2854500114917755,1.2446500062942505,0.2730749845504761
1781033550654571800,11.30857177734375,-0.2858625054359436,1.3491499423980713,0.2547875046730041
1781033550674071000,11.328071044921876,-0.3082749843597412,1.4264249801635742,0.2158749997615814
1781033550693574700,11.34757470703125,-0.2987875044345855,1.2817749977111816,0.14011250436306
1781033550713078000,11.367078125,-0.2089999914169311,0.7106000185012817,0.016499999910593
1781033550732578000,11.386578125,-0.0313500016927719,-0.2795374989509582,-0.1476749926805496
1781033550752077000,11.4060771484375,0.203087493777275,-1.4047000408172607,-0.3276624977588653
1781033550771577300,11.425577392578123,0.4178625047206878,-2.244687557220459,-0.4753375053405761
1781033550791076400,11.445076416015626,0.5476624965667725,-2.516249895095825,-0.5244249701499939
1781033550810576600,11.46457666015625,0.6265875101089478,-2.2490875720977783,-0.421162486076355
1781033550830084400,11.48408447265625,0.7449749708175659,-1.6823124885559082,-0.1621125042438507
1781033550849589800,11.50358984375,0.9334874749183656,-1.0825375318527222,0.1860374957323074
1781033550869092400,11.52309228515625,1.110450029373169,-0.6257625222206116,0.4998124837875366
1781033550888594000,11.542593994140624,1.1901999711990356,-0.4134624898433685,0.6395124793052673
1781033550908093700,11.56209375,1.1786500215530396,-0.4841375052928924,0.526075005531311
1781033550927597300,11.581597412109376,1.1177375316619873,-0.7518500089645386,0.2059749960899353
1781033550947107300,11.601107421875,1.0089750289916992,-1.0355124473571775,-0.1838375031948089
1781033550966616600,11.620616455078125,0.8262374997138977,-1.1862125396728516,-0.5277249813079834
1781033550986121500,11.64012158203125,0.5988125205039978,-1.1666874885559082,-0.767799973487854
1781033551005626000,11.659626220703124,0.4064500033855438,-1.0250624418258667,-0.8827499747276306
1781033551025132300,11.67913232421875,0.3115749955177307,-0.8399875164031982,-0.8791750073432922
1781033551044638700,11.698638671875,0.3115749955177307,-0.8399875164031982,-0.8791750073432922
1781033551064146200,11.718146240234375,0.3971000015735626,-0.5275874733924866,-0.6430875062942505
1781033551083657700,11.73765771484375,0.4666749835014343,-0.3888500034809112,-0.4787749946117401
1781033551103164000,11.757163818359375,0.4772624969482422,-0.2476374953985214,-0.3297249972820282
1781033551122663700,11.77666357421875,0.4772624969482422,-0.2476374953985214,-0.3297249972820282
1781033551142163000,11.796162841796876,0.4772624969482422,-0.2476374953985214,-0.3297249972820282
1781033551161664800,11.815664794921876,0.3689124882221222,-0.1523499935865402,-0.2429624944925308
1781033551181166000,11.835166015625,0.3641000092029571,-0.3508999943733215,-0.3422375023365021
1781033551200664800,11.854664794921876,0.4075500071048736,-0.6654999852180481,-0.4584249854087829
1781033551220162800,11.874162841796876,0.4259749948978424,-0.9318374991416932,-0.5376250147819519
1781033551239660800,11.893660888671874,0.3229874968528747,-1.0023750066757202,-0.5597624778747559
1781033551259167000,11.9131669921875,0.0631124973297119,-0.8366875052452087,-0.5043500065803528
1781033551278676500,11.932676513671876,-0.2824249863624573,-0.5101249814033508,-0.3870624899864197
1781033551298184000,11.952183837890624,-0.5828624963760376,-0.1662375032901764,-0.2303124964237213
1781033551317692200,11.971692138671877,-0.7376874685287476,0.0471624992787838,-0.0684750005602836
1781033551337198000,11.991197998046877,-0.7303999662399292,0.0501874983310699,0.0622874982655048
1781033551356699600,12.01069970703125,-0.6059625148773193,-0.1531749963760376,0.1385999917984008
1781033551376196400,12.0301962890625,-0.4280374944210052,-0.4871625006198883,0.1537249982357025
1781033551395696000,12.049696044921877,-0.2418625056743621,-0.861299991607666,0.1145374998450279
1781033551415200800,12.06920068359375,-0.0556874983012676,-1.2187999486923218,0.0393249988555908
1781033551434704100,12.0887041015625,0.1351625025272369,-1.5300999879837036,-0.0375375002622604
1781033551454204700,12.10820458984375,0.3042874932289123,-1.7674249410629272,-0.0807124972343444
1781033551473708500,12.12770849609375,0.4122250080108642,-1.911662459373474,-0.0746624991297721
1781033551493214200,12.147214111328124,0.4758875072002411,-1.9878374338150024,-0.0263999998569488
1781033551512720400,12.166720458984376,0.5647125244140625,-2.04104995727539,0.0481249988079071
1781033551532227600,12.1862275390625,0.7382375001907349,-2.102787494659424,0.135574996471405
1781033551551733500,12.2057333984375,1.0250624418258667,-2.1997249126434326,0.2275625020265579
1781033551571236400,12.225236328125,1.41349995136261,-2.326499938964844,0.3319250047206878
1781033551590740000,12.244739990234375,1.7997374534606934,-2.404462575912476,0.4587000012397766
1781033551610246700,12.26424658203125,2.019599914550781,-2.336400032043457,0.6140750050544739
1781033551629753900,12.28375390625,1.979587435722351,-2.101412534713745,0.7959874868392944
1781033551649259300,12.30325927734375,1.737862467765808,-1.7803499698638916,0.988349974155426
1781033551668764400,12.322764404296874,1.4333000183105469,-1.4797749519348145,1.171774983406067
1781033551688268000,12.34226806640625,1.173699975013733,-1.254824995994568,1.3300374746322632
1781033551707771400,12.361771484375,0.9982500076293944,-1.0993125438690186,1.458050012588501
1781033551727277300,12.38127734375,0.8718875050544739,-0.9689624905586244,1.5310624837875366
1781033551746785300,12.400785400390625,0.7408499717712402,-0.8226624727249146,1.5131875276565552
1781033551766293800,12.420293701171875,0.5814874768257141,-0.6451500058174133,1.4022250175476074
1781033551785802200,12.43980224609375,0.3888500034809112,-0.4395875036716461,1.2181124687194824
1781033551805310200,12.459310302734377,0.1841125041246414,-0.2235749959945678,0.991100013256073
1781033551824815000,12.478815185546877,0.1841125041246414,-0.2235749959945678,0.991100013256073
1781033551844320000,12.498320068359376,-0.0627000033855438,0.154412493109703,0.5186499953269958
1781033551863827700,12.51782763671875,-0.0992750003933906,0.2953499853610992,0.2678500115871429
1781033551883333400,12.53733349609375,-0.1471250057220459,0.4024625122547149,-0.0028874999843537
1781033551902839000,12.556839111328124,-0.2360875010490417,0.4791874885559082,-0.2836624979972839
1781033551922347800,12.57634765625,-0.3649249970912933,0.5318499803543091,-0.5655375123023987
1781033551941854000,12.59585400390625,-0.3649249970912933,0.5318499803543091,-0.5655375123023987
1781033551961361400,12.615361328125,-0.5295125246047974,0.571862518787384,-0.8417750000953674
1781033551980873200,12.634873291015625,-0.7123875021934509,0.6168249845504761,-1.0837750434875488
1781033552000381400,12.65438134765625,-0.8762875199317932,0.681725025177002,-1.2581249475479126
1781033552019888600,12.673888671875,-0.9938499927520752,0.7660124897956848,-1.3611124753952026
1781033552039395600,12.6933955078125,-1.0613625049591064,0.8625375032424927,-1.4141875505447388
1781033552058906000,12.712906005859375,-1.0951875448226929,0.967312514781952,-1.4327499866485596
1781033552078418400,12.73241845703125,-1.1254374980926514,1.0819875001907349,-1.4234000444412231
1781033552097929200,12.75192919921875,-1.1866250038146973,1.2065625190734863,-1.4011249542236328
1781033552117438000,12.77143798828125,-1.296762466430664,1.333199977874756,-1.377750039100647
1781033552136941300,12.79094140625,-1.429587483406067,1.4559874534606934,-1.3437875509262085
1781033552156446200,12.8104462890625,-1.5423375368118286,1.5723124742507937,-1.27943754196167
1781033552175950600,12.82995068359375,-1.6229125261306765,1.6777750253677368,-1.178375005722046
1781033552195451600,12.84945166015625,-1.681762456893921,1.7623374462127686,-1.0513249635696411
1781033552214954000,12.8689541015625,-1.70912504196167,1.812387466430664,-0.9131374955177308
1781033552234461400,12.88846142578125,-1.6654000282287598,1.8173375129699707,-0.7716500163078308
1781033552253970000,12.907969970703125,-1.525012493133545,1.7782875299453735,-0.6285125017166138
1781033552273474000,12.92747412109375,-1.3000625371932983,1.7051374912261963,-0.4868874847888946
1781033552292980700,12.946980712890625,-1.035099983215332,1.6095750331878662,-0.3577750027179718
1781033552312492500,12.966492431640624,-0.7842999696731567,1.5016374588012695,-0.254925012588501
1781033552332004000,12.986004150390626,-0.5838249921798706,1.390262484550476,-0.1834249943494796
1781033552351515400,13.005515380859377,-0.4376625120639801,1.2849375009536743,-0.136537492275238
1781033552371024100,13.025024169921876,-0.3355000019073486,1.1966625452041626,-0.1021625027060508
1781033552390533000,13.044533203125,-0.2653749883174896,1.131350040435791,-0.0715000033378601
1781033552410043600,13.064043701171874,-0.202674999833107,1.0808874368667605,-0.0449624992907047
1781033552429554700,13.0835546875,-0.1172875016927719,1.0278124809265137,-0.0268124993890523
1781033552449062700,13.103062744140624,-0.0049499999731779,0.9596124887466432,-0.0147124994546175
1781033552468569300,13.1225693359375,0.1108250021934509,0.8765624761581421,0.0016499999910593
1781033552488080000,13.142079833984376,0.2165624946355819,0.7840250134468079,0.025162499397993
1781033552507592200,13.16159228515625,0.3141874969005584,0.6880499720573425,0.0444125011563301
1781033552527103500,13.181103515625,0.393387496471405,0.5961999893188477,0.0461999997496604
1781033552546615600,13.200615478515624,0.4239124953746795,0.515625,0.0313500016927719
1781033552566128600,13.220128662109374,0.3972375094890594,0.4467374980449676,0.0107249999418854
1781033552585643000,13.23964306640625,0.3672625124454498,0.3799124956130981,-0.0149875003844499
1781033552605156400,13.25915625,0.3971000015735626,0.3071750104427337,-0.0541750006377697
1781033552624668000,13.27866796875,0.3971000015735626,0.3071750104427337,-0.0541750006377697
1781033552644177400,13.298177490234377,0.5150749683380127,0.1874125003814697,-0.1505624949932098
1781033552663688700,13.317688720703124,0.4584249854087829,0.1743499934673309,-0.1743499934673309
1781033552683202300,13.337202392578124,0.4584249854087829,0.1743499934673309,-0.1743499934673309
1781033552702714400,13.35671435546875,0.3338499963283539,0.1880999952554702,-0.1779250055551529
1781033552722221000,13.376220947265624,0.1655499935150146,0.2191749960184097,-0.1621125042438507
1781033552741727200,13.395727294921874,0.1655499935150146,0.2191749960184097,-0.1621125042438507
1781033552761235700,13.415235595703123,0.1577125042676925,0.2183499932289123,-0.1467124968767166
1781033552780745000,13.434744873046874,0.1616999953985214,0.208587497472763,-0.1194875016808509
1781033552800259300,13.45425927734375,0.1742125004529953,0.1896124929189682,-0.0790624991059303
1781033552819769000,13.47376904296875,0.2164250016212463,0.1618375033140182,-0.0309375002980232
1781033552839274200,13.493274169921875,0.2941125035285949,0.1317249983549118,0.0204875003546476
1781033552858782700,13.51278271484375,0.3772999942302704,0.1108250021934509,0.077962502837181
1781033552878291000,13.532291015625,0.4303750097751617,0.1071124970912933,0.1476749926805496
1781033552897799200,13.551799072265624,0.4386250078678131,0.1194875016808509,0.2307250052690506
1781033552917307100,13.57130712890625,0.4113999903202057,0.1406625062227249,0.3143250048160553
1781033552936813600,13.5908134765625,0.3718000054359436,0.159912496805191,0.3759250044822693
1781033552956320500,13.610320556640623,0.3260124921798706,0.167337492108345,0.4013625085353851
1781033552975825000,13.629824951171877,0.2583625018596649,0.1563374996185302,0.3939374983310699
1781033552995328800,13.649328857421876,0.1641750037670135,0.1236125007271766,0.3653374910354614
1781033553014830300,13.668830322265626,0.0640750005841255,0.0703999996185302,0.3257375061511993
1781033553034336000,13.6883359375,-0.017875000834465,0.0048124999739229,0.2847625017166137
1781033553053846500,13.707846435546877,-0.0862125009298324,-0.0599500015377998,0.2569875121116638
1781033553073354000,13.72735400390625,-0.1592250019311905,-0.1132999956607818,0.2532750070095062
1781033553092861700,13.74686181640625,-0.2281125038862228,-0.1531749963760376,0.2679874897003174
1781033553112367900,13.766367919921874,-0.2605625092983246,-0.1838375031948089,0.285037487745285
1781033553131874600,13.78587451171875,-0.2331999987363815,-0.2079000025987625,0.2905375063419342
1781033553151384300,13.80538427734375,-0.158950001001358,-0.2231625020503997,0.282150000333786
1781033553170894600,13.82489453125,-0.0706750005483627,-0.22605000436306,0.2631750106811523
1781033553190402600,13.844402587890626,0.009349999949336,-0.2169750034809112,0.2358125001192093
1781033553209908200,13.863908203125,0.0632499977946281,-0.2001999914646148,0.2048749923706054
1781033553229412600,13.88341259765625,0.0787874981760978,-0.1809500008821487,0.1784749925136566
1781033553248916500,13.90291650390625,0.0558249987661838,-0.1616999953985214,0.1625249981880188
1781033553268420900,13.9224208984375,0.0053624999709427,-0.1413500010967254,0.158950001001358
1781033553287927800,13.941927734375,-0.0628374963998794,-0.1164624989032745,0.1680250018835067
1781033553307432000,13.961431884765624,-0.1468500047922134,-0.0837375000119209,0.1903000026941299
1781033553326935300,13.980935302734377,-0.2343000024557113,-0.0435874983668327,0.2209624946117401
1781033553346445000,14.000445068359374,-0.304562509059906,0.0002749999985098,0.2502500116825104
1781033553365948400,14.019948486328126,-0.3488374948501587,0.0448249988257885,0.2707374989986419
1781033553385450000,14.039449951171877,-0.3774375021457672,0.0901999995112419,0.2810499966144562
1781033553404955100,14.058955078125,-0.3774375021457672,0.0901999995112419,0.2810499966144562
1781033553424458000,14.0784580078125,-0.3986124992370605,0.14011250436306,0.2809124886989593
1781033553443956500,14.09795654296875,-0.4111250042915344,0.2051499933004379,0.2714250087738037
1781033553463458000,14.1174580078125,-0.4558124840259552,0.426250010728836,0.2663374841213226
1781033553482962700,14.136962646484376,-0.5149375200271606,0.5669124722480774,0.2937000095844269
1781033553502472200,14.15647216796875,-0.5875374674797058,0.6924499869346619,0.3375625014305115
1781033553521979400,14.1759794921875,-0.5875374674797058,0.6924499869346619,0.3375625014305115
1781033553541483000,14.19548291015625,-0.6447374820709229,0.7900750041007996,0.3823874890804291
1781033553560992000,14.214991943359376,-0.6627500057220459,0.8713374733924866,0.4145624935626983
1781033553580501800,14.234501708984377,-0.6337375044822693,0.951912522315979,0.4258374869823456
1781033553600005000,14.254005126953125,-0.5676000118255615,1.0276750326156616,0.4149749875068664
1781033553619506400,14.27350634765625,-0.48785001039505,1.0891374349594116,0.3899500072002411
1781033553639010600,14.293010498046876,-0.4134624898433685,1.13423752784729,0.3620375096797943
1781033553658517000,14.31251708984375,-0.3484250009059906,1.166137456893921,0.3355000019073486
1781033553678024400,14.3320244140625,-0.2909500002861023,1.187037467956543,0.3085500001907348
1781033553697532000,14.351531982421877,-0.245849996805191,1.1892374753952026,0.2820124924182892
1781033553717037000,14.371037109375,-0.2222000062465667,1.1626999378204346,0.2609750032424927
1781033553736538400,14.390538330078124,-0.2208250015974044,1.1070125102996826,0.2525874972343445
1781033553756040700,14.410040771484375,-0.2349874973297119,1.055037498474121,0.2668874859809875
1781033553775550700,14.42955078125,-0.256850004196167,1.0701625347137451,0.3092375099658966
1781033553795064600,14.449064697265625,-0.2693625092506408,1.16902494430542,0.3590124845504761
1781033553814573600,14.468573486328124,-0.2432374954223632,1.2438249588012695,0.3654749989509582
1781033553834081300,14.488081298828124,-0.160874992609024,1.0870749950408936,0.2844874858856201
1781033553853588000,14.507587890625,-0.0375375002622604,0.5590749979019165,0.1153625026345253
1781033553873095000,14.527094970703123,0.0977625027298927,-0.254925012588501,-0.1014750003814697
1781033553892601000,14.54660107421875,0.2197249978780746,-1.047337532043457,-0.2985124886035919
1781033553912106500,14.5661064453125,0.3232625126838684,-1.47427499294281,-0.3862375020980835
1781033553931612700,14.58561279296875,0.4295499920845032,-1.421062469482422,-0.307449996471405
1781033553951123200,14.605123291015625,0.5634750127792358,-1.0696125030517578,-0.0962499976158142
1781033553970632400,14.624632568359376,0.7189875245094299,-0.7558375000953674,0.110275000333786
1781033553990140200,14.64414013671875,0.8504375219345093,-0.7442874908447266,0.1493249982595443
1781033554009645800,14.663645751953124,0.9304624795913696,-1.0562750101089478,-0.0356125012040138
1781033554029148000,14.68314794921875,0.9579625129699708,-1.4632749557495115,-0.3495250046253204
1781033554048653800,14.70265380859375,0.9253749847412108,-1.6948249340057373,-0.6362124681472778
1781033554068165600,14.72216552734375,0.8166124820709229,-1.65948748588562,-0.8129000067710876
1781033554087677000,14.741677001953123,0.6406124830245972,-1.4317874908447266,-0.8857749700546265
1781033554107189200,14.761189208984376,0.4460499882698059,-1.1325875520706177,-0.8883875012397766
1781033554126700000,14.780699951171876,0.2884750068187713,-0.8454874753952026,-0.8450750112533569
1781033554146208000,14.8002080078125,0.2165624946355819,-0.6169624924659729,-0.767662525177002
1781033554165718000,14.819718017578126,0.2556124925613403,-0.4651624858379364,-0.6664624810218811
1781033554185230000,14.83922998046875,0.3797749876976013,-0.3770250082015991,-0.550962507724762
1781033554204740400,14.858740234375,0.3797749876976013,-0.3770250082015991,-0.550962507724762
1781033554224247800,14.878247802734377,0.5300624966621399,-0.3377000093460083,-0.4328500032424927
1781033554243753000,14.8977529296875,0.7841625213623047,-0.3972375094890594,-0.233474999666214
1781033554263260700,14.9172607421875,0.7841625213623047,-0.3972375094890594,-0.233474999666214
1781033554282775000,14.936775146484376,0.8877000212669373,-0.4666749835014343,-0.1528999954462051
1781033554302288000,14.956287841796875,0.8877000212669373,-0.4666749835014343,-0.1528999954462051
1781033554321795600,14.975795654296874,0.8942999839782715,-0.5299249887466431,0.0219999998807907
1781033554341301800,14.9953017578125,0.7793499827384949,-0.5277249813079834,0.1172875016927719
1781033554360813000,15.01481298828125,0.6402000188827515,-0.5464249849319458,0.1955250054597854
1781033554380323600,15.034323486328123,0.5031124949455261,-0.6204000115394592,0.2010249942541122
1781033554399827700,15.05382763671875,0.370012491941452,-0.7775624990463257,0.0723249986767768
1781033554419332900,15.073332763671877,0.2528625130653381,-1.0187374353408811,-0.1563374996185302
1781033554438841000,15.092841064453124,0.1611499935388565,-1.2854875326156616,-0.3969624936580658
1781033554458350800,15.112350830078125,0.0669625028967857,-1.4792250394821167,-0.5758500099182129
1781033554477857800,15.13185791015625,-0.0796125009655952,-1.5300999879837036,-0.6364874839782715
1781033554497361400,15.151361328125,-0.2854500114917755,-1.4405875205993652,-0.5852000117301941
1781033554516866800,15.17086669921875,-0.5066875219345093,-1.2721500396728516,-0.4626874923706054
1781033554536375800,15.190375732421876,-0.7081249952316284,-1.1005499362945557,-0.3089624941349029
1781033554555887400,15.209887451171875,-0.8772500157356262,-0.982574999332428,-0.1633500009775161
1781033554575398700,15.229398681640625,-0.997837483882904,-0.9428374767303468,-0.0558249987661838
1781033554594911000,15.248910888671874,-1.05421245098114,-0.9724000096321106,0.0041249999776482
1781033554614425300,15.26842529296875,-1.049399971961975,-1.0430749654769895,0.029424998909235
1781033554633938200,15.287938232421874,-0.9710249900817872,-1.1610499620437622,0.0433125011622905
1781033554653449700,15.30744970703125,-0.7605124711990356,-1.3917750120162964,0.0759000033140182
1781033554672957000,15.32695703125,-0.5340499877929688,-1.7982250452041626,0.1898874938488006
1781033554692463600,15.346463623046876,-0.0138875003904104,-2.349874973297119,0.4718999862670898
1781033554711975400,15.365975341796876,0.8934749960899353,-2.891624927520752,0.9833999872207642
1781033554731489300,15.3854892578125,1.746250033378601,-3.2410125732421875,1.697712540626526
1781033554751004000,15.40500390625,2.3519375324249268,-3.307149887084961,2.4836626052856445
1781033554770515500,15.424515380859376,2.608649969100952,-3.1215250492095947,3.1810624599456787
1781033554790026000,15.44402587890625,2.545399904251098,-2.782312393188477,3.648562431335449
1781033554809532700,15.46353271484375,2.280987501144409,-2.387962579727173,3.795000076293945
1781033554829040600,15.48304052734375,1.9464499950408936,-1.993749976158142,3.608412504196167
1781033554848547600,15.502547607421874,1.611775040626526,-1.6106749773025513,3.146275043487549
1781033554868053200,15.52205322265625,1.2754499912261963,-1.2318625450134275,2.4851748943328857
1781033554887558100,15.54155810546875,0.8974624872207642,-0.8592374920845032,1.6913875341415403
1781033554907066000,15.561066162109377,0.4538874924182892,-0.5163124799728394,0.8388875126838684
1781033554926576600,15.58057666015625,-0.0255750007927417,-0.2283875048160553,0.0367125011980533
1781033554946086100,15.600086181640624,-0.4464625120162964,-0.0048124999739229,-0.5904250144958496
1781033554965593600,15.619593505859376,-0.7089499831199646,0.1622499972581863,-0.9707499742507936
1781033554985096400,15.639096435546875,-0.8018999695777893,0.2782999873161316,-1.1250250339508057
1781033555004601300,15.658601318359375,-0.8018999695777893,0.2782999873161316,-1.1250250339508057
1781033555024109300,15.678109375,-0.8120750188827515,0.3651999831199646,-1.1402875185012815
1781033555043620600,15.69762060546875,-0.8321499824523926,0.3847250044345855,-1.121999979019165
1781033555063138600,15.717138671875,-0.8300874829292297,0.4217124879360199,-1.0797874927520752
1781033555082655000,15.736655029296877,-0.8300874829292297,0.4217124879360199,-1.0797874927520752
1781033555102167600,15.75616748046875,-0.8300874829292297,0.4217124879360199,-1.0797874927520752
1781033555121678800,15.775678955078124,-0.720912516117096,0.5354250073432922,-0.9539750218391418
1781033555141185800,15.795185791015625,-0.6755374670028687,0.611050009727478,-0.9435250163078308
1781033555160693000,15.81469287109375,-0.6590374708175659,0.6972625255584717,-0.9794124960899352
1781033555180205800,15.834205810546877,-0.6484500169754028,0.7749499678611755,-1.0305625200271606
1781033555199721700,15.8537216796875,-0.6166874766349792,0.8347625136375427,-1.0778625011444092
1781033555219235300,15.8732353515625,-0.5743374824523926,0.8839874863624573,-1.127637505531311
1781033555238750200,15.892750244140624,-0.56045001745224,0.9355499744415284,-1.1833250522613523
1781033555258268200,15.91226806640625,-0.5941374897956848,0.9961875081062316,-1.231587529182434
1781033555277783600,15.931783447265625,-0.6474875211715698,1.0619125366210938,-1.2560625076293943
1781033555297301500,15.951301513671876,-0.6628875136375427,1.1222749948501587,-1.2534500360488892
1781033555316822500,15.970822509765624,-0.6113250255584717,1.1701250076293943,-1.238187551498413
1781033555336341800,15.990341796875,-0.5233250260353088,1.2086249589920044,-1.2284250259399414
1781033555355858400,16.0098583984375,-0.4622749984264374,1.2475374937057495,-1.2309000492095947
1781033555375374300,16.029374267578124,-0.4658499956130981,1.2944250106811523,-1.2377749681472778
1781033555394893600,16.0488935546875,-0.5215374827384949,1.3479125499725342,-1.2387374639511108
1781033555414409200,16.0684091796875,-0.5931749939918518,1.4029124975204468,-1.2285624742507937
1781033555433923800,16.087923828125,-0.6506500244140625,1.4576375484466553,-1.203262448310852
1781033555453439200,16.107439208984374,-0.6752625107765198,1.5104374885559082,-1.157062530517578
1781033555472954400,16.126954345703126,-0.6686624884605408,1.558424949645996,-1.089687466621399
1781033555492471600,16.146471435546875,-0.656837522983551,1.6013250350952148,-1.012274980545044
1781033555511988000,16.165988037109376,-0.6659125089645386,1.641612529754639,-0.9374749660491944
1781033555531498800,16.185498779296875,-0.6917625069618225,1.6791499853134155,-0.8670749664306641
1781033555551009300,16.20500927734375,-0.7060624957084656,1.7033499479293823,-0.7900750041007996
1781033555570520600,16.2245205078125,-0.6767749786376953,1.694962501525879,-0.6902499794960022
1781033555590036500,16.244036376953126,-0.5878124833106995,1.6368000507354736,-0.5619624853134155
1781033555609553000,16.263552978515627,-0.4456374943256378,1.5272125005722046,-0.4181374907493591
1781033555629065700,16.283065673828126,-0.2780250012874603,1.383525013923645,-0.2835249900817871
1781033555648580600,16.30258056640625,-0.122649997472763,1.2319999933242798,-0.1775124967098236
1781033555668097000,16.322096923828123,0.0016499999910593,1.0913374423980713,-0.1043625026941299
1781033555687615200,16.341615234375,0.0991374999284744,0.967312514781952,-0.0563750006258487
1781033555707133400,16.361133544921874,0.1820500046014785,0.8589624762535095,-0.0214499998837709
1781033555726648000,16.38064794921875,0.2589125037193298,0.764912486076355,0.0094875004142522
1781033555746163000,16.400162841796874,0.3323374986648559,0.6837875247001648,0.0390499979257583
1781033555765680000,16.41968017578125,0.4079625010490417,0.6128374934196472,0.0618750005960464
1781033555785197600,16.439197509765624,0.4824874997138977,0.5516499876976013,0.0724624991416931
1781033555804712400,16.45871240234375,0.5322625041007996,0.5048999786376953,0.073012501001358
1781033555824224000,16.47822412109375,0.5322625041007996,0.5048999786376953,0.073012501001358
1781033555843736600,16.497736572265627,0.4567750096321106,0.4749250113964081,0.073974996805191
1781033555863250200,16.517250244140627,0.3455374836921692,0.482212483882904,0.0692999958992004
1781033555882756400,16.53675634765625,0.2358125001192093,0.4870249927043915,0.0529375001788139
1781033555902259200,16.55625927734375,0.2358125001192093,0.4870249927043915,0.0529375001788139
1781033555921767700,16.575767578125,0.1546874940395355,0.4772624969482422,0.0325874984264373
1781033555941275600,16.595275634765624,0.1123374998569488,0.4485250115394592,0.0285999998450279
1781033555960782300,16.6147822265625,0.1121999993920326,0.4016374945640564,0.0562375001609325
1781033555980290600,16.63429052734375,0.1520749926567077,0.3396250009536743,0.1127500012516975
1781033555999802400,16.65380224609375,0.2216500043869018,0.270187497138977,0.1827374994754791
1781033556019315200,16.673315185546876,0.291637510061264,0.2043250054121017,0.2529999911785126
1781033556038819300,16.6928193359375,0.3321999907493591,0.1504250019788742,0.3212000131607055
1781033556058323200,16.7123232421875,0.3378374874591827,0.111237496137619,0.3854124844074249
1781033556077835000,16.7318349609375,0.3267000019550323,0.0840125009417533,0.433537483215332
1781033556097345300,16.75134521484375,0.3181749880313873,0.0659999996423721,0.4553999900817871
1781033556116854000,16.77085400390625,0.3110249936580658,0.0571999996900558,0.454025000333786
1781033556136362200,16.7903623046875,0.3056625127792358,0.0554125010967254,0.4361499845981598
1781033556155871200,16.809871337890623,0.317900002002716,0.0552750006318092,0.403425008058548
1781033556175380700,16.829380615234374,0.3426499962806701,0.0527999997138977,0.3628624975681305
1781033556194890500,16.848890380859373,0.340862512588501,0.0470249988138675,0.3305499851703644
1781033556214397700,16.868397705078124,0.2847625017166137,0.0368499979376792,0.3177624940872192
1781033556233905400,16.887905517578126,0.1949750036001205,0.0196624994277954,0.3192749917507171
1781033556253414100,16.9074140625,0.1109625026583671,-0.0041249999776482,0.3240875005722046
1781033556272917000,16.9269169921875,0.0435874983668327,-0.0280499998480081,0.3287625014781952
1781033556292422000,16.946421875,-0.0166375003755092,-0.042212501168251,0.3331624865531921
1781033556311929600,16.9659296875,-0.0677874982357025,-0.0409750007092952,0.3313750028610229
1781033556331434500,16.9854345703125,-0.0974875018000602,-0.0255750007927417,0.3161124885082245
1781033556350940700,17.004940673828123,-0.1054624989628791,-0.0038499999791383,0.2902624905109405
1781033556370447000,17.024447021484374,-0.1043625026941299,0.0141624994575977,0.2646875083446502
1781033556389950000,17.043949951171875,-0.0984499976038932,0.0215875003486871,0.2455749958753585
1781033556409452000,17.0634521484375,-0.0818125009536743,0.015812499448657,0.2296250015497207
1781033556428958200,17.082958251953126,-0.0504624992609024,-0.0013749999925494,0.2114749997854232
1781033556448465700,17.102465576171873,-0.0034374999813735,-0.0281875003129243,0.1886499971151352
1781033556467972400,17.121972412109375,0.0642125010490417,-0.0609125010669231,0.1610125005245208
1781033556487481000,17.141481201171874,0.1456124931573867,-0.0932250022888183,0.1337874978780746
1781033556506995000,17.160994873046874,0.2054249942302703,-0.1170125007629394,0.1194875016808509
1781033556526508000,17.180508056640626,0.2023999989032745,-0.1241625025868415,0.1277374923229217
1781033556546024700,17.200024658203127,0.1311749964952469,-0.108762502670288,0.1531749963760376
1781033556565541000,17.219541015625,0.0259875003248453,-0.0690250024199485,0.1802625060081482
1781033556585053400,17.239053466796875,-0.0874499976634979,-0.0083875004202127,0.2025374919176101
1781033556604566000,17.25856591796875,-0.214087501168251,0.0664125010371208,0.2276999950408935
1781033556624080400,17.278080322265627,-0.3621749877929687,0.1523499935865402,0.2644124925136566
1781033556643595300,17.29759521484375,-0.3621749877929687,0.1523499935865402,0.2644124925136566
1781033556663111200,17.317111083984376,-0.5159000158309937,0.2542375028133392,0.3108874857425689
1781033556682630400,17.33663037109375,-0.6536750197410583,0.3847250044345855,0.3634124994277954
1781033556702147600,17.356147705078126,-0.6536750197410583,0.3847250044345855,0.3634124994277954
1781033556721656800,17.37565673828125,-0.8573125004768372,0.7386500239372253,0.4908750057220459
1781033556741166300,17.395166259765624,-0.90420001745224,0.9084625244140624,0.5495874881744385
1781033556760679000,17.414678955078124,-0.8988375067710876,1.0291874408721924,0.5831375122070312
1781033556780188400,17.4341884765625,-0.8386124968528748,1.094362497329712,0.5827249884605408
1781033556799696400,17.4536962890625,-0.7336999773979187,1.1273624897003174,0.5556374788284302
1781033556819208000,17.4732080078125,-0.6052749752998352,1.1549999713897705,0.519474983215332
1781033556838721300,17.49272119140625,-0.4798749983310699,1.190887451171875,0.4900499880313873
1781033556858228000,17.51222802734375,-0.3782624900341034,1.2386000156402588,0.4725874960422516
1781033556877731000,17.53173095703125,-0.3078624904155731,1.2930500507354736,0.4595249891281128
1781033556897235700,17.551235595703126,-0.2694999873638153,1.35794997215271,0.443987488746643
1781033556916740900,17.570740966796876,-0.2664749920368194,1.4664374589920044,0.4349125027656555
1781033556936238600,17.590238525390625,-0.2891624867916107,1.611912488937378,0.4379374980926513
1781033556955735000,17.609735107421876,-0.3132250010967254,1.6559125185012815,0.4159374833106994
1781033556975239400,17.629239501953126,-0.3235374987125397,1.4048374891281128,0.3052499890327453
1781033556994745600,17.64874560546875,-0.3217499852180481,0.7739874720573425,0.0691625028848648
1781033557014244000,17.668244140625,-0.3152875006198883,-0.1044999957084655,-0.2623499929904938
1781033557033747200,17.687747314453127,-0.3126749992370605,-0.8896250128746033,-0.5839625000953674
1781033557053254700,17.707254638671873,-0.297962486743927,-1.2684375047683716,-0.7749499678611755
1781033557072764400,17.726764404296876,-0.214087501168251,-1.2735249996185305,-0.7911750078201294
1781033557092276700,17.74627685546875,-0.025849999859929,-1.2225124835968018,-0.6936874985694885
1781033557111784700,17.76578466796875,0.2363625019788742,-1.3488750457763672,-0.5890499949455261
1781033557131293700,17.785293701171874,0.509987473487854,-1.61947500705719,-0.5468375086784363
1781033557150806000,17.804805908203125,0.742775022983551,-1.8760499954223635,-0.5729625225067139
1781033557170315800,17.824315673828124,0.8992499709129333,-2.011762380599976,-0.6353874802589417
1781033557189823500,17.843823486328127,0.9535624980926514,-1.981237530708313,-0.6946499943733215
1781033557209329700,17.86332958984375,0.9145125150680542,-1.7967125177383425,-0.7260000109672546
1781033557228830500,17.88283056640625,0.824037492275238,-1.5303750038146973,-0.7246249914169312
1781033557248334000,17.902333984375,0.734250009059906,-1.264449954032898,-0.6902499794960022
1781033557267841800,17.921841796875,0.6887375116348267,-1.0495375394821167,-0.6213625073432922
1781033557287350300,17.941350341796873,0.694237470626831,-0.8914124965667725,-0.523187518119812
1781033557306861600,17.960861572265625,0.7155500054359436,-0.7657374739646912,-0.4218499958515167
1781033557326370300,17.980370361328124,0.690387487411499,-0.6459749937057495,-0.3669874966144562
1781033557345878500,17.99987841796875,0.5677375197410583,-0.5112249851226807,-0.3972375094890594
1781033557365385700,18.0193857421875,0.3522749841213226,-0.3583250045776367,-0.5026999711990356
1781033557384890400,18.03889038085937,0.3522749841213226,-0.3583250045776367,-0.5026999711990356
1781033557404393500,18.0583935546875,-0.0910250023007392,-0.0746624991297721,-0.6902499794960022
1781033557423900700,18.077900634765623,-0.1839749962091446,0.0064624999649822,-0.6216375231742859
1781033557443408400,18.097408447265625,-0.1839749962091446,0.0064624999649822,-0.6216375231742859
1781033557462915300,18.116915283203124,-0.14011250436306,-0.0284624993801116,-0.1186624988913536
1781033557482421200,18.13642114257813,-0.14011250436306,-0.0284624993801116,-0.1186624988913536
1781033557501922600,18.155922607421875,-0.14011250436306,-0.0284624993801116,-0.1186624988913536
1781033557521425200,18.175425048828124,0.2609750032424927,-0.6237000226974487,0.4614500105381012
1781033557540927500,18.19492749023437,0.4849624931812286,-1.0870749950408936,0.5559124946594238
1781033557560432600,18.2144326171875,0.5830000042915344,-1.486649990081787,0.4692874848842621
1781033557579939000,18.23393896484375,0.5427125096321106,-1.727412462234497,0.2870999872684479
1781033557599444700,18.25344482421875,0.4070000052452087,-1.8126624822616575,0.1031249985098838
1781033557618954000,18.2729541015625,0.2176624983549118,-1.7983624935150146,-0.0497750006616115
1781033557638460000,18.2924599609375,0.0191124994307756,-1.73580002784729,-0.1632124930620193
1781033557657964500,18.31196459960937,-0.1541374921798706,-1.6579749584197998,-0.2208250015974044
1781033557677473300,18.331473388671878,-0.2942500114440918,-1.5907374620437622,-0.2139499932527542
1781033557696981000,18.35098095703125,-0.3966875076293945,-1.5522375106811523,-0.1427250057458877
1781033557716481500,18.3704814453125,-0.4313375055789947,-1.5540249347686768,-0.0159499999135732
1781033557735980500,18.38998046875,-0.3331624865531921,-1.6211249828338623,0.1564749926328659
1781033557755483400,18.4094833984375,-0.0225499998778104,-1.8042750358581543,0.3735874891281128
1781033557774989800,18.42898974609375,0.5396875143051147,-2.1341373920440674,0.6456999778747559
1781033557794496500,18.44849658203125,1.3235750198364258,-2.572624921798706,0.9868375062942504
1781033557814002400,18.46800244140625,2.2010998725891118,-3.008087396621704,1.3861374855041504
1781033557833510100,18.48751025390625,2.953087568283081,-3.295049905776977,1.7764999866485596
1781033557853018400,18.50701831054688,3.372600078582764,-3.338362455368042,2.08174991607666
1781033557872527000,18.52652709960937,3.3404250144958496,-3.121387481689453,2.2483999729156494
1781033557892034800,18.546034912109373,2.8943750858306885,-2.709162473678589,2.256925106048584
1781033557911543300,18.565543212890624,2.2433125972747803,-2.22543740272522,2.1518750190734863
1781033557931047200,18.585047119140626,1.6288249492645264,-1.788324952125549,2.017124891281128
1781033557950547700,18.604547607421875,1.1730124950408936,-1.4530999660491943,1.8837499618530276
1781033557970049800,18.6240498046875,0.8531875014305115,-1.1988625526428225,1.6863000392913818
1781033557989553000,18.643552978515626,0.5927624702453613,-0.95974999666214,1.3496999740600586
1781033558009061400,18.66306127929688,0.3519999980926513,-0.6766374707221985,0.866937518119812
1781033558028570000,18.68257006835937,0.1121999993920326,-0.3283500075340271,0.272662490606308
1781033558048074500,18.702074462890625,-0.1677500009536743,0.0639375001192092,-0.390500009059906
1781033558067583200,18.721583251953124,-0.5097125172615051,0.4449499845504761,-1.0353749990463257
1781033558087094500,18.741094482421875,-0.8727124929428101,0.7624375224113464,-1.5463249683380127
1781033558106601200,18.76060131835937,-1.1512874364852903,0.981474995613098,-1.857487440109253
1781033558126108400,18.7801083984375,-1.273937463760376,1.0969749689102173,-1.989074945449829
1781033558145621000,18.79962109375,-1.277512550354004,1.140974998474121,-2.0153374671936035
1781033558165134300,18.81913427734375,-1.2639000415802002,1.1643500328063965,-2.006124973297119
1781033558184647200,18.838647216796875,-1.2639000415802002,1.1643500328063965,-2.006124973297119
1781033558204156200,18.85815625,-1.4013999700546265,1.2953875064849854,-1.9588249921798704
1781033558223656000,18.87765600585937,-1.496000051498413,1.400712490081787,-1.919087529182434
1781033558243156500,18.897156494140624,-1.550037503242493,1.4980624914169312,-1.8673875331878664
1781033558262658000,18.916657958984374,-1.550037503242493,1.4980624914169312,-1.8673875331878664
1781033558282162000,18.93616186523437,-1.550037503242493,1.4980624914169312,-1.8673875331878664
1781033558301670000,18.955669921875,-1.5428874492645264,1.6259374618530271,-1.7173750400543213
1781033558321170200,18.975170166015623,-1.5530624389648438,1.6841000318527222,-1.6513749361038208
1781033558340671200,18.994671142578124,-1.56983745098114,1.741575002670288,-1.59431254863739
1781033558360179000,19.01417895507813,-1.5226750373840332,1.760550022125244,-1.5016374588012695
1781033558379693000,19.03369311523437,-1.3726625442504885,1.7193000316619873,-1.353274941444397
1781033558399206000,19.053205810546874,-1.1479874849319458,1.6266249418258667,-1.1752125024795532
1781033558418712800,19.072712890625,-0.9161624908447266,1.5115374326705933,-1.01419997215271
1781033558438222000,19.09222216796875,-0.7334250211715698,1.411025047302246,-0.903237521648407
1781033558457731600,19.111731689453126,-0.6150375008583069,1.3472249507904053,-0.8467249870300293
1781033558477239000,19.131239013671877,-0.5310249924659729,1.3139499425888062,-0.8292624950408936
1781033558496746500,19.15074658203125,-0.4446749985218048,1.285212516784668,-0.8273375034332275
1781033558516253700,19.17025366210937,-0.3474625051021576,1.2387374639511108,-0.8178499937057495
1781033558535761400,19.189761474609377,-0.2571249902248382,1.1730124950408936,-0.7834749817848206
1781033558555269400,19.20926928710937,-0.184249997138977,1.0973875522613523,-0.7132124900817871
1781033558574773200,19.228773193359373,-0.115225002169609,1.0154374837875366,-0.6103624701499939
1781033558594276000,19.248276123046875,-0.0328624993562698,0.9261999726295472,-0.4952749907970428
1781033558613776400,19.2677763671875,0.0609125010669231,0.8342124819755554,-0.3932499885559082
1781033558633275600,19.287275634765624,0.1512500047683715,0.754462480545044,-0.3152875006198883
1781033558652777500,19.306777587890625,0.2276999950408935,0.7039999961853027,-0.2503874897956848
1781033558672280000,19.326280029296875,0.2828375101089477,0.6917625069618225,-0.1788875013589859
1781033558691778800,19.34577880859375,0.3130874931812286,0.7090874910354614,-0.0901999995112419
1781033558711280400,19.3652802734375,0.3332999944686889,0.7309499979019165,0.0071499999612569
1781033558730786300,19.384786376953127,0.3673999905586242,0.7341125011444092,0.0923999994993209
1781033558750293500,19.40429345703125,0.414837509393692,0.7154124975204468,0.147537499666214
1781033558769797400,19.42379736328125,0.4434374868869781,0.6914874911308289,0.1681624948978424
1781033558789298200,19.443298095703124,0.4254249930381775,0.6778749823570251,0.1622499972581863
1781033558808798000,19.4627978515625,0.3656125068664551,0.6773250102996826,0.1463000029325485
1781033558828294400,19.48229443359375,0.3016749918460846,0.6803500056266785,0.1372250020503997
1781033558847792400,19.50179248046875,0.2715624868869781,0.6752625107765198,0.1442375034093856
1781033558867298300,19.52129833984375,0.2847625017166137,0.658762514591217,0.1636250019073486
1781033558886806300,19.54080615234375,0.3161124885082245,0.6363499760627747,0.1828749924898147
1781033558906311400,19.5603115234375,0.3257375061511993,0.6175125241279602,0.1935999989509582
1781033558925817300,19.5798173828125,0.3020874857902527,0.604449987411499,0.1941500008106231
1781033558945323000,19.59932299804688,0.2756874859333038,0.5879499912261963,0.1865874975919723
1781033558964827600,19.61882763671875,0.2756874859333038,0.5879499912261963,0.1865874975919723
1781033558984335600,19.638335693359377,0.3596999943256378,0.5011875033378601,0.165412500500679
1781033559003843800,19.65784375,0.4371125102043152,0.4377999901771545,0.1747625023126602
1781033559023349500,19.677349609375,0.4686000049114227,0.3830749988555908,0.2065249979496002
1781033559042857000,19.69685693359375,0.4686000049114227,0.3830749988555908,0.2065249979496002
1781033559062364200,19.7163642578125,0.4450874924659729,0.3467749953269958,0.2480500042438507
1781033559081869800,19.73586987304688,0.4008125066757202,0.3249124884605407,0.2825624942779541
1781033559101379000,19.755379150390624,0.364650011062622,0.3115749955177307,0.3081375062465668
1781033559120887600,19.774887451171875,0.332749992609024,0.3027749955654144,0.3321999907493591
1781033559140393500,19.7943935546875,0.296037495136261,0.2931500077247619,0.3562625050544739
1781033559159901000,19.81390087890625,0.255337506532669,0.28022500872612,0.3796375095844269
1781033559179403000,19.83340307617188,0.2118874937295913,0.2644124925136566,0.4017750024795532
1781033559198906000,19.85290600585937,0.1794375032186508,0.2425500005483627,0.4175874888896942
1781033559218415900,19.872415771484373,0.1797125041484832,0.2084500044584274,0.4174500107765198
1781033559237924900,19.8919248046875,0.2083124965429306,0.1618375033140182,0.3987500071525574
1781033559257431800,19.911431884765623,0.2290749996900558,0.1106875017285347,0.3722124993801117
1781033559276939300,19.930939208984373,0.2202749997377395,0.0625625029206276,0.3485625088214874
1781033559296448800,19.95044873046875,0.2025374919176101,0.0167750008404254,0.3284874856472015
1781033559315961600,19.96996166992188,0.2138125002384185,-0.0306624993681907,0.3096500039100647
1781033559335469800,19.9894697265625,0.2627624869346618,-0.0793375000357627,0.2957625091075897
1781033559354979000,20.00897900390625,0.3130874931812286,-0.1223749965429306,0.2975499927997589
1781033559374492200,20.0284921875,0.3220250010490417,-0.1535875052213668,0.3198249936103821
1781033559394001700,20.048001708984376,0.2849000096321106,-0.1731124967336654,0.3524124920368194
1781033559413510000,20.067510009765623,0.2263250052928924,-0.1846625059843063,0.3803249895572662
1781033559433021400,20.087021484375,0.1618375033140182,-0.1893374919891357,0.3971000015735626
1781033559452529700,20.10652978515625,0.0893749967217445,-0.184249997138977,0.404387503862381
1781033559472038100,20.1260380859375,0.0108624994754791,-0.1645874977111816,0.4025999903678894
1781033559491551200,20.14555126953125,-0.0570624992251396,-0.1280124932527542,0.3894000053405761
1781033559511055000,20.16505517578125,-0.103812500834465,-0.0756250023841857,0.3672625124454498
1781033559530559000,20.18455908203125,-0.134612500667572,-0.0133375003933906,0.3443000018596649
1781033559550069000,20.204069091796875,-0.1593624949455261,0.0488125011324882,0.3261500000953674
1781033559569571000,20.22357104492188,-0.1847999989986419,0.0999625027179718,0.3130874931812286
1781033559589073700,20.24307373046875,-0.2059749960899353,0.1307625025510788,0.3001624941825866
1781033559608585500,20.26258544921875,-0.2127124965190887,0.1363999992609024,0.2844874858856201
1781033559628094700,20.2820947265625,-0.1975875049829483,0.1183874979615211,0.267300009727478
1781033559647598800,20.301598876953125,-0.157987505197525,0.0852499976754188,0.2488749921321869
1781033559667108000,20.32110815429688,-0.1018875017762184,0.0501874983310699,0.2282499969005584
1781033559686617300,20.340617431640624,-0.0424874983727932,0.0240624994039535,0.2025374919176101
1781033559706125600,20.36012548828125,0.0063249999657273,0.0114124994724988,0.1707749962806701
1781033559725632800,20.3796328125,0.0295624993741512,0.0115499999374151,0.1390125006437301
1781033559745142800,20.399142822265624,0.0122375003993511,0.0225499998778104,0.118937499821186
1781033559764656400,20.418656494140624,0.0122375003993511,0.0225499998778104,0.118937499821186
1781033559784163600,20.43816357421875,-0.0501874983310699,0.0450999997556209,0.12168750166893
1781033559803666400,20.45766650390625,-0.1476749926805496,0.0878624990582466,0.1490499973297119
1781033559823168500,20.47716845703125,-0.3761999905109405,0.272112488746643,0.2370499968528747
1781033559842676000,20.496676025390624,-0.3761999905109405,0.272112488746643,0.2370499968528747
1781033559862183200,20.51618310546875,-0.3761999905109405,0.272112488746643,0.2370499968528747
1781033559881689600,20.535689697265624,-0.5226374864578247,0.512737512588501,0.2858625054359436
1781033559901198000,20.555197998046875,-0.5475249886512756,0.6338750123977661,0.2909500002861023
1781033559920705300,20.574705322265626,-0.5508249998092651,0.757349967956543,0.2912249863147735
1781033559940214000,20.594214111328125,-0.5333625078201294,0.8652874827384949,0.2870999872684479
1781033559959722500,20.61372241210937,-0.5044875144958496,0.9417374730110168,0.2827000021934509
1781033559979233300,20.6332333984375,-0.4859249889850616,0.9882124662399292,0.2910875082015991
1781033559998749400,20.65274951171875,-0.495137482881546,1.016812443733215,0.3224374949932098
1781033560018267600,20.672267578125,-0.5335000157356262,1.0582000017166138,0.3760625123977661
1781033560037781200,20.69178125,-0.5874000191688538,1.1488125324249268,0.4393124878406524
1781033560057296100,20.711296142578124,-0.6323624849319458,1.2974499464035034,0.4944500029087066
1781033560076812500,20.7308125,-0.6424000263214111,1.477025032043457,0.5257999897003174
1781033560096326700,20.75032666015625,-0.6028000116348267,1.6407874822616575,0.5255249738693237
1781033560115843300,20.76984326171875,-0.5310249924659729,1.772512435913086,0.4991250038146972
1781033560135360000,20.789360107421874,-0.4633750021457672,1.8844374418258667,0.4542999863624573
1781033560154871600,20.80887158203125,-0.4195125102996826,1.952775001525879,0.3837625086307525
1781033560174381300,20.82838134765625,-0.3852750062942505,1.8232499361038208,0.2615250051021576
1781033560193896400,20.847896484375,-0.3356375098228454,1.280674934387207,0.0699874982237815
1781033560213413400,20.86741333007813,-0.2612499892711639,0.2895750105381012,-0.1743499934673309
1781033560232927700,20.886927734375,-0.1640374958515167,-0.9218000173568726,-0.4342249929904938
1781033560252439800,20.906439697265625,-0.0411125011742115,-1.917162537574768,-0.6364874839782715
1781033560271952100,20.9259521484375,0.1128875017166137,-2.269574880599976,-0.6656374931335449
1781033560291463700,20.94546362304688,0.2952125072479248,-1.881549954414368,-0.4526500105857849
1781033560310975500,20.9649755859375,0.4999499917030334,-1.0929875373840332,-0.075762502849102
1781033560330490400,20.984490478515625,0.6863999962806702,-0.4137375056743622,0.2613874971866607
1781033560350006800,21.0040068359375,0.765874981880188,-0.1278750002384185,0.3768875002861023
1781033560369524500,21.0235244140625,0.6741625070571899,-0.2411749958992004,0.2098249942064285
1781033560389041700,21.043041748046875,0.4492124915122986,-0.6334624886512756,-0.173799991607666
1781033560408558300,21.062558349609372,0.2231625020503997,-1.127912521362305,-0.6186124682426453
1781033560428073200,21.0820732421875,0.0904750004410743,-1.5349124670028689,-0.9754250049591064
1781033560447588400,21.10158837890625,0.0529375001788139,-1.718887448310852,-1.1588499546051023
1781033560467106800,21.12110693359375,0.0900624990463256,-1.6468374729156494,-1.1346499919891355
1781033560486624300,21.14062426757813,0.2050125002861023,-1.3763749599456787,-0.9204249978065492
1781033560506144500,21.16014453125,0.3968249857425689,-1.01419997215271,-0.5944125056266785
1781033560525662500,21.179662353515624,0.6188874840736389,-0.6632999777793884,-0.2730749845504761
1781033560545179000,21.199178955078125,0.7864999771118164,-0.4003999829292297,-0.063799999654293
1781033560564695300,21.2186953125,0.7864999771118164,-0.4003999829292297,-0.063799999654293
1781033560584212200,21.23821215820313,0.8274750113487244,-0.2729375064373016,-0.0241999998688697
1781033560603730000,21.25772998046875,0.7345250248908997,-0.295487493276596,-0.1498750001192093
1781033560623245000,21.2772451171875,0.4259749948978424,-0.6271374821662903,-0.5923500061035156
1781033560642758400,21.29675830078125,0.4259749948978424,-0.6271374821662903,-0.5923500061035156
1781033560662276000,21.31627612304688,0.4259749948978424,-0.6271374821662903,-0.5923500061035156
1781033560681795600,21.335795654296877,0.3033249974250793,-0.8787624835968018,-0.706475019454956
1781033560701313800,21.355313720703126,0.3779875040054321,-0.8722999691963196,-0.4813874959945678
1781033560720832000,21.37483203125,0.534600019454956,-0.7884249687194824,-0.0620125010609626
1781033560740349000,21.394348876953124,0.7177500128746033,-0.6586250066757202,0.4835875034332275
1781033560759863000,21.413863037109376,0.8648750185966492,-0.5308874845504761,1.043487548828125
1781033560779371800,21.433371826171875,0.9513624906539916,-0.4526500105857849,1.5151125192642212
1781033560798881800,21.4528818359375,0.938437521457672,-0.4598000049591064,1.7931374311447144
1781033560818391600,21.4723916015625,0.7895249724388123,-0.5619624853134155,1.8033125400543213
1781033560837900300,21.491900390625,0.5505499839782715,-0.7407125234603882,1.572450041770935
1781033560857411000,21.5114111328125,0.3326124846935272,-0.9780374765396118,1.1998250484466553
1781033560876922600,21.530922607421875,0.2359499931335449,-1.2508374452590942,0.8043749928474426
1781033560896439800,21.550439697265624,0.2540999948978424,-1.5057624578475952,0.4657124876976013
1781033560915959000,21.569958984375,0.2989250123500824,-1.6798374652862549,0.2180749922990799
1781033560935470800,21.589470947265625,0.3019500076770782,-1.749687433242798,0.0618750005960464
1781033560954982100,21.608982177734376,0.2899875044822693,-1.7657749652862549,-0.0317624993622303
1781033560974495200,21.6284951171875,0.3766124844551086,-1.817199945449829,-0.0948750004172325
1781033560994007800,21.6480078125,0.6451500058174133,-1.948512434959412,-0.1399749964475631
1781033561013517600,21.667517578125,0.9824374914169312,-2.1225874423980717,-0.1595000028610229
1781033561033026000,21.687026123046877,1.352312445640564,-2.257200002670288,-0.142037495970726
1781033561052534300,21.7065341796875,1.6905624866485596,-2.294600009918213,-0.080437496304512
1781033561072044300,21.726044189453123,1.8484125137329104,-2.2310750484466557,0.0499125011265277
1781033561091556000,21.74555615234375,1.857900023460388,-2.0952250957489014,0.3016749918460846
1781033561111067400,21.7650673828125,1.788324952125549,-1.934762477874756,0.7273749709129333
1781033561130583600,21.78458349609375,1.729475021362305,-1.802899956703186,1.3326499462127686
1781033561150098400,21.804098388671875,1.7151750326156616,-1.721225023269653,2.0278499126434326
1781033561169608700,21.82360864257813,1.6993625164031982,-1.6627874374389648,2.624599933624268
1781033561189122600,21.84312255859375,1.5978875160217283,-1.5665374994277954,2.881037473678589
1781033561208637200,21.86263720703125,1.349287509918213,-1.375137448310852,2.64261245727539
1781033561228151600,21.882151611328126,0.9527375102043152,-1.0781375169754028,1.957450032234192
1781033561247664600,21.90166455078125,0.4553999900817871,-0.7213249802589417,1.0334500074386597
1781033561267177500,21.92117749023437,-0.0547249987721443,-0.3745499849319458,0.107524998486042
1781033561286687500,21.9406875,-0.5094375014305115,-0.0798875018954277,-0.6819999814033508
1781033561306199800,21.96019970703125,-0.8898999691009521,0.1568875014781952,-1.288100004196167
1781033561325715500,21.979715576171877,-1.1798875331878662,0.3390749990940094,-1.6915249824523926
1781033561345224400,21.999224365234376,-1.3659249544143677,0.4706625044345855,-1.900662541389465
1781033561364733700,22.018733642578123,-1.3659249544143677,0.4706625044345855,-1.900662541389465
1781033561384247000,22.0382470703125,-1.4689124822616575,0.6238374710083008,-1.9340749979019165
1781033561403757800,22.0577578125,-1.4612125158309937,0.676087498664856,-1.8939249515533447
1781033561423264300,22.07726416015625,-1.44760000705719,0.7236624956130981,-1.8603750467300413
1781033561442772200,22.096772216796875,-1.44760000705719,0.7236624956130981,-1.8603750467300413
1781033561462281700,22.11628173828125,-1.44760000705719,0.7236624956130981,-1.8603750467300413
1781033561481786400,22.135786376953124,-1.3480499982833862,0.7981874942779541,-1.7509249448776243
1781033561501293000,22.15529296875,-1.2941499948501587,0.8428750038146973,-1.6671874523162842
1781033561520796200,22.174796142578124,-1.255924940109253,0.8991125226020813,-1.5712125301361084
1781033561540298200,22.19429833984375,-1.200237512588501,0.9457250237464904,-1.456262469291687
1781033561559805000,22.213804931640624,-1.1119624376296997,0.9648374915122986,-1.3336124420166016
1781033561579307800,22.233307861328125,-1.013100028038025,0.9560375213623048,-1.218250036239624
1781033561598808000,22.25280810546875,-0.9253749847412108,0.93087500333786,-1.110587477684021
1781033561618312200,22.272312255859376,-0.8468624949455261,0.9003499746322632,-1.0020999908447266
1781033561637818400,22.291818359375,-0.7761874794960022,0.8690000176429749,-0.8926500082015991
1781033561657322800,22.31132275390625,-0.7154124975204468,0.8351749777793884,-0.7959874868392944
1781033561676827000,22.330826904296877,-0.6550499796867371,0.7972249984741211,-0.7246249914169312
1781033561696335000,22.350335205078125,-0.5780500173568726,0.7587249875068665,-0.676087498664856
1781033561715845000,22.36984521484375,-0.4875749945640564,0.7290250062942505,-0.6386874914169312
1781033561735353600,22.389353515625,-0.4097499847412109,0.7173374891281128,-0.6045874953269958
1781033561754861000,22.408861083984377,-0.3606624901294708,0.7262749671936035,-0.5688375234603882
1781033561793875500,22.44787548828125,-0.2308624982833862,0.7567999958992004,-0.4475624859333038
1781033561813377300,22.467377197265623,-0.0789249986410141,0.7433249950408936,-0.3460874855518341
1781033561832878800,22.48687890625,0.1071124970912933,0.7062000036239624,-0.2414499968290329
1781033561852388900,22.506388916015624,0.2722499966621399,0.6635749936103821,-0.1684374958276748
1781033561871900700,22.525900634765627,0.3672625124454498,0.64267498254776,-0.1463000029325485
1781033561891410700,22.54541064453125,0.3654749989509582,0.6634374856948853,-0.1677500009536743
1781033561910923000,22.56492309570313,0.2670249938964844,0.7254499793052673,-0.213125005364418
1781033561930435600,22.584435546875,0.106562502682209,0.8062999844551086,-0.2688125073909759
1781033561949948700,22.60394873046875,-0.0658624991774559,0.8775249719619751,-0.3293125033378601
1781033561969458200,22.623458251953124,-0.2161500006914138,0.9231749773025512,-0.3860999941825866
1781033561988966000,22.6429658203125,-0.322299987077713,0.9410499930381776,-0.4218499958515167
1781033562008473600,22.6624736328125,-0.3609375059604645,0.9315624833106996,-0.4221250116825104
1781033562027981800,22.68198193359375,-0.3224374949932098,0.8959500193595886,-0.3870624899864197
1781033562047490000,22.70148999023437,-0.2238499969244003,0.8398500084877014,-0.3312374949455261
1781033562066995500,22.720995361328125,-0.0958374962210655,0.772475004196167,-0.272662490606308
1781033562086503700,22.740503662109376,0.0309375002980232,0.7022125124931335,-0.221512496471405
1781033562106017000,22.76001708984375,0.1303499937057495,0.6355249881744385,-0.1769624948501587
1781033562125530400,22.7795302734375,0.189750000834465,0.5750250220298767,-0.1337874978780746
1781033562145044500,22.79904443359375,0.2395250052213668,0.5145249962806702,-0.0965249985456466
1781033562164556500,22.818556640625,0.2395250052213668,0.5145249962806702,-0.0965249985456466
1781033562184067600,22.838067626953126,0.450587511062622,0.3763374984264374,-0.075762502849102
1781033562203579400,22.85757934570313,0.5398250222206116,0.3261500000953674,-0.0756250023841857
1781033562223091500,22.87709155273437,0.5495874881744385,0.3052499890327453,-0.0628374963998794
1781033562242603800,22.896603759765625,0.5495874881744385,0.3052499890327453,-0.0628374963998794
1781033562262115000,22.916114990234377,0.4998124837875366,0.3051125109195709,-0.0413874983787536
1781033562281624600,22.93562451171875,0.4395875036716461,0.3102000057697296,-0.0219999998807907
1781033562301133000,22.955133056640623,0.3975124955177307,0.3128125071525574,-0.0063249999657273
1781033562320640800,22.974640869140625,0.3865124881267547,0.3119874894618988,0.0111375004053115
1781033562340151000,22.99415112304688,0.4113999903202057,0.3086875081062317,0.0296999998390674
1781033562359658200,23.013658203125,0.4640625119209289,0.3067624866962433,0.0416624993085861
1781033562379165400,23.03316552734375,0.5097125172615051,0.3096500039100647,0.0444125011563301
1781033562398678500,23.052678466796877,0.5054500102996826,0.3180375099182129,0.0474375002086162
1781033562418191400,23.07219140625,0.4428874850273132,0.3284874856472015,0.0642125010490417
1781033562437704000,23.09170385742188,0.3605250120162964,0.3332999944686889,0.0961124971508979
1781033562457212000,23.1112119140625,0.3048374950885772,0.3249124884605407,0.1328250020742416
1781033562476717600,23.130717529296877,0.2835249900817871,0.3025000095367431,0.1669249981641769
1781033562496231700,23.150231689453125,0.2645500004291534,0.2712875008583069,0.2023999989032745
1781033562515748000,23.169748046875,0.2177999913692474,0.2378749996423721,0.2481874972581863
1781033562535256800,23.1892568359375,0.1461624950170517,0.2044624984264373,0.305525004863739
1781033562554767000,23.20876708984375,0.0764499977231025,0.1691250056028366,0.3638249933719635
1781033562574278700,23.228278564453124,0.0320375002920627,0.1289750039577484,0.4093374907970428
1781033562593785300,23.247785400390622,0.0160875003784894,0.0849749967455864,0.4353249967098236
1781033562613292800,23.267292724609376,0.0180124994367361,0.0420750007033348,0.443987488746643
1781033562632807000,23.286806884765625,0.0257124993950128,0.0054999999701976,0.4408249855041504
1781033562652320300,23.3063203125,0.0285999998450279,-0.0214499998837709,0.4305124878883362
1781033562671830500,23.32583056640625,0.0214499998837709,-0.0390499979257583,0.4145624935626983
1781033562691339500,23.34533959960937,0.0028874999843537,-0.0494999997317791,0.3946250081062317
1781033562710849300,23.36484936523437,-0.0226875003427267,-0.0554125010967254,0.3741374909877777
1781033562730359000,23.384359130859377,-0.0413874983787536,-0.0600874982774257,0.3554374873638153
1781033562749868300,23.403868408203124,-0.0416624993085861,-0.0655874982476234,0.3401750028133392
1781033562769377300,23.423377197265623,-0.0240624994039535,-0.0724624991416931,0.329862505197525
1781033562788888800,23.442888916015622,0.0020624999888241,-0.0796125009655952,0.3240875005722046
1781033562808400100,23.462400146484374,0.0295624993741512,-0.0849749967455864,0.3191374838352203
1781033562827910700,23.48191064453125,0.0571999996900558,-0.0871749967336654,0.3097875118255615
1781033562847420000,23.501419921875,0.0826374962925911,-0.0870374962687492,0.2930124998092651
1781033562866932700,23.5209326171875,0.1032624989748001,-0.0859375,0.269225001335144
1781033562886446300,23.5404462890625,0.1200374960899353,-0.084425002336502,0.2404875010251999
1781033562905954800,23.55995483398437,0.1326874941587448,-0.0803000032901763,0.2098249942064285
1781033562925460700,23.579460693359376,0.1303499937057495,-0.0683375000953674,0.183287501335144
1781033562944966100,23.598966064453126,0.0965249985456466,-0.0406999997794628,0.1662375032901764
1781033562964475100,23.61847509765625,0.0965249985456466,-0.0406999997794628,0.1662375032901764
1781033562983988500,23.637988525390625,-0.0785124972462654,0.0807124972343444,0.1625249981880188
1781033563003506400,23.65750634765625,-0.0785124972462654,0.0807124972343444,0.1625249981880188
1781033563023019800,23.677019775390622,-0.3077250123023987,0.270187497138977,0.1875499933958053
1781033563042525400,23.696525390625,-0.4047999978065491,0.3573625087738037,0.2116124927997589
1781033563062030300,23.7160302734375,-0.4047999978065491,0.3573625087738037,0.2116124927997589
1781033563081539600,23.73553955078125,-0.4746499955654144,0.4223999977111816,0.23938749730587
1781033563101047600,23.75504760742188,-0.5208500027656555,0.4691500067710876,0.2675749957561493
1781033563120555300,23.77455517578125,-0.5581125020980835,0.5088874697685242,0.2952125072479248
1781033563140065300,23.794065185546877,-0.5953750014305115,0.5455999970436096,0.319412499666214
1781033563159575600,23.813575439453125,-0.6327750086784363,0.5784624814987183,0.3348124921321869
1781033563179084300,23.833084228515624,-0.6632999777793884,0.6052749752998352,0.3361875116825104
1781033563198589400,23.85258935546875,-0.6895624995231628,0.6320874691009521,0.3271124958992004
1781033563218097400,23.872097412109376,-0.7260000109672546,0.6716874837875366,0.319412499666214
1781033563237608000,23.89160791015625,-0.7775624990463257,0.7339749932289124,0.3218874931335449
1781033563257118700,23.91111865234375,-0.8294000029563904,0.8229374885559082,0.3338499963283539
1781033563276630800,23.930630859375,-0.8596500158309937,0.9361000061035156,0.3497999906539917
1781033563296140000,23.95014013671875,-0.8684499859809875,1.0771750211715698,0.3731749951839447
1781033563315648800,23.969648681640624,-0.8795874714851379,1.265412449836731,0.4219875037670135
1781033563335156200,23.98915625,-0.9079124927520752,1.520337462425232,0.5110874772071838
1781033563354663000,24.008662841796877,-0.9345874786376952,1.8463499546051023,0.6333249807357788
1781033563374167600,24.02816748046875,-0.9227625131607056,2.218975067138672,0.7602375149726868
1781033563393674800,24.0476748046875,-0.8516749739646912,2.5739998817443848,0.8581374883651733
1781033563413179600,24.0671796875,-0.7320500016212463,2.798262596130371,0.9009000062942504
1781033563432683000,24.08668310546875,-0.5856124758720398,2.6976125240325928,0.8648750185966492
1781033563452189000,24.10618896484375,-0.4173125028610229,2.067312479019165,0.7260000109672546
1781033563471693300,24.125693359375,-0.2079000025987625,0.8690000176429749,0.4683249890804291
1781033563491198700,24.14519873046875,0.0684750005602836,-0.6261749863624573,0.1159124970436096
1781033563510705200,24.164705078125,0.3823874890804291,-1.8847124576568604,-0.2308624982833862
1781033563530211800,24.1842119140625,0.6274124979972839,-2.4747250080108643,-0.4476999938488006
1781033563549717000,24.203717041015626,0.7211874723434448,-2.382187604904175,-0.4911499917507171
1781033563569225000,24.223224853515624,0.691349983215332,-1.9112499952316284,-0.4113999903202057
1781033563588731400,24.2427314453125,0.6275500059127808,-1.3916374444961548,-0.2861374914646148
1781033563608236800,24.26223681640625,0.6059625148773193,-1.0154374837875366,-0.1790249943733215
1781033563627744000,24.28174389648437,0.6716874837875366,-0.8601999878883362,-0.1430000066757202
1781033563647251000,24.3012509765625,0.8039624691009521,-0.923312485218048,-0.2157374918460846
1781033563666759000,24.320759033203124,0.9145125150680542,-1.124750018119812,-0.3971000015735626
1781033563686267000,24.340266845703123,0.93087500333786,-1.3381500244140625,-0.6319500207901001
1781033563705775400,24.359775390625,0.8519499897956848,-1.461074948310852,-0.8364124894142151
1781033563725285400,24.379285400390625,0.7334250211715698,-1.4653375148773191,-0.9458624720573424
1781033563744791300,24.398791259765623,0.7334250211715698,-1.4653375148773191,-0.9458624720573424
1781033563764293000,24.418293212890624,0.5691124796867371,-1.211650013923645,-0.8599249720573425
1781033563783795000,24.437794921875,0.5670499801635742,-1.0221749544143677,-0.72861248254776
1781033563803296000,24.4572958984375,0.5981249809265137,-0.8414999842643738,-0.5900124907493591
1781033563822798600,24.476798583984376,0.6289250254631042,-0.6978124976158142,-0.4687374830245971
1781033563842301400,24.496301513671877,0.6289250254631042,-0.6978124976158142,-0.4687374830245971
1781033563861804300,24.51580419921875,0.6067875027656555,-0.5077875256538391,-0.2913624942302704
1781033563881307100,24.53530712890625,0.6067875027656555,-0.5077875256538391,-0.2913624942302704
1781033563900808700,24.55480859375,0.5400999784469604,-0.4274874925613403,-0.2162874937057495
1781033563920308200,24.57430810546875,0.4478375017642975,-0.3587374985218048,-0.1423124969005584
1781033563939805400,24.593805419921875,0.3683624863624573,-0.3313750028610229,-0.0769999995827674
1781033563959311000,24.61331103515625,0.3363249897956848,-0.3745499849319458,-0.0312124993652105
1781033563978825200,24.6328251953125,0.3642374873161316,-0.5010499954223633,-0.0083875004202127
1781033563998339300,24.65233935546875,0.4350500106811523,-0.6877750158309937,-0.0010999999940395
1781033564017850600,24.6718505859375,0.5164499878883362,-0.88714998960495,-0.0030249999836087
1781033564037356800,24.691356689453126,0.5699374675750732,-1.0591624975204468,-0.0202124994248151
1781033564056865000,24.710864990234374,0.5207124948501587,-1.1800249814987185,-0.0808499976992607
1781033564076373200,24.730373291015624,0.3062124848365783,-1.2403874397277832,-0.2124374955892563
1781033564095876000,24.7498759765625,-0.0371249988675117,-1.2478125095367432,-0.3988874852657318
1781033564115379700,24.769379638671875,-0.3723500072956085,-1.243000030517578,-0.5874000191688538
1781033564134888700,24.788888671875,-0.5663625001907349,-1.279712438583374,-0.7222874760627747
1781033564154394000,24.80839404296875,-0.5926250219345093,-1.3707374334335327,-0.7521250247955322
1781033564173894100,24.82789404296875,-0.5059999823570251,-1.485687494277954,-0.6373124718666077
1781033564193395500,24.8473955078125,-0.359562486410141,-1.6044875383377075,-0.3951750099658966
1781033564212896300,24.86689624023437,-0.1615625023841858,-1.7517499923706057,-0.1023000031709671
1781033564232397300,24.88639721679688,0.1275999993085861,-1.97284996509552,0.1695374995470047
1781033564251901000,24.90590087890625,0.5654000043869019,-2.293775081634521,0.4138749837875366
1781033564271405000,24.92540502929688,1.172600030899048,-2.696512460708618,0.6672874689102173
1781033564290908200,24.944908203125,1.446499943733215,-3.1189124584198,0.8358625173568726
1781033564310408400,24.964408447265622,1.8130749464035036,-3.460599899291992,1.0656249523162842
1781033564329916200,24.983916259765625,2.542649984359741,-3.637700080871582,1.4326125383377075
1781033564349431000,25.00343115234375,2.966150045394897,-3.629312515258789,1.778149962425232
1781033564368937700,25.022937744140624,3.0492000579833984,-3.453312397003174,2.144587516784668
1781033564388442000,25.042442138671877,2.73075008392334,-3.1202874183654785,2.484487533569336
1781033564407947000,25.06194702148437,2.029774904251098,-2.635462522506714,2.651550054550171
1781033564427448600,25.081448486328124,1.1325875520706177,-2.037062406539917,2.5155625343322754
1781033564446952000,25.100951904296878,0.2963125109672546,-1.3991999626159668,2.041325092315674
1781033564466458400,25.120458251953124,-0.2978250086307525,-0.8046500086784363,1.314774990081787
1781033564485964800,25.13996484375,-0.6137999892234802,-0.3144625127315521,0.4988499879837036
1781033564505469200,25.15946923828125,-0.7316374778747559,0.0488125011324882,-0.2385624945163726
1781033564524975000,25.17897509765625,-0.7316374778747559,0.0488125011324882,-0.2385624945163726
1781033564544480000,25.19847998046875,-0.7635374665260315,0.3042874932289123,-0.8082249760627747
1781033564563984400,25.217984375,-0.8335250020027161,0.634149968624115,-1.4803249835968018
1781033564583493600,25.23749365234375,-0.9117624759674072,0.7475875020027161,-1.6363874673843384
1781033564603003400,25.25700341796875,-0.9117624759674072,0.7475875020027161,-1.6363874673843384
1781033564622508500,25.276508544921874,-1.0940874814987185,0.8838499784469604,-1.7237000465393066
1781033564642013700,25.296013671875,-1.0940874814987185,0.8838499784469604,-1.7237000465393066
1781033564661515800,25.315515869140626,-1.1648999452590942,0.9299125075340272,-1.7047250270843506
1781033564681019000,25.335018798828123,-1.2046375274658203,0.9747374653816224,-1.664162516593933
1781033564700529700,25.35452978515625,-1.2141250371932983,1.0210750102996826,-1.6169999837875366
1781033564720036900,25.374036865234373,-1.205875039100647,1.068237543106079,-1.5701124668121338
1781033564739547000,25.393546875,-1.1977624893188477,1.119249939918518,-1.527074933052063
1781033564759058000,25.413057861328124,-1.18236243724823,1.1665500402450562,-1.4756499528884888
1781033564778563600,25.4325634765625,-1.134374976158142,1.1957000494003296,-1.3990625143051147
1781033564798073000,25.45207299804688,-1.043624997138977,1.2027125358581543,-1.2941499948501587
1781033564817585200,25.471585205078124,-0.9238625168800354,1.1895124912261963,-1.1676499843597412
1781033564837097500,25.491097412109376,-0.8089125156402588,1.1618750095367432,-1.0392249822616575
1781033564856610800,25.51061083984375,-0.7302625179290771,1.1273624897003174,-0.9294999837875366
1781033564876125200,25.530125244140624,-0.6947875022888184,1.0968375205993652,-0.8443874716758728
1781033564895637000,25.549636962890624,-0.6690750122070312,1.0759375095367432,-0.7702749967575073
1781033564915146000,25.56914599609375,-0.607337474822998,1.0602624416351318,-0.6910749673843384
1781033564934658600,25.588658447265622,-0.5043500065803528,1.0415624380111694,-0.6062374711036682
1781033564954168800,25.6081689453125,-0.3940750062465668,1.0144749879837036,-0.522362470626831
1781033564973677000,25.627677001953124,-0.3040125072002411,0.9780374765396118,-0.4386250078678131
1781033564993192700,25.647192626953125,-0.2134000062942505,0.9285374879837036,-0.3471874892711639
1781033565012705800,25.66670581054688,-0.0907500013709068,0.8623999953269958,-0.2516250014305115
1781033565032213200,25.686213134765627,0.0371249988675117,0.7893875241279602,-0.1731124967336654
1781033565051715300,25.70571533203125,0.0979000031948089,0.731499969959259,-0.1324124932289123
1781033565071219000,25.725218994140626,0.0497750006616115,0.7078499794006348,-0.1297999918460846
1781033565090725600,25.7447255859375,-0.0621500015258789,0.718162477016449,-0.1451999992132187
1781033565110231800,25.764231689453126,-0.146025002002716,0.7462124824523926,-0.1564749926328659
1781033565129740500,25.783740478515625,-0.1581249982118606,0.780037522315979,-0.1551000028848648
1781033565149249000,25.8032490234375,-0.1264999955892563,0.8194999694824219,-0.1434125006198883
1781033565168757500,25.82275756835937,-0.0966624990105629,0.8648750185966492,-0.1231999993324279
1781033565188266500,25.8422666015625,-0.0809874981641769,0.9044749736785888,-0.0947374999523162
1781033565207769900,25.861769775390623,-0.0635249987244606,0.9189124703407288,-0.0646250024437904
1781033565227270100,25.88127026367188,-0.0413874983787536,0.8982874751091003,-0.0450999997556209
1781033565246774500,25.9007744140625,-0.0303875003010034,0.8505749702453613,-0.0433125011622905
1781033565266278100,25.92027807617188,-0.0461999997496604,0.7937874794006348,-0.0548624992370605
1781033565285786400,25.939786376953126,-0.0884125009179115,0.7418124675750732,-0.0666875019669532
1781033565305298700,25.95929858398437,-0.1238875016570091,0.6939625144004822,-0.0692999958992004
1781033565324806100,25.97880615234375,-0.1238875016570091,0.6939625144004822,-0.0692999958992004
1781033565344318500,25.998318359375,-0.1094499975442886,0.6421250104904175,-0.0606375001370906
1781033565363828000,26.01782788085937,0.0611874982714653,0.5467000007629395,-0.0104499999433755
1781033565383334400,26.03733447265625,0.0611874982714653,0.5467000007629395,-0.0104499999433755
1781033565402841900,26.056841796875,0.2186249941587448,0.5035250186920166,0.0477125011384487
1781033565422347000,26.07634692382813,0.2496999949216842,0.4837250113487243,0.0549999997019767
1781033565441854500,26.0958544921875,0.2496999949216842,0.4837250113487243,0.0549999997019767
1781033565461362700,26.11536279296875,0.2315499931573867,0.4647499918937683,0.0512874983251094
1781033565480868600,26.13486865234375,0.1769624948501587,0.454987496137619,0.0475750006735324
1781033565500375000,26.154375,0.1296624988317489,0.4553999900817871,0.0478499978780746
1781033565519879700,26.173879638671878,0.128150001168251,0.454987496137619,0.0479874983429908
1781033565539384800,26.193384765625,0.1751749962568283,0.442062497138977,0.0460624992847442
1781033565558891500,26.2128916015625,0.2446125000715255,0.4116750061511993,0.0507375001907348
1781033565578396700,26.232396728515624,0.3118500113487243,0.3675374984741211,0.0731500014662742
1781033565597902800,26.25190283203125,0.3684999942779541,0.3154250085353851,0.1183874979615211
1781033565617408500,26.271408447265625,0.4098874926567077,0.2620750069618225,0.183287501335144
1781033565636916500,26.29091650390625,0.4243249893188476,0.2172500044107437,0.2619374990463257
1781033565656422000,26.310421875,0.4065875113010406,0.1889249980449676,0.3469125032424927
1781033565675927000,26.329927001953124,0.3651999831199646,0.1773750036954879,0.4274874925613403
1781033565695434000,26.34943408203125,0.3111625015735626,0.177787497639656,0.4915624856948852
1781033565714940200,26.36894018554688,0.2484624981880188,0.1854874938726425,0.527999997138977
1781033565734444800,26.38844482421875,0.1757249981164932,0.1993750035762787,0.5281375050544739
1781033565753949200,26.40794921875,0.0965249985456466,0.219587504863739,0.4940375089645386
1781033565773458200,26.427458251953126,0.0115499999374151,0.2443374991416931,0.4444000124931335
1781033565792970000,26.44696997070313,-0.0818125009536743,0.2703250050544739,0.4109874963760376
1781033565812478000,26.46647802734375,-0.1666499972343444,0.2913624942302704,0.4152500033378601
1781033565831986000,26.48598583984375,-0.2037750035524368,0.3016749918460846,0.4510000050067901
1781033565851494400,26.505494384765623,-0.1633500009775161,0.2975499927997589,0.4937624931335449
1781033565871001900,26.525001953125,-0.0680624991655349,0.2806375026702881,0.5256624817848206
1781033565890509600,26.544509521484372,0.0199375003576278,0.254375010728836,0.5468375086784363
1781033565910017800,26.564017822265622,0.0609125010669231,0.2204124927520752,0.5616874694824219
1781033565929522700,26.583522705078124,0.0651749968528747,0.178749993443489,0.5654000043869019
1781033565949028400,26.6030283203125,0.0688875019550323,0.1304875016212463,0.5476624965667725
1781033565968536800,26.622536865234373,0.0959749966859817,0.0783749967813491,0.5050374865531921
1781033565988046000,26.642046142578124,0.1423124969005584,0.0277750007808208,0.4470124840736389
1781033566007550700,26.66155078125,0.1875499933958053,-0.0141624994575977,0.3903625011444092
1781033566027059200,26.68105908203125,0.2065249979496002,-0.040837500244379,0.3493874967098236
1781033566046576400,26.700576416015625,0.1794375032186508,-0.0488125011324882,0.3310999870300293
1781033566066091500,26.72009155273437,0.1128875017166137,-0.0389125011861324,0.3313750028610229
