time,seconds_elapsed,z,y,x
1781215519284476700,-1.3105234375,0.20350714027881622,-0.009576806798577309,0.16759411990642548
1781215519294547500,-1.30045263671875,0.15083470940589905,-0.016759412363171577,0.2944868206977844
1781215519334800100,-1.260199951171875,0.05027823522686958,-0.09576806426048279,0.2082955539226532
1781215519344840400,-1.25015966796875,0.07661445438861847,-0.08379705995321274,0.22026655077934265
1781215519354941700,-1.240058349609375,0.12928688526153564,0.023942016065120697,0.19871874153614044
1781215519365043200,-1.229956787109375,0.15322890877723694,0.05985504388809204,0.1604115068912506
1781215519385215200,-1.20978466796875,0.1412578970193863,0.08619125932455063,0.038307227194309235
1781215519405326300,-1.189673583984375,0.16759411990642548,0.1412578970193863,0.0071826050989329815
1781215519415397000,-1.179602783203125,0.15083470940589905,0.07900865375995636,0.07900865375995636
1781215519425468000,-1.169531982421875,0.2849099934101105,-0.014365210197865963,0.05746084079146385
1781215519455680300,-1.13931982421875,0.2322375625371933,-0.06224924325942993,0.15322890877723694
1781215519465751000,-1.1292490234375,0.181959331035614,-0.023942016065120697,0.10295066982507706
1781215519485923300,-1.10907666015625,0.2585737705230713,-0.07422025501728058,0.06703764945268631
1781215519506034400,-1.088965576171875,0.272938996553421,-0.1149216815829277,0.016759412363171577
1781215519516105200,-1.078894775390625,0.2849099934101105,-0.038307227194309235,0.004788403399288654
1781215519536246800,-1.058753173828125,0.2825157940387726,-0.0454898327589035,0.07182604819536209
1781215519566459100,-1.028540771484375,0.1388636976480484,0.1149216815829277,0.05985504388809204
1781215519576499500,-1.01850048828125,0.1604115068912506,0.17238251864910126,-0.0071826050989329815
1781215519586570200,-1.0084296875,0.15801730751991272,0.10773907601833344,0.0071826050989329815
1781215519596610600,-0.998389404296875,0.1388636976480484,0.004788403399288654,0.13407529890537262
1781215519606681300,-0.988318603515625,0.1604115068912506,-0.08858546614646912,0.10773907601833344
1781215519616752000,-0.978247802734375,0.1173158809542656,-0.0071826050989329815,0.1843535304069519
1781215519626792400,-0.96820751953125,0.08619125932455063,-0.05985504388809204,0.08858546614646912
1781215519646842400,-0.94815771484375,-0.035913024097681046,0.038307227194309235,0.035913024097681046
1781215519656913200,-0.9380869140625,-0.06464344263076782,0.035913024097681046,0.0933738648891449
1781215519666953500,-0.928046630859375,-0.08858546614646912,-0.033518824726343155,0.1364694982767105
1781215519677054700,-0.9179453125,0.0071826050989329815,-0.014365210197865963,0.1149216815829277
1781215519687095000,-0.907905029296875,0.026336219161748886,-0.1149216815829277,0.2082955539226532
1781215519697196500,-0.897803466796875,0.0933738648891449,-0.19871874153614044,0.2801215946674347
1781215519707236600,-0.887763427734375,0.11013327538967133,-0.15562310814857483,0.22026655077934265
1781215519717338000,-0.877661865234375,0.07900865375995636,-0.08379705995321274,0.24660277366638184
1781215519727347700,-0.86765234375,0.028730420395731926,0.08379705995321274,0.27054479718208313
1781215519737449200,-0.85755078125,0.047884032130241394,0.1412578970193863,0.2059013396501541
1781215519747550500,-0.847449462890625,0.06464344263076782,0.06703764945268631,0.1604115068912506
1781215519757621200,-0.837378662109375,0.10055647045373917,0.021547814831137657,0.1628057211637497
1781215519767661600,-0.82733837890625,0.15322890877723694,0.023942016065120697,0.20350714027881622
1781215519777762800,-0.8172373046875,0.19871874153614044,0.033518824726343155,0.13407529890537262
1781215519787833600,-0.80716650390625,0.2561795711517334,0.08619125932455063,0.13168109953403473
1781215519797874000,-0.7971259765625,0.29209262132644653,0.0454898327589035,0.10534487664699554
1781215519807975200,-0.78702490234375,0.3280056416988373,0.011971008032560349,0.07182604819536209
1781215519818076700,-0.77692333984375,0.304063618183136,-0.009576806798577309,-0.038307227194309235
1781215519828147500,-0.7668525390625,0.2777273952960968,-0.043095629662275314,-0.07182604819536209
1781215519858420700,-0.736579345703125,0.24181437492370605,-0.021547814831137657,-0.17956513166427612
1781215519868461000,-0.7265390625,0.24420857429504395,-0.040701430290937424,-0.2753331959247589
1781215519878531800,-0.71646826171875,0.2106897532939911,0.07661445438861847,-0.3280056416988373
1781215519888602600,-0.7063974609375,0.181959331035614,0.009576806798577309,-0.3926490843296051
1781215519898704000,-0.696296142578125,0.05985504388809204,0.14604631066322327,-0.3471592366695404
1781215519908775000,-0.68622509765625,0.05267243832349777,0.22744916379451752,-0.43095630407333374
1781215519918845700,-0.676154296875,-0.038307227194309235,0.1412578970193863,-0.43095630407333374
1781215519928916500,-0.66608349609375,-0.05506663769483566,0.10055647045373917,-0.3471592366695404
1781215519959159300,-0.6358408203125,-0.10055647045373917,0.20111294090747833,-0.16759411990642548
1781215519969260500,-0.625739501953125,-0.035913024097681046,0.16519992053508759,-0.15562310814857483
1781215519979362000,-0.615637939453125,0.05267243832349777,0.004788403399288654,-0.13168109953403473
1781215519989432800,-0.605567138671875,-0.014365210197865963,-0.05506663769483566,0.019153613597154617
1781215519999534000,-0.5954658203125,0.033518824726343155,-0.040701430290937424,0.10295066982507706
1781215520009574400,-0.585425537109375,0.05985504388809204,-0.17238251864910126,0.2106897532939911
1781215520019706000,-0.5752939453125,0.016759412363171577,-0.26096799969673157,0.29209262132644653
1781215520029807600,-0.5651923828125,0.06224924325942993,-0.23702596127986908,0.2777273952960968
1781215520070151700,-0.524848388671875,0.23702596127986908,-0.07182604819536209,0.35434186458587646
1781215520080283600,-0.51471630859375,0.26336219906806946,-0.06464344263076782,0.24899697303771973
1781215520090385000,-0.504614990234375,0.3974374830722809,-0.033518824726343155,0.23702596127986908
1781215520100455700,-0.49454443359375,0.3998316824436188,-0.0071826050989329815,0.14365209639072418
1781215520110557000,-0.484443115234375,0.48602294921875,0.021547814831137657,0.20111294090747833
1781215520120658400,-0.474341552734375,0.5315127968788147,0,0.16519992053508759
1781215520130759700,-0.464240234375,0.5171475410461426,-0.1149216815829277,0.2106897532939911
1781215520161063700,-0.433936279296875,0.5147533416748047,-0.12689268589019775,0.14844051003456116
1781215520171165000,-0.4238349609375,0.569819986820221,-0.08379705995321274,0.2298433631658554
1781215520181266200,-0.41373388671875,0.6440402865409851,-0.07182604819536209,0.07900865375995636
1781215520191367700,-0.40363232421875,0.6224924325942993,-0.014365210197865963,0.17956513166427612
1781215520201469000,-0.393531005859375,0.5482721924781799,-0.002394201699644327,0.15562310814857483
1781215520211570200,-0.383429931640625,0.24181437492370605,0.06703764945268631,0.011971008032560349
1781215520221671400,-0.37332861328125,-0.011971008032560349,-0.040701430290937424,0.031124621629714966
1781215520231742200,-0.3632578125,-0.1149216815829277,0.05267243832349777,-0.009576806798577309
1781215520241874200,-0.353125732421875,0.033518824726343155,0.22744916379451752,-0.08379705995321274
1781215520272078000,-0.322921875,0.21787235140800476,0.8930372595787048,-0.4884171485900879
1781215520282148900,-0.31285107421875,-0.07422025501728058,0.8595184087753296,-0.5913678407669067
1781215520292219600,-0.3027802734375,-0.1149216815829277,0.8140285611152649,-0.5722141861915588
1781215520302321200,-0.292678955078125,-0.6224924325942993,0.6488286852836609,-0.3519476354122162
1781215520322523600,-0.272476318359375,-0.8164227604866028,0.8140285611152649,-0.40940847992897034
1781215520332625000,-0.262375,-1.3024457693099976,0.15562310814857483,-0.6272808313369751
1781215520342726400,-0.252273681640625,-1.4413094520568848,-0.3519476354122162,-0.7757213711738586
1781215520352827600,-0.24217236328125,-1.7142484188079834,-0.727837324142456,-0.5291185975074768
1781215520373030100,-0.221969970703125,-2.322375535964966,-0.5793967843055725,-0.5817909836769104
1781215520383131600,-0.211868408203125,-2.784456491470337,-0.27054479718208313,-0.8403648138046265
1781215520393172000,-0.201828125,-3.1076738834381104,0.2801215946674347,-0.849941611289978
1781215520403303700,-0.1916962890625,-3.445256233215332,0.6919242739677429,-0.912190854549408
1781215520413405000,-0.181594970703125,-3.758896589279175,0.9097966551780701,-0.9696516990661621
1781215520423506400,-0.17149365234375,-4.170699596405029,0.9648633003234863,-1.1683704853057861
1781215520433546500,-0.16145361328125,-4.5825018882751465,0.8523358106613159,-1.237802267074585
1781215520443678500,-0.151321533203125,-4.884171485900879,0.5530605912208557,-1.1300631761550903
1781215520453779700,-0.14122021484375,-5.166687488555908,0.20350714027881622,-1.0031704902648926
1781215520473921300,-0.12107861328125,-5.492298603057861,-2.3582887649536133,-0.7781155705451965
1781215520484022800,-0.110977294921875,-5.295974254608154,-1.8052281141281128,-0.7805097699165344
1781215520494124000,-0.1008759765625,-5.049371242523193,-2.209848165512085,-0.7182605266571045
1781215520504194800,-0.09080517578125,-5.035006046295166,-2.913743495941162,-0.47884035110473633
1781215520514204700,-0.08079541015625,-5.200206279754639,-3.3063924312591553,-0.15801730751991272
1781215520534376700,-0.060623291015625,-4.819528102874756,-3.0789434909820557,0.4141969084739685
1781215520544417000,-0.0505830078125,-4.795586109161377,-2.564189910888672,0.7326257228851318
1781215520574659800,-0.020340087890625,-4.927267074584961,-2.937685489654541,1.4748282432556152
1781215520584730600,-0.010269287109375,-4.6255974769592285,-3.5889084339141846,1.2401964664459229
1781215520594801400,-0.000198486328125,-3.8283286094665527,-3.9384617805480957,1.072602391242981
1781215520604872200,0.0098720703125,-2.738966703414917,-4.230554580688477,0.8810662031173706
1781215520614973700,0.0199736328125,-1.8770540952682495,-4.501099109649658,0.9528923034667969
1781215520625075000,0.030074951171875,-1.2832920551300049,-4.790797710418701,1.072602391242981
1781215520635115300,0.040115234375,-0.9552865028381348,-5.449203014373779,1.1013327836990356
1781215520645216500,0.050216552734375,-0.6153098344802856,-6.172252178192139,1.1755530834197998
1781215520665327600,0.07032763671875,-0.44771572947502136,-4.537012100219727,0.6703764796257019
1781215520675398400,0.0803984375,-0.4572925269603729,-3.3710360527038574,0.6009446382522583
1781215520685469200,0.09046923828125,-0.5530605912208557,-2.738966703414917,0.47884035110473633
1781215520695509500,0.100509521484375,-0.5195417404174805,-2.655169725418091,0.5410895943641663
1781215520705580300,0.110580322265625,-0.3256114423274994,-2.894589900970459,0.5889736413955688
1781215520715651000,0.120651123046875,0.15562310814857483,-2.6886885166168213,0.4884171485900879
1781215520725721900,0.130721923828125,0.36152446269989014,-2.3918075561523438,0.38067805767059326
1781215520735792600,0.140792724609375,0.3256114423274994,-1.8986018896102905,0.31124621629714966
1781215520766005000,0.1710048828125,-0.033518824726343155,-0.7733271718025208,-0.27054479718208313
1781215520776076000,0.181075927734375,0.2561795711517334,-1.0989385843276978,-0.49320554733276367
1781215520786146800,0.191146728515625,0.42616790533065796,-0.9361328482627869,-0.9528923034667969
1781215520796187000,0.201186767578125,0.6967126727104187,-1.2234370708465576,-0.8403648138046265
1781215520806288400,0.211288330078125,0.6991068720817566,-1.237802267074585,-0.6871358752250671
1781215520816328700,0.22132861328125,0.8667010068893433,-1.0869675874710083,-0.6105214357376099
1781215520826399500,0.2313994140625,1.723825216293335,-0.45250412821769714,-0.7637503147125244
1781215520836409000,0.2414091796875,1.742978811264038,-0.047884032130241394,-0.7757213711738586
1781215520846480000,0.25147998046875,1.4891934394836426,-0.2753331959247589,-0.8044517636299133
1781215520856550700,0.261550537109375,1.139639973640442,-0.07900865375995636,-0.7565677165985107
1781215520906904800,0.31190478515625,-2.3774423599243164,0.9361328482627869,0.40940847992897034
1781215520927107300,0.332107421875,-2.389413356781006,1.213860273361206,0.6200982332229614
1781215520967360000,0.372360107421875,-0.5099649429321289,-0.5027823448181152,-0.1173158809542656
1781215520977461500,0.38246142578125,0.49320554733276367,-0.9289502501487732,-0.6344634294509888
1781215520987501600,0.39250146484375,1.3838485479354858,-1.1085153818130493,-1.1061211824417114
1781215521057936400,0.462936279296875,1.3838485479354858,1.436521053314209,-1.6543933153152466
1781215521068007200,0.473007080078125,1.7717092037200928,1.6759412288665771,-2.341529369354248
1781215521078047200,0.483047119140625,2.078166961669922,2.027888774871826,-2.693476915359497
1781215521088087600,0.493087646484375,1.9823989868164062,1.9728221893310547,-2.671929121017456
1781215521098128000,0.5031279296875,1.8770540952682495,1.534683346748352,-2.631227731704712
1781215521168593000,0.573593017578125,-0.033518824726343155,1.115697979927063,-4.0078935623168945
1781215521239149600,0.644149658203125,-7.311892032623291,3.488351821899414,-0.45489832758903503
1781215521299605000,0.70460498046875,-4.54419469833374,4.110844135284424,-0.4836287498474121
1781215521360029700,0.76502978515625,-1.0965443849563599,-5.295974254608154,-4.0533833503723145
1781215521370070000,0.775070068359375,-0.3519476354122162,-6.495469093322754,-3.426102638244629
1781215521380140800,0.785140869140625,-0.4668693244457245,-6.9240312576293945,-2.4420857429504395
1781215521390211600,0.795211669921875,0.9600749015808105,-5.992686748504639,-3.157952070236206
1781215521400282400,0.805282470703125,1.2521674633026123,-5.669469833374023,-3.0358476638793945
1781215521410353200,0.815353271484375,1.3215993642807007,-5.556941986083984,-2.652775526046753
1781215521420393500,0.8253935546875,1.5969325304031372,-4.876988887786865,-1.98958158493042
1781215521430464300,0.83546435546875,2.011129379272461,-4.000710964202881,-1.9057846069335938
1781215521440535000,0.84553515625,2.7102363109588623,-3.825934410095215,-1.7046716213226318
1781215521450636500,0.855636474609375,3.308786630630493,-3.5242648124694824,-1.4867992401123047
1781215521470778000,0.875778076171875,4.910507678985596,-1.7286136150360107,-0.6871358752250671
1781215521480849000,0.885848876953125,5.659893035888672,-0.507570743560791,-0.7398083209991455
1781215521490889200,0.89588916015625,4.716577529907227,-0.3016694188117981,-0.2561795711517334
1781215521500990500,0.905990478515625,3.9025487899780273,-1.702277421951294,0.035913024097681046
1781215521511061200,0.916061279296875,5.264849662780762,-4.5394062995910645,-0.1867477297782898
1781215521521101600,0.9261015625,4.508281707763672,-5.746084213256836,1.556231141090393
1781215521531172400,0.93617236328125,4.213795185089111,-6.44279670715332,1.9057846069335938
1781215521581526300,0.9865263671875,0.09576806426048279,-6.708553314208984,0.10773907601833344
1781215521591627800,0.996627685546875,0.040701430290937424,-5.351040840148926,1.0558429956436157
1781215521601698600,1.006698486328125,1.1252747774124146,-3.576937437057495,1.4245500564575195
1781215521611739000,1.01673876953125,1.601720929145813,-1.7046716213226318,1.5322890281677246
1781215521621779000,1.026779052734375,1.6927006244659424,0.05027823522686958,1.316810965538025
1781215521652022000,1.05702197265625,1.3742717504501343,1.721431016921997,0.35913026332855225
1781215521712416300,1.117416259765625,-1.1300631761550903,2.669534921646118,0.45489832758903503
1781215521722487000,1.127487060546875,-3.3686418533325195,1.9847931861877441,1.1061211824417114
1781215521732557800,1.137557861328125,-2.9759926795959473,-0.0933738648891449,0.7086837291717529
1781215521742659000,1.1476591796875,-0.8068459630012512,-1.3024457693099976,-0.7613561153411865
1781215521752699400,1.157699462890625,0.3734954595565796,-1.764526605606079,0.44532153010368347
1781215521762800600,1.167800537109375,0.3471592366695404,-2.1164743900299072,1.920149803161621
1781215521772902100,1.177902099609375,-0.3447650372982025,-2.1571757793426514,1.0965443849563599
1781215521783003400,1.18800341796875,-0.5434837937355042,-2.121262788772583,0.3519476354122162
1781215521793013200,1.19801318359375,0.3423708379268646,-2.027888774871826,0.023942016065120697
1781215521803114500,1.208114501953125,0.33997663855552673,-1.778891921043396,-0.37828385829925537
1781215521813185300,1.218185302734375,-0.5722141861915588,-1.2330138683319092,-0.9648633003234863
1781215521823256000,1.228256103515625,-1.2186486721038818,-0.586579442024231,-1.1994950771331787
1781215521853499000,1.258498779296875,-0.6033388376235962,-0.828393816947937,-1.216254472732544
1781215521863539200,1.268539306640625,0.9097966551780701,-1.8291701078414917,-1.359906554222107
1781215521873579500,1.27857958984375,2.9759926795959473,-2.920926094055176,-1.656787633895874
1781215521883680800,1.2886806640625,3.378218650817871,-2.9712042808532715,-1.9488801956176758
1781215521893721000,1.29872119140625,2.2649147510528564,-3.0095114707946777,-1.015141487121582
1781215521903791900,1.3087919921875,0.6033388376235962,-2.7533318996429443,-0.16759411990642548
1781215521913862700,1.318862548828125,-0.05746084079146385,-2.126051187515259,-0.3495534360408783
1781215521934035000,1.339034912109375,0.6871358752250671,-0.06224924325942993,-0.6536170840263367
1781215521994459600,1.399459716796875,1.039083480834961,2.142810583114624,-0.9074024558067322
1781215522024702700,1.42970263671875,0.849941611289978,1.0893617868423462,0.849941611289978
1781215522034804000,1.439803955078125,0.912190854549408,0.8571242094039917,1.1180921792984009
1781215522044874800,1.449874755859375,1.1683704853057861,0.1173158809542656,1.1348515748977661
1781215522054976000,1.45997607421875,1.2832920551300049,-0.5937620401382446,1.1755530834197998
1781215522105452000,1.5104521484375,0.2322375625371933,-1.292868971824646,0.8355764150619507
1781215522125624300,1.530624267578125,0.031124621629714966,-1.3120225667953491,0.8379706144332886
1781215522135725600,1.5407255859375,0.026336219161748886,-0.8954314589500427,0.5339069962501526
1781215522145796400,1.55079638671875,-0.031124621629714966,-0.6344634294509888,0.19632454216480255
1781215522155897600,1.560897705078125,-0.2968810200691223,-0.7422025203704834,-0.1604115068912506
1781215522165999000,1.5709990234375,-0.24420857429504395,-0.6847416758537292,-0.9648633003234863
1781215522176130800,1.581130859375,-0.12210428714752197,-0.45010992884635925,-1.036689281463623
1781215522186232000,1.591232177734375,-0.10534487664699554,-0.49559974670410156,-0.6967126727104187
1781215522206434800,1.611434814453125,0.07182604819536209,0.08379705995321274,-0.31842881441116333
1781215522226637300,1.63163720703125,0.14844051003456116,0.6153098344802856,0.07661445438861847
1781215522236738800,1.64173876953125,0.5267243981361389,0.4381389021873474,0.1412578970193863
1781215522246840000,1.651840087890625,0.9552865028381348,0.17238251864910126,0.14844051003456116
1781215522256910800,1.661910888671875,1.5753847360610962,-0.3256114423274994,0.19871874153614044
1781215522267012000,1.67201220703125,2.078166961669922,-0.9720458984375,-0.043095629662275314
1781215522277113600,1.682113525390625,1.8363527059555054,-1.3910311460494995,-0.26096799969673157
1781215522287214800,1.69221484375,1.5897499322891235,-0.9911994934082031,-0.40940847992897034
1781215522327620000,1.7326201171875,-0.6943184733390808,0.09576806426048279,1.1228805780410767
1781215522337721300,1.742721435546875,-1.1779472827911377,0.43095630407333374,1.3742717504501343
1781215522378096000,1.78309619140625,-1.290474772453308,-1.7764976024627686,0.4668693244457245
1781215522388197400,1.793197265625,-0.9911994934082031,-1.5897499322891235,0.31603461503982544
1781215522408400100,1.813400146484375,-0.8140285611152649,-0.5913678407669067,0.507570743560791
1781215522458815200,1.863815185546875,-0.21308395266532898,1.2737152576446533,0.5793967843055725
1781215522468855600,1.87385546875,-0.6320692300796509,0.9911994934082031,0.6129156351089478
1781215522478926300,1.88392626953125,-0.5554547905921936,1.0199298858642578,0.4429273009300232
1781215522488997000,1.8939970703125,-0.040701430290937424,1.403002142906189,-0.07422025501728058
1781215522499068000,1.90406787109375,-0.021547814831137657,1.1204863786697388,-0.0933738648891449
1781215522509108200,1.914108154296875,0.07422025501728058,0.6943184733390808,-0.019153613597154617
1781215522529249800,1.934249755859375,0.6153098344802856,0.5602431893348694,-0.07182604819536209
1781215522539320600,1.944320556640625,1.2114660739898682,0.4908113479614258,-0.2849099934101105
1781215522549421800,1.954421875,1.659181833267212,0.05746084079146385,-0.646434485912323
1781215522559492600,1.96449267578125,1.8626888990402222,-0.15801730751991272,-1.091755986213684
1781215522569563400,1.9745634765625,1.9776105880737305,-0.5554547905921936,-1.4628572463989258
1781215522579634200,1.98463427734375,1.7884687185287476,-1.072602391242981,-1.824381709098816
1781215522589705000,1.994705078125,1.5897499322891235,-1.1971008777618408,-2.0829553604125977
1781215522599775700,2.004775634765625,1.2952631711959839,-0.8810662031173706,-2.406172752380371
1781215522609877200,2.014877197265625,0.8667010068893433,-0.6536170840263367,-2.43011474609375
1781215522640120000,2.0451201171875,-0.014365210197865963,-0.05267243832349777,-2.054224967956543
1781215522650190800,2.05519091796875,-0.2082955539226532,0.15562310814857483,-1.9776105880737305
1781215522660231200,2.065231201171875,-0.0933738648891449,0.4118026793003082,-2.0015525817871094
1781215522670271500,2.075271484375,0.2825157940387726,0.727837324142456,-2.027888774871826
1781215522680311800,2.085311767578125,0.40462008118629456,1.0414776802062988,-1.9847931861877441
1781215522690413000,2.0954130859375,0.3998316824436188,1.5490485429763794,-1.920149803161621
1781215522750837800,2.155837646484375,-0.48602294921875,1.98958158493042,-0.9145850539207458
1781215522831404300,2.236404296875,-0.727837324142456,0.3711012601852417,0.6129156351089478
1781215522841475000,2.24647509765625,-0.8236053586006165,0.47165772318840027,0.6344634294509888
1781215522851545900,2.2565458984375,-0.9672574996948242,0.5506663918495178,0.6009446382522583
1781215522861616600,2.26661669921875,-1.1324573755264282,0.6775590777397156,0.4908113479614258
1781215522871687400,2.2766875,-1.3048399686813354,0.9433154463768005,0.4692635238170624
1781215522881758200,2.28675830078125,-1.4939818382263184,1.256955862045288,0.5410895943641663
1781215522891798500,2.296798583984375,-1.6376339197158813,1.4413094520568848,0.6727706789970398
1781215522901869300,2.306869384765625,-1.7573440074920654,1.5729905366897583,0.8690952062606812
1781215522911970800,2.316970703125,-1.800439715385437,1.6112977266311646,0.9624691009521484
1781215522922041600,2.32704150390625,-1.7573440074920654,1.6687586307525635,1.091755986213684
1781215522932112400,2.3371123046875,-1.6974890232086182,1.479616641998291,1.1180921792984009
1781215522942183200,2.34718310546875,-1.5705963373184204,1.3766659498214722,0.9074024558067322
1781215522962294300,2.367294189453125,-1.6065093278884888,1.1109095811843872,0.3423708379268646
1781215523032912000,2.437911865234375,-1.2689268589019775,-0.6416460275650024,-2.80361008644104
1781215523042982700,2.447982666015625,-1.072602391242981,-1.1851298809051514,-2.911349296569824
1781215523053053400,2.458053466796875,-0.7972691655158997,-1.8315643072128296,-2.918531894683838
1781215523073195000,2.478195068359375,-0.33997663855552673,-2.7317841053009033,-3.2585084438323975
1781215523093306000,2.49830615234375,0.016759412363171577,-3.576937437057495,-3.4093432426452637
1781215523143599000,2.54859912109375,0.38307225704193115,-5.020640850067139,-1.8698714971542358
1781215523153639400,2.558639404296875,0.35434186458587646,-5.3342814445495605,-1.45806884765625
1781215523163710200,2.568710205078125,0.4189853072166443,-5.635950565338135,-0.9888052940368652
1781215523173811500,2.5788115234375,0.5003881454467773,-5.863399982452393,-0.5937620401382446
1781215523183912700,2.58891259765625,0.6631938815116882,-5.92325496673584,-0.2849099934101105
1781215523194014200,2.59901416015625,0.6272808313369751,-5.9735331535339355,-0.08619125932455063
1781215523204085000,2.6090849609375,0.5913678407669067,-5.870582580566406,0.17238251864910126
1781215523234297300,2.63929736328125,0.26096799969673157,-6.054935932159424,1.1803414821624756
1781215523244368100,2.6493681640625,0.3471592366695404,-6.016628742218018,1.6496049165725708
1781215523254439000,2.65943896484375,0.5626373887062073,-6.212953567504883,1.9081788063049316
1781215523274641700,2.6796416015625,1.4317326545715332,-6.88332986831665,2.10210919380188
1781215523284682000,2.689681884765625,1.9967641830444336,-6.98628044128418,2.027888774871826
1781215523294722000,2.69972216796875,2.47560453414917,-7.086836814880371,2.1380221843719482
1781215523304823600,2.709823486328125,2.7748796939849854,-6.952761650085449,2.3774423599243164
1781215523314894300,2.719894287109375,2.956839084625244,-6.672640323638916,2.719813108444214
1781215523324934700,2.7299345703125,2.808398485183716,-6.052541732788086,2.8658595085144043
1781215523335036000,2.740035888671875,2.3319525718688965,-5.39174222946167,2.8658595085144043
1781215523345106700,2.750106689453125,2.0039467811584473,-4.721365928649902,2.808398485183716
1781215523355177500,2.760177490234375,1.678335428237915,-3.9480385780334473,2.671929121017456
1781215523365278700,2.77027880859375,1.6831238269805908,-3.4308910369873047,2.099714994430542
1781215523375349500,2.780349609375,1.7932571172714233,-3.2082302570343018,1.3239935636520386
1781215523385389800,2.790389892578125,2.2194249629974365,-3.177105665206909,0.6320692300796509
1781215523395430100,2.80043017578125,2.6647465229034424,-3.2800562381744385,0.05985504388809204
1781215523405501000,2.8105009765625,2.9951462745666504,-3.315969467163086,-0.1364694982767105
1781215523415602200,2.820602294921875,3.0885202884674072,-3.2321722507476807,-0.10773907601833344
1781215523425673000,2.8306728515625,3.026270866394043,-2.9735984802246094,-0.13168109953403473
1781215523435744000,2.840743896484375,2.7557260990142822,-2.9927520751953125,-0.18914192914962769
1781215523445814800,2.850814697265625,2.542642116546631,-2.873042106628418,-0.3998316824436188
1781215523455824400,2.860824462890625,2.3032219409942627,-2.6839001178741455,-0.6224924325942993
1781215523465926000,2.87092578125,2.1978771686553955,-2.4133553504943848,-0.6344634294509888
1781215523476027100,2.881027099609375,2.073378562927246,-2.0901381969451904,-0.7110779285430908
1781215523486098000,2.891097900390625,2.0805611610412598,-2.0015525817871094,-0.9050082564353943
1781215523496138200,2.90113818359375,2.3558945655822754,-1.8387469053268433,-0.9409212470054626
1781215523506239500,2.911239501953125,2.564189910888672,-1.699883222579956,-1.0821791887283325
1781215523516310300,2.921310302734375,2.5450363159179688,-1.7286136150360107,-1.1899182796478271
1781215523526320000,2.931320068359375,2.248155355453491,-2.027888774871826,-1.357512354850769
1781215523536391000,2.941390869140625,1.8076223134994507,-2.33913516998291,-1.7549498081207275
1781215523546461700,2.951461669921875,1.37906014919281,-2.3343467712402344,-2.1547815799713135
1781215523566633700,2.9716337890625,0.7422025203704834,-2.3702597618103027,-2.9065608978271484
1781215523576643600,2.9816435546875,0.6847416758537292,-2.315192937850952,-2.9281086921691895
1781215523586714400,2.99171435546875,0.629675030708313,-2.363077163696289,-3.203441858291626
1781215523606825500,3.011825439453125,0.4668693244457245,-2.4875755310058594,-3.579331636428833
1781215523616896300,3.021896240234375,0.33997663855552673,-2.4205379486083984,-4.141968727111816
1781215523626936600,3.0319365234375,0.12928688526153564,-2.4013843536376953,-4.8267107009887695
1781215523637007400,3.04200732421875,-0.21787235140800476,-2.319981336593628,-5.3127336502075195
1781215523647078100,3.052078125,-0.6584054827690125,-2.5785553455352783,-5.631162166595459
1781215523657088000,3.062087890625,-1.237802267074585,-2.609679937362671,-5.5976433753967285
1781215523667189200,3.072189208984375,-1.4389152526855469,-2.3319525718688965,-5.60722017288208
1781215523677229600,3.0822294921875,-1.6208745241165161,-2.2457611560821533,-5.942408561706543
1781215523687270000,3.092269775390625,-1.7573440074920654,-2.1523873805999756,-6.428431510925293
1781215523697340700,3.102340576171875,-1.9560627937316895,-1.9847931861877441,-6.6630635261535645
1781215523707442000,3.11244189453125,-2.0254945755004883,-1.766920804977417,-6.619967937469482
1781215523717512700,3.1225126953125,-2.2218191623687744,-1.7334020137786865,-6.698976516723633
1781215523727583500,3.13258349609375,-2.343923568725586,-1.8411411046981812,-6.871358871459961
1781215523737684700,3.142684814453125,-2.451662540435791,-1.8315643072128296,-6.962338447570801
1781215523747755500,3.152755615234375,-2.454056739807129,-1.8100165128707886,-6.981492042541504
1781215523757857000,3.16285693359375,-2.6216509342193604,-1.5298948287963867,-7.168240070343018
1781215523767897000,3.17289697265625,-2.8107926845550537,-1.3766659498214722,-7.261613845825195
1781215523848555300,3.25355517578125,-1.7286136150360107,-0.05027823522686958,-6.021417140960693
1781215523858656500,3.263656494140625,-1.8195933103561401,-0.19393034279346466,-6.054935932159424
1781215523898970000,3.30397021484375,-2.808398485183716,1.436521053314209,-5.363011837005615
1781215523949293600,3.35429345703125,-2.1045033931732178,-0.6009446382522583,-4.098873138427734
1781215523989577000,3.394576904296875,-0.8307880163192749,-0.9385270476341248,-4.050989151000977
1781215524029890600,3.434890625,-1.2713210582733154,-2.5330653190612793,-4.268861770629883
1781215524039961300,3.44496142578125,-0.7996633648872375,-2.7006595134735107,-4.469974517822266
1781215524080336100,3.485336181640625,-0.7948749661445618,-2.470816135406494,-3.421314239501953
1781215524110609700,3.515609619140625,-1.4460978507995605,-3.445256233215332,-3.2585084438323975
1781215524181257700,3.5862578125,-0.4692635238170624,-2.4229321479797363,-1.6903064250946045
1781215524251906000,3.656906005859375,0.6129156351089478,-3.7900211811065674,-0.33518823981285095
1781215524332625000,3.737625,0.7661445140838623,-1.6879122257232666,0.40462008118629456
1781215524342695700,3.74769580078125,0.689530074596405,-1.4652514457702637,0.6799532771110535
1781215524352766500,3.757766357421875,0.8092401623725891,-0.28969839215278625,1.0031704902648926
1781215524362868000,3.767867919921875,0.7445967197418213,0.7709329724311829,1.2880805730819702
1781215524393019400,3.798019287109375,-0.05506663769483566,0.3878606855869293,1.2952631711959839
1781215524403059500,3.8080595703125,0.14604631066322327,0.507570743560791,1.2737152576446533
1781215524423201300,3.828201171875,0.9145850539207458,0.7661445140838623,1.5682021379470825
1781215524433241300,3.838241455078125,1.1803414821624756,1.0438719987869263,1.5059528350830078
1781215524463484400,3.868484375,1.3742717504501343,1.766920804977417,1.3742717504501343
1781215524473555200,3.87855517578125,1.2234370708465576,2.056619167327881,1.3646949529647827
1781215524483626000,3.8886259765625,0.7709329724311829,2.145204782485962,1.5131354331970215
1781215524534041000,3.939041015625,0.1604115068912506,2.360682964324951,1.8411411046981812
1781215524544111900,3.94911181640625,0.40462008118629456,2.22660756111145,2.006340980529785
1781215524554213000,3.959213134765625,0.3974374830722809,1.9393033981323242,2.209848165512085
1781215524564284000,3.969283935546875,0.4884171485900879,1.8842366933822632,2.669534921646118
1781215524574354700,3.979354736328125,0.6248866319656372,1.9177556037902832,2.9448680877685547
1781215524584456000,3.9894560546875,0.7110779285430908,1.9297266006469727,3.0142998695373535
1781215524594526700,3.999526611328125,0.8738836050033569,1.843535304069519,2.9161376953125
1781215524604597800,4.00959765625,0.950498104095459,1.86508309841156,2.849100112915039
1781215524624708600,4.02970849609375,1.0534487962722778,1.6711528301239014,3.1028854846954346
1781215524634779600,4.039779541015625,1.1635819673538208,1.6160861253738403,3.292027235031128
1781215524644850400,4.049850341796875,1.4101848602294922,1.4101848602294922,3.318363666534424
1781215524654890500,4.059890380859375,1.6496049165725708,1.0558429956436157,3.1220390796661377
1781215524664961500,4.06996142578125,1.821987509727478,0.8212111592292786,3.0095114707946777
1781215524675032300,4.0800322265625,2.0039467811584473,0.507570743560791,2.7557260990142822
1781215524685103000,4.09010302734375,2.22660756111145,0.17717093229293823,2.7102363109588623
1781215524695143400,4.100143310546875,2.363077163696289,-0.22266076505184174,2.6192567348480225
1781215524765608400,4.1706083984375,1.886630892753601,0.30885201692581177,1.4484920501708984
1781215524775648800,4.180648681640625,1.656787633895874,-0.08858546614646912,1.0199298858642578
1781215524785688800,4.190688720703125,1.479616641998291,-0.5171475410461426,0.6823474764823914
1781215524795790300,4.200790283203125,1.3742717504501343,-0.7613561153411865,0.7230489253997803
1781215524805830700,4.21083056640625,1.4053963422775269,-1.0007762908935547,0.8571242094039917
1781215524826002700,4.231002685546875,1.0247182846069336,-1.2258312702178955,0.7948749661445618
1781215524896376300,4.301376220703125,-0.49320554733276367,0.45250412821769714,-0.586579442024231
1781215524906447000,4.311447021484375,-0.3758896589279175,0.2777273952960968,-0.811634361743927
1781215524916487200,4.321487060546875,0.08379705995321274,-0.45010992884635925,-1.2042834758758545
1781215524926558200,4.33155810546875,0.17238251864910126,-1.8818424940109253,-1.4413094520568848
1781215524936629000,4.34162890625,-0.021547814831137657,-2.7222073078155518,-1.7190368175506592
1781215524946730200,4.351730224609375,-0.0694318488240242,-2.9688100814819336,-1.5705963373184204
1781215524956801000,4.361801025390625,-0.40701428055763245,-2.6815059185028076,-1.2090718746185303
1781215524966841300,4.37184130859375,-0.5530605912208557,-2.0015525817871094,-1.1516109704971313
1781215524976881700,4.381881591796875,-0.8188169598579407,-1.1468225717544556,-1.216254472732544
1781215524986922000,4.391921875,-1.0031704902648926,-0.19393034279346466,-1.723825216293335
1781215524996962000,4.401962158203125,-1.0989385843276978,0.6943184733390808,-2.322375535964966
1781215525017104000,4.422103759765625,-1.113303780555725,2.1164743900299072,-3.4811692237854004
1781215525037245400,4.442245361328125,-2.0829553604125977,2.9544448852539062,-3.3518824577331543
1781215525047285500,4.452285400390625,-2.6886885166168213,3.318363666534424,-2.9281086921691895
1781215525067427300,4.47242724609375,-3.354276657104492,4.266467571258545,-1.9345149993896484
1781215525077498000,4.482498046875,-3.4524388313293457,4.797980308532715,-1.647210717201233
1781215525087538400,4.492538330078125,-3.335123062133789,5.240907669067383,-1.5490485429763794
1781215525137800700,4.54280078125,-2.188300371170044,5.978321552276611,-0.7469909191131592
1781215525178084000,4.583083984375,-2.9927520751953125,6.914454460144043,-0.5386953949928284
1781215525188155000,4.59315478515625,-3.2609026432037354,7.084442615509033,-0.7422025203704834
1781215525228438000,4.63343798828125,-1.9800047874450684,5.427655220031738,-0.6368576288223267
1781215525238508800,4.6435087890625,-1.3623007535934448,4.534617900848389,-0.768538773059845
1781215525248549000,4.653549072265625,-1.1563993692398071,3.359065055847168,-1.1228805780410767
1781215525258650400,4.663650390625,-1.0295066833496094,2.2026655673980713,-1.742978811264038
1781215525268721200,4.67372119140625,-1.1348515748977661,1.5155296325683594,-2.43011474609375
1781215525278792000,4.6837919921875,-0.8140285611152649,1.3024457693099976,-2.87064790725708
1781215525288832300,4.693832275390625,-0.5937620401382446,1.45806884765625,-3.002328872680664
1781215525298872600,4.70387255859375,-0.730231523513794,1.987187385559082,-2.801215887069702
1781215525329085000,4.7340849609375,-1.3335703611373901,3.4117374420166016,-2.2577321529388428
1781215525399550000,4.804550048828125,-1.647210717201233,1.778891921043396,-3.754108190536499
1781215525449904000,4.854904052734375,-0.3256114423274994,-1.702277421951294,-4.6471452713012695
1781215525460005400,4.86500537109375,0.11252748221158981,-2.889801502227783,-5.061342239379883
1781215525470076200,4.875076171875,0.4213795065879822,-3.7205893993377686,-5.2911858558654785
1781215525480177400,4.885177490234375,0.7158663272857666,-4.1874589920043945,-5.348646640777588
1781215525490248200,4.895248291015625,1.0654197931289673,-4.5394062995910645,-5.073313236236572
1781215525500288500,4.90528857421875,1.3646949529647827,-4.714183330535889,-4.865017890930176
1781215525510389800,4.9153896484375,1.4173674583435059,-5.082890033721924,-4.390965938568115
1781215525520460800,4.925460693359375,1.6160861253738403,-5.762843608856201,-4.165910720825195
1781215525530500900,4.9355009765625,1.7549498081207275,-6.356605529785156,-4.228160381317139
1781215525550642700,4.955642578125,2.2194249629974365,-7.15387487411499,-5.035006046295166
1781215525560744000,4.965743896484375,2.38462495803833,-7.632715225219727,-5.348646640777588
1781215525570845200,4.97584521484375,2.5737667083740234,-7.891288757324219,-5.56173038482666
1781215525580885500,4.985885498046875,2.6623523235321045,-7.965508937835693,-5.583278179168701
1781215525590956300,4.995956298828125,2.456450939178467,-7.819462776184082,-4.829104900360107
1781215525641279700,5.04627978515625,1.3096283674240112,-6.84981107711792,-0.7733271718025208
1781215525681563000,5.08656298828125,1.3000515699386597,-6.6630635261535645,0.8547300100326538
1781215525742048800,5.147048828125,1.192312479019165,-6.629544734954834,1.6136919260025024
1781215525752119600,5.15711962890625,1.2856862545013428,-6.402095317840576,1.7812861204147339
1781215525762221000,5.167220947265625,1.280897855758667,-6.294356346130371,1.8794482946395874
1781215525772291800,5.177291748046875,1.3646949529647827,-6.433219909667969,1.9081788063049316
1781215525782332000,5.187331787109375,1.3431471586227417,-6.560112476348877,1.9823989868164062
1781215525792433400,5.197433349609375,1.2473790645599365,-6.528987884521484,1.9919757843017578
1781215525802504200,5.207504150390625,1.115697979927063,-6.327875137329102,2.0374655723571777
1781215525832808200,5.23780810546875,1.05105459690094,-5.442020416259766,2.229001760482788
1781215525842848300,5.24784814453125,1.335964560508728,-5.078101634979248,2.183511972427368
1781215525863020500,5.2680205078125,1.1827356815338135,-4.69024133682251,1.8770540952682495
1781215525873091300,5.27809130859375,0.9888052940368652,-4.302380561828613,1.625662922859192
1781215525883192600,5.288192626953125,0.9002198576927185,-3.892971992492676,1.2401964664459229
1781215525893293800,5.2982939453125,0.8738836050033569,-3.7277719974517822,0.7996633648872375
1781215525903395300,5.308395263671875,0.8379706144332886,-3.579331636428833,0.608127236366272
1781215525933668600,5.338668701171875,1.3742717504501343,-3.2345664501190186,0.6248866319656372
1781215525943770000,5.34877001953125,1.4628572463989258,-2.8826189041137695,0.5482721924781799
1781215525953871400,5.358871337890625,1.482010841369629,-2.650381326675415,0.3663128614425659
1781215525963972600,5.36897265625,1.4221558570861816,-2.4133553504943848,0.3423708379268646
1781215525974073900,5.379073974609375,1.280897855758667,-2.03507137298584,0.31124621629714966
1781215525984144600,5.38914453125,1.213860273361206,-1.6615760326385498,0.2777273952960968
1781215525994276600,5.399276611328125,1.3120225667953491,-1.4987702369689941,0.15562310814857483
1781215526004377900,5.4093779296875,1.381454348564148,-1.50355863571167,0.06224924325942993
1781215526014418200,5.419418212890625,1.501164436340332,-1.802833914756775,0.009576806798577309
1781215526024550100,5.429550048828125,1.4413094520568848,-2.0638017654418945,-0.26096799969673157
1781215526034651400,5.4396513671875,1.4484920501708984,-2.164358377456665,-0.5841852426528931
1781215526044752600,5.449752685546875,1.3646949529647827,-2.097320795059204,-1.1468225717544556
1781215526054823400,5.459823486328125,1.2330138683319092,-1.9919757843017578,-1.7693150043487549
1781215526064955400,5.469955322265625,1.1276689767837524,-1.8124107122421265,-2.559401512145996
1781215526075056600,5.480056640625,1.0893617868423462,-1.6328455209732056,-3.4811692237854004
1781215526085158000,5.490157958984375,0.8020575642585754,-1.7142484188079834,-4.199429988861084
1781215526105360600,5.510360595703125,0.33758243918418884,-1.8914192914962769,-5.240907669067383
1781215526115462000,5.5204619140625,0.20111294090747833,-1.6974890232086182,-5.544970989227295
1781215526125532700,5.53053271484375,0.2585737705230713,-1.745373010635376,-5.544970989227295
1781215526135634000,5.540634033203125,0.31603461503982544,-1.8363527059555054,-5.3797712326049805
1781215526155836700,5.560836669921875,0.30885201692581177,-1.9800047874450684,-5.183446884155273
1781215526165938000,5.57093798828125,0.19393034279346466,-1.9249382019042969,-5.185841083526611
1781215526176008700,5.5810087890625,-0.20350714027881622,-1.6400281190872192,-4.855441093444824
1781215526196211500,5.60121142578125,-0.7206547260284424,-1.3407529592514038,-4.771644115447998
1781215526206343200,5.61134326171875,-0.8331822156906128,-1.2258312702178955,-4.912901878356934
1781215526256850000,5.661849853515625,-0.1604115068912506,-1.0989385843276978,-5.0900726318359375
1781215526307326000,5.712325927734375,-1.1444283723831177,-0.8212111592292786,-5.449203014373779
1781215526337630000,5.7426298828125,-0.9648633003234863,-0.8571242094039917,-4.948814868927002
1781215526347700700,5.75270068359375,-0.8212111592292786,-0.8523358106613159,-5.310339450836182
1781215526408064500,5.813064453125,-2.2697031497955322,1.3024457693099976,-4.616020679473877
1781215526498793200,5.903793212890625,-3.421314239501953,3.1292216777801514,-2.7246015071868896
1781215526508833500,5.91383349609375,-3.375824451446533,3.1220390796661377,-2.868253707885742
1781215526518904300,5.923904296875,-3.112462282180786,2.7772738933563232,-2.9472622871398926
1781215526528944600,5.933944580078125,-3.1292216777801514,2.2361843585968018,-3.1459810733795166
1781215526538985000,5.94398486328125,-2.9544448852539062,1.7142484188079834,-3.2776620388031006
1781215526549055700,5.9540556640625,-2.647987127304077,1.3048399686813354,-3.1316158771514893
1781215526559095800,5.964095703125,-2.7126305103302,0.8092401623725891,-2.9664158821105957
1781215526569197300,5.974197265625,-2.7940332889556885,0.5746083855628967,-2.492363929748535
1781215526619490300,6.024490234375,-2.7485435009002686,0.07182604819536209,-2.1116859912872314
1781215526639632000,6.0446318359375,-2.779668092727661,-0.912190854549408,-1.4724340438842773
1781215526649702700,6.05470263671875,-2.8395233154296875,-1.6711528301239014,-1.0821791887283325
1781215526659743000,6.064742919921875,-2.7964274883270264,-2.4468741416931152,-0.9576807022094727
1781215526669844200,6.07484423828125,-2.612074136734009,-2.9759926795959473,-1.0007762908935547
1781215526679915000,6.0849150390625,-2.315192937850952,-2.868253707885742,-1.161187767982483
1781215526700056600,6.105056640625,-1.8076223134994507,-2.3511061668395996,-1.5466543436050415
1781215526710097000,6.115096923828125,-1.3527239561080933,-2.322375535964966,-1.7501614093780518
1781215526720198100,6.1251982421875,-0.7852981686592102,-2.734178304672241,-2.140416383743286
1781215526730269000,6.13526904296875,-0.24181437492370605,-3.706224203109741,-2.425326347351074
1781215526740339700,6.145339599609375,0.08379705995321274,-4.8267107009887695,-2.7940332889556885
1781215526750380000,6.155380126953125,0.4668693244457245,-6.054935932159424,-2.8634653091430664
1781215526770552300,6.17555224609375,0.9265560507774353,-6.490680694580078,-2.315192937850952
1781215526780623000,6.185623046875,1.1228805780410767,-5.142745018005371,-2.075772762298584
1781215526790663400,6.195663330078125,0.9888052940368652,-4.077325344085693,-2.049436569213867
1781215526800734200,6.205734130859375,0.6943184733390808,-3.4404678344726562,-2.2697031497955322
1781215526810805000,6.215804931640625,0.6560112833976746,-3.066972494125366,-2.4157495498657227
1781215526820845300,6.22584521484375,0.6823474764823914,-3.064578056335449,-2.360682964324951
1781215526840956200,6.2459560546875,1.357512354850769,-2.7700912952423096,-1.9273324012756348
1781215526881270000,6.28627001953125,1.479616641998291,-2.1571757793426514,-1.4484920501708984
1781215526921583600,6.32658349609375,0.15801730751991272,-0.5770025849342346,-0.3495534360408783
1781215526971937800,6.376937744140625,-0.6512228846549988,-1.3958195447921753,0.40222588181495667
1781215527032332000,6.43733203125,0.090979665517807,1.4628572463989258,0.028730420395731926
1781215527052412700,6.45741259765625,-0.48602294921875,1.4437036514282227,0.44532153010368347
1781215527062514000,6.467513916015625,-0.6967126727104187,1.625662922859192,0.5219359993934631
1781215527072584700,6.477584716796875,-0.7852981686592102,1.9943699836730957,0.37828385829925537
1781215527082625000,6.487625,-0.3471592366695404,2.3989901542663574,0.2585737705230713
1781215527102766600,6.5077666015625,0.8307880163192749,2.38462495803833,0.002394201699644327
1781215527112837400,6.51783740234375,1.091755986213684,2.1739351749420166,0.06224924325942993
1781215527122908200,6.527908203125,1.434126853942871,1.9919757843017578,0.17477671802043915
1781215527143049700,6.5480498046875,0.7972691655158997,1.946485996246338,0.5770025849342346
1781215527153120500,6.55812060546875,0.31364041566848755,1.8148049116134644,0.6560112833976746
1781215527243696600,6.648696533203125,0.7829039692878723,-0.507570743560791,1.6759412288665771
1781215527324202200,6.7292021484375,0.2968810200691223,0.4620809257030487,1.625662922859192
1781215527374525700,6.779525634765625,0.7972691655158997,0.28730419278144836,1.9321208000183105
1781215527465162800,6.870162841796875,1.2473790645599365,0.5171475410461426,2.293645143508911
1781215527545759700,6.950759765625,1.1180921792984009,0.3256114423274994,2.0231003761291504
1781215527555830500,6.96083056640625,1.139639973640442,0.4596867263317108,1.7693150043487549
1781215527565901300,6.9709013671875,1.2880805730819702,0.181959331035614,1.656787633895874
1781215527575972000,6.98097216796875,1.3407529592514038,-0.1173158809542656,1.316810965538025
1781215527586043000,6.99104296875,1.522712230682373,-0.5410895943641663,1.2497732639312744
1781215527596144400,7.001144287109375,1.5466543436050415,-0.828393816947937,1.1252747774124146
1781215527606215200,7.011215087890625,1.3742717504501343,-1.0342950820922852,1.0127472877502441
1781215527616255200,7.021255126953125,1.1444283723831177,-1.0319008827209473,1.0893617868423462
1781215527626356700,7.031356689453125,0.7733271718025208,-0.8355764150619507,1.1348515748977661
1781215527636427500,7.041427490234375,0.43095630407333374,-0.5626373887062073,1.0965443849563599
1781215527646498300,7.051498291015625,0.2992752194404602,-0.33758243918418884,1.0438719987869263
1781215527656599600,7.061599609375,0.8164227604866028,-0.8810662031173706,0.7110779285430908
1781215527666700800,7.07170068359375,0.8690952062606812,-1.9273324012756348,0.6105214357376099
1781215527676741000,7.0817412109375,0.8427590131759644,-2.33913516998291,0.5506663918495178
1781215527686842600,7.091842529296875,0.730231523513794,-2.0925323963165283,0.6200982332229614
1781215527696913400,7.101913330078125,0.44532153010368347,-1.3718775510787964,0.7805097699165344
1781215527706984200,7.111984130859375,-0.019153613597154617,-0.6129156351089478,0.7134721279144287
1781215527717085400,7.12208544921875,-0.47644615173339844,-0.040701430290937424,0.3734954595565796
1781215527787611600,7.192611572265625,-0.6847416758537292,-3.691859006881714,-1.2617442607879639
1781215527868239000,7.273239013671875,-1.3192051649093628,-3.8139634132385254,-1.8531121015548706
1781215527878310000,7.283309814453125,-1.280897855758667,-3.050212860107422,-1.4748282432556152
1781215527888411100,7.2934111328125,-1.434126853942871,-1.7118542194366455,-1.0247182846069336
1781215527898512400,7.303512451171875,-1.4077905416488647,-0.4884171485900879,-0.706289529800415
1781215527908583200,7.313583251953125,-1.37906014919281,0.36152446269989014,-0.9840168952941895
1781215527918684700,7.3236845703125,-1.3527239561080933,0.6871358752250671,-1.316810965538025
1781215527928724700,7.333724853515625,-1.558625340461731,0.646434485912323,-1.5729905366897583
1781215527938826200,7.343826171875,-1.6663644313812256,0.4884171485900879,-1.7166426181793213
1781215528019636700,7.42463671875,-0.23702596127986908,2.540247917175293,-2.6431987285614014
1781215528039839200,7.444839111328125,-0.033518824726343155,3.1268274784088135,-2.248155355453491
1781215528080214000,7.485214111328125,-0.5123591423034668,3.404554843902588,-0.17477671802043915
1781215528130720800,7.535720703125,-1.98958158493042,2.346317768096924,0.31842881441116333
1781215528140822000,7.545822021484375,-1.9057846069335938,2.564189910888672,0.9624691009521484
1781215528150923300,7.55592333984375,-1.6711528301239014,2.542642116546631,1.2689268589019775
1781215528160994000,7.565994140625,-1.3311761617660522,2.233790159225464,1.1971008777618408
1781215528171095600,7.576095458984375,-1.094150185585022,1.3958195447921753,0.8523358106613159
1781215528191298000,7.596298095703125,-0.2585737705230713,0.24420857429504395,-0.13168109953403473
1781215528211500800,7.616500732421875,0.06703764945268631,0.31842881441116333,-0.3447650372982025
1781215528221632500,7.626632568359375,0.028730420395731926,0.4165911078453064,-0.28730419278144836
1781215528231733800,7.636733642578125,-0.19393034279346466,0.8188169598579407,-0.031124621629714966
1781215528241835300,7.646835205078125,-0.4429273009300232,1.0223240852355957,0.26815059781074524
1781215528251967000,7.656967041015625,-0.5482721924781799,0.5937620401382446,0.45010992884635925
1781215528262068200,7.667068115234375,-0.6607996821403503,0.06464344263076782,0.4908113479614258
1781215528272169700,7.677169677734375,-0.49559974670410156,-0.24420857429504395,0.2992752194404602
1781215528282240500,7.687240478515625,-0.24660277366638184,-0.31364041566848755,0.2082955539226532
1781215528292311300,7.697311279296875,-0.07661445438861847,-0.26575639843940735,0.06703764945268631
1781215528302412500,7.70741259765625,0.031124621629714966,-0.2585737705230713,-0.014365210197865963
1781215528312513800,7.717513671875,0.2346317619085312,-0.22505496442317963,-0.3016694188117981
1781215528352766500,7.757766357421875,0.07661445438861847,-1.4437036514282227,-2.1547815799713135
1781215528423353900,7.828353759765625,2.123656988143921,-4.163516521453857,-3.552995204925537
1781215528443495400,7.848495361328125,3.045424461364746,-4.797980308532715,-3.581725835800171
1781215528453505000,7.858505126953125,3.294421434402466,-5.202600479125977,-3.507505416870117
1781215528463575800,7.868575927734375,3.44765043258667,-5.461174011230469,-3.222595453262329
1781215528473646600,7.878646484375,3.378218650817871,-5.7772088050842285,-2.9735984802246094
1781215528483717600,7.888717529296875,3.3016040325164795,-5.935225963592529,-2.5713725090026855
1781215528493727200,7.898727294921875,3.0573954582214355,-5.91128396987915,-2.0853497982025146
1781215528513899500,7.9188994140625,2.580949544906616,-5.566518783569336,-1.1276689767837524
1781215528524000800,7.929000732421875,2.3558945655822754,-5.398924827575684,-0.751779317855835
1781215528534041000,7.939041015625,2.456450939178467,-5.0254292488098145,-0.47405192255973816
1781215528544142300,7.949142333984375,2.3558945655822754,-4.90571928024292,-0.31842881441116333
1781215528564284000,7.969283935546875,1.8602946996688843,-4.2975921630859375,0.023942016065120697
1781215528574293800,7.979293701171875,1.5155296325683594,-3.9695863723754883,0.2298433631658554
1781215528584395000,7.98939501953125,1.3886369466781616,-3.7038300037384033,0.5674257874488831
1781215528594465800,7.9994658203125,1.4748282432556152,-3.60566782951355,0.8212111592292786
1781215528604567000,8.009567138671875,1.534683346748352,-3.603273630142212,1.0989385843276978
1781215528614607400,8.019607421875,1.8698714971542358,-3.778050184249878,1.4053963422775269
1781215528624678100,8.02967822265625,2.1523873805999756,-4.10366153717041,1.6615760326385498
1781215528634779600,8.039779541015625,2.1930887699127197,-4.153939723968506,1.7501614093780518
1781215528644819700,8.04981982421875,2.094926595687866,-4.4723687171936035,1.8698714971542358
1781215528654860000,8.059860107421875,2.013523578643799,-4.54419469833374,2.0231003761291504
1781215528664961500,8.06996142578125,1.7286136150360107,-4.426878929138184,2.207453966140747
1781215528675062800,8.080062744140625,1.4987702369689941,-4.326322555541992,2.3104045391082764
1781215528715406800,8.12040673828125,0.751779317855835,-3.2321722507476807,2.5306711196899414
1781215528765730600,8.17073046875,0.3734954595565796,-1.1037269830703735,0.040701430290937424
1781215528775831800,8.180831787109375,0.33997663855552673,-0.6871358752250671,-0.24181437492370605
1781215528785902600,8.190902587890625,0.2825157940387726,-0.6033388376235962,-0.586579442024231
1781215528876509200,8.28150927734375,0.5147533416748047,0.15083470940589905,-1.5394717454910278
1781215528916884000,8.321884033203125,0.6799532771110535,0.646434485912323,-2.0183119773864746
1781215528926954800,8.331954833984375,0.6320692300796509,0.7805097699165344,-2.2002713680267334
1781215528937025500,8.342025634765625,0.6344634294509888,0.9457096457481384,-2.4684219360351562
1781215528947065900,8.35206591796875,0.7134721279144287,1.0247182846069336,-2.671929121017456
1781215528957167000,8.3621669921875,0.8667010068893433,1.1348515748977661,-2.786850690841675
1781215528967268600,8.3722685546875,0.7876923680305481,1.1875240802764893,-2.853888511657715
1781215528977309000,8.382308837890625,0.7110779285430908,1.2832920551300049,-2.849100112915039
1781215528987410200,8.39241015625,0.47405192255973816,1.4915876388549805,-2.964021682739258
1781215529027785000,8.432784912109375,0,2.2673089504241943,-3.56017804145813
1781215529037855700,8.442855712890625,0.24420857429504395,2.1045033931732178,-4.067748546600342
1781215529047926500,8.452926513671875,0.07900865375995636,2.070984363555908,-4.371812343597412
1781215529057966800,8.462966796875,-0.10055647045373917,2.0398597717285156,-4.656722068786621
1781215529068037600,8.47303759765625,-0.15801730751991272,1.6927006244659424,-5.04218864440918
1781215529078108400,8.4831083984375,-0.44532153010368347,1.4508862495422363,-5.70777702331543
1781215529088209700,8.493209716796875,-0.4429273009300232,1.292868971824646,-6.090848922729492
1781215529098280400,8.503280517578125,-0.3687070608139038,1.2090718746185303,-6.04775333404541
1781215529108320800,8.51332080078125,-0.17717093229293823,1.292868971824646,-5.894524574279785
1781215529118391600,8.5233916015625,-0.14365209639072418,1.2330138683319092,-5.822698593139648
1781215529128492800,8.533492919921875,-0.20111294090747833,1.137245774269104,-5.793968200683594
1781215529138563600,8.5435634765625,-0.2825157940387726,0.8355764150619507,-5.96874475479126
1781215529148634600,8.553634521484375,-0.2992752194404602,0.49320554733276367,-6.327875137329102
1781215529158705400,8.563705322265625,-0.4118026793003082,0.43335050344467163,-6.75883150100708
1781215529168745500,8.573745361328125,-0.33039984107017517,0.395043283700943,-7.2352776527404785
1781215529178816500,8.58381640625,-0.42616790533065796,0.42856210470199585,-7.465120792388916
1781215529209059300,8.614059326171875,-0.6655880808830261,0.37828385829925537,-7.264008045196533
1781215529249342500,8.654342529296875,0.2513911724090576,-0.5482721924781799,-6.919242858886719
1781215529279585500,8.68458544921875,0.26096799969673157,-0.42616790533065796,-6.890512466430664
1781215529330000400,8.73500048828125,-0.023942016065120697,-0.22266076505184174,-6.332663536071777
1781215529340040700,8.745040771484375,-0.19153612852096558,-0.040701430290937424,-6.538564682006836
1781215529400465700,8.805465576171875,-1.1037269830703735,1.9823989868164062,-4.963180065155029
1781215529410567000,8.81556689453125,-1.2425906658172607,2.169146776199341,-4.630385875701904
1781215529420607200,8.825607177734375,-1.3335703611373901,2.118868589401245,-4.371812343597412
1781215529430678000,8.835677978515625,-1.5322890281677246,2.097320795059204,-4.412513732910156
1781215529450819600,8.855819580078125,-1.721431016921997,2.054224967956543,-4.230554580688477
1781215529481001500,8.88600146484375,-2.4157495498657227,1.843535304069519,-3.579331636428833
1781215529531416600,8.93641650390625,-1.3766659498214722,0.20350714027881622,-3.1292216777801514
1781215529541487400,8.9464873046875,-1.4772224426269531,0.18914192914962769,-2.7317841053009033
1781215529551588600,8.956588623046875,-1.3120225667953491,0.6512228846549988,-2.406172752380371
1781215529642195200,9.0471953125,-1.5418659448623657,0.2513911724090576,-3.464409828186035
1781215529662337000,9.0673369140625,-2.1068975925445557,0.6416460275650024,-3.246537446975708
1781215529692579800,9.097579833984375,-2.0614075660705566,-1.1755530834197998,-3.028665065765381
1781215529742964200,9.147964111328125,-1.335964560508728,-3.157952070236206,-1.577778935432434
1781215529803389200,9.20838916015625,1.843535304069519,-6.038176536560059,-2.0374655723571777
1781215529813429500,9.218429443359375,2.2649147510528564,-5.506663799285889,-1.678335428237915
1781215529823530800,9.22853076171875,1.968033790588379,-5.03021764755249,-1.5394717454910278
1781215529833601500,9.2386015625,1.5682021379470825,-4.410119533538818,-1.3455413579940796
1781215529843702800,9.248702880859375,0.9217676520347595,-3.6846764087677,-1.3287819623947144
1781215529853773600,9.258773681640625,0.7661445140838623,-3.177105665206909,-1.2832920551300049
1781215529863875000,9.268875,0.6655880808830261,-2.937685489654541,-1.256955862045288
1781215529873945900,9.27894580078125,0.3902548849582672,-2.671929121017456,-1.0989385843276978
1781215529884047000,9.289047119140625,0.19153612852096558,-2.674323320388794,-0.7134721279144287
1781215529894118000,9.299117919921875,0.08858546614646912,-2.655169725418091,-0.3232172429561615
1781215529914259500,9.319259521484375,-0.47165772318840027,-2.185906171798706,0.3663128614425659
1781215529954634200,9.35963427734375,-1.2832920551300049,-0.4908113479614258,0.24899697303771973
1781215529974806300,9.37980615234375,-1.3407529592514038,1.1779472827911377,-0.09576806426048279
1781215529984846600,9.3898466796875,-1.0462661981582642,1.6903064250946045,-0.28730419278144836
1781215529994948000,9.399947998046875,-0.9528923034667969,1.8052281141281128,-0.2849099934101105
1781215530005049300,9.41004931640625,-0.4884171485900879,1.7262194156646729,-0.3256114423274994
1781215530015120100,9.4201201171875,-0.3447650372982025,1.5682021379470825,-0.1388636976480484
1781215530025221400,9.430221435546875,0,1.3311761617660522,0.15083470940589905
1781215530035322600,9.440322509765625,0.10773907601833344,0.9097966551780701,0.27054479718208313
1781215530045424000,9.450424072265625,0.090979665517807,1.015141487121582,0.2849099934101105
1781215530055525400,9.460525390625,0.0933738648891449,1.4460978507995605,0.28969839215278625
1781215530065626600,9.470626708984375,-0.1604115068912506,1.7262194156646729,0.26815059781074524
1781215530075728100,9.48072802734375,-0.43335050344467163,1.8698714971542358,0.29209262132644653
1781215530085829400,9.490829345703125,-0.5315127968788147,1.9632453918457031,0.5506663918495178
1781215530095930600,9.5009306640625,-0.4213795065879822,2.0183119773864746,0.6153098344802856
1781215530156538600,9.56153857421875,1.5107412338256836,0.5291185975074768,1.6950948238372803
1781215530196944000,9.60194384765625,0.7230489253997803,1.5298948287963867,1.4437036514282227
1781215530257673700,9.662673828125,1.7501614093780518,0.5410895943641663,1.9321208000183105
1781215530338606300,9.7436064453125,1.2473790645599365,0.19632454216480255,1.2018892765045166
1781215530379011600,9.784011474609375,0.9145850539207458,-0.4836287498474121,1.2880805730819702
1781215530459883300,9.86488330078125,1.1779472827911377,-0.06224924325942993,1.2114660739898682
1781215530540693800,9.94569384765625,2.5450363159179688,-0.35913026332855225,2.0015525817871094
1781215530591139300,9.996139404296875,2.1739351749420166,0.028730420395731926,1.501164436340332
1781215530661665500,10.06666552734375,1.4317326545715332,0.05985504388809204,0.7038952708244324
1781215530732191700,10.137191650390625,0.6033388376235962,0.3208230137825012,0.23702596127986908
1781215530802687200,10.207687255859375,-0.038307227194309235,-0.6200982332229614,0.3878606855869293
1781215530883284200,10.2882841796875,-0.9481038451194763,-0.7996633648872375,-0.33758243918418884
1781215530943739400,10.348739501953125,-1.4389152526855469,0.9816226959228516,-1.6519991159439087
1781215530953810200,10.35881005859375,-1.7573440074920654,1.558625340461731,-2.049436569213867
1781215530963881000,10.368880859375,-1.843535304069519,2.094926595687866,-2.425326347351074
1781215530973921300,10.37892138671875,-2.0829553604125977,2.2409727573394775,-2.561795711517334
1781215530994093600,10.399093505859375,-1.7381904125213623,2.123656988143921,-2.5929205417633057
1781215531004164400,10.409164306640625,-1.7357962131500244,2.118868589401245,-2.9281086921691895
1781215531024306000,10.429305908203125,-2.188300371170044,2.715024709701538,-3.751713991165161
1781215531034376700,10.439376708984375,-2.360682964324951,3.308786630630493,-3.490746021270752
1781215531044447500,10.449447509765625,-2.5067291259765625,3.756502389907837,-3.1962592601776123
1781215531054548700,10.459548828125,-2.535459518432617,4.199429988861084,-2.7988216876983643
1781215531064619500,10.46961962890625,-2.2146365642547607,4.426878929138184,-2.4851813316345215
1781215531084730600,10.489730712890625,-1.9369091987609863,4.623203277587891,-1.7525556087493896
1781215531094832000,10.49983203125,-1.8818424940109253,4.546588897705078,-1.5825673341751099
1781215531104903000,10.50990283203125,-2.011129379272461,4.520252704620361,-1.2976573705673218
1781215531115004200,10.520004150390625,-2.1092917919158936,4.446032524108887,-1.1994950771331787
1781215531125105400,10.53010546875,-2.315192937850952,4.37420654296875,-1.3239935636520386
1781215531165358000,10.570358154296875,-2.1140801906585693,4.323928356170654,-1.886630892753601
1781215531205580300,10.610580322265625,-1.723825216293335,2.248155355453491,-3.050212860107422
1781215531245863400,10.650863525390625,-0.9552865028381348,1.4532804489135742,-3.6750996112823486
1781215531266005000,10.6710048828125,-0.6033388376235962,1.3982137441635132,-4.252102375030518
1781215531276076000,10.681075927734375,-0.7805097699165344,1.5969325304031372,-4.5825018882751465
1781215531286146800,10.691146728515625,-1.015141487121582,1.7764976024627686,-5.04218864440918
1781215531296217600,10.701217529296875,-1.237802267074585,1.9943699836730957,-5.3127336502075195
1781215531306318800,10.71131884765625,-1.3718775510787964,2.188300371170044,-5.683835029602051
1781215531316389600,10.7213896484375,-1.2856862545013428,2.3032219409942627,-5.710171222686768
1781215531386854700,10.791854736328125,1.0773907899856567,-0.15801730751991272,-5.74129581451416
1781215531437239300,10.8422392578125,2.343923568725586,-3.069366693496704,-5.4444146156311035
1781215531527876400,10.93287646484375,3.1890766620635986,-3.9240965843200684,-1.6184803247451782
1781215531537947100,10.942947021484375,3.1866824626922607,-3.907337188720703,-1.6974890232086182
1781215531548018200,10.95301806640625,3.1675288677215576,-4.022258758544922,-1.7573440074920654
1781215531588331800,10.993331787109375,2.8227639198303223,-3.9600095748901367,-1.1540051698684692
1781215531598433000,11.00343310546875,2.626439332962036,-3.9863457679748535,-1.0271124839782715
1781215531608534500,11.013534423828125,2.2218191623687744,-3.869029998779297,-0.7733271718025208
1781215531618605300,11.023605224609375,1.800439715385437,-3.706224203109741,-0.6248866319656372
1781215531628676000,11.033676025390625,1.50355863571167,-3.758896589279175,-0.4572925269603729
1781215531638747000,11.043746826171875,1.3838485479354858,-3.7205893993377686,-0.17238251864910126
1781215531689131300,11.09413134765625,0.8379706144332886,-3.8522706031799316,2.1595699787139893
1781215531699232800,11.104232666015625,0.6871358752250671,-3.9240965843200684,2.3535003662109375
1781215531709303600,11.114303466796875,0.524330198764801,-3.758896589279175,2.406172752380371
1781215531719404800,11.12440478515625,0.4165911078453064,-3.5194764137268066,2.3965959548950195
1781215531729475600,11.1344755859375,0.23702596127986908,-3.114856481552124,2.4229321479797363
1781215531739576800,11.144576904296875,0.17238251864910126,-2.7892448902130127,2.4157495498657227
1781215531749647600,11.154647705078125,0.33758243918418884,-2.6791117191314697,2.3965959548950195
1781215531759718400,11.164718505859375,0.5195417404174805,-2.6575639247894287,2.3319525718688965
1781215531779860000,11.18485986328125,0.6631938815116882,-2.868253707885742,2.056619167327881
1781215531799971000,11.20497119140625,0.4812345504760742,-2.760514497756958,1.6304513216018677
1781215531830183700,11.23518359375,0.21547815203666687,-2.0853497982025146,1.036689281463623
1781215531840285000,11.245284912109375,0.3758896589279175,-2.1068975925445557,0.8690952062606812
1781215531850325200,11.2553251953125,0.5267243981361389,-2.0231003761291504,0.5746083855628967
1781215531860396000,11.26539599609375,0.6799532771110535,-2.0374655723571777,0.2992752194404602
1781215531900587500,11.30558740234375,0.2346317619085312,-1.4053963422775269,-0.6775590777397156
1781215531940901400,11.3459013671875,0.7445967197418213,-2.0159177780151367,-1.2521674633026123
1781215531950972200,11.35597216796875,0.7589619159698486,-2.10210919380188,-1.3215993642807007
1781215531961043000,11.36604296875,0.7661445140838623,-2.0374655723571777,-1.5490485429763794
1781215531971083300,11.376083251953125,0.7613561153411865,-1.7046716213226318,-1.8267759084701538
1781215531981184500,11.3861845703125,0.8882488012313843,-1.280897855758667,-2.1380221843719482
1781215531991285800,11.39628564453125,1.0127472877502441,-1.1085153818130493,-2.432508945465088
1781215532001326000,11.406326171875,1.1228805780410767,-1.0295066833496094,-2.765302896499634
1781215532031569200,11.436569091796875,0.9050082564353943,-0.629675030708313,-2.9520506858825684
1781215532041640000,11.446639892578125,0.7469909191131592,-0.3998316824436188,-3.0813376903533936
1781215532051710700,11.456710693359375,0.4429273009300232,-0.035913024097681046,-3.2632968425750732
1781215532061781500,11.466781494140625,0.24899697303771973,0.15322890877723694,-3.550601005554199
1781215532071852300,11.476852294921875,0.15562310814857483,0.26815059781074524,-3.9839515686035156
1781215532081923000,11.486923095703125,0.17238251864910126,0.2059013396501541,-4.424484729766846
1781215532091963400,11.49696337890625,0.31842881441116333,0.18914192914962769,-4.881777286529541
1781215532102064600,11.507064697265625,0.3902548849582672,0.033518824726343155,-5.2911858558654785
1781215532112135400,11.517135498046875,0.38546648621559143,-0.3064578175544739,-5.700594425201416
1781215532122206200,11.527206298828125,0.44771572947502136,-0.507570743560791,-6.011840343475342
1781215532132307700,11.5373076171875,0.2968810200691223,-0.5434837937355042,-6.445190906524658
1781215532142409000,11.547408935546875,0,-0.45250412821769714,-6.718130111694336
1781215532152479700,11.557479736328125,-0.16759411990642548,-0.2561795711517334,-6.979097843170166
1781215532162550500,11.567550537109375,-0.30885201692581177,-0.20350714027881622,-7.177816867828369
1781215532172621300,11.577621337890625,-0.33758243918418884,-0.33518823981285095,-7.386112213134766
1781215532182692000,11.587692138671875,-0.2968810200691223,-0.6224924325942993,-7.501033782958984
1781215532192763000,11.597762939453125,-0.2849099934101105,-1.01753568649292,-7.704541206359863
1781215532253340400,11.65834033203125,-0.8475474119186401,-0.3902548849582672,-7.254431247711182
1781215532263411200,11.6684111328125,-0.9744400978088379,-0.507570743560791,-7.350199222564697
1781215532273512400,11.678512451171875,-1.094150185585022,-0.586579442024231,-7.42681360244751
1781215532283552800,11.688552734375,-1.0845733880996704,-0.4812345504760742,-7.3693528175354
1781215532354292500,11.75929248046875,-1.1635819673538208,-0.9050082564353943,-7.048529624938965
1781215532364393700,11.769393798828125,-1.4867992401123047,-0.8619126081466675,-6.9455790519714355
1781215532374495000,11.779494873046875,-1.6927006244659424,-0.5147533416748047,-6.746860504150391
1781215532384627000,11.789626953125,-1.7764976024627686,-0.014365210197865963,-6.519411087036133
1781215532394758700,11.799758544921875,-2.013523578643799,0.40462008118629456,-6.143521785736084
1781215532404860200,11.809860107421875,-2.013523578643799,1.0247182846069336,-5.681440830230713
1781215532414961400,11.81996142578125,-1.6687586307525635,1.091755986213684,-5.193023681640625
1781215532425062700,11.830062744140625,-1.53707754611969,0.7948749661445618,-4.927267074584961
1781215532435164200,11.8401640625,-1.4101848602294922,0.6416460275650024,-5.0469770431518555
1781215532445265400,11.850265380859375,-1.5729905366897583,0.4118026793003082,-4.932055473327637
1781215532455366700,11.86036669921875,-1.7549498081207275,0.31364041566848755,-4.841075897216797
1781215532465468000,11.870468017578125,-2.0901381969451904,0.9457096457481384,-4.568136692047119
1781215532475600000,11.880599853515625,-2.1739351749420166,1.1971008777618408,-4.596867084503174
1781215532485701000,11.890701171875,-2.1045033931732178,1.2425906658172607,-4.481945514678955
1781215532495802400,11.90080224609375,-2.1284453868865967,1.0989385843276978,-4.134786128997803
1781215532505903900,11.91090380859375,-1.886630892753601,0.7637503147125244,-4.005499362945557
1781215532516005000,11.921005126953125,-1.4317326545715332,0.47165772318840027,-3.9025487899780273
1781215532536208000,11.941207763671875,-1.338358759880066,-0.42377370595932007,-3.8977603912353516
1781215532546309000,11.95130908203125,-1.5634137392044067,-0.36152446269989014,-3.799597978591919
1781215532556410400,11.961410400390625,-2.1092917919158936,-0.07422025501728058,-3.5242648124694824
1781215532586714400,11.99171435546875,-2.583343744277954,0.31842881441116333,-2.935291290283203
1781215532596815600,12.001815673828125,-2.518700122833252,0.09576806426048279,-2.7988216876983643
1781215532606916900,12.011916748046875,-2.1763293743133545,0.06224924325942993,-2.6360161304473877
1781215532617018400,12.022018310546875,-1.4939818382263184,-0.038307227194309235,-2.5115175247192383
1781215532677656800,12.08265673828125,-1.8124107122421265,-0.4596867263317108,-2.6455929279327393
1781215532697889800,12.102889892578125,-1.886630892753601,-0.3495534360408783,-3.0406360626220703
1781215532707991300,12.1129912109375,-1.8315643072128296,-0.3064578175544739,-2.9903578758239746
1781215532718092500,12.123092529296875,-1.5442601442337036,-0.08379705995321274,-2.628833532333374
1781215532728224300,12.133224365234375,-1.7549498081207275,-0.2944868206977844,-2.094926595687866
1781215532738325800,12.14332568359375,-1.2689268589019775,-0.5937620401382446,-1.577778935432434
1781215532748427000,12.153427001953125,-0.8355764150619507,-1.5155296325683594,-1.1899182796478271
1781215532758528300,12.1635283203125,-0.545877993106842,-2.5091233253479004,-1.1468225717544556
1781215532778731000,12.18373095703125,0.17477671802043915,-3.2968156337738037,-1.259350061416626
1781215532788832300,12.193832275390625,0.19153612852096558,-2.920926094055176,-1.3239935636520386
1781215532798933500,12.20393359375,0.524330198764801,-2.669534921646118,-1.5203180313110352
1781215532809035000,12.214034912109375,0.8331822156906128,-3.2848446369171143,-1.556231141090393
1781215532819136300,12.22413623046875,1.0534487962722778,-4.041412353515625,-1.5083470344543457
1781215532829237500,12.234237548828125,1.5059528350830078,-4.608838081359863,-1.4245500564575195
1781215532859449900,12.264449951171875,3.2632968425750732,-5.7125654220581055,-1.2090718746185303
1781215532869551400,12.27455126953125,3.4404678344726562,-5.834669589996338,-1.3192051649093628
1781215532879622100,12.2846220703125,3.5482068061828613,-5.609614372253418,-1.2832920551300049
1781215532889662500,12.294662353515625,3.24414324760437,-5.389348030090332,-1.3862427473068237
1781215532899733200,12.304733154296875,2.784456491470337,-4.819528102874756,-1.1971008777618408
1781215532940016400,12.345016357421875,1.8148049116134644,-4.230554580688477,-0.7781155705451965
1781215532950056700,12.355056640625,1.9153614044189453,-4.113238334655762,-0.8786720037460327
1781215532980330000,12.385330078125,1.3934253454208374,-2.1978771686553955,-1.0534487962722778
1781215532990400800,12.39540087890625,0.8355764150619507,-1.50355863571167,-0.8954314589500427
1781215533000502300,12.405502197265625,0.3256114423274994,-1.072602391242981,-0.7709329724311829
1781215533010542600,12.41554248046875,-0.021547814831137657,-0.9385270476341248,-0.45489832758903503
1781215533020643800,12.425643798828125,-0.19632454216480255,-1.2090718746185303,-0.15083470940589905
1781215533030745000,12.4357451171875,-0.22026655077934265,-1.3646949529647827,0.05506663769483566
1781215533040815900,12.44581591796875,-0.24899697303771973,-1.4197616577148438,0.22026655077934265
1781215533050825700,12.45582568359375,0.08379705995321274,-1.070208191871643,0.3495534360408783
1781215533060927000,12.465927001953125,0.5793967843055725,-0.5770025849342346,0.3998316824436188
1781215533070997800,12.475997802734375,0.8068459630012512,-0.10534487664699554,0.5626373887062073
1781215533081099000,12.48609912109375,0.7996633648872375,0.2944868206977844,0.8044517636299133
1781215533091200500,12.496200439453125,0.6320692300796509,0.4381389021873474,1.213860273361206
1781215533101271300,12.506271240234375,0.5817909836769104,0.6177040338516235,1.5538369417190552
1781215533111372500,12.51637255859375,0.5889736413955688,0.5291185975074768,1.6376339197158813
1781215533161726500,12.5667265625,1.3215993642807007,0.21787235140800476,1.3718775510787964
1781215533232252700,12.637252685546875,0.8738836050033569,-0.05027823522686958,2.2888567447662354
1781215533252394200,12.657394287109375,1.357512354850769,0.7350199222564697,2.0231003761291504
1781215533262495500,12.66749560546875,1.290474772453308,1.1420341730117798,1.9728221893310547
1781215533272597000,12.677596923828125,1.1324573755264282,1.094150185585022,1.9488801956176758
1781215533292769000,12.69776904296875,0.9145850539207458,0.43095630407333374,2.3726539611816406
1781215533302839800,12.70783984375,0.42377370595932007,0.35913026332855225,2.607285737991333
1781215533312941000,12.717941162109375,-0.1604115068912506,0.629675030708313,3.136404275894165
1781215533323042600,12.72804248046875,-0.12449848651885986,0.7637503147125244,3.136404275894165
1781215533333143800,12.738143798828125,0.14604631066322327,1.0199298858642578,3.026270866394043
1781215533343214600,12.748214599609375,0.4644751250743866,0.9696516990661621,2.6862943172454834
1781215533353285400,12.758285400390625,0.9241618514060974,1.0295066833496094,2.4420857429504395
1781215533363356200,12.768356201171875,1.1875240802764893,0.9792284965515137,2.1356279850006104
1781215533373427000,12.778427001953125,1.359906554222107,0.9050082564353943,2.013523578643799
1781215533383497700,12.788497802734375,1.2497732639312744,0.8355764150619507,1.922544002532959
1781215533393568500,12.798568603515625,1.0534487962722778,0.8906430602073669,1.9536685943603516
1781215533403639300,12.808639404296875,0.6919242739677429,0.9241618514060974,2.164358377456665
1781215533413710000,12.8187099609375,0.6703764796257019,1.0342950820922852,2.2026655673980713
1781215533433912800,12.838912841796875,0.7254431247711182,0.6320692300796509,2.5258827209472656
1781215533443953200,12.848953125,0.8547300100326538,0.6129156351089478,2.7509377002716064
1781215533454054400,12.859054443359375,1.0462661981582642,0.5363011956214905,2.913743495941162
1781215533464125200,12.869125244140625,1.5131354331970215,0.28969839215278625,2.9688100814819336
1781215533474196000,12.879196044921875,1.9345149993896484,-0.1867477297782898,2.9448680877685547
1781215533484297500,12.88929736328125,2.3271639347076416,-0.5123591423034668,2.8802247047424316
1781215533494398700,12.899398681640625,2.604891538619995,-0.304063618183136,2.9089550971984863
1781215533504439000,12.90943896484375,2.8131868839263916,-0.36152446269989014,2.980781078338623
1781215533524611000,12.929611083984375,2.4827871322631836,0.05506663769483566,2.741360902786255
1781215533534712300,12.93971240234375,2.0183119773864746,0.5482721924781799,2.7317841053009033
1781215533544783000,12.949783203125,1.5682021379470825,0.9648633003234863,2.8179752826690674
1781215533554854000,12.95985400390625,1.316810965538025,1.259350061416626,2.9448680877685547
1781215533575026200,12.980026123046875,0.912190854549408,1.3910311460494995,2.765302896499634
1781215533585097000,12.990096923828125,1.1204863786697388,1.45806884765625,2.542642116546631
1781215533595167700,13.000167724609375,1.2880805730819702,1.2473790645599365,2.3702597618103027
1781215533605269000,13.01026904296875,1.1899182796478271,0.7038952708244324,2.2673089504241943
1781215533655714600,13.060714599609375,0.28969839215278625,0.629675030708313,2.427720546722412
1781215533726271200,13.131271240234375,-0.47405192255973816,-0.5267243981361389,1.6352397203445435
1781215533756544800,13.161544677734375,-0.35913026332855225,-0.3878606855869293,1.1085153818130493
1781215533766615600,13.171615478515625,-0.35673606395721436,-0.21308395266532898,0.8236053586006165
1781215533816969500,13.221969482421875,-0.5722141861915588,0.272938996553421,0.1364694982767105
1781215533827070700,13.23207080078125,-0.5123591423034668,0.4668693244457245,0.0933738648891449
1781215533837172200,13.242172119140625,-0.569819986820221,0.6177040338516235,0.06224924325942993
1781215533847212300,13.25221240234375,-0.08858546614646912,0.7613561153411865,-0.05027823522686958
1781215533857283000,13.262282958984375,0.17956513166427612,0.27054479718208313,-0.3687070608139038
1781215533867354000,13.27235400390625,0.2753331959247589,0.0071826050989329815,-0.5841852426528931
1781215533877425000,13.2824248046875,0.1388636976480484,0.17956513166427612,-0.4908113479614258
1781215533887526100,13.292526123046875,0.16759411990642548,0.2585737705230713,-0.43095630407333374
1781215533927809300,13.332809326171875,-1.1635819673538208,0.06464344263076782,-0.2513911724090576
1781215533937910500,13.34291064453125,-1.5155296325683594,0.1628057211637497,-0.3208230137825012
1781215533968123100,13.373123046875,-1.9632453918457031,1.1803414821624756,-0.9409212470054626
1781215533978224400,13.383224365234375,-1.9943699836730957,1.256955862045288,-1.3718775510787964
1781215533988295200,13.393295166015625,-2.0398597717285156,1.3431471586227417,-1.8722656965255737
1781215533998396400,13.403396484375,-2.183511972427368,1.5179238319396973,-2.248155355453491
1781215534008467200,13.41346728515625,-2.4660277366638184,1.5825673341751099,-2.7054479122161865
1781215534018568700,13.423568603515625,-2.6216509342193604,1.802833914756775,-3.023876667022705
1781215534048750600,13.45375048828125,-3.3734302520751953,2.5522189140319824,-3.936067581176758
1781215534058821400,13.4638212890625,-3.60566782951355,2.75812029838562,-4.01268196105957
1781215534068892200,13.47389208984375,-3.6798880100250244,2.959233283996582,-3.9240965843200684
1781215534078993400,13.483993408203125,-3.581725835800171,3.0885202884674072,-3.471592426300049
1781215534089033700,13.49403369140625,-3.2345664501190186,3.5266590118408203,-2.4588451385498047
1781215534099135000,13.504135009765625,-2.9472622871398926,3.8953661918640137,-1.8626888990402222
1781215534109205800,13.514205810546875,-2.8347349166870117,4.199429988861084,-1.4077905416488647
1781215534119246000,13.52424609375,-2.6623523235321045,4.551377296447754,-1.2545616626739502
1781215534129286400,13.534286376953125,-2.518700122833252,4.417302131652832,-1.3431471586227417
1781215534189680600,13.5946806640625,-1.5131354331970215,1.0965443849563599,-0.706289529800415
1781215534199751400,13.60475146484375,-1.3742717504501343,1.3551181554794312,-0.44771572947502136
1781215534209791700,13.614791748046875,-1.6208745241165161,1.766920804977417,-0.272938996553421
1781215534219893000,13.62489306640625,-1.6208745241165161,1.9369091987609863,-0.2944868206977844
1781215534229963800,13.6349638671875,-1.723825216293335,2.0925323963165283,-0.3232172429561615
1781215534250075000,13.655074951171875,-1.7381904125213623,1.7764976024627686,-0.5267243981361389
1781215534260176100,13.665176025390625,-1.7477672100067139,1.5490485429763794,-0.6129156351089478
1781215534330702300,13.735702392578125,-2.233790159225464,1.1827356815338135,-2.937685489654541
1781215534381087000,13.7860869140625,-0.9002198576927185,-1.8148049116134644,-3.620033025741577
1781215534391157800,13.79615771484375,-0.8427590131759644,-1.7812861204147339,-3.1028854846954346
1781215534441511700,13.84651171875,-0.5650315880775452,-1.4245500564575195,-3.160346269607544
1781215534471846100,13.87684619140625,-0.047884032130241394,-2.2649147510528564,-2.2864625453948975
1781215534481947400,13.886947509765625,0.3711012601852417,-2.698265314102173,-1.9967641830444336
1781215534492049000,13.897048828125,0.9983820915222168,-2.9927520751953125,-1.8746598958969116
1781215534502150100,13.907150146484375,1.3982137441635132,-3.227383852005005,-1.5490485429763794
1781215534512221000,13.917220947265625,1.6041151285171509,-3.3638534545898438,-1.158793568611145
1781215534522322200,13.927322265625,1.6927006244659424,-3.3854012489318848,-1.094150185585022
1781215534562636000,13.967635986328125,1.1516109704971313,-2.9257144927978516,-1.2641384601593018
1781215534572706800,13.977706787109375,0.8810662031173706,-2.80361008644104,-1.3886369466781616
1781215534582777600,13.987777587890625,0.7829039692878723,-2.75812029838562,-1.3694833517074585
1781215534592848400,13.997848388671875,0.7661445140838623,-2.7988216876983643,-1.4101848602294922
1781215534602919200,14.007919189453125,0.751779317855835,-2.892195701599121,-1.3120225667953491
1781215534613020400,14.0180205078125,0.7326257228851318,-3.0382418632507324,-1.3000515699386597
1781215534623091200,14.02809130859375,0.8020575642585754,-3.162740468978882,-1.2521674633026123
1781215534633162000,14.038161865234375,0.9648633003234863,-3.359065055847168,-1.3886369466781616
1781215534643263500,14.048263427734375,1.1540051698684692,-3.6750996112823486,-1.4748282432556152
1781215534653334300,14.058334228515625,1.0438719987869263,-3.869029998779297,-1.6711528301239014
1781215534663435500,14.068435546875,0.9265560507774353,-4.101267337799072,-1.7190368175506592
1781215534764326700,14.16932666015625,1.4700398445129395,-5.863399982452393,1.0319008827209473
1781215534784559900,14.189559814453125,1.3503297567367554,-5.978321552276611,1.3694833517074585
1781215534794661000,14.1996611328125,1.3048399686813354,-5.95677375793457,1.4628572463989258
1781215534804762400,14.209762451171875,1.192312479019165,-5.872976779937744,1.5059528350830078
1781215534814864000,14.21986376953125,1.0797849893569946,-5.856217384338379,1.338358759880066
1781215534824965000,14.229965087890625,1.015141487121582,-5.681440830230713,1.290474772453308
1781215534835066400,14.24006640625,0.9648633003234863,-5.506663799285889,1.213860273361206
1781215534855238400,14.26023828125,1.0055646896362305,-5.0900726318359375,1.400607943534851
1781215534865340000,14.27033984375,0.8834604024887085,-4.903325080871582,1.5634137392044067
1781215534875441200,14.280441162109375,0.8619126081466675,-4.6471452713012695,1.7286136150360107
1781215534885542400,14.29054248046875,0.730231523513794,-4.2544965744018555,1.8339585065841675
1781215534895644000,14.300643798828125,0.7996633648872375,-3.9863457679748535,1.9369091987609863
1781215534905745200,14.3107451171875,0.7924807667732239,-3.620033025741577,1.987187385559082
1781215534915846400,14.320846435546875,0.8068459630012512,-3.2561142444610596,1.8746598958969116
1781215534976454400,14.381454345703125,0.8451532125473022,-1.45806884765625,-0.36152446269989014
1781215534986525200,14.391525146484375,0.8595184087753296,-1.3670891523361206,-0.7565677165985107
1781215534996657000,14.401656982421875,0.9313444495201111,-1.3718775510787964,-0.8595184087753296
1781215535006758400,14.41175830078125,0.9792284965515137,-1.2713210582733154,-0.8236053586006165
1781215535016890000,14.42189013671875,1.0319008827209473,-1.1037269830703735,-0.7733271718025208
1781215535047194000,14.452194091796875,1.3000515699386597,-1.3000515699386597,-0.6177040338516235
1781215535057295400,14.46229541015625,1.1971008777618408,-1.1899182796478271,-0.912190854549408
1781215535067396600,14.472396728515625,1.0414776802062988,-0.7757213711738586,-1.1994950771331787
1781215535077498000,14.482498046875,0.8475474119186401,-0.4908113479614258,-1.381454348564148
1781215535087599400,14.492599365234375,0.5339069962501526,-0.38067805767059326,-1.3431471586227417
1781215535097670100,14.502670166015625,0.4620809257030487,-0.37828385829925537,-1.359906554222107
1781215535107771400,14.512771484375,0.45489832758903503,-0.507570743560791,-1.5322890281677246
1781215535117873000,14.522872802734375,0.45250412821769714,-0.6919242739677429,-1.8746598958969116
1781215535127943700,14.532943603515625,0.49320554733276367,-1.1779472827911377,-2.27209734916687
1781215535138075400,14.543075439453125,0.6847416758537292,-1.3910311460494995,-2.8874073028564453
1781215535148146200,14.553146240234375,0.9385270476341248,-1.3407529592514038,-3.5745432376861572
1781215535158247400,14.563247314453125,0.9313444495201111,-1.1683704853057861,-4.043806552886963
1781215535168287700,14.573287841796875,0.6703764796257019,-0.8140285611152649,-4.383783340454102
1781215535178389200,14.58338916015625,0.507570743560791,-0.6416460275650024,-4.69024133682251
1781215535198530800,14.60353076171875,0.2537853717803955,-0.8403648138046265,-4.865017890930176
1781215535218702800,14.623702880859375,0.9959878921508789,-1.434126853942871,-4.8937482833862305
1781215535228773600,14.633773681640625,1.3742717504501343,-1.7334020137786865,-4.924872875213623
1781215535238844400,14.643844482421875,1.599326729774475,-1.8914192914962769,-5.142745018005371
1781215535248884700,14.653884765625,1.699883222579956,-1.9033904075622559,-5.547365188598633
1781215535258925000,14.663925048828125,1.5873557329177856,-1.8962076902389526,-5.947196960449219
1781215535269026300,14.6740263671875,1.1827356815338135,-1.7980455160140991,-6.1770405769348145
1781215535289168000,14.69416796875,0.524330198764801,-1.314416766166687,-6.294356346130371
1781215535299269400,14.704269287109375,0.22266076505184174,-1.1635819673538208,-6.208165168762207
1781215535309309400,14.714309326171875,0.033518824726343155,-1.115697979927063,-6.236895561218262
1781215535319380500,14.72438037109375,-0.13168109953403473,-1.1563993692398071,-6.033388137817383
1781215535329420500,14.734420654296875,0.09816227108240128,-1.0797849893569946,-6.028599739074707
1781215535339552500,14.744552490234375,0.4213795065879822,-1.2425906658172607,-6.011840343475342
1781215535400007700,14.805007568359375,-0.8140285611152649,-1.0055646896362305,-6.31829833984375
1781215535410017500,14.815017578125,-1.3096283674240112,-0.6105214357376099,-6.2847795486450195
1781215535420118800,14.825118896484375,-1.5610195398330688,-0.45010992884635925,-6.155492782592773
1781215535440260600,14.845260498046875,-1.5825673341751099,0.023942016065120697,-6.1052141189575195
1781215535480574200,14.88557421875,-2.1092917919158936,1.1875240802764893,-6.196194171905518
1781215535500715800,14.9057158203125,-3.287238836288452,1.45806884765625,-5.252878665924072
1781215535510786600,14.91578662109375,-3.421314239501953,1.6376339197158813,-5.058948040008545
1781215535520857300,14.925857421875,-3.3638534545898438,1.8387469053268433,-4.821922302246094
1781215535551100400,14.956100341796875,-2.6623523235321045,1.7357962131500244,-4.3191399574279785
1781215535631788800,15.036788818359375,-2.8347349166870117,1.6831238269805908,-3.667917013168335
1781215535661970700,15.066970703125,-2.559401512145996,0.8188169598579407,-4.352658748626709
1781215535692183000,15.09718310546875,-2.3918075561523438,0.7206547260284424,-4.438849925994873
1781215535702223400,15.107223388671875,-2.557007312774658,0.4836287498474121,-4.266467571258545
1781215535712294100,15.117294189453125,-2.741360902786255,0.1388636976480484,-4.225766181945801
1781215535722365000,15.127364990234375,-3.181894063949585,0.002394201699644327,-4.065354347229004
1781215535732405200,15.1374052734375,-3.428496837615967,-0.011971008032560349,-3.5266590118408203
1781215535752577300,15.157577392578125,-3.0765492916107178,-0.5746083855628967,-2.319981336593628
1781215535762648000,15.16764794921875,-2.3774423599243164,-1.292868971824646,-1.9560627937316895
1781215535772688400,15.1776884765625,-1.6903064250946045,-2.1978771686553955,-1.5418659448623657
1781215535823134000,15.228134033203125,0.9097966551780701,-4.10366153717041,-0.608127236366272
1781215535833204700,15.238204833984375,0.4812345504760742,-4.333505153656006,-1.0007762908935547
1781215535843275500,15.248275634765625,0.1412578970193863,-4.3861775398254395,-1.0534487962722778
1781215535853346300,15.25834619140625,0.10055647045373917,-4.321534156799316,-0.7948749661445618
1781215535903731000,15.30873095703125,1.0103530883789062,-4.367023944854736,-0.47165772318840027
1781215535913771300,15.318771240234375,0.6751648783683777,-3.6511576175689697,-0.26815059781074524
1781215535923842000,15.328842041015625,0.15801730751991272,-3.0597896575927734,-0.1364694982767105
1781215535933912800,15.338912841796875,-0.16998831927776337,-2.4013843536376953,-0.05506663769483566
1781215535944014000,15.34901416015625,-0.4644751250743866,-1.7357962131500244,0.08140286058187485
1781215535954084900,15.3590849609375,-0.8164227604866028,-1.2018892765045166,0.14365209639072418
1781215535964186400,15.369186279296875,-0.9911994934082031,-0.7565677165985107,0.33039984107017517
1781215535974257200,15.379257080078125,-1.0342950820922852,-0.36152446269989014,0.45489832758903503
1781215535984328000,15.389327880859375,-0.7038952708244324,-0.026336219161748886,0.29209262132644653
1781215535994429200,15.39942919921875,-0.3758896589279175,0.4118026793003082,0.17238251864910126
1781215536004500000,15.4095,-0.028730420395731926,0.7134721279144287,0
1781215536014570800,15.41957080078125,-0.019153613597154617,0.6392518281936646,0.040701430290937424
1781215536024580600,15.42958056640625,0.06224924325942993,0.7469909191131592,0.14604631066322327
1781215536034681900,15.439681884765625,0.06224924325942993,0.8690952062606812,0.5171475410461426
1781215536044752600,15.449752685546875,-0.15322890877723694,1.158793568611145,0.8020575642585754
1781215536054823400,15.459823486328125,-0.272938996553421,1.2545616626739502,0.9050082564353943
1781215536064924700,15.469924560546875,-0.43335050344467163,0.933738648891449,0.8331822156906128
1781215536074995700,15.47999560546875,-0.4644751250743866,0.6991068720817566,0.5913678407669067
1781215536115309300,15.520309326171875,1.4891934394836426,0.35434186458587646,0.6847416758537292
1781215536125380000,15.530380126953125,1.647210717201233,0.14604631066322327,0.8547300100326538
1781215536165724400,15.570724365234375,0.9983820915222168,0.8643068075180054,1.2258312702178955
1781215536175795200,15.580795166015625,0.8810662031173706,1.072602391242981,1.1779472827911377
1781215536185896400,15.590896484375,0.8259995579719543,1.2282254695892334,1.1228805780410767
1781215536276533800,15.68153369140625,1.1061211824417114,1.2689268589019775,1.6208745241165161
1781215536357008600,15.762008544921875,1.3096283674240112,0.6919242739677429,0.9768342971801758
1781215536407362600,15.812362548828125,2.4444799423217773,0.6129156351089478,1.1085153818130493
1781215536417433300,15.822433349609375,2.652775526046753,0.2298433631658554,1.2306196689605713
1781215536427534600,15.83253466796875,2.7246015071868896,-0.08858546614646912,1.6352397203445435
1781215536437605400,15.84260546875,2.537853717803955,0.06464344263076782,1.702277421951294
1781215536447645700,15.852645751953125,2.427720546722412,0.19393034279346466,1.7956513166427612
1781215536457716500,15.862716552734375,2.0829553604125977,0.31603461503982544,1.7549498081207275
1781215536467787300,15.872787353515625,1.7118542194366455,0.3998316824436188,1.8124107122421265
1781215536477858000,15.882858154296875,1.5083470344543457,0.5602431893348694,1.9345149993896484
1781215536487868000,15.892867919921875,1.3694833517074585,0.5363011956214905,2.0590133666992188
1781215536497969200,15.90296923828125,1.213860273361206,0.5722141861915588,2.231395959854126
1781215536508040000,15.9130400390625,1.2521674633026123,0.6536170840263367,2.2577321529388428
1781215536518110700,15.92311083984375,1.3024457693099976,0.5602431893348694,2.2864625453948975
1781215536538252500,15.94325244140625,1.6065093278884888,0.2777273952960968,2.2218191623687744
1781215536548353800,15.953353759765625,1.8698714971542358,0.24899697303771973,2.10210919380188
1781215536558424600,15.963424560546875,2.049436569213867,0.33758243918418884,1.9153614044189453
1781215536568465000,15.97346484375,2.0805611610412598,0.38546648621559143,1.8195933103561401
1781215536578535700,15.98353564453125,2.0254945755004883,0.545877993106842,1.7812861204147339
1781215536649061600,16.0540615234375,1.9057846069335938,-0.16998831927776337,1.173158884048462
1781215536659163100,16.0641630859375,1.9967641830444336,-0.2849099934101105,1.094150185585022
1781215536669264400,16.074264404296876,1.8914192914962769,-0.19871874153614044,0.9289502501487732
1781215536679335200,16.084335205078126,1.7262194156646729,-0.06224924325942993,0.6799532771110535
1781215536689406000,16.094406005859376,1.3886369466781616,0.28730419278144836,0.44771572947502136
1781215536699476700,16.104476806640626,1.0582371950149536,0.3495534360408783,0.2346317619085312
1781215536709578000,16.114577880859375,0.8044517636299133,0.42377370595932007,0.016759412363171577
1781215536739790600,16.14479052734375,0.7637503147125244,-0.19393034279346466,0.021547814831137657
1781215536749861400,16.154861328125,0.8978256583213806,-0.6847416758537292,-0.12449848651885986
1781215536759932200,16.16493212890625,0.8595184087753296,-0.8810662031173706,-0.26096799969673157
1781215536780104200,16.185104248046876,0.47644615173339844,-0.38307225704193115,-0.3974374830722809
1781215536790205400,16.195205322265625,0.06224924325942993,-0.08619125932455063,-0.3878606855869293
1781215536810347300,16.21534716796875,-1.1300631761550903,0.6799532771110535,0.038307227194309235
1781215536820448500,16.225448486328126,-1.070208191871643,1.072602391242981,0.24899697303771973
1781215536860853800,16.265853759765626,-0.9313444495201111,0.8020575642585754,-0.2106897532939911
1781215536891096600,16.2960966796875,-0.7589619159698486,0.5985504388809204,-0.7445967197418213
1781215536931501800,16.336501708984375,-1.3048399686813354,1.2330138683319092,-1.1994950771331787
1781215536941603300,16.346603271484376,-1.314416766166687,1.4173674583435059,-1.4676456451416016
1781215536951674000,16.356674072265626,-1.1875240802764893,1.5298948287963867,-1.8363527059555054
1781215536961805800,16.366805908203126,-1.2761094570159912,1.623268723487854,-2.341529369354248
1781215536971937800,16.376937744140626,-1.2976573705673218,1.656787633895874,-2.7772738933563232
1781215536982069500,16.387069580078126,-1.3503297567367554,1.721431016921997,-3.28963303565979
1781215536992201500,16.397201416015626,-1.4508862495422363,1.8387469053268433,-3.687070608139038
1781215537002302700,16.407302734375,-1.3479355573654175,1.9752163887023926,-4.000710964202881
1781215537012404000,16.417404052734376,-1.0678139925003052,1.9752163887023926,-4.355052947998047
1781215537032606700,16.437606689453126,0.18914192914962769,2.0853497982025146,-4.616020679473877
1781215537042708000,16.4477080078125,0.5123591423034668,2.1380221843719482,-4.6471452713012695
1781215537052809200,16.457809326171876,0.043095629662275314,2.276885747909546,-4.489128112792969
1781215537062910700,16.46791064453125,-0.6512228846549988,2.5785553455352783,-4.039018154144287
1781215537073012000,16.478011962890626,-1.4293384552001953,3.0358476638793945,-3.507505416870117
1781215537083113200,16.48811328125,-2.229001760482788,3.471592426300049,-3.177105665206909
1781215537093184000,16.49818408203125,-2.942473888397217,3.754108190536499,-2.7748796939849854
1781215537103285500,16.508285400390626,-3.5194764137268066,4.022258758544922,-2.298433542251587
1781215537113417200,16.518417236328126,-3.8091750144958496,4.424484729766846,-2.0805611610412598
1781215537123418600,16.528418701171876,-3.8977603912353516,4.534617900848389,-2.030282974243164
1781215537133520000,16.538519775390625,-3.823540210723877,4.278438568115234,-2.2146365642547607
1781215537143621000,16.54862109375,-3.7684733867645264,4.141968727111816,-2.3487119674682617
1781215537153692000,16.55869189453125,-3.5434184074401855,3.9193081855773926,-2.5067291259765625
1781215537163823900,16.568823974609376,-3.24414324760437,3.7277719974517822,-2.6216509342193604
1781215537173955600,16.57895556640625,-2.8658595085144043,3.7253777980804443,-2.762908697128296
1781215537184026400,16.5890263671875,-2.695871114730835,3.713406801223755,-2.6886885166168213
1781215537194128000,16.5991279296875,-2.6862943172454834,3.620033025741577,-2.585737943649292
1781215537285100500,16.6901005859375,-1.3838485479354858,3.1962592601776123,-4.991910457611084
1781215537355901400,16.7609013671875,1.3646949529647827,0.15083470940589905,-7.436390399932861
1781215537365972200,16.77097216796875,1.3766659498214722,-0.23942017555236816,-6.775590896606445
1781215537376104200,16.781104248046876,1.3024457693099976,-0.4596867263317108,-6.026205539703369
1781215537416509400,16.821509521484376,1.400607943534851,-1.6184803247451782,-4.390965938568115
1781215537436712000,16.8417119140625,1.644816517829895,-1.845929503440857,-4.132391929626465
1781215537507299000,16.912299072265625,3.138798475265503,-1.8579005002975464,-3.3925838470458984
1781215537517339400,16.92233935546875,3.2417490482330322,-1.8171991109848022,-3.2106244564056396
1781215537527349200,16.932349365234376,3.292027235031128,-1.7908629179000854,-2.9017724990844727
1781215537537450500,16.942450439453125,3.1914708614349365,-1.8626888990402222,-2.4420857429504395
1781215537547551700,16.9525517578125,3.1292216777801514,-1.8842366933822632,-2.2433669567108154
1781215537557653200,16.9626533203125,3.064578056335449,-1.946485996246338,-1.8770540952682495
1781215537567754500,16.97275439453125,3.136404275894165,-2.1475989818573,-1.558625340461731
1781215537577825300,16.9828251953125,3.1962592601776123,-2.2385785579681396,-1.2018892765045166
1781215537597936400,17.002936279296875,3.184288263320923,-2.6455929279327393,-0.6320692300796509
1781215537607946200,17.0129462890625,3.064578056335449,-2.7222073078155518,-0.31842881441116333
1781215537618047500,17.023047607421876,3.0382418632507324,-2.920926094055176,-0.2346317619085312
1781215537628118300,17.0331181640625,2.8107926845550537,-3.095702886581421,0.009576806798577309
1781215537638189000,17.04318896484375,2.604891538619995,-3.134010076522827,0.011971008032560349
1781215537648229400,17.0532294921875,2.4803929328918457,-3.28963303565979,0.08858546614646912
1781215537658330600,17.06333056640625,2.3774423599243164,-3.5266590118408203,-0.1388636976480484
1781215537668432000,17.073431884765625,2.363077163696289,-3.7828385829925537,-0.17477671802043915
1781215537759069200,17.164069091796875,2.5689783096313477,-5.386953830718994,1.7932571172714233
1781215537769109500,17.174109619140626,2.738966703414917,-5.643133640289307,1.9081788063049316
1781215537779180300,17.18418017578125,2.7533318996429443,-5.803544998168945,2.0398597717285156
1781215537809362200,17.214362060546875,2.7006595134735107,-5.568912982940674,1.9823989868164062
1781215537819463400,17.22446337890625,2.655169725418091,-5.298368453979492,1.702277421951294
1781215537829503700,17.234503662109375,2.535459518432617,-5.020640850067139,1.50355863571167
1781215537839544000,17.2445439453125,2.5067291259765625,-4.778826713562012,1.3718775510787964
1781215537849645300,17.254645263671875,2.473210334777832,-4.685452938079834,1.3024457693099976
1781215537859746600,17.26474658203125,2.432508945465088,-4.558559894561768,1.335964560508728
1781215537869817300,17.2748173828125,2.4205379486083984,-4.431667327880859,1.338358759880066
1781215537879888400,17.284888427734376,2.3295583724975586,-4.302380561828613,1.4245500564575195
1781215537889959200,17.294959228515626,2.140416383743286,-4.031835556030273,1.359906554222107
1781215537910100700,17.315100830078126,1.9177556037902832,-3.909731388092041,1.2497732639312744
1781215537930303200,17.33530322265625,1.8555063009262085,-4.0749311447143555,0.8571242094039917
1781215537940374000,17.3453740234375,1.9560627937316895,-4.20421838760376,0.6177040338516235
1781215537950444800,17.35544482421875,1.9129672050476074,-4.326322555541992,0.304063618183136
1781215538031011300,17.43601123046875,0.7158663272857666,-4.211400985717773,-2.717418909072876
1781215538041082000,17.44608203125,0.507570743560791,-3.8546648025512695,-3.2992098331451416
1781215538051122400,17.456122314453125,0.2322375625371933,-3.265691041946411,-3.778050184249878
1781215538061223700,17.4662236328125,-0.026336219161748886,-2.9472622871398926,-4.101267337799072
1781215538071294500,17.47629443359375,-0.05746084079146385,-2.5737667083740234,-4.3622355461120605
1781215538081334800,17.486334716796875,-0.10773907601833344,-2.5498247146606445,-4.5825018882751465
1781215538091405600,17.496405517578125,-0.0933738648891449,-2.5929205417633057,-4.776432514190674
1781215538101446000,17.50644580078125,-0.28969839215278625,-2.8826189041137695,-4.8267107009887695
1781215538111516700,17.5165166015625,-0.395043283700943,-2.8562827110290527,-4.857835292816162
1781215538121557000,17.526556884765625,-0.5770025849342346,-2.6144683361053467,-5.051765441894531
1781215538141729000,17.54672900390625,-1.4484920501708984,-1.7334020137786865,-5.772420406341553
1781215538151769300,17.556769287109375,-1.6519991159439087,-1.599326729774475,-6.0597243309021
1781215538161870600,17.56687060546875,-1.7812861204147339,-1.766920804977417,-6.313509941101074
1781215538171972000,17.57697216796875,-1.3048399686813354,-2.1595699787139893,-6.734889507293701
1781215538212285700,17.61728564453125,-1.2066776752471924,-1.7310078144073486,-5.463568210601807
1781215538232488400,17.637488525390626,-1.3335703611373901,-0.993593692779541,-5.633556365966797
1781215538242559200,17.647559326171876,-1.5753847360610962,-1.0534487962722778,-5.827486991882324
1781215538262700800,17.66770068359375,-1.8291701078414917,-1.2042834758758545,-6.189011573791504
1781215538272802000,17.677802001953125,-1.9033904075622559,-1.1492167711257935,-5.875370979309082
1781215538282903300,17.6879033203125,-1.7860745191574097,-0.993593692779541,-5.552153587341309
1781215538313116000,17.718115966796876,-1.6424223184585571,-0.24181437492370605,-5.353435039520264
1781215538323217200,17.728217041015625,-1.4748282432556152,-0.16759411990642548,-5.521028995513916
1781215538333318400,17.738318359375,-1.6974890232086182,0.023942016065120697,-5.801150798797607
1781215538373632300,17.77863232421875,-2.3989901542663574,0.047884032130241394,-6.1530985832214355
1781215538413945900,17.81894580078125,-2.3965959548950195,2.094926595687866,-4.137180328369141
1781215538454290200,17.859290283203126,-2.8778305053710938,2.6791117191314697,-3.952826976776123
1781215538494603800,17.899603759765625,-3.624821424484253,2.1715409755706787,-2.5091233253479004
1781215538504705300,17.909705322265626,-3.35667085647583,2.0398597717285156,-2.1380221843719482
1781215538514745300,17.919745361328125,-3.004723072052002,1.843535304069519,-1.8818424940109253
1781215538524816100,17.929816162109375,-3.0550012588500977,1.745373010635376,-1.8387469053268433
1781215538534887200,17.93988720703125,-2.87064790725708,2.140416383743286,-1.8626888990402222
1781215538544958000,17.9499580078125,-2.7317841053009033,2.3032219409942627,-1.5682021379470825
1781215538555028700,17.96002880859375,-3.026270866394043,2.2697031497955322,-0.9552865028381348
1781215538565069000,17.970069091796876,-2.846705913543701,2.2170307636260986,-0.7829039692878723
1781215538575139800,17.980139892578126,-2.607285737991333,1.9800047874450684,-0.5626373887062073
1781215538605291000,18.010291015625,-2.2601263523101807,1.5945383310317993,-1.048660397529602
1781215538685918500,18.09091845703125,-2.0853497982025146,1.1875240802764893,-0.8092401623725891
1781215538695989200,18.1009892578125,-2.075772762298584,1.1563993692398071,-0.8619126081466675
1781215538706060000,18.11106005859375,-2.0374655723571777,1.3024457693099976,-1.0893617868423462
1781215538716130800,18.121130859375,-2.609679937362671,1.2737152576446533,-1.2306196689605713
1781215538726171100,18.131171142578125,-2.736572504043579,0.9241618514060974,-0.689530074596405
1781215538736272600,18.141272705078126,-2.360682964324951,0.3064578175544739,-0.2106897532939911
1781215538746343400,18.151343505859376,-1.7717092037200928,-0.9600749015808105,-0.15562310814857483
1781215538756414200,18.161414306640626,-1.2258312702178955,-2.315192937850952,-0.31842881441116333
1781215538766423800,18.171423828125,-0.5937620401382446,-2.7485435009002686,-0.43335050344467163
1781215538776494600,18.18149462890625,-0.1149216815829277,-2.4899697303771973,-0.667982280254364
1781215538786596000,18.19159619140625,-0.033518824726343155,-2.164358377456665,-0.8547300100326538
1781215538796667000,18.2016669921875,-0.10534487664699554,-2.013523578643799,-1.0558429956436157
1781215538816778000,18.221778076171876,0.031124621629714966,-3.00711727142334,-1.1827356815338135
1781215538826848800,18.231848876953126,0.5363011956214905,-3.6152446269989014,-0.8882488012313843
1781215538836950000,18.241949951171875,1.0558429956436157,-3.866635799407959,-0.7230489253997803
1781215538847020800,18.252020751953125,1.3479355573654175,-3.7158010005950928,-0.6607996821403503
1781215538857122000,18.2621220703125,1.4221558570861816,-3.8570590019226074,-0.7015010714530945
1781215538867223600,18.2722236328125,1.4077905416488647,-4.1395745277404785,-0.6584054827690125
1781215538877294300,18.28229443359375,1.6280571222305298,-4.355052947998047,-0.5530605912208557
1781215538887365000,18.292365234375,1.6615760326385498,-4.458003520965576,-0.40940847992897034
1781215538897466400,18.30246630859375,1.7501614093780518,-4.347870349884033,-0.5027823448181152
1781215538907506700,18.312506591796875,1.6352397203445435,-3.93367338180542,-0.7398083209991455
1781215538917577500,18.322577392578125,1.434126853942871,-3.2585084438323975,-0.7996633648872375
1781215538927648300,18.332648193359375,1.216254472732544,-2.6431987285614014,-0.7565677165985107
1781215538937719000,18.342718994140625,1.0103530883789062,-2.0398597717285156,-0.7422025203704834
1781215538947789800,18.352789794921875,1.139639973640442,-1.5179238319396973,-0.569819986820221
1781215538957860600,18.362860595703125,1.3527239561080933,-1.3646949529647827,-0.3471592366695404
1781215538967962000,18.372962158203126,1.2018892765045166,-1.4724340438842773,0.11971008777618408
1781215538978063400,18.3830634765625,0.9672574996948242,-1.5897499322891235,0.4405331015586853
1781215538988134100,18.393134033203125,0.5363011956214905,-1.656787633895874,0.7182605266571045
1781215538998235400,18.4032353515625,0.11013327538967133,-1.5466543436050415,0.8307880163192749
1781215539008306200,18.41330615234375,-0.20350714027881622,-1.256955862045288,0.4596867263317108
1781215539018377000,18.423376953125,-0.17717093229293823,-0.9528923034667969,0.22744916379451752
1781215539028478500,18.433478515625,-0.17477671802043915,-0.3663128614425659,0.09576806426048279
1781215539038579700,18.443579833984376,-0.21547815203666687,-0.2082955539226532,0.31364041566848755
1781215539048650500,18.453650390625,0.028730420395731926,0.10773907601833344,0.2346317619085312
1781215539058721300,18.46372119140625,0.3471592366695404,0.35913026332855225,0.2298433631658554
1781215539078893300,18.483893310546875,1.113303780555725,0.29209262132644653,0.4165911078453064
1781215539119176700,18.5241767578125,1.3646949529647827,-0.021547814831137657,1.0031704902648926
1781215539189824800,18.59482470703125,1.2210428714752197,0.48602294921875,1.6089035272598267
1781215539240362000,18.645362060546876,0.24181437492370605,1.0582371950149536,2.434903144836426
1781215539280767200,18.685767333984376,1.0869675874710083,1.3287819623947144,1.7166426181793213
1781215539290868500,18.695868408203125,1.4652514457702637,1.53707754611969,1.6328455209732056
1781215539300969700,18.7059697265625,1.4700398445129395,1.359906554222107,1.6735470294952393
1781215539311101700,18.716101806640626,1.6424223184585571,1.1228805780410767,1.7884687185287476
1781215539321233400,18.7262333984375,1.501164436340332,0.811634361743927,1.9800047874450684
1781215539331335000,18.7363349609375,1.3287819623947144,0.5626373887062073,2.2146365642547607
1781215539341436200,18.746436279296876,1.1276689767837524,0.6200982332229614,2.3127987384796143
1781215539351507000,18.7565068359375,0.9696516990661621,1.2018892765045166,2.43011474609375
1781215539361608200,18.766608154296875,0.9624691009521484,1.2761094570159912,2.3702597618103027
1781215539371709400,18.77670947265625,1.1875240802764893,1.5083470344543457,2.3989901542663574
1781215539381811000,18.78681103515625,1.414973258972168,1.6543933153152466,2.387019157409668
1781215539391912200,18.796912109375,1.534683346748352,1.4700398445129395,2.537853717803955
1781215539412115000,18.817114990234376,1.216254472732544,1.5490485429763794,2.652775526046753
1781215539422216200,18.82721630859375,0.9289502501487732,1.534683346748352,2.7126305103302
1781215539432317400,18.8373173828125,0.5961562395095825,1.6089035272598267,2.738966703414917
1781215539442418700,18.847418701171875,0.44532153010368347,1.3503297567367554,2.853888511657715
1781215539452520200,18.857520263671876,0.4118026793003082,1.0127472877502441,3.064578056335449
1781215539462621400,18.867621337890625,0.5482721924781799,0.7996633648872375,3.1938650608062744
1781215539472722700,18.87772265625,0.7996633648872375,0.6153098344802856,3.1914708614349365
1781215539482824000,18.887823974609375,1.1779472827911377,0.569819986820221,3.1675288677215576
1781215539492956000,18.897955810546875,1.577778935432434,0.4118026793003082,2.760514497756958
1781215539503057200,18.90805712890625,1.7884687185287476,0.33039984107017517,2.583343744277954
1781215539513158700,18.91815869140625,1.8555063009262085,0.4692635238170624,2.3080103397369385
1781215539523260000,18.928260009765626,1.625662922859192,0.586579442024231,2.3343467712402344
1781215539533361200,18.938361083984375,1.381454348564148,0.646434485912323,2.4133553504943848
1781215539543462400,18.94846240234375,1.2617442607879639,0.6105214357376099,2.6623523235321045
1781215539553564000,18.95856396484375,1.015141487121582,0.4189853072166443,2.999934673309326
1781215539563665200,18.9686650390625,1.0031704902648926,0.7996633648872375,3.2752678394317627
1781215539573736000,18.97873583984375,0.8786720037460327,1.0678139925003052,3.4811692237854004
1781215539583806700,18.988806640625,0.8307880163192749,1.259350061416626,3.44765043258667
1781215539593877500,18.99887744140625,0.768538773059845,1.4748282432556152,3.3446998596191406
1781215539624212000,19.0292119140625,0.7972691655158997,1.3215993642807007,2.7485435009002686
1781215539684667400,19.08966748046875,0.3064578175544739,0.5219359993934631,1.9512743949890137
1781215539745092000,19.150092041015625,0.21308395266532898,-0.5817909836769104,0.8140285611152649
1781215539765233700,19.170233642578125,-0.035913024097681046,-0.7924807667732239,0.7326257228851318
1781215539845739000,19.250739013671875,0.2059013396501541,-0.3998316824436188,1.2617442607879639
1781215539896123600,19.30112353515625,0.15562310814857483,1.4652514457702637,1.599326729774475
1781215539966680300,19.371680419921876,-1.0199298858642578,2.3558945655822754,0.18914192914962769
1781215540057348000,19.46234814453125,-3.8953661918640137,2.5498247146606445,-3.450044631958008
1781215540097661700,19.50266162109375,-3.8522706031799316,5.092466831207275,-2.6024973392486572
1781215540117803300,19.52280322265625,-3.9647979736328125,5.92325496673584,-1.98958158493042
1781215540127874000,19.5328740234375,-4.022258758544922,6.090848922729492,-1.6400281190872192
1781215540137975300,19.542975341796875,-4.0749311447143555,6.052541732788086,-1.3048399686813354
1781215540148046300,19.55304638671875,-4.055777549743652,6.066906929016113,-1.0247182846069336
1781215540168218400,19.57321826171875,-3.773261785507202,6.028599739074707,-0.8140285611152649
1781215540178319600,19.583319580078125,-3.7421371936798096,5.925649166107178,-0.9888052940368652
1781215540188420900,19.5934208984375,-3.6990416049957275,5.8203043937683105,-1.3479355573654175
1781215540218664000,19.623663818359375,-3.3925838470458984,4.819528102874756,-2.779668092727661
1781215540238805500,19.643805419921875,-3.4093432426452637,3.4404678344726562,-4.019864559173584
1781215540248876300,19.653876220703125,-3.1938650608062744,3.1100680828094482,-4.316745758056641
1781215540268987400,19.6739873046875,-2.9065608978271484,1.9033904075622559,-4.462791919708252
1781215540279058200,19.68405810546875,-2.580949544906616,1.1827356815338135,-4.517858505249023
1781215540379827200,19.7848271484375,-2.0015525817871094,-0.7422025203704834,-3.648763418197632
1781215540399999200,19.804999267578125,-1.4413094520568848,-1.2306196689605713,-3.8977603912353516
1781215540410070300,19.8150703125,-0.8786720037460327,-1.3048399686813354,-3.823540210723877
1781215540450353400,19.855353515625,-0.12928688526153564,-0.9002198576927185,-2.801215887069702
1781215540470495000,19.875494873046875,-0.4141969084739685,-1.1204863786697388,-2.540247917175293
1781215540480565800,19.885565673828125,-0.4165911078453064,-1.3311761617660522,-2.3798365592956543
1781215540500737800,19.90573779296875,0.5099649429321289,-2.078166961669922,-2.427720546722412
1781215540510808600,19.91580859375,1.091755986213684,-2.5689783096313477,-2.7772738933563232
1781215540520910000,19.92591015625,1.4748282432556152,-3.1028854846954346,-3.1507694721221924
1781215540530980900,19.93598095703125,1.7094600200653076,-3.205836057662964,-3.3734302520751953
1781215540541051600,19.9460517578125,1.7166426181793213,-3.3854012489318848,-3.5745432376861572
1781215540551122400,19.956122314453125,1.721431016921997,-3.531447410583496,-3.7181951999664307
1781215540561162800,19.966162841796876,1.5538369417190552,-3.5673606395721436,-3.773261785507202
1781215540571264000,19.976263916015625,1.460463047027588,-3.6391866207122803,-4.031835556030273
1781215540581334800,19.986334716796875,1.4221558570861816,-3.8091750144958496,-4.364629745483398
1781215540601506800,20.0065068359375,0.9193734526634216,-3.861847400665283,-4.829104900360107
1781215540611577600,20.01657763671875,0.5267243981361389,-3.8498764038085938,-4.845864295959473
1781215540621648600,20.026648681640626,0.3974374830722809,-3.797203779220581,-4.663905143737793
1781215540631719400,20.036719482421876,0.395043283700943,-3.974374771118164,-4.223371982574463
1781215540641820700,20.046820556640625,0.5961562395095825,-4.120420932769775,-3.471592426300049
1781215540651891500,20.056891357421875,0.790086567401886,-4.438849925994873,-2.7006595134735107
1781215540661962200,20.066962158203125,0.9457096457481384,-4.924872875213623,-1.8267759084701538
1781215540672063500,20.0770634765625,1.256955862045288,-5.279214859008789,-1.1420341730117798
1781215540682103800,20.087103759765625,1.6089035272598267,-5.377377033233643,-0.667982280254364
1781215540692205000,20.097205078125,1.7501614093780518,-5.571307182312012,-0.49559974670410156
1781215540722448100,20.1274482421875,1.5466543436050415,-5.849034786224365,-0.181959331035614
1781215540732549400,20.13754931640625,1.6041151285171509,-6.098031520843506,-0.2346317619085312
1781215540742620200,20.1476201171875,1.7166426181793213,-6.2847795486450195,-0.21547815203666687
1781215540823278000,20.228278076171875,2.183511972427368,-6.631938934326172,1.5083470344543457
1781215540873662700,20.278662841796876,2.2002713680267334,-7.383718013763428,2.248155355453491
1781215540883733500,20.2887333984375,2.252943754196167,-7.47230339050293,2.387019157409668
1781215540893804300,20.29880419921875,2.319981336593628,-7.5848307609558105,2.408566951751709
1781215540914007000,20.319007080078126,2.3702597618103027,-7.46033239364624,2.540247917175293
1781215540924047000,20.329047119140625,2.454056739807129,-7.266402244567871,2.427720546722412
1781215540944219400,20.349219482421876,2.6647465229034424,-6.9695210456848145,2.3558945655822754
1781215540954320600,20.359320556640625,2.6024973392486572,-6.854599475860596,2.432508945465088
1781215540964330500,20.36933056640625,2.5713725090026855,-6.631938934326172,2.2409727573394775
1781215540984502500,20.38950244140625,2.4157495498657227,-6.461950302124023,1.6974890232086182
1781215540994603800,20.399603759765625,2.38462495803833,-6.301538944244385,1.381454348564148
1781215541004674600,20.409674560546875,2.38462495803833,-6.258443355560303,1.0606313943862915
1781215541024846800,20.429846923828126,2.367865562438965,-5.992686748504639,1.2545616626739502
1781215541034917600,20.439917724609376,1.9919757843017578,-5.863399982452393,1.292868971824646
1781215541044958000,20.4499580078125,1.7286136150360107,-5.494692802429199,1.2497732639312744
1781215541055028700,20.46002880859375,1.4652514457702637,-5.22175407409668,0.9840168952941895
1781215541065069000,20.470069091796876,1.3623007535934448,-5.082890033721924,0.5626373887062073
1781215541075109000,20.480109130859375,1.455674648284912,-5.0900726318359375,0.031124621629714966
1781215541085210600,20.490210693359376,1.4413094520568848,-5.106832027435303,-0.507570743560791
1781215541095281400,20.500281494140626,1.5394717454910278,-5.173870086669922,-1.0989385843276978
1781215541105352200,20.510352294921876,1.53707754611969,-5.494692802429199,-1.6735470294952393
1781215541175847700,20.58084765625,0.11013327538967133,-4.005499362945557,-4.649539470672607
1781215541185949200,20.59094921875,-0.035913024097681046,-4.180276393890381,-5.07570743560791
1781215541216161500,20.62116162109375,0.40222588181495667,-4.467580318450928,-5.506663799285889
1781215541236333600,20.64133349609375,0.5937620401382446,-3.5697548389434814,-5.870582580566406
1781215541296789000,20.7017890625,-0.31842881441116333,-1.4963760375976562,-5.07570743560791
1781215541327031800,20.73203173828125,0.43095630407333374,-0.9888052940368652,-4.982333660125732
1781215541337133000,20.742133056640625,0.5315127968788147,-0.6177040338516235,-4.869806289672852
1781215541387609000,20.792609130859375,-0.08858546614646912,1.9967641830444336,-3.665522813796997
1781215541397710600,20.802710693359376,-0.22266076505184174,2.3918075561523438,-3.892971992492676
1781215541468297700,20.873297607421875,-1.5203180313110352,4.134786128997803,-2.913743495941162
1781215541498601700,20.903601806640626,-3.5721490383148193,4.175487995147705,-2.80361008644104
1781215541518804200,20.92380419921875,-4.350264549255371,5.032611846923828,-2.2912509441375732
1781215541528905700,20.93390576171875,-4.412513732910156,5.348646640777588,-2.1332337856292725
1781215541539007000,20.944007080078126,-4.426878929138184,5.621585369110107,-1.8626888990402222
1781215541589483000,20.99448291015625,-3.8714241981506348,4.259284973144531,-1.1971008777618408
1781215541599584300,21.004584228515625,-4.067748546600342,4.671087741851807,-1.1085153818130493
1781215541609716200,21.01471630859375,-4.2090067863464355,5.0876784324646,-0.8978256583213806
1781215541619817500,21.0248173828125,-3.9863457679748535,4.850652694702148,-1.0319008827209473
