time,seconds_elapsed,z,y,x
1780563158670526500,2.7655263671875,-0.1322750002145767,-0.4939000010490417,0.0741124972701072
1780563158690054000,2.785053955078125,0.0584375001490116,-0.5007749795913696,0.1507000029087066
1780563158709579300,2.804579345703125,0.3430624902248382,-0.544362485408783,0.2513499855995178
1780563158729109000,2.82410888671875,0.775362491607666,-0.6337375044822693,0.3783999979496002
1780563158748637200,2.84363720703125,1.3307249546051023,-0.7574874758720398,0.522362470626831
1780563158768159700,2.86315966796875,1.9199124574661253,-0.8883875012397766,0.6664624810218811
1780563158787684600,2.8826845703125,2.4411749839782715,-0.997837483882904,0.7948874831199646
1780563158807211800,2.902211669921875,2.8039000034332275,-1.0665874481201172,0.8980125188827515
1780563158826738200,2.92173828125,2.952125072479248,-1.0870749950408936,0.9735000133514404
1780563158846265600,2.941265625,2.880625009536743,-1.0594375133514404,1.0195624828338623
1780563158865794000,2.9607939453125,2.632299900054932,-0.9862874746322632,1.0243749618530271
1780563158885326300,2.980326416015625,2.2647624015808105,-0.8755999803543091,0.9677249789237976
1780563158904857600,2.999857666015625,1.832187533378601,-0.7408499717712402,0.840399980545044
1780563158924384500,3.019384521484375,1.402500033378601,-0.595924973487854,0.6672874689102173
1780563158943911400,3.038911376953125,1.0448625087738037,-0.45210000872612,0.4937624931335449
1780563158963438000,3.05843798828125,0.7902125120162964,-0.3181749880313873,0.3482874929904938
1780563158982957300,3.077957275390625,0.6230124831199646,-0.1974499970674514,0.2311374992132187
1780563159002472200,3.09747216796875,0.4993999898433685,-0.0859375,0.1304875016212463
1780563159021991700,3.11699169921875,0.3708375096321106,0.024337500333786,0.0426249988377094
1780563159041508400,3.13650830078125,0.2105125039815902,0.1354375034570694,-0.0247499998658895
1780563159061027300,3.15602734375,0.0342375002801418,0.238425001502037,-0.0632499977946281
1780563159080556300,3.175556396484375,-0.0987249985337257,0.32133749127388,-0.0724624991416931
1780563159100086000,3.1950859375,-0.1402499973773956,0.3786749839782715,-0.0695749968290329
1780563159119610000,3.214610107421875,-0.1062875017523765,0.4164874851703644,-0.0798875018954277
1780563159139136500,3.234136474609375,-0.1062875017523765,0.4164874851703644,-0.0798875018954277
1780563159158664700,3.253664794921875,-0.058712501078844,0.4479750096797943,-0.1149500012397766
1780563159178191600,3.273191650390625,-0.0334125012159347,0.4864749908447265,-0.1717374920845031
1780563159197719600,3.292719482421875,-0.0211750008165836,0.6146249771118164,-0.3528249859809875
1780563159217246500,3.31224658203125,-0.0211750008165836,0.6146249771118164,-0.3528249859809875
1780563159236769300,3.331769287109375,-0.0835999995470047,0.7943375110626221,-0.572825014591217
1780563159256294700,3.351294677734375,-0.0835999995470047,0.7943375110626221,-0.572825014591217
1780563159275822600,3.370822509765625,-0.2032250016927719,0.8867374658584595,-0.6560124754905701
1780563159295348700,3.3903486328125,-0.4164874851703644,0.975837469100952,-0.5868499875068665
1780563159314872000,3.4098720703125,-0.7345250248908997,1.0664499998092651,-0.5378999710083008
1780563159334394400,3.429394287109375,-1.121999979019165,1.1583000421524048,-0.6171000003814697
1780563159353922300,3.44892236328125,-1.5229499340057373,1.2516624927520752,-0.6366249918937683
1780563159373453000,3.468453125,-1.8629875183105469,1.3369125127792358,-0.6047250032424927
1780563159392976100,3.48797607421875,-2.110625028610229,1.4011249542236328,-0.5395500063896179
1780563159412497700,3.50749755859375,-2.3143999576568604,1.4459500312805176,-0.4555374979972839
1780563159432021000,3.52702099609375,-2.5029125213623047,1.4700125455856323,-0.3282124996185303
1780563159451547100,3.546547119140625,-2.6015000343322754,1.185937523841858,-0.1498750001192093
1780563159471073300,3.5660732421875,-2.4894375801086426,0.9301875233650208,0.0820875018835067
1780563159490601500,3.5856015625,-2.153937578201294,0.9546625018119812,0.3110249936580658
1780563159510126000,3.6051259765625,-1.719575047492981,0.923312485218048,0.4402749836444855
1780563159529649200,3.624649169921875,-1.33650004863739,0.8879749774932861,0.4691500067710876
1780563159549171700,3.644171630859375,-1.0883125066757202,0.8782125115394592,0.4413749873638153
1780563159568693800,3.66369384765625,-0.980650007724762,0.8911374807357788,0.4036999940872192
1780563159588219400,3.683219482421875,-0.9629124999046326,0.9013124704360962,0.3848625123500824
1780563159607743200,3.7027431640625,-0.954112470149994,0.8827499747276306,0.3803249895572662
1780563159627269600,3.72226953125,-0.8677625060081482,0.8267874717712402,0.3630000054836273
1780563159646794800,3.741794677734375,-0.67044997215271,0.7423624992370605,0.3115749955177307
1780563159666316300,3.76131640625,-0.4190999865531921,0.645425021648407,0.234437495470047
1780563159685836800,3.7808369140625,-0.2018499970436096,0.5506874918937683,0.1596374958753585
1780563159705362700,3.80036279296875,-0.0510125011205673,0.4683249890804291,0.1040875017642974
1780563159724891100,3.81989111328125,0.0633874982595443,0.4017750024795532,0.0618750005960464
1780563159744423700,3.839423583984375,0.1695374995470047,0.3515875041484833,0.0169124994426965
1780563159763950600,3.85895068359375,0.2545124888420105,0.3162499964237213,-0.03575000166893
1780563159783472400,3.878472412109375,0.3012624979019165,0.2932874858379364,-0.0864875018596649
1780563159802996000,3.897995849609375,0.3253250122070312,0.2798124849796295,-0.1208624988794326
1780563159822518500,3.9175185546875,0.3605250120162964,0.272112488746643,-0.1282874941825866
1780563159842043600,3.937043701171875,0.4402749836444855,0.2667500078678131,-0.1120624989271164
1780563159861573000,3.956572998046875,0.5766749978065491,0.259737491607666,-0.0874499976634979
1780563159881101800,3.976101806640625,0.7303999662399292,0.2472250014543533,-0.0669625028967857
1780563159900628500,3.99562841796875,0.8311874866485596,0.2259124964475631,-0.0549999997019767
1780563159920155400,4.0151552734375,0.8386124968528748,0.196212500333786,-0.0540375001728534
1780563159939682300,4.034682373046875,0.7706875205039978,0.1640374958515167,-0.0698499977588653
1780563159959208700,4.054208740234375,0.6774625182151794,0.1352999955415725,-0.1049124971032142
1780563159978739700,4.07373974609375,0.5953750014305115,0.1120624989271164,-0.1508374959230423
1780563159998268200,4.09326806640625,0.5953750014305115,0.1120624989271164,-0.1508374959230423
1780563160017794000,4.1127939453125,0.5105375051498413,0.0782374963164329,-0.2194499969482422
1780563160037325800,4.132325927734375,0.5105375051498413,0.0782374963164329,-0.2194499969482422
1780563160056857000,4.151857177734375,0.3925625085830688,0.0669625028967857,-0.1780624985694885
1780563160076382200,4.17138232421875,0.3925625085830688,0.0669625028967857,-0.1780624985694885
1780563160095905300,4.1909052734375,0.2671625018119812,0.0681999996304512,-0.1132999956607818
1780563160115431200,4.21043115234375,0.1325500011444091,0.0706750005483627,-0.0397375002503395
1780563160134957600,4.22995751953125,0.0346499979496002,0.0732875019311904,0.0266750007867813
1780563160154481400,4.2494814453125,-0.0052249999716877,0.0752125009894371,0.0782374963164329
1780563160174004500,4.26900439453125,0.0057749999687075,0.0763124972581863,0.1128875017166137
1780563160193526800,4.28852685546875,0.0445500016212463,0.0754875019192695,0.1308999955654144
1780563160213052700,4.308052734375,0.0852499976754188,0.0713625028729438,0.1351625025272369
1780563160232582000,4.327581787109375,0.1116499975323677,0.0627000033855438,0.1325500011444091
1780563160252110600,4.347110595703125,0.1285624951124191,0.0490874983370304,0.1269125044345855
1780563160271636500,4.366636474609375,0.1486375033855438,0.031624998897314,0.1196250021457672
1780563160291166000,4.386166015625,0.1725624948740005,0.0136124994605779,0.1119249984622001
1780563160310701000,4.405701171875,0.1863124966621399,-0.0015124999918043,0.1057374998927116
1780563160330232600,4.425232666015625,0.1619749963283538,-0.011824999935925,0.1060125008225441
1780563160349753000,4.444753173828125,0.0765874981880188,-0.0173249989748001,0.1179749965667724
1780563160369268500,4.4642685546875,-0.0511500015854835,-0.0152624994516372,0.1363999992609024
1780563160388790000,4.4837900390625,-0.1684374958276748,-0.0006874999962747,0.1473999917507171
1780563160408314600,4.503314697265625,-0.2411749958992004,0.0277750007808208,0.1453374922275543
1780563160427843600,4.522843505859375,-0.2842124998569488,0.0648999959230423,0.14011250436306
1780563160447375000,4.542375,-0.3202374875545501,0.1027124971151351,0.145062506198883
1780563160466907600,4.56190771484375,-0.34375,0.136537492275238,0.1648624986410141
1780563160486438400,4.5814384765625,-0.3508999943733215,0.165412500500679,0.1985500007867813
1780563160505971200,4.60097119140625,-0.3559874892234802,0.1905750036239624,0.2396624982357025
1780563160525507000,4.620507080078125,-0.3727625012397766,0.2142249941825866,0.2756874859333038
1780563160545033200,4.640033203125,-0.4141499996185303,0.2362249940633773,0.2971374988555908
1780563160564557300,4.659557373046875,-0.4948624968528747,0.255887508392334,0.3062124848365783
1780563160584088000,4.679088134765625,-0.6193000078201294,0.2784374952316284,0.3136374950408935
1780563160603618300,4.698618408203125,-0.7701374888420105,0.3165250122547149,0.330825001001358
1780563160623150000,4.718150146484375,-0.9250999689102172,0.3815625011920929,0.3682250082492828
1780563160642680000,4.73768017578125,-1.0774500370025637,0.4736874997615814,0.4354625046253204
1780563160662211800,4.7572119140625,-1.2189375162124634,0.5803874731063843,0.5335000157356262
1780563160681747700,4.776747802734375,-1.3210999965667725,0.6851624846458435,0.6459749937057495
1780563160701279700,4.79627978515625,-1.3509374856948853,0.7761874794960022,0.7433249950408936
1780563160720808000,4.815807861328125,-1.3091374635696411,0.8493375182151794,0.8032749891281128
1780563160740339500,4.83533935546875,-1.2402499914169312,0.9062625169754028,0.8266500234603882
1780563160759875300,4.854875244140625,-1.195012450218201,0.9512249827384948,0.8318749666213989
1780563160779408600,4.87440869140625,-1.1845624446868896,0.989175021648407,0.8336625099182129
1780563160798934300,4.893934326171875,-1.1753499507904053,1.0240999460220337,0.829675018787384
1780563160818457300,4.913457275390625,-1.1753499507904053,1.0240999460220337,0.829675018787384
1780563160837980200,4.932980224609375,-1.0309749841690063,1.0814374685287476,0.7638124823570251
1780563160857500700,4.952500732421875,-1.0309749841690063,1.0814374685287476,0.7638124823570251
1780563160877020700,4.972020751953125,-0.7555624842643738,1.0063624382019043,0.6093999743461609
1780563160896539000,4.991538818359375,-0.7555624842643738,1.0063624382019043,0.6093999743461609
1780563160916060700,5.011060791015625,-0.7555624842643738,1.0063624382019043,0.6093999743461609
1780563160935583000,5.0305830078125,0.0050874999724328,0.1489125043153762,0.0941874980926513
1780563160955103700,5.050103759765625,0.6612374782562256,-0.5813499689102173,-0.3455374836921692
1780563160974627600,5.069627685546875,1.3583624362945557,-1.2665125131607056,-0.7980499863624573
1780563160994152000,5.08915185546875,1.8558374643325808,-1.699637532234192,-1.1331374645233154
1780563161013675300,5.10867529296875,1.9617124795913696,-1.7881875038146973,-1.2632124423980713
1780563161033198300,5.1281982421875,1.6829999685287476,-1.5833125114440918,-1.1874500513076782
1780563161052724500,5.147724365234375,1.202162504196167,-1.2303500175476074,-0.9840874671936036
1780563161072253700,5.167253662109375,0.6711375117301941,-0.8581374883651733,-0.7519875168800354
1780563161091783400,5.186783447265625,0.1817750036716461,-0.5574250221252441,-0.5741999745368958
1780563161111310800,5.206310791015625,-0.1850749999284744,-0.383899986743927,-0.4867500066757202
1780563161130837800,5.225837646484375,-0.3397625088691711,-0.3522749841213226,-0.4626874923706054
1780563161150364200,5.2453642578125,-0.1991000026464462,-0.4375250041484833,-0.4404124915599823
1780563161169889800,5.264889892578125,0.2124374955892563,-0.5830000042915344,-0.3792249858379364
1780563161189414000,5.284413818359375,0.7275124788284302,-0.7136250138282776,-0.2804999947547912
1780563161208936700,5.303936767578125,1.1563750505447388,-0.7777000069618225,-0.1765500009059906
1780563161228457200,5.323457275390625,1.3937000036239624,-0.7635374665260315,-0.0889625027775764
1780563161247974700,5.342974609375,1.422987461090088,-0.6921749711036682,-0.0280499998480081
1780563161267496200,5.36249609375,1.283287525177002,-0.5970249772071838,-0.0050874999724328
1780563161287019300,5.382019287109375,1.0461000204086304,-0.5003625154495239,-0.0252999998629093
1780563161306540800,5.401540771484375,0.7878749966621399,-0.4156624972820282,-0.088137499988079
1780563161326059500,5.4210595703125,0.5559124946594238,-0.3484250009059906,-0.1819124966859817
1780563161345578200,5.440578125,0.3636874854564667,-0.2934249937534332,-0.2820124924182892
1780563161365101000,5.46010107421875,0.2105125039815902,-0.2370499968528747,-0.3599750101566314
1780563161384618800,5.47961865234375,0.1039500012993812,-0.1748999953269958,-0.4001249969005584
1780563161404136700,5.49913671875,0.0533500015735626,-0.1181124970316886,-0.3994374871253967
1780563161423661300,5.518661376953125,0.0558249987661838,-0.081675000488758,-0.3599750101566314
1780563161443186400,5.5381865234375,0.1121999993920326,-0.0719124972820282,-0.2905375063419342
1780563161462710300,5.557710205078125,0.233887493610382,-0.086899995803833,-0.2114749997854232
1780563161482233300,5.5772333984375,0.4170374870300293,-0.1227874979376792,-0.1454750001430511
1780563161501761000,5.596760986328125,0.6215000152587891,-0.1746249943971634,-0.1053249984979629
1780563161521289200,5.616289306640625,0.7910374999046326,-0.237462505698204,-0.0933625027537345
1780563161540816100,5.635816162109375,0.8788999915122986,-0.3048374950885772,-0.1061500012874603
1780563161560343300,5.65534326171875,0.8606125116348267,-0.3673999905586242,-0.1366750001907348
1780563161579869000,5.674868896484375,0.7448375225067139,-0.4137375056743622,-0.1773750036954879
1780563161599393000,5.69439306640625,0.5654000043869019,-0.4340874850749969,-0.2204124927520752
1780563161618919000,5.7139189453125,0.5654000043869019,-0.4340874850749969,-0.2204124927520752
1780563161638447400,5.733447265625,0.3496625125408172,-0.4235000014305115,-0.254925012588501
1780563161657974300,5.752974365234375,-0.1044999957084655,-0.3434749841690063,-0.2360875010490417
1780563161677499600,5.772499755859375,-0.1044999957084655,-0.3434749841690063,-0.2360875010490417
1780563161697021700,5.792021728515625,-0.2663374841213226,-0.3129499852657318,-0.1732500046491623
1780563161716541400,5.81154150390625,-0.2663374841213226,-0.3129499852657318,-0.1732500046491623
1780563161736065300,5.831065185546875,-0.3524124920368194,-0.3587374985218048,-0.056512501090765
1780563161755592000,5.850592041015625,-0.271699994802475,-0.4589749872684479,-0.0604999996721744
1780563161775118800,5.870118896484375,-0.1359875053167343,-0.590149998664856,-0.1003749966621398
1780563161794644000,5.88964404296875,0.017875000834465,-0.7167875170707703,-0.1483625024557113
1780563161814167800,5.909167724609375,0.1649999916553497,-0.8193625211715698,-0.1836999952793121
1780563161833695000,5.928695068359375,0.284074991941452,-0.8951249718666077,-0.201712504029274
1780563161853219600,5.948219482421875,0.3411374986171722,-0.9370625019073486,-0.20762500166893
1780563161872738800,5.96773876953125,0.3218874931335449,-0.9395374655723572,-0.2087250053882599
1780563161892260900,5.9872607421875,0.2545124888420105,-0.908050000667572,-0.209549993276596
1780563161911788000,6.0067880859375,0.1707749962806701,-0.8541499972343445,-0.20762500166893
1780563161931316500,6.02631640625,0.0688875019550323,-0.7918624877929688,-0.1992374956607818
1780563161950842000,6.045842041015625,-0.0697124972939491,-0.7317749857902527,-0.1859000027179718
1780563161970366500,6.065366455078125,-0.2608374953269958,-0.6769124865531921,-0.173799991607666
1780563161989889800,6.084889892578125,-0.5317124724388123,-0.6232874989509583,-0.1700875014066696
1780563162009415000,6.104414794921875,-0.891962468624115,-0.5660874843597412,-0.1784749925136566
1780563162028941800,6.12394189453125,-1.2608749866485596,-0.5084750056266785,-0.1930499970912933
1780563162048466200,6.143466064453125,-1.4767500162124634,-0.4657124876976013,-0.1974499970674514
1780563162067992600,6.16299267578125,-1.430412530899048,-0.4580124914646148,-0.1727000027894973
1780563162087521300,6.182521240234375,-1.165174961090088,-0.4996750056743622,-0.1067000031471252
1780563162107047000,6.202046875,-0.780037522315979,-0.5942749977111816,0.009349999949336
1780563162126570800,6.22157080078125,-0.2806375026702881,-0.7350749969482422,0.1920875012874603
1780563162146098400,6.241098388671875,0.3863750100135803,-0.9059875011444092,0.4585624933242798
1780563162165624600,6.26062451171875,1.187999963760376,-1.0778625011444092,0.8001124858856201
1780563162185149200,6.280149169921875,1.948512434959412,-1.215499997138977,1.1644874811172483
1780563162204674800,6.2996748046875,2.465100049972534,-1.2926374673843384,1.4745500087738037
1780563162224206800,6.319206787109375,2.6516873836517334,-1.3034999370574951,1.6729625463485718
1780563162243742200,6.3387421875,2.55887508392334,-1.2626625299453735,1.7450125217437744
1780563162263274200,6.358274169921875,2.314125061035156,-1.191575050354004,1.7142125368118286
1780563162282803200,6.37780322265625,2.0433874130249023,-1.1024750471115112,1.6168625354766846
1780563162302330000,6.397330078125,1.8215999603271484,-0.993987500667572,1.4801875352859497
1780563162321855500,6.41685546875,1.6515125036239624,-0.8608874678611755,1.3129874467849731
1780563162341379600,6.436379638671875,1.4821125268936155,-0.7060624957084656,1.109624981880188
1780563162360903700,6.455903564453125,1.2677500247955322,-0.5383124947547913,0.865149974822998
1780563162380431400,6.475431396484375,1.006637454032898,-0.3642374873161316,0.5853375196456909
1780563162399958000,6.4949580078125,0.726687490940094,-0.1859000027179718,0.2868250012397766
1780563162419481600,6.514481689453125,0.4380750060081482,-0.0075624999590218,-0.0162249989807605
1780563162439007700,6.5340078125,0.4380750060081482,-0.0075624999590218,-0.0162249989807605
1780563162458537700,6.553537841796875,-0.1425874978303909,0.3409999907016754,-0.5766749978065491
1780563162478067500,6.5730673828125,-0.1425874978303909,0.3409999907016754,-0.5766749978065491
1780563162497592600,6.592592529296875,-0.3955875039100647,0.5167250037193298,-0.8146874904632568
1780563162517117200,6.6121171875,-0.8354499936103821,0.8226624727249146,-1.2142624855041504
1780563162536643600,6.6316435546875,-0.8354499936103821,0.8226624727249146,-1.2142624855041504
1780563162556168000,6.65116796875,-0.8354499936103821,0.8226624727249146,-1.2142624855041504
1780563162575694300,6.6706943359375,-1.27572500705719,1.0234124660491943,-1.5064499378204346
1780563162595219000,6.690218994140625,-1.4357750415802002,1.0950499773025513,-1.5455000400543213
1780563162614743300,6.709743408203125,-1.468500018119812,1.1493624448776243,-1.4850000143051147
1780563162634276000,6.729276123046875,-1.3678499460220337,1.17645001411438,-1.3473625183105469
1780563162653809000,6.748808837890625,-1.2072499990463257,1.1735625267028809,-1.1757625341415403
1780563162673336000,6.768336181640625,-1.0859750509262085,1.1503249406814575,-1.007462501525879
1780563162692867300,6.787867431640625,-1.0305625200271606,1.1151249408721924,-0.8615750074386597
1780563162712397300,6.807397216796875,-1.0011374950408936,1.0712624788284302,-0.7484124898910522
1780563162731925200,6.82692529296875,-0.9748749732971193,1.024512529373169,-0.6763625144958496
1780563162751454700,6.846454833984375,-0.9574124813079834,0.9842249751091005,-0.6422625184059143
1780563162770984700,6.865984619140625,-0.9572749733924866,0.9546625018119812,-0.6256250143051147
1780563162790513000,6.885512939453125,-0.943387508392334,0.927299976348877,-0.603487491607666
1780563162810040000,6.9050400390625,-0.8677625060081482,0.8912749886512756,-0.5702124834060669
1780563162829575000,6.924574951171875,-0.7419499754905701,0.8500249981880188,-0.5369374752044678
1780563162849106400,6.9441064453125,-0.6175125241279602,0.817437469959259,-0.507099986076355
1780563162868630300,6.96363037109375,-0.5064125061035156,0.7972249984741211,-0.4655750095844269
1780563162888158000,6.983157958984375,-0.3744125068187713,0.776324987411499,-0.3983374834060669
1780563162907687200,7.002687255859375,-0.2241249978542328,0.7449749708175659,-0.3150124847888946
1780563162927214300,7.02221435546875,-0.111237496137619,0.7123875021934509,-0.2433750033378601
1780563162946743800,7.041743896484375,-0.0653124973177909,0.6938250064849854,-0.2033624947071075
1780563162966271000,7.06127099609375,-0.0680624991655349,0.6935499906539917,-0.190712496638298
1780563162985800200,7.08080029296875,-0.0873124971985817,0.7006999850273132,-0.184249997138977
1780563163005333800,7.100333740234375,-0.0819500014185905,0.6953374743461609,-0.1640374958515167
1780563163024867300,7.119867431640625,-0.0105875004082918,0.6645374894142151,-0.1274625062942505
1780563163044398600,7.139398681640625,0.110275000333786,0.6169624924659729,-0.086899995803833
1780563163063929600,7.1589296875,0.2083124965429306,0.5780500173568726,-0.0560999996960163
1780563163083457300,7.178457275390625,0.2431000024080276,0.5648499727249146,-0.0439999997615814
1780563163102982100,7.197982177734375,0.2466749995946884,0.5735124945640564,-0.0512874983251094
1780563163122511600,7.21751171875,0.2294874936342239,0.5934500098228455,-0.0642125010490417
1780563163142047000,7.237046875,0.1399749964475631,0.6231499910354614,-0.0571999996900558
1780563163161579800,7.256579833984375,-0.0393249988555908,0.6613749861717224,-0.0182875003665685
1780563163181108500,7.2761083984375,-0.2366375029087066,0.6976749897003174,0.0365750007331371
1780563163200637000,7.295636962890625,-0.3651999831199646,0.7188500165939331,0.0838750004768371
1780563163220164900,7.315164794921875,-0.408237487077713,0.7213249802589417,0.1192125007510185
1780563163239689200,7.334689208984375,-0.3998500108718872,0.7092249989509583,0.1542750000953674
1780563163259211500,7.35421142578125,-0.3763374984264374,0.688462495803833,0.1999250054359436
1780563163278734300,7.373734375,-0.3763374984264374,0.688462495803833,0.1999250054359436
1780563163298257000,7.3932568359375,-0.271699994802475,0.6135249733924866,0.3018124997615814
1780563163317778000,7.41277783203125,-0.0952875018119812,0.5377625226974487,0.3228499889373779
1780563163337304600,7.4323046875,-0.0952875018119812,0.5377625226974487,0.3228499889373779
1780563163356836600,7.451836669921875,0.3319250047206878,0.3496625125408172,0.3235374987125397
1780563163376366300,7.471366455078125,0.3319250047206878,0.3496625125408172,0.3235374987125397
1780563163395893500,7.4908935546875,0.4108499884605407,0.2740375101566314,0.3438875079154968
1780563163415421000,7.5104208984375,0.4120875000953674,0.2120250016450882,0.3745499849319458
1780563163434945800,7.52994580078125,0.4120875000953674,0.1548250019550323,0.3959999978542328
1780563163454472400,7.549472412109375,0.4431625008583069,0.1016125008463859,0.3947624862194061
1780563163474002000,7.569001953125,0.4980250000953674,0.0577500015497207,0.3705624938011169
1780563163493532000,7.588531982421875,0.5587999820709229,0.0292875003069639,0.3260124921798706
1780563163513059800,7.608059814453125,0.6137999892234802,0.0173249989748001,0.2670249938964844
1780563163532588000,7.627588134765625,0.6363499760627747,0.0195249989628791,0.2111999988555908
1780563163552118500,7.647118408203125,0.5827249884605408,0.0332750007510185,0.1798499971628189
1780563163571649800,7.66664990234375,0.4422000050544739,0.0555500015616416,0.1801249980926513
1780563163591181600,7.686181640625,0.2637250125408172,0.0805749967694282,0.1973125040531158
1780563163610706400,7.70570654296875,0.1209999993443489,0.1003749966621398,0.2081750035285949
1780563163630227000,7.72522705078125,0.0644875019788742,0.1069749966263771,0.1958000063896179
1780563163649749800,7.744749755859375,0.0972125008702278,0.0963874980807304,0.157987505197525
1780563163669275600,7.764275634765625,0.165412500500679,0.0708125010132789,0.1094499975442886
1780563163688805600,7.7838056640625,0.1985500007867813,0.0364375002682209,0.0712250024080276
1780563163708338700,7.803338623046875,0.1722874939441681,0.0012374999932944,0.0504624992609024
1780563163727869200,7.822869140625,0.1243000030517578,-0.0296999998390674,0.0372624993324279
1780563163747393800,7.842393798828125,0.0956999957561492,-0.0538999997079372,0.0226875003427267
1780563163766918400,7.86191845703125,0.0820875018835067,-0.0698499977588653,0.0107249999418854
1780563163786445000,7.881445068359375,0.0548624992370605,-0.0763124972581863,0.0108624994754791
1780563163805971700,7.9009716796875,0.002337499987334,-0.0734250023961067,0.0257124993950128
1780563163825495000,7.9204951171875,-0.0581624992191791,-0.0647625029087066,0.0493624992668628
1780563163845017600,7.940017578125,-0.0974875018000602,-0.055137500166893,0.0736999958753585
1780563163864543000,7.95954296875,-0.0988624989986419,-0.0475750006735324,0.0947374999523162
1780563163884064500,7.979064453125,-0.0800250023603439,-0.042212501168251,0.1171500012278556
1780563163903585500,7.99858544921875,-0.0765874981880188,-0.0382249988615512,0.1489125043153762
1780563163923107600,8.018107666015625,-0.0951500013470649,-0.0356125012040138,0.1865874975919723
1780563163942633000,8.037633056640624,-0.1035374999046325,-0.0351999998092651,0.2147749960422516
1780563163962158000,8.057157958984375,-0.0720499977469444,-0.0378125011920928,0.2204124927520752
1780563163981681200,8.07668115234375,-0.0149875003844499,-0.0437249988317489,0.206662505865097
1780563164001205200,8.096205322265625,0.0266750007867813,-0.0515624992549419,0.1875499933958053
1780563164020726800,8.115726806640625,0.0252999998629093,-0.0576125010848045,0.1724250018596649
1780563164040248000,8.135248046875,-0.0221375003457069,-0.056512501090765,0.1630750000476837
1780563164059774000,8.15477392578125,-0.1023000031709671,-0.0424874983727932,0.1583999991416931
1780563164079297000,8.174297119140626,-0.2014375030994415,-0.0120999999344348,0.160874992609024
1780563164098818600,8.193818603515625,-0.2014375030994415,-0.0120999999344348,0.160874992609024
1780563164118342100,8.213342041015625,-0.4658499956130981,0.0947374999523162,0.2201374918222427
1780563164137866200,8.2328662109375,-0.4658499956130981,0.0947374999523162,0.2201374918222427
1780563164157390000,8.25239013671875,-0.6301624774932861,0.1662375032901764,0.2838000059127807
1780563164176915700,8.271915771484375,-0.8711999654769897,0.3151499927043915,0.4156624972820282
1780563164196445700,8.29144580078125,-0.8711999654769897,0.3151499927043915,0.4156624972820282
1780563164215979000,8.31097900390625,-0.9245499968528748,0.3789499998092651,0.467912495136261
1780563164235509200,8.33050927734375,-0.9531499743461608,0.4295499920845032,0.5141124725341797
1780563164255038000,8.350037841796874,-0.9704750180244446,0.4692874848842621,0.5582500100135803
1780563164274566400,8.36956640625,-0.9810624718666076,0.5014625191688538,0.5988125205039978
1780563164294092300,8.38909228515625,-0.990274965763092,0.5296499729156494,0.6335999965667725
1780563164313618200,8.4086181640625,-1.0008624792099,0.5495874881744385,0.6584874987602234
1780563164333144000,8.42814404296875,-1.0107624530792236,0.559487521648407,0.6732000112533569
1780563164352668400,8.44766845703125,-1.010349988937378,0.5691124796867371,0.6793875098228455
1780563164372196000,8.467196044921875,-0.9829875230789183,0.5924875140190125,0.6741625070571899
1780563164391727000,8.48672705078125,-0.9266124963760376,0.638824999332428,0.6586250066757202
1780563164401490400,8.496490478515625,-0.9266124963760376,0.638824999332428,0.6586250066757202
1780563164411254000,8.50625390625,-0.8634999990463257,0.7045499682426453,0.644599974155426
1780563164430779400,8.525779296875,-0.8152375221252441,0.7752249836921692,0.6450124979019165
1780563164450301200,8.54530126953125,-0.7870500087738037,0.8355875015258789,0.6620625257492065
1780563164469819400,8.5648193359375,-0.7727500200271606,0.877387523651123,0.6870874762535095
1780563164489341000,8.5843408203125,-0.7588624954223633,0.9022749662399292,0.7033125162124634
1780563164508866300,8.6038662109375,-0.7290250062942505,0.91753751039505,0.694100022315979
1780563164528390000,8.623389892578125,-0.682687520980835,0.9321125149726868,0.6615124940872192
1780563164547913500,8.64291357421875,-0.6316750049591064,0.9488874673843384,0.6241124868392944
1780563164567438800,8.66243896484375,-0.5687000155448914,0.94269996881485,0.582587480545044
1780563164586964500,8.681964599609374,-0.427762508392334,0.7937874794006348,0.4691500067710876
1780563164606492200,8.7014921875,-0.1073874980211258,0.333712488412857,0.1733874976634979
1780563164626019800,8.721019775390625,0.4307875037193298,-0.4577375054359436,-0.3465000092983246
1780563164645547300,8.74054736328125,1.1233749389648438,-1.3633124828338623,-0.992062509059906
1780563164665075200,8.7600751953125,1.7635749578475952,-2.041599988937378,-1.53353750705719
1780563164684600800,8.779600830078126,2.078862428665161,-2.280712604522705,-1.7720999717712402
1780563164704127700,8.799127685546875,1.9492000341415403,-2.1103498935699463,-1.6835500001907349
1780563164723655200,8.8186552734375,1.465612530708313,-1.6909749507904053,-1.3700499534606934
1780563164743181000,8.83818115234375,0.8057500123977661,-1.1892374753952026,-0.9499874711036682
1780563164762708500,8.85770849609375,0.0928125008940696,-0.6968500018119812,-0.4988499879837036
1780563164782234400,8.877234375,-0.5781875252723694,-0.2887499928474426,-0.3123999834060669
1780563164801759700,8.896759765625,-1.0514625310897827,0.0317624993622303,-0.1185249984264373
1780563164821286100,8.9162861328125,-1.140837550163269,0.2202749997377395,0.2532750070095062
1780563164840809700,8.935809814453124,-0.7442874908447266,0.147949993610382,0.404387503862381
1780563164860333800,8.955333740234375,0.0298375003039836,-0.1762749999761581,0.3162499964237213
1780563164879855600,8.974855712890625,0.8798624873161316,-0.5926250219345093,0.0611874982714653
1780563164899376000,8.994376220703124,1.5149749517440796,-0.9069499969482422,-0.227012500166893
1780563164918897000,9.01389697265625,1.823799967765808,-1.0315250158309937,-0.442062497138977
1780563164938418700,9.033418701171875,1.8605124950408936,-0.9926124811172484,-0.544362485408783
1780563164957937200,9.052937255859376,1.8605124950408936,-0.9926124811172484,-0.544362485408783
1780563164977450800,9.07245068359375,1.730299949645996,-0.8592374920845032,-0.5436750054359436
1780563164996968000,9.091968017578123,1.2988250255584717,-0.5271750092506409,-0.3998500108718872
1780563165016489200,9.1114892578125,1.2988250255584717,-0.5271750092506409,-0.3998500108718872
1780563165036014800,9.131014892578126,1.120074987411499,-0.395312488079071,-0.3514499962329864
1780563165055537400,9.150537353515626,0.997837483882904,-0.3068999946117401,-0.347599983215332
1780563165075056600,9.170056640625,0.9092875123023988,-0.2579500079154968,-0.3817000091075897
1780563165094578400,9.189578369140625,0.8205999732017517,-0.2340250015258789,-0.433537483215332
1780563165114105300,9.209105224609376,0.722837507724762,-0.225500002503395,-0.4804250001907348
1780563165133636400,9.22863623046875,0.6242499947547913,-0.2263250052928924,-0.4943124949932098
1780563165153166300,9.248166259765624,0.5322625041007996,-0.233887493610382,-0.4620000123977661
1780563165172691000,9.26769091796875,0.4402749836444855,-0.2421374917030334,-0.3939374983310699
1780563165192216000,9.287216064453125,0.3305499851703644,-0.2429624944925308,-0.3123999834060669
1780563165211744000,9.306743896484376,0.2025374919176101,-0.2355374991893768,-0.2424124926328659
1780563165231266300,9.326266357421876,0.0807124972343444,-0.227974995970726,-0.2012999951839447
1780563165250789000,9.3457890625,-0.0082499999552965,-0.2337500005960464,-0.194700002670288
1780563165270316300,9.36531640625,-0.0536249987781047,-0.258774995803833,-0.2161500006914138
1780563165289842200,9.38484228515625,-0.0651749968528747,-0.2993375062942505,-0.2501125037670135
1780563165309365200,9.404365234375,-0.0629749968647956,-0.3481499850749969,-0.2781625092029571
1780563165328891000,9.423890869140624,-0.0566499978303909,-0.4002625048160553,-0.2873750030994415
1780563165348418000,9.44341796875,-0.0499125011265277,-0.4525125026702881,-0.2729375064373016
1780563165367943700,9.462943603515624,-0.0576125010848045,-0.5011875033378601,-0.2373249977827072
1780563165387471600,9.4824716796875,-0.0932250022888183,-0.5425750017166138,-0.1882375031709671
1780563165406999600,9.50199951171875,-0.1424500048160553,-0.5755749940872192,-0.1351625025272369
1780563165426524000,9.52152392578125,-0.159912496805191,-0.6041749715805054,-0.0863500013947486
1780563165446046500,9.54104638671875,-0.1332374960184097,-0.631262481212616,-0.0468874983489513
1780563165465569800,9.56056982421875,-0.1171500012278556,-0.6500999927520752,-0.0197999998927116
1780563165485094000,9.580093994140626,-0.1632124930620193,-0.6487249732017517,-0.0065999999642372
1780563165504618800,9.59961865234375,-0.2594625055789947,-0.6219124794006348,-0.0054999999701976
1780563165524146700,9.619146728515624,-0.3517250120639801,-0.5780500173568726,-0.0098999999463558
1780563165543673300,9.63867333984375,-0.4208875000476837,-0.5311625003814697,-0.0116875004023313
1780563165563199200,9.65819921875,-0.4969249963760376,-0.4923875033855438,-0.010037500411272
1780563165582724400,9.677724365234376,-0.6036249995231628,-0.4691500067710876,-0.0094875004142522
1780563165602245000,9.6972451171875,-0.7291625142097473,-0.4633750021457672,-0.0125124994665384
1780563165621766100,9.71676611328125,-0.8284375071525574,-0.4697000086307525,-0.0115499999374151
1780563165641293300,9.736293212890626,-0.862262487411499,-0.4775374829769134,0.0107249999418854
1780563165660822000,9.755822021484375,-0.8144124746322632,-0.4775374829769134,0.0738374963402748
1780563165680346000,9.77534619140625,-0.6696249842643738,-0.4717625081539154,0.1926375031471252
1780563165699875800,9.794875732421875,-0.3310999870300293,-0.4995374977588653,0.3742749989032745
1780563165719409400,9.814409423828126,0.3262875080108642,-0.6165499687194824,0.6179249882698059
1780563165738940700,9.833940673828126,0.3262875080108642,-0.6165499687194824,0.6179249882698059
1780563165758468000,9.853468017578123,2.4908125400543213,-1.1274999380111694,1.2586749792099
1780563165777987000,9.872987060546874,3.5232999324798584,-1.385725021362305,1.5789124965667725
1780563165797504300,9.892504150390623,3.5232999324798584,-1.385725021362305,1.5789124965667725
1780563165817024800,9.912024658203125,4.141087532043457,-1.5655750036239624,1.846487522125244
1780563165836545500,9.931545654296874,4.141087532043457,-1.5655750036239624,1.846487522125244
1780563165856066600,9.951066650390626,4.141087532043457,-1.5655750036239624,1.846487522125244
1780563165875588400,9.97058837890625,3.2251999378204346,-1.298550009727478,1.5329874753952026
1780563165895112700,9.99011279296875,2.453550100326538,-1.0154374837875366,1.1517000198364258
1780563165914643700,10.009643798828124,1.5540249347686768,-0.6659125089645386,0.6472125053405762
1780563165934170600,10.029170654296877,0.6334624886512756,-0.3129499852657318,0.106562502682209
1780563165953695000,10.048695068359375,-0.1845249980688095,-0.0126499999314546,-0.3701499998569488
1780563165973221000,10.06822119140625,-0.8298124670982361,0.2234375029802322,-0.7312250137329102
1780563165992746200,10.087746337890623,-1.278337478637695,0.3993000090122223,-0.9631875157356262
1780563166012273400,10.1072734375,-1.518275022506714,0.507099986076355,-1.0613625049591064
1780563166031794400,10.12679443359375,-1.5767124891281128,0.5468375086784363,-1.041700005531311
1780563166051318000,10.146318115234376,-1.4939374923706057,0.5300624966621399,-0.930050015449524
1780563166070841300,10.16584130859375,-1.3102375268936155,0.4739624857902527,-0.7607874870300293
1780563166090360800,10.18536083984375,-1.0724999904632568,0.3951750099658966,-0.5792874693870544
1780563166109885200,10.20488525390625,-0.8262374997138977,0.3108874857425689,-0.4332624971866607
1780563166129411000,10.2244111328125,-0.6074749827384949,0.2375999987125396,-0.3543374836444855
1780563166148933000,10.24393310546875,-0.4361499845981598,0.1889249980449676,-0.3419624865055084
1780563166168454400,10.263454345703124,-0.3181749880313873,0.170912504196167,-0.367125004529953
1780563166187980800,10.282980712890623,-0.2545124888420105,0.1801249980926513,-0.3984749913215637
1780563166207512800,10.302512939453123,-0.2265999913215637,0.2098249942064285,-0.4188250005245209
1780563166227042000,10.3220419921875,-0.1992374956607818,0.2546499967575073,-0.4239124953746795
1780563166246568700,10.341568603515626,-0.1649999916553497,0.3102000057697296,-0.4145624935626983
1780563166266097000,10.361096923828123,-0.1583999991416931,0.3701499998569488,-0.3957250118255615
1780563166285628200,10.380628173828123,-0.2058375030755996,0.4255625009536743,-0.3738625049591064
1780563166305159700,10.40015966796875,-0.2663374841213226,0.468874990940094,-0.3573625087738037
1780563166324687600,10.4196875,-0.2729375064373016,0.4984374940395355,-0.3537875115871429
1780563166344219000,10.439218994140624,-0.2209624946117401,0.5200250148773193,-0.3620375096797943
1780563166363747300,10.458747314453126,-0.173799991607666,0.5422999858856201,-0.3689124882221222
1780563166383274000,10.47827392578125,-0.1933249980211258,0.5669124722480774,-0.3594250082969665
1780563166402800400,10.49780029296875,-0.2796750068664551,0.5857499837875366,-0.3338499963283539
1780563166422327600,10.51732763671875,-0.3547500073909759,0.5900124907493591,-0.3019500076770782
1780563166441856500,10.5368564453125,-0.3350875079631805,0.5799750089645386,-0.2693625092506408
1780563166461385000,10.556385009765624,-0.233887493610382,0.5665000081062317,-0.2392500042915344
1780563166480908800,10.57590869140625,-0.1458874940872192,0.56045001745224,-0.214087501168251
1780563166500430600,10.5954306640625,-0.1552374958992004,0.5665000081062317,-0.1993750035762787
1780563166519955200,10.614955078125,-0.2488749921321869,0.5813499689102173,-0.198137491941452
1780563166539479600,10.6344794921875,-0.3574999868869781,0.5983999967575073,-0.1993750035762787
1780563166559004400,10.65400439453125,-0.4331249892711639,0.6114624738693237,-0.1791625022888183
1780563166578531300,10.67353125,-0.4331249892711639,0.6114624738693237,-0.1791625022888183
1780563166598058200,10.693058349609377,-0.3840374946594238,0.6114624738693237,-0.026537500321865
1780563166617583900,10.712583984375,-0.3840374946594238,0.6114624738693237,-0.026537500321865
1780563166637110000,10.732110107421876,-0.2168374955654144,0.6620625257492065,0.1384624987840652
1780563166656638000,10.751637939453126,-0.2058375030755996,0.7287499904632568,0.2061125040054321
1780563166676164000,10.7711640625,-0.2058375030755996,0.7287499904632568,0.2061125040054321
1780563166695692800,10.79069287109375,-0.2710124850273132,0.7999749779701233,0.2756874859333038
1780563166715224300,10.810224365234374,-0.4078249931335449,0.8604750037193298,0.3359124958515167
1780563166734753500,10.82975341796875,-0.6022499799728394,0.9162999987602234,0.3636874854564667
1780563166754283300,10.849283203125,-0.8291249871253967,0.9820249676704408,0.3546124994754791
1780563166773813200,10.868813232421877,-1.0583374500274658,1.0605374574661257,0.3315125107765198
1780563166793342000,10.888342041015624,-1.2105499505996704,1.1243374347686768,0.3183124959468841
1780563166812871000,10.907870849609376,-1.211925029754639,1.1435874700546265,0.3209249973297119
1780563166832398000,10.927398193359377,-1.051187515258789,1.114024996757507,0.3244999945163727
1780563166851925200,10.94692529296875,-0.7932375073432922,1.0533875226974487,0.3121249973773956
1780563166871453700,10.96645361328125,-0.5501375198364258,0.9857375025749208,0.2844874858856201
1780563166890982100,10.985982177734376,-0.3946250081062317,0.9234499931335448,0.2534124851226806
1780563166910511600,11.00551171875,-0.3299999833106994,0.8647375106811523,0.2311374992132187
1780563166930045000,11.025044921875,-0.3085500001907348,0.8013499975204468,0.2211000025272369
1780563166949575200,11.0445751953125,-0.2662000060081482,0.729574978351593,0.2157374918460846
1780563166969102600,11.0641025390625,-0.1606000065803527,0.6523000001907349,0.2061125040054321
1780563166988629800,11.083629638671876,0.0054999999701976,0.5736500024795532,0.191674992442131
1780563167008157400,11.103157470703126,0.1940124928951263,0.4955500066280365,0.1801249980926513
1780563167027689700,11.122689697265624,0.3730374872684479,0.4188250005245209,0.1732500046491623
1780563167047221200,11.14222119140625,0.5405125021934509,0.3448500037193298,0.1621125042438507
1780563167066750700,11.161750732421876,0.683650016784668,0.2733500003814697,0.1436875015497207
1780563167086279000,11.18127880859375,0.7625749707221985,0.202124997973442,0.130074992775917
1780563167105811500,11.2008115234375,0.7638124823570251,0.1317249983549118,0.1288374960422516
1780563167125346600,11.2203466796875,0.733287513256073,0.0692999958992004,0.1275999993085861
1780563167144877800,11.2398779296875,0.7254499793052673,0.0232375003397464,0.1088999956846237
1780563167164407300,11.2594072265625,0.7288874983787537,-0.0074249999597668,0.0754875019192695
1780563167183939300,11.278939208984376,0.6909375190734863,-0.0302499998360872,0.0457874983549118
1780563167203471400,11.298471435546874,0.6018375158309937,-0.0492249988019466,0.0269499998539686
1780563167223004700,11.318004638671876,0.5040749907493591,-0.0607750006020069,0.0111375004053115
1780563167242537200,11.337537109375,0.4283125102519989,-0.0627000033855438,-0.0065999999642372
1780563167262069200,11.3570693359375,0.3602499961853027,-0.0592624992132186,-0.0181499999016523
1780563167281604400,11.376604248046876,0.283112496137619,-0.055137500166893,-0.0142999999225139
1780563167301137000,11.396136962890624,0.1937374919652938,-0.0512874983251094,0.0090749999508261
1780563167320669200,11.415669189453125,0.0859375,-0.0475750006735324,0.0527999997138977
1780563167340201500,11.435201416015625,-0.0379500016570091,-0.0431750006973743,0.1088999956846237
1780563167359729200,11.454729248046876,-0.146987497806549,-0.0378125011920928,0.1578499972820282
1780563167379256000,11.474256103515623,-0.2059749960899353,-0.0327249988913536,0.1809500008821487
1780563167398782500,11.493782470703126,-0.2059749960899353,-0.0327249988913536,0.1809500008821487
1780563167418312200,11.513312255859375,-0.2536875009536743,-0.0472999997437,0.1750375032424926
1780563167437835300,11.532835205078126,-0.304562509059906,-0.0713625028729438,0.1740749925374984
1780563167457350100,11.55235009765625,-0.304562509059906,-0.0713625028729438,0.1740749925374984
1780563167476862200,11.5718623046875,-0.4035624861717224,-0.118937499821186,0.1736624985933303
1780563167496376300,11.591376220703124,-0.4035624861717224,-0.118937499821186,0.1736624985933303
1780563167515897300,11.6108974609375,-0.390500009059906,-0.1292500048875808,0.1545500010251999
1780563167535423700,11.630423828125,-0.3232625126838684,-0.1296624988317489,0.1182499974966049
1780563167554949400,11.649949462890625,-0.2446125000715255,-0.1263625025749206,0.0774125009775161
1780563167574479000,11.66947900390625,-0.2142249941825866,-0.1264999955892563,0.0510125011205673
1780563167594013400,11.689013427734375,-0.2424124926328659,-0.1324124932289123,0.0444125011563301
1780563167613546200,11.708546142578124,-0.2707374989986419,-0.1381874978542328,0.0446874983608722
1780563167633075000,11.728074951171877,-0.2326499968767166,-0.1369500011205673,0.0367125011980533
1780563167652601900,11.747601806640626,-0.1273249983787536,-0.1293874979019165,0.0210375003516674
1780563167672131000,11.767131103515624,-0.0149875003844499,-0.1201749965548515,0.0130624994635581
1780563167691660000,11.786659912109377,0.0477125011384487,-0.1109625026583671,0.0250249989330768
1780563167711188200,11.806188232421874,0.0478499978780746,-0.0984499976038932,0.0569249987602233
1780563167730717200,11.82571728515625,0.0030249999836087,-0.0791999995708465,0.0998250022530555
1780563167750247000,11.845246826171875,-0.0677874982357025,-0.0533500015735626,0.1434125006198883
1780563167769779500,11.864779541015626,-0.1585374921560287,-0.0239249989390373,0.1812250018119812
1780563167789312300,11.884312255859374,-0.2667500078678131,0.0076999999582767,0.2125750035047531
1780563167808846300,11.903846435546876,-0.3771624863147735,0.0419375002384185,0.2387000024318695
1780563167828380700,11.923380615234375,-0.4587000012397766,0.0793375000357627,0.2591874897480011
1780563167847913000,11.942912841796876,-0.4833124876022339,0.1187999993562698,0.2710124850273132
1780563167867440000,11.962440185546876,-0.4563624858856201,0.1588124930858612,0.2745875120162964
1780563167886968000,11.981968017578126,-0.4250124990940094,0.1999250054359436,0.2769249975681305
1780563167906495700,12.001495849609377,-0.4423374831676483,0.2457125037908554,0.2897124886512756
1780563167926024200,12.021024169921876,-0.5190625190734863,0.3009875118732452,0.3188624978065491
1780563167945558500,12.04055859375,-0.619575023651123,0.3672625124454498,0.3627249896526336
1780563167965092600,12.060092529296876,-0.699874997138977,0.4388999938964844,0.4149749875068664
1780563167984625700,12.079625732421874,-0.7396125197410583,0.5050374865531921,0.4683249890804291
1780563168004155400,12.0991552734375,-0.7357624769210815,0.5561875104904175,0.5123249888420105
1780563168023687200,12.118687255859374,-0.6912124752998352,0.5886374711990356,0.5363875031471252
1780563168043218700,12.13821875,-0.6228749752044678,0.6036249995231628,0.5403749942779541
1780563168062745600,12.15774560546875,-0.5593500137329102,0.6069250106811523,0.5328124761581421
1780563168082268200,12.17726806640625,-0.524150013923645,0.6103624701499939,0.5208500027656555
1780563168101790700,12.196790771484377,-0.5257999897003174,0.6231499910354614,0.504212498664856
1780563168121317600,12.216317626953124,-0.5550875067710876,0.6448749899864197,0.480287492275238
1780563168140847400,12.235847412109376,-0.5912500023841858,0.6676999926567078,0.4494875073432922
1780563168160376600,12.25537646484375,-0.6122875213623047,0.6844750046730042,0.4147000014781952
1780563168179904300,12.274904296875,-0.6114624738693237,0.693274974822998,0.381974995136261
1780563168199430000,12.294429931640623,-0.603487491607666,0.694237470626831,0.3617624938488006
1780563168218957600,12.31395751953125,-0.603487491607666,0.6868125200271606,0.3612124919891357
1780563168238486800,12.33348681640625,-0.6096749901771545,0.6676999926567078,0.3731749951839447
1780563168258016800,12.353016845703126,-0.5945500135421753,0.6155874729156494,0.3722124993801117
1780563168277550300,12.37255029296875,-0.5945500135421753,0.6155874729156494,0.3722124993801117
1780563168297084200,12.392084228515625,-0.2946625053882599,0.2523125112056732,0.2050125002861023
1780563168316612600,12.411612548828124,-0.2946625053882599,0.2523125112056732,0.2050125002861023
1780563168336143400,12.431143310546876,0.0728750005364418,-0.0835999995470047,0.0092124994844198
1780563168355675400,12.45067529296875,0.0728750005364418,-0.0835999995470047,0.0092124994844198
1780563168375210000,12.4702099609375,0.8657000064849854,-0.7683500051498413,-0.5315750241279602
1780563168394748000,12.489747802734374,1.013237476348877,-1.0038875341415403,-0.83160001039505
1780563168414289400,12.509289306640625,1.0063624382019043,-1.1555500030517578,-1.1053625345230105
1780563168433829000,12.5288291015625,0.9479249715805054,-1.220312476158142,-1.291537523269653
1780563168453366800,12.54836669921875,0.8804125189781189,-1.2075250148773191,-1.366612434387207
1780563168472904400,12.567904541015626,0.816474974155426,-1.1519750356674194,-1.3557499647140503
1780563168492442600,12.587442626953123,0.7840250134468079,-1.0833624601364136,-1.277787446975708
1780563168511984600,12.606984619140626,0.8190875053405762,-1.0097999572753906,-1.127912521362305
1780563168531518500,12.6265185546875,0.9299125075340272,-0.9231749773025512,-0.8960874676704407
1780563168551047200,12.646047119140626,1.0690624713897705,-0.8137249946594238,-0.6004624962806702
1780563168570580500,12.66558056640625,1.1654499769210815,-0.6796625256538391,-0.2886124849319458
1780563168590117600,12.68511767578125,1.1752125024795532,-0.5344625115394592,-0.0148499999195337
1780563168609651200,12.704651123046874,1.095324993133545,-0.3959999978542328,0.1871374994516372
1780563168629181400,12.724181396484376,0.9477875232696532,-0.2755500078201294,0.2996124923229217
1780563168648711400,12.74371142578125,0.7621625065803528,-0.1742125004529953,0.3154250085353851
1780563168668242700,12.76324267578125,0.5684249997138977,-0.091849997639656,0.2480500042438507
1780563168687776500,12.782776611328124,0.3928374946117401,-0.0349249988794326,0.1288374960422516
1780563168707309600,12.8023095703125,0.2518999874591827,-0.0079749999567866,0.0008249999955296
1780563168726844400,12.821844482421875,0.1632124930620193,-0.0061874999664723,-0.1011999994516372
1780563168746375700,12.841375732421875,0.15344999730587,-0.0246124994009733,-0.170362502336502
1780563168765900300,12.860900390625,0.2312749922275543,-0.0609125010669231,-0.2154625058174133
1780563168785423000,12.880423095703126,0.3707000017166137,-0.1126125007867813,-0.2418625056743621
1780563168804955100,12.899955078125,0.5246999859809875,-0.1746249943971634,-0.2491499930620193
1780563168824494800,12.919494873046874,0.64638751745224,-0.2311374992132187,-0.231962502002716
1780563168844031700,12.93903173828125,0.7128000259399414,-0.2667500078678131,-0.1915374994277954
1780563168863568100,12.958568115234376,0.7268249988555908,-0.2763749957084656,-0.1380500048398971
1780563168883103500,12.978103515625,0.7074375152587891,-0.2710124850273132,-0.0856624990701675
1780563168902636300,12.99763623046875,0.6744375228881836,-0.2715624868869781,-0.0494999997317791
1780563168922168800,13.0171689453125,0.6374499797821045,-0.2924624979496002,-0.0450999997556209
1780563168941696800,13.03669677734375,0.5893250107765198,-0.3326124846935272,-0.0859375
1780563168961218800,13.05621875,0.4980250000953674,-0.3797749876976013,-0.1715999990701675
1780563168980745700,13.075745849609374,0.328900009393692,-0.42061248421669,-0.2842124998569488
1780563169000276200,13.095276123046874,0.0878624990582466,-0.4493499994277954,-0.3969624936580658
1780563169019807200,13.11480712890625,-0.1639000028371811,-0.47079998254776,-0.4844124913215637
1780563169039337000,13.1343369140625,-0.3484250009059906,-0.5011875033378601,-0.5300624966621399
1780563169058864600,13.15386474609375,-0.3484250009059906,-0.5011875033378601,-0.5300624966621399
1780563169078395400,13.1733955078125,-0.420199990272522,-0.5565999746322632,-0.5274500250816345
1780563169097926100,13.192926025390625,-0.3753750026226043,-0.6375874876976013,-0.4823499917984009
1780563169117456100,13.2124560546875,-0.2477750033140182,-0.7262749671936035,-0.4116750061511993
1780563169136989000,13.231989013671877,-0.2477750033140182,-0.7262749671936035,-0.4116750061511993
1780563169156518700,13.2515185546875,-0.0635249987244606,-0.8325625061988831,-0.2773374915122986
1780563169176048000,13.271048095703126,-0.0635249987244606,-0.8325625061988831,-0.2773374915122986
1780563169195579100,13.2905791015625,-0.2791250050067901,-0.7845749855041504,-0.2325125038623809
1780563169215111000,13.31011083984375,-0.4809750020503998,-0.7165125012397766,-0.221512496471405
1780563169234645500,13.3296455078125,-0.7002875208854675,-0.635937511920929,-0.2006125003099441
1780563169254176500,13.349176513671877,-0.8980125188827515,-0.56045001745224,-0.171324998140335
1780563169273707000,13.36870703125,-1.021762490272522,-0.5028374791145325,-0.1390125006437301
1780563169293237200,13.3882373046875,-1.045549988746643,-0.4675000011920929,-0.1017500013113021
1780563169312760000,13.407760009765624,-0.9693750143051147,-0.4507249891757965,-0.0549999997019767
1780563169332284000,13.427283935546876,-0.804099977016449,-0.4475624859333038,0.0056374999694526
1780563169351814700,13.446814697265625,-0.5611374974250793,-0.4560874998569488,0.0840125009417533
1780563169371344400,13.466344482421874,-0.2495625019073486,-0.4789125025272369,0.1791625022888183
1780563169390873000,13.485873046875,0.1093124970793724,-0.5252500176429749,0.2846249938011169
1780563169410401300,13.5054013671875,0.5317124724388123,-0.6154500246047974,0.3944875001907348
1780563169429926000,13.52492578125,1.082124948501587,-0.7601000070571899,0.5121874809265137
1780563169449456600,13.54445654296875,1.762887477874756,-0.93197500705719,0.6430875062942505
1780563169468990500,13.563990478515626,2.442687511444092,-1.08308744430542,0.7739874720573425
1780563169488519000,13.583518798828123,2.909637451171875,-1.178512454032898,0.8652874827384949
1780563169508046000,13.603046142578124,3.0376498699188232,-1.2086249589920044,0.8793125152587891
1780563169527573800,13.62257373046875,2.849550008773804,-1.1730124950408936,0.8079500198364258
1780563169547102200,13.642102294921877,2.4193124771118164,-1.069200038909912,0.6656374931335449
1780563169566632200,13.661632080078125,1.8358999490737915,-0.905162513256073,0.4796000123023987
1780563169586165800,13.681165771484377,1.1922625303268433,-0.7053750157356262,0.2796750068664551
1780563169605698300,13.7006982421875,0.5541250109672546,-0.4977499842643738,0.0892374962568283
1780563169625229300,13.720229248046875,-0.0379500016570091,-0.2994749844074249,-0.0709500014781951
1780563169644763600,13.739763671875,-0.5455999970436096,-0.1146750003099441,-0.182325005531311
1780563169664294100,13.759294189453126,-0.9103875160217284,0.0497750006616115,-0.2352624982595443
1780563169683821800,13.77882177734375,-1.0881749391555786,0.1786125004291534,-0.2432374954223632
1780563169703353900,13.798353759765623,-1.098075032234192,0.2595999836921692,-0.2421374917030334
1780563169722883300,13.81788330078125,-0.9983875155448914,0.2963125109672546,-0.2641375064849853
1780563169742407700,13.83740771484375,-0.8559374809265137,0.3049750030040741,-0.3224374949932098
1780563169761932800,13.856932861328126,-0.7319124937057495,0.3040125072002411,-0.4127750098705292
1780563169781461200,13.876461181640623,-0.6505125164985657,0.3044250011444092,-0.517549991607666
1780563169800987400,13.8959873046875,-0.5879499912261963,0.309374988079071,-0.611050009727478
1780563169820513800,13.915513671875,-0.505174994468689,0.318450003862381,-0.6686624884605408
1780563169840043800,13.935043701171876,-0.3964124917984009,0.3294500112533569,-0.6810374855995178
1780563169859573800,13.95457373046875,-0.2745875120162964,0.3425124883651733,-0.653124988079071
1780563169879104300,13.974104248046874,-0.1432749927043914,0.3607999980449676,-0.6015625
1780563169898636500,13.993636474609374,-0.1432749927043914,0.3607999980449676,-0.6015625
1780563169918167000,14.0131669921875,0.053762499243021,0.4210250079631805,-0.5120499730110168
1780563169937692200,14.032692138671877,0.053762499243021,0.4210250079631805,-0.5120499730110168
1780563169957222700,14.05222265625,-0.1082125008106231,0.5065500140190125,-0.4929375052452087
1780563169976754200,14.071754150390625,-0.1082125008106231,0.5065500140190125,-0.4929375052452087
1780563169996280000,14.091280029296875,-0.1082125008106231,0.5065500140190125,-0.4929375052452087
1780563170015807200,14.11080712890625,-0.467362493276596,0.5640249848365784,-0.5124624967575073
1780563170035334700,14.130334716796876,-0.5985375046730042,0.5752999782562256,-0.5242875218391418
1780563170054868500,14.149868408203124,-0.6507874727249146,0.5776374936103821,-0.5253875255584717
1780563170074403600,14.169403564453123,-0.6103624701499939,0.5713124871253967,-0.511775016784668
1780563170093934600,14.1889345703125,-0.5103999972343445,0.5663625001907349,-0.4958249926567077
1780563170113465300,14.20846533203125,-0.4273499846458435,0.5802500247955322,-0.4927999973297119
1780563170132996000,14.22799609375,-0.4353249967098236,0.6246625185012817,-0.5011875033378601
1780563170152524500,14.247524658203124,-0.5501375198364258,0.696987509727478,-0.4965125024318695
1780563170172054000,14.267053955078126,-0.7126625180244446,0.7814124822616577,-0.4487999975681305
1780563170191584800,14.286584716796876,-0.8328375220298767,0.8644624948501587,-0.3531000018119812
1780563170211111000,14.30611083984375,-0.8879749774932861,0.9476500153541564,-0.2340250015258789
1780563170230637000,14.325636962890623,-0.940500020980835,1.0405999422073364,-0.1234750002622604
1780563170250166000,14.345166015625,-1.0478874444961548,1.1453750133514404,-0.0354750007390975
1780563170269695700,14.36469580078125,-1.1903375387191772,1.2483625411987305,0.0340999998152256
1780563170289224400,14.384224365234376,-1.3125749826431274,1.3299000263214111,0.0947374999523162
1780563170308753700,14.403753662109375,-1.3961750268936155,1.3762375116348269,0.15344999730587
1780563170328285200,14.42328515625,-1.452275037765503,1.380637526512146,0.2125750035047531
1780563170347816200,14.442816162109375,-1.4775749444961548,1.3433749675750732,0.2666124999523163
1780563170367351800,14.462351806640624,-1.4462250471115112,1.2716000080108645,0.3077250123023987
1780563170386889500,14.481889404296876,-1.3403500318527222,1.1757625341415403,0.3343999981880188
1780563170406420000,14.501419921875,-1.1648999452590942,1.0643874406814575,0.3507624864578247
1780563170425951000,14.520950927734376,-0.9334874749183656,0.9400874972343444,0.3565374910831451
1780563170445487400,14.5404873046875,-0.6539499759674072,0.8025875091552734,0.3441624939441681
1780563170465024800,14.560024658203124,-0.3451249897480011,0.6554625034332275,0.3071750104427337
1780563170484560100,14.57956005859375,-0.0416624993085861,0.507099986076355,0.2501125037670135
1780563170504096000,14.599095947265624,0.2256374955177307,0.3673999905586242,0.1839749962091446
1780563170523630600,14.618630615234377,0.4459125101566314,0.243925005197525,0.1182499974966049
1780563170543161300,14.638161376953123,0.6235625147819519,0.1417624950408935,0.0571999996900558
1780563170562689300,14.657689208984374,0.7522624731063843,0.0639375001192092,0.0052249999716877
1780563170582220300,14.67722021484375,0.8130375146865845,0.0105875004082918,-0.0327249988913536
1780563170601752300,14.69675244140625,0.7908999919891357,-0.0208999998867511,-0.0534874983131885
1780563170621282000,14.716281982421876,0.6951999664306641,-0.0362999998033046,-0.0581624992191791
1780563170640808000,14.735807861328125,0.5677375197410583,-0.0441375002264976,-0.0527999997138977
1780563170660330200,14.755330322265625,0.4591124951839447,-0.0526624992489814,-0.0441375002264976
1780563170679854800,14.774854736328123,0.3913249969482422,-0.0642125010490417,-0.0342375002801418
1780563170699384000,14.794384033203125,0.3478749990463257,-0.0745249986648559,-0.0202124994248151
1780563170718916400,14.813916259765625,0.3478749990463257,-0.0745249986648559,-0.0202124994248151
1780563170738444300,14.8334443359375,0.3046999871730804,-0.0735625028610229,0.0063249999657273
1780563170757970200,14.85297021484375,0.3209249973297119,-0.0680624991655349,0.0078375004231929
1780563170777499600,14.872499755859376,0.3209249973297119,-0.0680624991655349,0.0078375004231929
1780563170797027300,14.89202734375,0.3225750029087066,-0.0627000033855438,0.0111375004053115
1780563170816555500,14.911555419921877,0.3225750029087066,-0.0627000033855438,0.0111375004053115
1780563170836082200,14.931082275390626,0.2715624868869781,-0.0571999996900558,0.0197999998927116
1780563170855609300,14.950609375,0.2081750035285949,-0.0496375001966953,0.0302499998360872
1780563170875136300,14.97013623046875,0.167337492108345,-0.0456499978899955,0.0402874983847141
1780563170894665200,14.989665283203124,0.1795749962329864,-0.0507375001907348,0.0468874983489513
1780563170914194700,15.009194580078123,0.23938749730587,-0.0673749968409538,0.0496375001966953
1780563170933722600,15.02872265625,0.2987875044345855,-0.0933625027537345,0.0518375001847744
1780563170953252600,15.048252685546874,0.3126749992370605,-0.1233374997973442,0.0569249987602233
1780563170972779800,15.06777978515625,0.2890250086784363,-0.1502874940633773,0.0615999996662139
1780563170992307500,15.087307373046874,0.2835249900817871,-0.1676124930381775,0.0548624992370605
1780563171011838200,15.106838134765624,0.3360500037670135,-0.1721500009298324,0.0306624993681907
1780563171031366000,15.126365966796875,0.4222624897956848,-0.1658249944448471,-0.0032999999821186
1780563171050893000,15.14589306640625,0.4824874997138977,-0.1511124968528747,-0.0318999998271465
1780563171070420700,15.165420654296875,0.4794625043869018,-0.1284250020980835,-0.0452375002205371
1780563171089945600,15.184945556640624,0.4243249893188476,-0.0961124971508979,-0.0433125011622905
1780563171109471700,15.2044716796875,0.3493874967098236,-0.0541750006377697,-0.0320375002920627
1780563171128999200,15.223999267578124,0.2832500040531158,-0.0075624999590218,-0.0180124994367361
1780563171148525800,15.24352587890625,0.246812492609024,0.0354750007390975,-0.0078375004231929
1780563171168052000,15.263052001953126,0.2392500042915344,0.0668250024318695,-0.0026124999858438
1780563171187578400,15.282578369140625,0.2371875047683715,0.0835999995470047,0.0030249999836087
1780563171207109400,15.302109375,0.2222000062465667,0.0878624990582466,0.0131999999284744
1780563171226639400,15.321639404296874,0.2054249942302703,0.0855249986052513,0.0235124994069337
1780563171246165500,15.34116552734375,0.2043250054121017,0.085387498140335,0.0269499998539686
1780563171265694500,15.360694580078125,0.2058375030755996,0.0961124971508979,0.0240624994039535
1780563171285220400,15.380220458984375,0.1797125041484832,0.1209999993443489,0.0221375003457069
1780563171304743200,15.3997431640625,0.1099999994039535,0.1563374996185302,0.0273624993860721
1780563171324268300,15.419268310546874,0.0111375004053115,0.1944250017404556,0.0405624993145465
1780563171343796200,15.438796142578123,-0.0985874980688095,0.2299000024795532,0.0621500015258789
1780563171363323400,15.458323486328124,-0.2201374918222427,0.2631750106811523,0.0965249985456466
1780563171382846200,15.47784619140625,-0.3513124883174896,0.2987875044345855,0.1446499973535537
1780563171402366200,15.4973662109375,-0.4732750058174133,0.340312510728836,0.1996500045061111
1780563171421888000,15.516887939453126,-0.5630624890327454,0.3876124918460846,0.2505249977111816
1780563171441402400,15.53640234375,-0.6242499947547913,0.4357374906539917,0.294524997472763
1780563171460915500,15.55591552734375,-0.6857125163078308,0.478362500667572,0.3400374948978424
1780563171480440300,15.5754404296875,-0.7605124711990356,0.5102624893188477,0.3928374946117401
1780563171499970600,15.594970458984376,-0.8247249722480774,0.5256624817848206,0.4446749985218048
1780563171519497700,15.614497802734377,-0.8421875238418579,0.5161749720573425,0.4790500104427337
1780563171539026400,15.6340263671875,-0.8421875238418579,0.5161749720573425,0.4790500104427337
1780563171558557000,15.653556884765624,-0.7815499901771545,0.4423374831676483,0.4955500066280365
1780563171578085400,15.67308544921875,-0.7815499901771545,0.4423374831676483,0.4955500066280365
1780563171597609500,15.692609375,-0.8446624875068665,0.467362493276596,0.5392749905586243
1780563171617129000,15.71212890625,-0.9986624717712402,0.5717250108718872,0.630299985408783
1780563171636649700,15.731649658203125,-1.29868745803833,0.8556625247001648,0.864187479019165
1780563171656169700,15.751169677734374,-1.29868745803833,0.8556625247001648,0.864187479019165
1780563171675688000,15.77068798828125,-1.3235750198364258,0.9428374767303468,0.940500020980835
1780563171695207400,15.79020751953125,-1.2486374378204346,0.9726749658584596,0.964287519454956
1780563171714733600,15.809733642578124,-1.093537449836731,0.9473749995231628,0.9418749809265136
1780563171734259500,15.829259521484374,-0.8989750146865845,0.8833000063896179,0.8925125002861023
1780563171753780500,15.848780517578126,-0.7027624845504761,0.8027250170707703,0.8269249796867371
1780563171773300000,15.868300048828123,-0.5337749719619751,0.7236624956130981,0.7434625029563904
1780563171792816600,15.887816650390626,-0.4152500033378601,0.6509249806404114,0.6456999778747559
1780563171812340200,15.90734033203125,-0.3634124994277954,0.5856124758720398,0.5523374676704407
1780563171831866600,15.92686669921875,-0.3782624900341034,0.5329499840736389,0.4827624857425689
1780563171851391500,15.9463916015625,-0.427212506532669,0.5010499954223633,0.4379374980926513
1780563171870917000,15.965917236328124,-0.4393124878406524,0.4720374941825866,0.3910500109195709
1780563171890444800,15.98544482421875,-0.3249124884605407,0.3529624938964844,0.2952125072479248
1780563171909968600,16.00496875,-0.011824999935925,0.0144375003874301,0.1024374961853027
1780563171929490000,16.024489990234375,0.522362470626831,-0.5687000155448914,-0.2072124928236007
1780563171949017300,16.044017333984375,1.1892374753952026,-1.2346124649047852,-0.5990874767303467
1780563171968547300,16.06354736328125,1.7831000089645386,-1.7392375469207764,-0.9791374802589417
1780563171988074800,16.08307470703125,2.093300104141236,-1.944387435913086,-1.2434124946594238
1780563172007599600,16.102599609375,2.029774904251098,-1.8695875406265257,-1.3359500169754028
1780563172027125200,16.122125244140626,1.668837547302246,-1.6179624795913696,-1.2651374340057373
1780563172046653000,16.14165283203125,1.1829124689102173,-1.3066624402999878,-1.0978000164031982
1780563172066184000,16.161183837890626,0.7240750193595886,-1.0157124996185305,-0.9136874675750732
1780563172085712100,16.180712158203125,0.3517250120639801,-0.7712374925613403,-0.7669749855995178
1780563172105235200,16.200235107421875,0.0571999996900558,-0.5780500173568726,-0.6810374855995178
1780563172124759600,16.219759521484374,-0.1201749965548515,-0.4515500068664551,-0.6319500207901001
1780563172144287000,16.239286865234376,-0.0760374963283538,-0.415800005197525,-0.5605875253677368
1780563172163811600,16.2588115234375,0.2067999988794326,-0.4629625082015991,-0.419649988412857
1780563172183335400,16.27833544921875,0.5941374897956848,-0.5388625264167786,-0.2114749997854232
1780563172202863000,16.297863037109376,0.9172624945640564,-0.5853375196456909,0.016499999910593
1780563172222391000,16.31739111328125,1.085012435913086,-0.571862518787384,0.2183499932289123
1780563172241923300,16.33692333984375,1.0815750360488892,-0.5006374716758728,0.3607999980449676
1780563172261457400,16.35645751953125,0.9446250200271606,-0.3950375020503998,0.4163500070571899
1780563172280986400,16.375986328125,0.75638747215271,-0.2919124960899353,0.3705624938011169
1780563172300511500,16.395511474609375,0.5812125205993652,-0.227012500166893,0.2286625057458877
1780563172320033500,16.415033447265625,0.4226749837398529,-0.2106499969959259,0.0248875003308057
1780563172339559000,16.434558837890624,0.2569875121116638,-0.2198625057935714,-0.1915374994277954
1780563172359087900,16.454087890625,0.2569875121116638,-0.2198625057935714,-0.1915374994277954
1780563172378615800,16.47361572265625,0.0845625028014183,-0.2190375030040741,-0.3788124918937683
1780563172398140200,16.49314013671875,-0.0591249987483024,-0.1937374919652938,-0.5106750130653381
1780563172417667800,16.512667724609376,-0.1111000031232833,-0.1582625061273574,-0.5502749681472778
1780563172437197600,16.532197509765624,0.2550624907016754,-0.1387374997138977,-0.2617999911308288
1780563172456727300,16.551727294921875,0.2550624907016754,-0.1387374997138977,-0.2617999911308288
1780563172476258300,16.57125830078125,0.2550624907016754,-0.1387374997138977,-0.2617999911308288
1780563172495787300,16.590787353515626,0.7962625026702881,-0.1318625062704086,0.1674750000238418
1780563172515317500,16.6103173828125,0.8701000213623047,-0.0919874981045723,0.2501125037670135
1780563172534842600,16.629842529296877,0.8701000213623047,-0.0919874981045723,0.2501125037670135
1780563172554366500,16.649366455078123,0.7096375226974487,0.0012374999932944,0.0672374963760376
1780563172573890000,16.66889013671875,0.568149983882904,0.0087999999523162,-0.1497374922037124
1780563172593408500,16.688408447265626,0.4090625047683716,-0.0111375004053115,-0.3641000092029571
1780563172612926000,16.707926025390623,0.2286625057458877,-0.0411125011742115,-0.5086125135421753
1780563172632445700,16.72744580078125,0.0305249989032745,-0.0732875019311904,-0.568149983882904
1780563172651971000,16.74697119140625,-0.1689874976873397,-0.1099999994039535,-0.5674625039100647
1780563172671497000,16.7664970703125,-0.3397625088691711,-0.1539999991655349,-0.5300624966621399
1780563172691027000,16.78602685546875,-0.4514124989509582,-0.2055625021457672,-0.4724499881267547
1780563172710556700,16.805556640625,-0.4800125062465668,-0.2644124925136566,-0.3998500108718872
1780563172730078200,16.825078125,-0.4221250116825104,-0.3338499963283539,-0.3071750104427337
1780563172749599700,16.844599853515625,-0.2982375025749206,-0.4199250042438507,-0.1900250017642974
1780563172769124400,16.864124267578124,-0.1328250020742416,-0.5240125060081482,-0.0562375001609325
1780563172788648000,16.88364794921875,0.0538999997079372,-0.6352499723434448,0.0736999958753585
1780563172808172000,16.903172119140624,0.2264624983072281,-0.731499969959259,0.1753125041723251
1780563172827695400,16.9226953125,0.333712488412857,-0.7933750152587891,0.2248124927282333
1780563172847216400,16.94221630859375,0.3343999981880188,-0.8124874830245972,0.1882375031709671
1780563172866741200,16.9617412109375,0.2143625020980835,-0.7910374999046326,0.0412499979138374
1780563172886266000,16.98126611328125,-0.0221375003457069,-0.7364500164985657,-0.1885125041007995
1780563172905791000,17.000791015625,-0.3806000053882599,-0.6569749712944031,-0.4270749986171722
1780563172925316900,17.02031689453125,-0.8544250130653381,-0.561412513256073,-0.6010124683380127
1780563172944844300,17.03984423828125,-1.3677124977111816,-0.4662624895572662,-0.6590374708175659
1780563172964372700,17.059372802734377,-1.7747124433517456,-0.3986124992370605,-0.5757125020027161
1780563172983899000,17.07889892578125,-1.936275005340576,-0.3865124881267547,-0.3676750063896179
1780563173003425300,17.09842529296875,-1.784749984741211,-0.4446749985218048,-0.0882750004529953
1780563173022951200,17.117951171875,-1.3179374933242798,-0.5707625150680542,0.2099625021219253
1780563173042476300,17.137476318359376,-0.5869874954223633,-0.7480000257492065,0.5059999823570251
1780563173062001000,17.1570009765625,0.2851749956607818,-0.9479249715805054,0.7847124934196472
1780563173081522700,17.176522705078124,1.1250250339508057,-1.1386375427246094,1.0203875303268433
1780563173101045200,17.196045166015626,1.7806249856948853,-1.29277503490448,1.196387529373169
1780563173120569900,17.21556982421875,2.178412437438965,-1.3946624994277954,1.311887502670288
1780563173140094500,17.235094482421875,2.3487749099731445,-1.440999984741211,1.3809125423431396
1780563173159616800,17.25461669921875,2.399924993515014,-1.4365999698638916,1.4293124675750732
1780563173179142100,17.27414208984375,2.399924993515014,-1.4365999698638916,1.4293124675750732
1780563173198672000,17.293671875,2.426874876022339,-1.391087532043457,1.4821125268936155
1780563173218196200,17.3131962890625,2.3648624420166016,-1.200374960899353,1.5692875385284424
1780563173237721000,17.33272119140625,2.183774948120117,-1.059712529182434,1.5376625061035156
1780563173257248800,17.352248779296875,2.183774948120117,-1.059712529182434,1.5376625061035156
1780563173276775000,17.37177490234375,2.183774948120117,-1.059712529182434,1.5376625061035156
1780563173296296700,17.391296630859376,1.5664000511169434,-0.7356249690055847,1.217287540435791
1780563173315817500,17.4108173828125,1.1215875148773191,-0.5572875142097473,0.8710625171661377
1780563173335340800,17.4303408203125,0.6234250068664551,-0.3711124956607818,0.4366999864578247
1780563173354861300,17.449861328125,0.1798499971628189,-0.1913999915122985,0.0225499998778104
1780563173374384400,17.46938427734375,-0.1260875016450882,-0.0305249989032745,-0.2932874858379364
1780563173393908700,17.48890869140625,-0.3371500074863434,0.1101374998688697,-0.5303375124931335
1780563173413432800,17.508432861328124,-0.552887499332428,0.2271499931812286,-0.7339749932289124
1780563173432959000,17.527958984375,-0.7940624952316284,0.3163875043392181,-0.9006249904632568
1780563173452484900,17.54748486328125,-0.9909625053405762,0.3818374872207641,-0.9990749955177308
1780563173472007000,17.5670068359375,-1.0777250528335571,0.428725004196167,-1.012274980545044
1780563173491525600,17.586525634765625,-1.071125030517578,0.4622749984264374,-0.9564499855041504
1780563173511047400,17.60604736328125,-1.013100028038025,0.4886749982833862,-0.8560749888420105
1780563173530570800,17.62557080078125,-0.9077749848365784,0.5116375088691711,-0.7331500053405762
1780563173550094000,17.645093994140623,-0.7518500089645386,0.5285499691963196,-0.620537519454956
1780563173569614800,17.66461474609375,-0.5783249735832214,0.5372124910354614,-0.554812490940094
1780563173589135000,17.684135009765626,-0.4366999864578247,0.5427125096321106,-0.5431249737739563
1780563173608655400,17.7036552734375,-0.3343999981880188,0.5516499876976013,-0.553849995136261
1780563173628174300,17.72317431640625,-0.231000006198883,0.5592125058174133,-0.5457375049591064
1780563173647694600,17.742694580078126,-0.0776875019073486,0.5524749755859375,-0.5036625266075134
1780563173667218200,17.76221826171875,0.1340624988079071,0.5245624780654907,-0.440137505531311
1780563173686741000,17.781740966796875,0.3473249971866607,0.4862000048160553,-0.3771624863147735
1780563173706261800,17.80126171875,0.4625499844551086,0.4615874886512756,-0.3297249972820282
1780563173725783600,17.820783447265626,0.416762501001358,0.4686000049114227,-0.2961750030517578
1780563173745306000,17.84030615234375,0.2356749922037124,0.5066875219345093,-0.2649624943733215
1780563173764829400,17.859829345703126,0.0090749999508261,0.5612750053405762,-0.2252250015735626
1780563173784354600,17.8793544921875,-0.198137491941452,0.6212249994277954,-0.1782000064849853
1780563173803880000,17.8988798828125,-0.4210250079631805,0.6870874762535095,-0.1454750001430511
1780563173823404300,17.918404296875,-0.7503374814987183,0.7657374739646912,-0.1538625061511993
1780563173842929400,17.937929443359376,-1.2179750204086304,0.863224983215332,-0.2067999988794326
1780563173862456300,17.957456298828124,-1.7315374612808228,0.9789999723434448,-0.2707374989986419
1780563173881980000,17.97697998046875,-2.1034750938415527,1.1023374795913696,-0.2943874895572662
1780563173901503700,17.996503662109376,-2.175524950027466,1.2100000381469729,-0.2517625093460083
1780563173921028600,18.016028564453126,-1.9619874954223635,1.2779250144958496,-0.1720124930143356
1780563173940553700,18.0355537109375,-1.6455999612808228,1.295799970626831,-0.1150875017046928
1780563173960083700,18.055083740234377,-1.417349934577942,1.274899959564209,-0.1244374960660934
1780563173979610000,18.07461010742188,-1.312712550163269,1.2351624965667725,-0.1940124928951263
1780563173999132700,18.09413256835937,-1.312712550163269,1.2351624965667725,-0.1940124928951263
1780563174018653400,18.1136533203125,-0.9124500155448914,1.11347496509552,-0.3422375023365021
1780563174038175500,18.133175537109373,-0.9124500155448914,1.11347496509552,-0.3422375023365021
1780563174057703000,18.152702880859376,-0.0175999999046325,0.9315624833106996,-0.3335750102996826
1780563174077231900,18.17223193359375,-0.0175999999046325,0.9315624833106996,-0.3335750102996826
1780563174096756500,18.191756591796874,0.4507249891757965,0.8377875089645386,-0.2191749960184097
1780563174116279000,18.211279052734376,0.4507249891757965,0.8377875089645386,-0.2191749960184097
1780563174135810800,18.230810791015625,0.4507249891757965,0.8377875089645386,-0.2191749960184097
1780563174155343000,18.250343017578125,0.4575999975204468,0.8318749666213989,-0.1093124970793724
1780563174174869000,18.269868896484372,0.3691875040531158,0.8349000215530396,-0.0903374999761581
1780563174194393300,18.289393310546878,0.254375010728836,0.8379250168800354,-0.1032624989748001
1780563174213921500,18.308921630859373,0.1461624950170517,0.8309124708175659,-0.1394249945878982
1780563174233449200,18.32844921875,0.0558249987661838,0.8100125193595886,-0.182325005531311
1780563174252977000,18.347976806640624,-0.0303875003010034,0.7805874943733215,-0.2161500006914138
1780563174272506400,18.36750634765625,-0.1319999992847442,0.7497875094413757,-0.2257750034332275
1780563174292033000,18.38703295898437,-0.2429624944925308,0.7174749970436096,-0.203087493777275
1780563174311559200,18.40655908203125,-0.3249124884605407,0.676087498664856,-0.1542750000953674
1780563174331086300,18.42608642578125,-0.3214749991893768,0.6150375008583069,-0.0951500013470649
1780563174350613800,18.44561376953125,-0.2065249979496002,0.5304750204086304,-0.0362999998033046
1780563174370139100,18.46513916015625,-0.0019249999895691,0.4295499920845032,0.0210375003516674
1780563174389665000,18.4846650390625,0.2479124963283538,0.3265624940395355,0.0769999995827674
1780563174409195800,18.50419580078125,0.488812506198883,0.2369125038385391,0.1333750039339065
1780563174428726800,18.523726806640624,0.6632999777793884,0.1707749962806701,0.195250004529953
1780563174448260600,18.54326049804688,0.7325999736785889,0.130074992775917,0.2652375102043152
1780563174467793700,18.562793701171877,0.7013875246047974,0.1083500012755394,0.3357749879360199
1780563174487316700,18.582316650390624,0.6124249696731567,0.0962499976158142,0.3902249932289123
1780563174506838000,18.601838134765625,0.5105375051498413,0.086899995803833,0.4140124917030334
1780563174526364200,18.6213642578125,0.4252874851226806,0.0771375000476837,0.3998500108718872
1780563174545894000,18.640893798828124,0.357637494802475,0.0658624991774559,0.354200005531311
1780563174565424600,18.660424560546875,0.2888875007629394,0.0507375001907348,0.2971374988555908
1780563174584950000,18.679949951171874,0.2113374918699264,0.0288750007748603,0.2506625056266784
1780563174604473000,18.69947314453125,0.1432749927043914,0.0005499999970197,0.2283875048160553
1780563174623996000,18.71899584960937,0.1093124970793724,-0.0296999998390674,0.2352624982595443
1780563174643522300,18.738522216796877,0.1090374961495399,-0.0556874983012676,0.2719750106334686
1780563174663051300,18.75805126953125,0.1256749927997589,-0.0717749968171119,0.3271124958992004
1780563174682580500,18.77758056640625,0.157987505197525,-0.0761749967932701,0.3740000128746032
1780563174702107600,18.797107666015624,0.2139499932527542,-0.0713625028729438,0.3869250118732452
1780563174721633500,18.816633544921874,0.2763749957084656,-0.0636624991893768,0.3594250082969665
1780563174741162000,18.836161865234374,0.3070375025272369,-0.0602249987423419,0.3031874895095825
1780563174760684300,18.855684326171875,0.285037487745285,-0.0646250024437904,0.2300374954938888
1780563174780207000,18.87520703125,0.2272875010967254,-0.0769999995827674,0.1438249945640564
1780563174799735600,18.894735595703125,0.1633500009775161,-0.0965249985456466,0.0478499978780746
1780563174819263700,18.914263671875,0.0985874980688095,-0.1234750002622604,-0.042212501168251
1780563174838790700,18.93379077148437,0.0985874980688095,-0.1234750002622604,-0.042212501168251
1780563174858316500,18.953316650390622,-0.0808499976992607,-0.1874125003814697,-0.1178374961018562
1780563174877840600,18.97284057617188,-0.1575749963521957,-0.2080374956130981,-0.0870374962687492
1780563174897366800,18.99236669921875,-0.1575749963521957,-0.2080374956130981,-0.0870374962687492
1780563174916891000,19.011890869140625,-0.1575749963521957,-0.2080374956130981,-0.0870374962687492
1780563174936417800,19.031417724609376,-0.1212750002741813,-0.2018499970436096,0.0345125012099742
1780563174955943400,19.050943359375,-0.0103124994784593,-0.1795749962329864,0.0977625027298927
1780563174975470000,19.07046997070313,0.113987497985363,-0.1523499935865402,0.1561999917030334
1780563174994999800,19.08999975585937,0.1905750036239624,-0.1264999955892563,0.2046000063419342
1780563175014525200,19.109525146484376,0.1836999952793121,-0.1053249984979629,0.2367749959230423
1780563175034053400,19.12905346679688,0.1117874979972839,-0.084425002336502,0.2536875009536743
1780563175053581800,19.14858178710937,0.0306624993681907,-0.0570624992251396,0.2567124962806701
1780563175073109800,19.16810986328125,-0.010037500411272,-0.0204875003546476,0.2494249939918518
1780563175092640300,19.18764013671875,-0.0028874999843537,0.0213124994188547,0.2414499968290329
1780563175112167700,19.207167724609373,0.0218624994158744,0.0611874982714653,0.2421374917030334
1780563175131689000,19.22668896484375,0.0277750007808208,0.0955625027418136,0.2509374916553497
1780563175151210800,19.246210693359377,0.0013749999925494,0.1259499937295913,0.255887508392334
1780563175170735000,19.265735107421875,-0.0548624992370605,0.1541374921798706,0.244887501001358
1780563175190261800,19.28526171875,-0.1277374923229217,0.1788875013589859,0.2117500007152557
1780563175209784300,19.304784423828124,-0.194700002670288,0.198137491941452,0.1568875014781952
1780563175229305900,19.32430590820313,-0.2517625093460083,0.2103749960660934,0.0939124971628189
1780563175248830000,19.343829833984376,-0.3286249935626983,0.2194499969482422,0.0514249987900257
1780563175268353800,19.363353759765623,-0.4628250002861023,0.2371875047683715,0.0584375001490116
1780563175287877600,19.38287768554688,-0.6598625183105469,0.2803624868392944,0.1266375035047531
1780563175307403300,19.4024033203125,-0.8817874789237976,0.3594250082969665,0.2432374954223632
1780563175326926800,19.4219267578125,-1.0804749727249146,0.4651624858379364,0.3817000091075897
1780563175346453200,19.441453369140625,-1.2248499393463137,0.5724124908447266,0.5153499841690063
1780563175365984000,19.46098388671875,-1.305425047874451,0.6557375192642212,0.6252124905586243
1780563175385511200,19.48051123046875,-1.32756245136261,0.7073000073432922,0.7022125124931335
1780563175405038800,19.50003881835937,-1.308037519454956,0.7408499717712402,0.7485499978065491
1780563175424568800,19.51956884765625,-1.277512550354004,0.7783874869346619,0.7777000069618225
1780563175444097500,19.53909765625,-1.267337441444397,0.8428750038146973,0.8108375072479248
1780563175463620000,19.5586201171875,-1.2725625038146973,0.9499874711036682,0.853600025177002
1780563175483145700,19.578145751953127,-1.2471250295639038,1.092437505722046,0.8810999989509583
1780563175502677800,19.597677734375,-1.1545875072479248,1.2405250072479248,0.7917249798774719
1780563175522203400,19.617203369140626,-0.9967374801635742,1.3601499795913696,0.6583499908447266
1780563175541728000,19.63672802734375,-0.8075374960899353,1.4317874908447266,0.5533000230789185
1780563175561257500,19.656257568359376,-0.608162522315979,1.4057999849319458,0.3866499960422516
1780563175580790000,19.6757900390625,-0.3881624937057495,1.1482625007629397,0.1145374998450279
1780563175600322000,19.695322021484376,-0.1248499974608421,0.5385875105857849,-0.3209249973297119
1780563175619853800,19.714853759765624,0.2164250016212463,-0.3590124845504761,-0.8978750109672546
1780563175639380700,19.73438061523437,0.6358000040054321,-1.279712438583374,-1.4654749631881714
1780563175658904300,19.753904296875,0.6358000040054321,-1.279712438583374,-1.4654749631881714
1780563175678427400,19.773427490234376,1.3098249435424805,-2.1830875873565674,-1.8561124801635744
1780563175697953300,19.792953369140623,1.3998874425888062,-2.0741875171661377,-1.603387475013733
1780563175717479700,19.812479736328125,1.3998874425888062,-2.0741875171661377,-1.603387475013733
1780563175737004500,19.83200463867188,1.2372249364852903,-1.4128124713897705,-0.8166124820709229
1780563175756526600,19.85152661132813,1.2372249364852903,-1.4128124713897705,-0.8166124820709229
1780563175776045800,19.8710458984375,1.2372249364852903,-1.4128124713897705,-0.8166124820709229
1780563175795565800,19.89056591796875,0.6594499945640564,-0.9025499820709229,-0.4841375052928924
1780563175815088400,19.91008837890625,0.2905375063419342,-0.7506124973297119,-0.4988499879837036
1780563175834613200,19.92961328125,-0.0233750008046627,-0.6452875137329102,-0.5568749904632568
1780563175854140400,19.949140380859376,-0.2419999986886978,-0.5700749754905701,-0.6128374934196472
1780563175873669000,19.968669189453124,-0.3524124920368194,-0.5143874883651733,-0.6344249844551086
1780563175893196800,19.98819677734375,-0.3267000019550323,-0.4823499917984009,-0.608162522315979
1780563175912724500,20.00772436523437,-0.1391499936580658,-0.4927999973297119,-0.5465624928474426
1780563175932248800,20.02724877929688,0.194700002670288,-0.5549499988555908,-0.4640625119209289
1780563175951773700,20.046773681640627,0.6062374711036682,-0.6489999890327454,-0.3682250082492828
1780563175971302000,20.06630200195313,0.9944000244140624,-0.734250009059906,-0.2635875046253204
1780563175990835000,20.0858349609375,1.264449954032898,-0.7770124673843384,-0.157987505197525
1780563176010366700,20.10536669921875,1.367437481880188,-0.7683500051498413,-0.0647625029087066
1780563176029890000,20.12489013671875,1.3110624551773071,-0.7128000259399414,-0.0009624999947845
1780563176049411800,20.14441186523437,1.1356124877929688,-0.6143500208854675,0.0193875003606081
1780563176068939000,20.16393896484375,0.8794500231742859,-0.4750624895095825,-0.0050874999724328
1780563176088468500,20.183468505859373,0.5687000155448914,-0.3070375025272369,-0.058712501078844
1780563176107997400,20.20299755859375,0.2410375028848648,-0.1394249945878982,-0.1174250021576881
1780563176127528400,20.222528564453125,-0.0412499979138374,-0.0083875004202127,-0.1601874977350235
1780563176147059000,20.242058837890625,-0.2164250016212463,0.0582999996840953,-0.1725624948740005
1780563176166586000,20.261586181640624,-0.2475000023841858,0.0460624992847442,-0.1478125005960464
1780563176186111700,20.28111181640625,-0.1423124969005584,-0.0373999997973442,-0.0863500013947486
1780563176205639000,20.300638916015625,0.042212501168251,-0.1513874977827072,0.0017874999903142
1780563176225166300,20.320166259765625,0.2299000024795532,-0.2466749995946884,0.097350001335144
1780563176244700700,20.33970068359375,0.3689124882221222,-0.3022249937057495,0.1773750036954879
1780563176264236300,20.359236328125,0.4537499845027923,-0.3313750028610229,0.2165624946355819
1780563176283765500,20.378765625,0.492249995470047,-0.3588750064373016,0.1797125041484832
1780563176303291000,20.398290771484376,0.4573250114917755,-0.3958624899387359,0.0457874983549118
1780563176322815700,20.417815673828127,0.3026374876499176,-0.4317499995231628,-0.154412493109703
1780563176342343400,20.43734350585937,0.0230999998748302,-0.4433000087738037,-0.3513124883174896
1780563176361872000,20.456871826171877,-0.3254624903202057,-0.4162124991416931,-0.4823499917984009
1780563176381400000,20.476400146484377,-0.6665999889373779,-0.3610749840736389,-0.5297874808311462
1780563176400925700,20.49592578125,-0.9388499855995178,-0.3038749992847442,-0.5053125023841858
1780563176420449800,20.51544970703125,-1.0873500108718872,-0.2718375027179718,-0.4310624897480011
1780563176439977500,20.5349775390625,-1.0762125253677368,-0.2833875119686126,-0.3364624977111816
1780563176459506700,20.55450659179688,-0.9314249753952026,-0.3419624865055084,-0.2452999949455261
1780563176479035400,20.574035400390624,-0.9314249753952026,-0.3419624865055084,-0.2452999949455261
1780563176498566400,20.59356640625,-0.7173374891281128,-0.4379374980926513,-0.1715999990701675
1780563176518097700,20.61309765625,-0.4769875109195709,-0.5552250146865845,-0.1208624988794326
1780563176537634000,20.632634033203125,-0.227012500166893,-0.6712750196456909,-0.0835999995470047
1780563176557172000,20.652171875,-0.227012500166893,-0.6712750196456909,-0.0835999995470047
1780563176576704300,20.671704345703127,0.2239875048398971,-0.8157874941825867,0.0017874999903142
1780563176596230100,20.69123022460937,0.2239875048398971,-0.8157874941825867,0.0017874999903142
1780563176615757800,20.7107578125,0.3991625010967254,-0.823074996471405,0.0335500016808509
1780563176635287600,20.73028759765625,0.3390749990940094,-0.7864999771118164,-0.0019249999895691
1780563176654816500,20.74981640625,0.1989624947309494,-0.7284749746322632,-0.0571999996900558
1780563176674344200,20.76934423828125,0.0064624999649822,-0.653124988079071,-0.1132999956607818
1780563176693869000,20.788869140625,-0.2300374954938888,-0.566224992275238,-0.1533125042915344
1780563176713392000,20.80839208984375,-0.5186499953269958,-0.4765749871730804,-0.1707749962806701
1780563176732917800,20.82791772460937,-0.820187509059906,-0.4016374945640564,-0.1629374921321869
1780563176752441000,20.847441162109376,-1.0062249898910522,-0.3720749914646148,-0.1187999993562698
1780563176771958300,20.866958251953125,-0.8967750072479248,-0.4369750022888183,-0.0197999998927116
1780563176791480300,20.88648022460937,-0.3482874929904938,-0.6569749712944031,0.1595000028610229
1780563176811008500,20.906008544921875,0.6517499685287476,-1.0443124771118164,0.4492124915122986
1780563176830537700,20.925537841796874,1.9274749755859373,-1.51277494430542,0.8663874864578247
1780563176850067200,20.945067138671877,3.143249988555908,-1.9223874807357788,1.3729374408721924
1780563176869599200,20.96459912109375,3.965362548828125,-2.175800085067749,1.8709625005722048
1780563176889130000,20.9841298828125,4.234724998474121,-2.257887601852417,2.256512403488159
1780563176908658400,21.003658447265625,3.990799903869629,-2.196700096130371,2.461937427520752
1780563176928181800,21.023181640625,3.418524980545044,-2.031975030899048,2.4747250080108643
1780563176947706600,21.04270654296875,2.7439498901367188,-1.8020750284194944,2.327049970626831
1780563176967236000,21.062236083984374,2.110212564468384,-1.533674955368042,2.056037425994873
1780563176986763000,21.081762939453125,1.549762487411499,-1.2405250072479248,1.6858874559402466
1780563177006289000,21.10128881835937,1.0554499626159668,-0.9299125075340272,1.2504249811172483
1780563177025815000,21.12081494140625,0.6318125128746033,-0.6118749976158142,0.8024500012397766
1780563177045340200,21.140340087890625,0.6318125128746033,-0.6118749976158142,0.8024500012397766
1780563177064867300,21.159867431640624,-0.0532125011086463,-0.0499125011265277,-0.0076999999582767
1780563177084396500,21.179396484375,-0.4039750099182129,0.151525005698204,-0.3650625050067901
1780563177103922000,21.198921875,-0.7605124711990356,0.2985124886035919,-0.6631624698638916
1780563177123446300,21.2184462890625,-1.052150011062622,0.3954499959945678,-0.8617125153541565
1780563177142974500,21.237974365234376,-1.2405250072479248,0.4475624859333038,-0.9574124813079834
1780563177162497500,21.25749755859375,-1.331412434577942,0.4658499956130981,-0.9752874970436096
1780563177182017000,21.27701708984375,-1.3403500318527222,0.4652999937534332,-0.9378874897956848
1780563177201539800,21.296539794921877,-1.263487458229065,0.4625499844551086,-0.8548374772071838
1780563177221061600,21.3160615234375,-1.0808874368667605,0.4675000011920929,-0.7261375188827515
1780563177240581600,21.33558154296875,-0.8152375221252441,0.4758875072002411,-0.567187488079071
1780563177260105500,21.35510546875,-0.5370749831199646,0.4753375053405761,-0.4098874926567077
1780563177279630300,21.37463037109375,-0.3187249898910522,0.4585624933242798,-0.2835249900817871
1780563177299157500,21.394157470703124,-0.1746249943971634,0.4309250116348266,-0.1991000026464462
1780563177318685000,21.413684814453124,-0.1746249943971634,0.4309250116348266,-0.1991000026464462
1780563177338209300,21.433209228515626,-0.0712250024080276,0.4059000015258789,-0.1537249982357025
1780563177357734400,21.452734375,0.1175625026226043,0.4014999866485595,-0.1771000027656555
1780563177377258800,21.4722587890625,0.1175625026226043,0.4014999866485595,-0.1771000027656555
1780563177396778200,21.4917783203125,0.3381125032901764,0.4522374868392944,-0.3067624866962433
1780563177416300300,21.51130029296875,0.3381125032901764,0.4522374868392944,-0.3067624866962433
1780563177435825400,21.530825439453125,0.4358749985694885,0.4823499917984009,-0.4105750024318695
1780563177455352300,21.55035229492188,0.4749250113964081,0.5191999673843384,-0.5497249960899353
1780563177474877200,21.569877197265622,0.4115374982357025,0.5819000005722046,-0.7141749858856201
1780563177494400500,21.589400390625,0.2512125074863434,0.6765000224113464,-0.8672124743461609
1780563177513930000,21.608929931640624,0.0424874983727932,0.7925499677658081,-0.9882124662399292
1780563177533460200,21.628460205078124,-0.1765500009059906,0.9083250164985656,-1.0742875337600708
1780563177552983600,21.64798364257813,-0.4169000089168548,1.0128250122070312,-1.1226874589920044
1780563177572504300,21.66750439453125,-0.7027624845504761,1.109487533569336,-1.128600001335144
1780563177592030000,21.687030029296874,-0.9809250235557556,1.1885499954223633,-1.080199956893921
1780563177611558100,21.70655810546875,-1.145787477493286,1.231724977493286,-0.980650007724762
1780563177631083000,21.7260830078125,-1.1682000160217283,1.240112543106079,-0.8511250019073486
1780563177650608400,21.7456083984375,-1.1588499546051023,1.245474934577942,-0.7123875021934509
1780563177670135600,21.765135498046877,-1.2490500211715698,1.274899959564209,-0.5695250034332275
1780563177689660200,21.78466015625,-1.4308249950408936,1.312712550163269,-0.4226749837398529
1780563177709185000,21.80418505859375,-1.5893625020980835,1.3198624849319458,-0.2838000059127807
1780563177728716500,21.82371655273437,-1.658524990081787,1.2821874618530271,-0.1698125004768371
1780563177748247600,21.84324755859375,-1.6647125482559204,1.2258124351501465,-0.0805749967694282
1780563177767772000,21.86277197265625,-1.635699987411499,1.181399941444397,0.0034374999813735
1780563177787295700,21.882295654296875,-1.5596624612808228,1.1565124988555908,0.098312497138977
1780563177806820900,21.90182080078125,-1.432337522506714,1.1378124952316284,0.1991000026464462
1780563177826350300,21.921350341796877,-1.26610004901886,1.10756254196167,0.2844874858856201
1780563177845883100,21.940883056640622,-1.0683749914169312,1.059849977493286,0.3356375098228454
1780563177865419300,21.960419189453123,-0.8386124968528748,1.0049874782562256,0.3515875041484833
1780563177884954600,21.97995458984375,-0.5915250182151794,0.957825005054474,0.3477374911308288
1780563177904484000,21.999484130859376,-0.3729000091552734,0.927025020122528,0.3471874892711639
1780563177924010200,22.01901025390625,-0.2245374917984008,0.9105250239372252,0.3668499886989593
1780563177943537700,22.03853759765625,-0.1568875014781952,0.9007624983787536,0.408237487077713
1780563177963069000,22.05806884765625,-0.1321374922990799,0.8905875086784363,0.4534749984741211
1780563177982599700,22.077599609375,-0.0935000032186508,0.8761500120162964,0.4785000085830688
1780563178002126800,22.097126953125,-0.0230999998748302,0.856487512588501,0.4732750058174133
1780563178021651200,22.116651123046875,0.0681999996304512,0.8278874754905701,0.4450874924659729
1780563178041177900,22.136177734375,0.1715999990701675,0.7821000218391418,0.4042499959468841
1780563178060706600,22.15570654296875,0.2924624979496002,0.7100499868392944,0.3511750102043152
1780563178080230100,22.175230224609376,0.4317499995231628,0.6103624701499939,0.2815999984741211
1780563178099756300,22.19475634765625,0.5763999819755554,0.4885374903678894,0.1975875049829483
1780563178119284500,22.21428442382813,0.7214624881744385,0.3531000018119812,0.1077999994158744
1780563178138809900,22.233809814453124,0.7214624881744385,0.3531000018119812,0.1077999994158744
1780563178158335000,22.2533349609375,0.9490249752998352,0.0875874981284141,-0.0175999999046325
1780563178177861600,22.272861572265622,0.9722625017166138,-0.0130624994635581,-0.0262624993920326
1780563178197389000,22.29238916015625,0.9722625017166138,-0.0130624994635581,-0.0262624993920326
1780563178216917000,22.3119169921875,0.8509874939918518,-0.1105500012636184,0.0182875003665685
1780563178236448500,22.331448486328124,0.8509874939918518,-0.1105500012636184,0.0182875003665685
1780563178255980800,22.350980712890625,0.7481374740600586,-0.1172875016927719,0.0489500015974044
1780563178275509500,22.370509521484376,0.6337375044822693,-0.1097249984741211,0.0830499976873397
1780563178295039700,22.39003979492188,0.527037501335144,-0.0966624990105629,0.1159124970436096
1780563178314568400,22.409568359375,0.4405499994754791,-0.0833249986171722,0.1402499973773956
1780563178334090000,22.429090087890625,0.368087500333786,-0.0747999995946884,0.1530375033617019
1780563178353610200,22.4486103515625,0.2946625053882599,-0.076724998652935,0.1546874940395355
1780563178373131800,22.4681318359375,0.2153249979019165,-0.0925374999642372,0.1463000029325485
1780563178412180000,22.507179931640625,0.0614624992012977,-0.1458874940872192,0.1108250021934509
1780563178431703800,22.526703857421875,0.0130624994635581,-0.1662375032901764,0.0873124971985817
1780563178451228700,22.546228759765626,0.0060499999672174,-0.1780624985694885,0.0629749968647956
1780563178470749700,22.565749755859372,0.0441375002264976,-0.1841125041246414,0.0404249988496303
1780563178490273000,22.58527294921875,0.1079374998807907,-0.1867250055074691,0.0219999998807907
1780563178509800000,22.604800048828125,0.1761374920606613,-0.1853500008583068,0.0034374999813735
1780563178529329400,22.624329345703124,0.2351250052452087,-0.178749993443489,-0.0233750008046627
1780563178548858000,22.64385815429688,0.2759625017642975,-0.169400006532669,-0.0625625029206276
1780563178568382200,22.66338232421875,0.2897124886512756,-0.1616999953985214,-0.1084875017404556
1780563178587906000,22.682906005859376,0.2722499966621399,-0.1585374921560287,-0.1483625024557113
1780563178607434000,22.70243408203125,0.2292124927043914,-0.157987505197525,-0.171875
1780563178626963200,22.721963134765623,0.167337492108345,-0.1545500010251999,-0.1739374995231628
1780563178646492200,22.7414921875,0.0959749966859817,-0.1438249945640564,-0.1539999991655349
1780563178666022100,22.761022216796874,0.0133375003933906,-0.1255374997854232,-0.1119249984622001
1780563178685550800,22.78055078125,-0.0910250023007392,-0.1020250022411346,-0.0488125011324882
1780563178705081000,22.8000810546875,-0.2103749960660934,-0.0761749967932701,0.0285999998450279
1780563178724613000,22.819613037109374,-0.3207874894142151,-0.0496375001966953,0.107524998486042
1780563178744141800,22.839141845703125,-0.4102999866008758,-0.0210375003516674,0.1775124967098236
1780563178763671300,22.85867138671875,-0.4966500103473663,0.0123749999329447,0.2362249940633773
1780563178783205000,22.878205078125,-0.5934500098228455,0.0540375001728534,0.2855874896049499
1780563178802735000,22.89773510742188,-0.6850249767303467,0.1050499975681305,0.3260124921798706
1780563178822264000,22.91726416015625,-0.7466250061988831,0.1636250019073486,0.3599750101566314
1780563178841791500,22.93679150390625,-0.7727500200271606,0.225500002503395,0.3929750025272369
1780563178861319400,22.9563193359375,-0.7768750190734863,0.2851749956607818,0.428725004196167
1780563178880846000,22.97584619140625,-0.770550012588501,0.3374249935150146,0.4647499918937683
1780563178900372500,22.99537255859375,-0.7484124898910522,0.3793624937534332,0.4927999973297119
1780563178919901400,23.0149013671875,-0.7046874761581421,0.4119499921798706,0.5075125098228455
1780563178939431400,23.034431396484376,-0.6639875173568726,0.4402749836444855,0.5142499804496765
1780563178958960600,23.05396069335937,-0.6639875173568726,0.4402749836444855,0.5142499804496765
1780563178978485800,23.07348583984375,-0.6700375080108643,0.47079998254776,0.5249750018119812
1780563178998010600,23.0930107421875,-0.7475875020027161,0.512737512588501,0.5517874956130981
1780563179017537800,23.112537841796875,-0.8754624724388123,0.572825014591217,0.5975750088691711
1780563179037061600,23.1320615234375,-1.0901000499725342,0.720087468624115,0.7188500165939331
1780563179056585000,23.1515849609375,-1.0901000499725342,0.720087468624115,0.7188500165939331
1780563179076109300,23.171109375,-1.0901000499725342,0.720087468624115,0.7188500165939331
1780563179095636000,23.190635986328125,-1.0524250268936155,0.8271999955177307,0.7691749930381775
1780563179115166200,23.210166259765625,-0.9629124999046326,0.8588249683380127,0.7438749670982361
1780563179134698000,23.229697998046877,-0.9629124999046326,0.8588249683380127,0.7438749670982361
1780563179154225400,23.24922534179688,-0.8313249945640564,0.8750500082969666,0.6793875098228455
1780563179173753300,23.26875341796875,-0.7849875092506409,0.8610249757766724,0.6586250066757202
1780563179193285600,23.28828564453125,-0.730537474155426,0.8441125154495239,0.6424000263214111
1780563179212815600,23.307815673828124,-0.6593124866485596,0.8260999917984009,0.6231499910354614
1780563179232342300,23.32734228515625,-0.5615500211715698,0.8049250245094299,0.5917999744415283
1780563179251869400,23.346869384765625,-0.4317499995231628,0.772475004196167,0.5394124984741211
1780563179271395800,23.366395751953124,-0.2766500115394592,0.696025013923645,0.4599374830722809
1780563179290921000,23.3859208984375,-0.0963874980807304,0.5267624855041504,0.3486999869346618
1780563179310447000,23.40544702148437,0.1303499937057495,0.2356749922037124,0.2007499933242797
1780563179329970200,23.42497021484375,0.4092000126838684,-0.1491875052452087,0.0206249989569187
1780563179349495800,23.44449584960937,0.6843374967575073,-0.5531625151634216,-0.1901624947786331
1780563179369021200,23.464021240234374,0.8794500231742859,-0.91382497549057,-0.4492124915122986
1780563179388544300,23.483544189453124,0.9811999797821044,-1.197487473487854,-0.7595499753952026
1780563179408074000,23.50307397460937,1.019012451171875,-1.3715624809265137,-1.05792498588562
1780563179427603700,23.522603759765627,0.979550004005432,-1.400712490081787,-1.2365374565124512
1780563179447130600,23.54213061523437,0.8167499899864197,-1.284250020980835,-1.2399749755859375
1780563179466660000,23.56166015625,0.559487521648407,-1.0774500370025637,-1.1026124954223633
1780563179486190600,23.581190673828125,0.3221625089645386,-0.8553875088691711,-0.8949875235557556
1780563179505720300,23.60072021484375,0.2238499969244003,-0.6754000186920166,-0.6638500094413757
1780563179525246200,23.62024609375,0.3023625016212463,-0.5616874694824219,-0.4203374981880188
1780563179544774700,23.639774658203127,0.482212483882904,-0.5031124949455261,-0.1786125004291534
1780563179564304600,23.6593046875,0.6414374709129333,-0.467362493276596,0.0225499998778104
1780563179583832600,23.67883251953125,0.6756749749183655,-0.4283125102519989,0.1267749965190887
1780563179603360300,23.6983603515625,0.5570124983787537,-0.3843125104904175,0.1009249985218048
1780563179622888200,23.71788818359375,0.3389374911785126,-0.3489750027656555,-0.026537500321865
1780563179642421000,23.7374208984375,0.1142624989151954,-0.3356375098228454,-0.1854874938726425
1780563179661954600,23.75695458984375,-0.0369874984025955,-0.3433375060558319,-0.3042874932289123
1780563179681481500,23.7764814453125,-0.1055999994277954,-0.3562625050544739,-0.3495250046253204
1780563179701007400,23.79600732421875,-0.1021625027060508,-0.3531000018119812,-0.3276624977588653
1780563179720535800,23.815535888671874,-0.0169124994426965,-0.3202374875545501,-0.2624875009059906
1780563179740062700,23.835062744140625,0.1476749926805496,-0.2639999985694885,-0.1836999952793121
1780563179759591200,23.854591064453125,0.3536500036716461,-0.2022625058889389,-0.1093124970793724
1780563179779125800,23.874125732421877,0.3536500036716461,-0.2022625058889389,-0.1093124970793724
1780563179798657000,23.893656982421877,0.5487625002861023,-0.1526249945163726,-0.0442750006914138
1780563179818187000,23.91318701171875,0.8205999732017517,-0.1315875053405761,0.0129249999299645
1780563179837716000,23.932716064453125,0.8801375031471252,-0.1627999991178512,-0.009349999949336
1780563179857246200,23.95224609375,0.8801375031471252,-0.1627999991178512,-0.009349999949336
1780563179876777700,23.97177783203125,0.8443874716758728,-0.2633124887943268,-0.0947374999523162
1780563179896306400,23.991306396484376,0.8443874716758728,-0.2633124887943268,-0.0947374999523162
1780563179915834600,24.010834716796875,0.8443874716758728,-0.2633124887943268,-0.0947374999523162
1780563179935365000,24.030365234375,0.7599624991416931,-0.4002625048160553,-0.1920875012874603
1780563179954894000,24.04989404296875,0.7525374889373779,-0.4692874848842621,-0.2367749959230423
1780563179974423000,24.06942309570313,0.7534999847412109,-0.5197499990463257,-0.2619374990463257
1780563179993951700,24.08895166015625,0.7302625179290771,-0.5405125021934509,-0.2501125037670135
1780563180013478400,24.108478515625,0.6665999889373779,-0.5291000008583069,-0.1898874938488006
1780563180033009400,24.128009521484376,0.5776374936103821,-0.4933499991893768,-0.0884125009179115
1780563180052540700,24.147540771484376,0.4914250075817108,-0.4475624859333038,0.0298375003039836
1780563180072070100,24.167070068359376,0.4087874889373779,-0.3999874889850616,0.1454750001430511
1780563180091604000,24.18660400390625,0.3095124959945678,-0.3535124957561493,0.2463999986648559
1780563180111132200,24.206132080078124,0.1985500007867813,-0.3137750029563904,0.3144625127315521
1780563180130654200,24.225654296875,0.1020250022411346,-0.2897124886512756,0.3070375025272369
1780563180150183200,24.24518310546875,0.032999999821186,-0.2829749882221222,0.1865874975919723
1780563180169714200,24.264714111328125,-0.0321750007569789,-0.2862749993801117,-0.0247499998658895
1780563180189241900,24.284241943359376,-0.1436875015497207,-0.2909500002861023,-0.2569875121116638
1780563180208768800,24.303768798828123,-0.3335750102996826,-0.2903999984264374,-0.44302499294281
1780563180228298200,24.32329833984375,-0.5830000042915344,-0.2832500040531158,-0.5640249848365784
1780563180247820500,24.342820556640625,-0.8331124782562256,-0.2771999835968017,-0.6335999965667725
1780563180267340500,24.362340576171874,-1.034412503242493,-0.2820124924182892,-0.6626124978065491
1780563180286868000,24.381867919921877,-1.1596750020980835,-0.3000249862670898,-0.6554625034332275
1780563180306400000,24.40139990234375,-1.1666874885559082,-0.3286249935626983,-0.6121500134468079
1780563180325932500,24.4209326171875,-1.012274980545044,-0.370012491941452,-0.5344625115394592
1780563180345461500,24.44046142578125,-0.7134875059127808,-0.4281750023365021,-0.4289999902248382
1780563180384515800,24.479515869140624,0.0269499998539686,-0.6059625148773193,-0.1834249943494796
1780563180404041200,24.499041259765622,0.5394124984741211,-0.6413000226020813,-0.0987249985337257
1780563180423568600,24.518568603515625,1.295799970626831,-0.5927624702453613,-0.0580249987542629
1780563180443097300,24.538097412109376,2.288412570953369,-0.5699374675750732,-0.0287375003099441
1780563180462625000,24.557625,3.310999870300293,-0.8552500009536743,0.1750375032424926
1780563180482150000,24.57714990234375,4.101212501525879,-1.3439249992370603,0.5530250072479248
1780563180501675000,24.596675048828125,4.488412380218506,-1.648900032043457,0.8993874788284302
1780563180521203500,24.616203369140624,4.455137252807617,-1.7881875038146973,1.1796125173568726
1780563180540731100,24.635731201171875,4.08650016784668,-1.802212476730347,1.3717000484466553
1780563180560261600,24.65526171875,3.4534499645233154,-1.711187481880188,1.4488375186920166
1780563180579793200,24.674793212890624,2.641787528991699,-1.5224000215530396,1.3947999477386477
1780563180599320600,24.694320556640623,1.7907999753952026,-1.260462522506714,1.2280124425888062
1780563180618846700,24.7138466796875,1.0430749654769895,-0.965524971485138,0.9905499815940856
1780563180638371000,24.73337109375,1.0430749654769895,-0.965524971485138,0.9905499815940856
1780563180657896000,24.75289599609375,0.0360249988734722,-0.3936625123023987,0.4030124843120575
1780563180677422000,24.772422119140625,0.0360249988734722,-0.3936625123023987,0.4030124843120575
1780563180696948700,24.79194873046875,0.0360249988734722,-0.3936625123023987,0.4030124843120575
1780563180716473600,24.8114736328125,-0.6870874762535095,0.0538999997079372,-0.2891624867916107
1780563180736001000,24.8310009765625,-0.977899968624115,0.2059749960899353,-0.5741999745368958
1780563180755532000,24.850531982421877,-1.1712249517440796,0.3212000131607055,-0.7616124749183655
1780563180775057400,24.87005737304688,-1.2696750164031982,0.4102999866008758,-0.8585500121116638
1780563180794579500,24.88957934570313,-1.3096874952316284,0.4765749871730804,-0.8970500230789185
1780563180814107100,24.909107177734374,-1.3299000263214111,0.5237374901771545,-0.9114875197410583
1780563180833636000,24.928635986328125,-1.3375999927520752,0.5572875142097473,-0.9209749698638916
1780563180853158400,24.948158447265627,-1.3396625518798828,0.5839625000953674,-0.9322500228881836
1780563180872679400,24.967679443359376,-1.372524976730347,0.6144874691963196,-0.951912522315979
1780563180892200400,24.98720043945313,-1.4313750267028809,0.6543624997138977,-0.9671750068664552
1780563180911726600,25.0067265625,-1.449387550354004,0.6954749822616577,-0.946274995803833
1780563180931256800,25.0262568359375,-1.374862551689148,0.720087468624115,-0.8711999654769897
1780563180950786800,25.045786865234376,-1.2275999784469604,0.7145875096321106,-0.7587249875068665
1780563180970324000,25.06532397460937,-1.053112506866455,0.6814500093460083,-0.6465250253677368
1780563180989860400,25.0848603515625,-0.8768374919891357,0.6380000114440918,-0.5677375197410583
1780563181009386500,25.10438647460937,-0.7324625253677368,0.6062374711036682,-0.5376250147819519
1780563181028914200,25.1239140625,-0.6586250066757202,0.5999125242233276,-0.5526124835014343
1780563181048446700,25.14344677734375,-0.6441875100135803,0.6166874766349792,-0.6001874804496765
1780563181067977200,25.162977294921877,-0.6403374671936035,0.643637478351593,-0.6758124828338623
1780563181087509500,25.182509521484373,-0.6316750049591064,0.6716874837875366,-0.780037522315979
1780563181107042300,25.20204223632813,-0.6465250253677368,0.7034500241279602,-0.8945749998092651
1780563181126571800,25.22157177734375,-0.7026249766349792,0.7448375225067139,-0.9765250086784364
1780563181146102300,25.241102294921877,-0.7576249837875366,0.7896624803543091,-0.9850500226020812
1780563181165636000,25.26063598632813,-0.7471749782562256,0.8200500011444092,-0.9149249792099
1780563181185171200,25.280171142578126,-0.6602749824523926,0.8244500160217285,-0.8006625175476074
1780563181204702500,25.299702392578126,-0.5531625151634216,0.8104249835014343,-0.684612512588501
1780563181224232400,25.319232421875,-0.4863374829292297,0.7942000031471252,-0.5830000042915344
1780563181243763200,25.33876318359375,-0.4478375017642975,0.7774249911308289,-0.4846875071525574
1780563181263296500,25.35829663085937,-0.3909125030040741,0.7488250136375427,-0.3781250119209289
1780563181282830000,25.377830078125,-0.3073124885559082,0.7034500241279602,-0.2708750069141388
1780563181302357800,25.397357666015623,-0.2058375030755996,0.6447374820709229,-0.1815000027418136
1780563181321883400,25.41688330078125,-0.0790624991059303,0.5769500136375427,-0.1223749965429306
1780563181341413400,25.436413330078125,0.0878624990582466,0.5025625228881836,-0.0891000032424926
1780563181360943400,25.455943359375,0.2870999872684479,0.4257000088691711,-0.0636624991893768
1780563181380470000,25.475469970703124,0.4811125099658966,0.3559874892234802,-0.0273624993860721
1780563181399998700,25.494998779296875,0.6318125128746033,0.3060750067234039,0.0274999998509883
1780563181419529500,25.514529541015627,0.7037249803543091,0.2880625128746032,0.0962499976158142
1780563181439060700,25.534060791015627,0.7037249803543091,0.2880625128746032,0.0962499976158142
1780563181458596000,25.55359619140625,0.6718249917030334,0.3102000057697296,0.1692624986171722
1780563181478133800,25.5731337890625,0.5167250037193298,0.3801875114440918,0.2452999949455261
1780563181497671700,25.59267163085937,0.234437495470047,0.5020124912261963,0.3316499888896942
1780563181517210600,25.612210693359376,-0.4915624856948852,0.807812511920929,0.5344625115394592
1780563181536745200,25.6317451171875,-0.4915624856948852,0.807812511920929,0.5344625115394592
1780563181556279000,25.65127905273437,-0.4915624856948852,0.807812511920929,0.5344625115394592
1780563181575812000,25.67081201171875,-0.8736749887466431,0.955900013446808,0.6630250215530396
1780563181595341000,25.69034106445313,-0.7992874979972839,0.9234499931335448,0.6539499759674072
1780563181614872000,25.7098720703125,-0.6018375158309937,0.8359999656677246,0.6033499836921692
1780563181634402800,25.72940283203125,-0.4024625122547149,0.7204999923706055,0.5402374863624573
1780563181653934800,25.74893481445313,-0.2814624905586242,0.598675012588501,0.4896374940872192
1780563181673469200,25.76846923828125,-0.2114749997854232,0.4772624969482422,0.4510000050067901
1780563181693001200,25.788001220703126,-0.1215500012040138,0.359562486410141,0.4109874963760376
1780563181712531000,25.80753100585937,0.0013749999925494,0.2563000023365021,0.3682250082492828
1780563181732060700,25.827060791015622,0.1278750002384185,0.173799991607666,0.3278000056743622
1780563181751589400,25.84658935546875,0.2408999949693679,0.1088999956846237,0.2910875082015991
1780563181771115000,25.866114990234376,0.3467749953269958,0.0518375001847744,0.2563000023365021
1780563181790641700,25.8856416015625,0.4487999975681305,-0.0063249999657273,0.225500002503395
1780563181810172200,25.905172119140627,0.5549499988555908,-0.0676499977707862,0.197174996137619
1780563181829700900,25.92470092773437,0.6803500056266785,-0.1284250020980835,0.1626625061035156
1780563181849226000,25.94422607421875,0.7994250059127808,-0.1839749962091446,0.1233374997973442
1780563181868757500,25.963757568359377,0.8463125228881836,-0.2300374954938888,0.0940499976277351
1780563181888288300,25.983288330078125,0.7900750041007996,-0.2631750106811523,0.0860750004649162
1780563181907813000,26.002813232421875,0.6732000112533569,-0.2784374952316284,0.0937749966979026
1780563181927343400,26.02234326171875,0.5411999821662903,-0.2737624943256378,0.1080750003457069
1780563181946874000,26.0418740234375,0.3877499997615814,-0.2527250051498413,0.1275999993085861
1780563181966399200,26.061399169921877,0.2061125040054321,-0.2228875011205673,0.1516624987125396
1780563181985923300,26.08092333984375,0.0270875003188848,-0.1922249943017959,0.1739374995231628
1780563182005447400,26.100447509765623,-0.1080750003457069,-0.1652749925851822,0.188787505030632
1780563182024973800,26.119973876953125,-0.1819124966859817,-0.1428624987602234,0.1941500008106231
1780563182044503300,26.13950341796875,-0.1958000063896179,-0.1231999993324279,0.1890625059604644
1780563182064033000,26.159032958984376,-0.1603250056505203,-0.1033999994397163,0.1715999990701675
1780563182083562000,26.17856201171875,-0.0988624989986419,-0.0826374962925911,0.1438249945640564
1780563182103089200,26.198089111328127,-0.0406999997794628,-0.062424998730421,0.1128875017166137
1780563182122616800,26.21761694335937,-0.0081124994903802,-0.0453750006854534,0.0885500013828277
1780563182142144800,26.237144775390625,-0.0035749999806284,-0.0317624993622303,0.077962502837181
1780563182161674500,26.25667456054688,-0.0261249989271163,-0.0197999998927116,0.0845625028014183
1780563182181203500,26.276203369140624,-0.0826374962925911,-0.0059124999679625,0.1069749966263771
1780563182200733700,26.295733642578124,-0.1739374995231628,0.0116875004023313,0.1372250020503997
1780563182220266800,26.315266845703125,-0.2781625092029571,0.0314874984323978,0.1616999953985214
1780563182239795200,26.334795166015624,-0.3579125106334686,0.0490874983370304,0.1688500046730041
1780563182259328300,26.354328369140624,-0.394349992275238,0.0595375001430511,0.1574375033378601
1780563182278863000,26.373863037109373,-0.3932499885559082,0.0602249987423419,0.1358499974012375
1780563182298399500,26.3933994140625,-0.3932499885559082,0.0602249987423419,0.1358499974012375
1780563182317933600,26.41293359375,-0.2583625018596649,0.0511500015854835,0.091849997639656
1780563182337468000,26.432468017578124,-0.2583625018596649,0.0511500015854835,0.091849997639656
1780563182357005800,26.452005859375,-0.0541750006377697,0.0862125009298324,0.0903374999761581
1780563182376542700,26.47154272460937,-0.0541750006377697,0.0862125009298324,0.0903374999761581
1780563182396078300,26.491078369140624,-0.0507375001907348,0.1264999955892563,0.1156374961137771
1780563182415608800,26.51060888671875,-0.1149500012397766,0.1772374957799911,0.147949993610382
1780563182435137800,26.5301376953125,-0.2180749922990799,0.2369125038385391,0.1803999990224838
1780563182454666800,26.549666748046874,-0.3394874930381775,0.2989250123500824,0.2107875049114227
1780563182474198000,26.569197998046874,-0.4503124952316284,0.3553000092506408,0.2352624982595443
1780563182493731000,26.58873095703125,-0.5148000121116638,0.3998500108718872,0.2499749958515167
1780563182513262800,26.608262939453127,-0.5259374976158142,0.4313375055789947,0.2582249939441681
1780563182532792600,26.62779248046875,-0.512737512588501,0.4547125101089477,0.270187497138977
1780563182552322600,26.647322509765623,-0.5018749833106995,0.4763000011444092,0.2909500002861023
1780563182571852000,26.66685205078125,-0.5064125061035156,0.5002250075340271,0.3190000057220459
1780563182591383800,26.6863837890625,-0.5350124835968018,0.5266249775886536,0.3539249897003174
1780563182610918100,26.705918212890627,-0.5847874879837036,0.5526124835014343,0.3957250118255615
1780563182630449200,26.72544921875,-0.6451500058174133,0.5757125020027161,0.4426124989986419
1780563182649979000,26.744978759765623,-0.7118374705314636,0.5974375009536743,0.4925250113010406
1780563182669511000,26.764510986328126,-0.7856749892234802,0.6242499947547913,0.5436750054359436
1780563182689042200,26.784042236328126,-0.863224983215332,0.6659125089645386,0.5926250219345093
1780563182708572000,26.80357202148437,-0.9301875233650208,0.7275124788284302,0.6327750086784363
1780563182728100400,26.823100341796877,-0.9707499742507936,0.8028625249862671,0.6571124792098999
1780563182747630800,26.842630859375,-0.9722625017166138,0.8753250241279602,0.6608250141143799
1780563182767165200,26.86216528320313,-0.9288125038146972,0.9278500080108644,0.6440500020980835
1780563182786698200,26.8816982421875,-0.8465874791145325,0.950262486934662,0.6154500246047974
1780563182806224600,26.901224609375,-0.7408499717712402,0.9418749809265136,0.58451247215271
1780563182825754400,26.92075439453125,-0.635937511920929,0.9081875085830688,0.5583875179290771
1780563182845289700,26.940289794921878,-0.5583875179290771,0.858412504196167,0.5400999784469604
1780563182864826600,26.95982666015625,-0.5218124985694885,0.8082249760627747,0.527037501335144
1780563182884363800,26.97936376953125,-0.5235999822616577,0.7771499752998352,0.5163124799728394
1780563182903899000,26.99889892578125,-0.5522000193595886,0.7770124673843384,0.5110874772071838
1780563182923432700,27.0184326171875,-0.5853375196456909,0.7964000105857849,0.5163124799728394
1780563182942961700,27.037961669921877,-0.5407875180244446,0.7475875020027161,0.4910124838352203
1780563182962490600,27.05749072265625,-0.2928749918937683,0.4813874959945678,0.3411374986171722
1780563182982020600,27.0770205078125,0.2297624945640564,-0.0759000033140182,-0.0020624999888241
1780563183001552000,27.0965517578125,0.9552124738693236,-0.8291249871253967,-0.5255249738693237
1780563183021087200,27.11608715820313,1.649999976158142,-0.9660750031471252,-0.7605124711990356
1780563183040618500,27.13561840820313,1.3908125162124634,-0.5037999749183655,-1.0048500299453735
1780563183060148200,27.155148193359373,0.9770749807357788,-0.55673748254776,-1.4737249612808228
1780563183079677400,27.174677490234377,1.108799934387207,-0.8897625207901001,-1.6630624532699585
1780563183099206400,27.194206298828124,0.9965999722480774,-0.9667624831199646,-1.6421624422073364
1780563183118739500,27.213739501953125,0.9965999722480774,-0.9667624831199646,-1.6421624422073364
1780563183138273300,27.233273193359373,0.4632374942302704,-0.7645000219345093,-1.2876875400543213
