time,seconds_elapsed,z,y,x
1780563492844178000,0.031177978515625,9.560768127441406,1.9312249422073364,-0.9497870206832886
1780563493254154200,0.441154296875,9.511066436767578,2.1388800144195557,-1.0024000406265259
1780563493263918800,0.4509189453125,9.484330177307129,2.250274896621704,-1.01180100440979
1780563493283443200,0.470443115234375,9.45523452758789,2.37106990814209,-1.008249044418335
1780563493302957600,0.48995751953125,9.424845695495605,2.497450113296509,-0.9874240159988403
1780563493322468000,0.509468017578125,9.401030540466309,2.599916934967041,-0.9492329955101013
1780563493341987000,0.528987060546875,9.385432243347168,2.6751561164855957,-0.892857015132904
1780563493361505800,0.548505859375,9.37962532043457,2.7188820838928223,-0.8187270164489746
1780563493381019600,0.56801953125,9.377758979797363,2.747296094894409,-0.74161297082901
1780563493400540000,0.587539794921875,9.380647659301758,2.757205009460449,-0.6642770171165466
1780563493420061400,0.6070615234375,9.38924789428711,2.7455320358276367,-0.586571991443634
1780563493439582700,0.626582763671875,9.403019905090332,2.713318109512329,-0.511011004447937
1780563493459105500,0.64610546875,9.422205924987793,2.659475088119507,-0.43500301241874695
1780563493478624800,0.665624755859375,9.446575164794922,2.58349609375,-0.3574349880218506
1780563493498140200,0.68514013671875,9.478238105773926,2.475085973739624,-0.2773979902267456
1780563493517661000,0.704660888671875,9.515950202941895,2.3343539237976074,-0.19359900057315826
1780563493537183700,0.724183837890625,9.557904243469238,2.1620800495147705,-0.10901500284671783
1780563493556699000,0.743698974609375,9.60218334197998,1.958946943283081,-0.024351000785827637
1780563493576220200,0.76322021484375,9.645801544189453,1.7307230234146118,0.05583599954843521
1780563493595746600,0.78274658203125,9.68598461151123,1.4847630262374878,0.1310809999704361
1780563493615271400,0.802271484375,9.719608306884766,1.236166000366211,0.20274299383163452
1780563493634793700,0.821793701171875,9.746354103088379,0.9876000285148621,0.2706089913845062
1780563493654312400,0.8413125,9.766140937805176,0.7410799860954285,0.3365890085697174
1780563493673835500,0.86083544921875,9.77924919128418,0.49689701199531555,0.39921700954437256
1780563493693357000,0.880357177734375,9.785788536071777,0.25523000955581665,0.46170899271965027
1780563493712876500,0.89987646484375,9.785983085632324,0.016005000099539757,0.5237060189247131
1780563493732396500,0.919396484375,9.779975891113281,-0.22103199362754822,0.5858449935913086
1780563493751910400,0.938910400390625,9.768012046813965,-0.4534060060977936,0.648356020450592
1780563493771425300,0.95842529296875,9.7506685256958,-0.6793149709701538,0.7092159986495972
1780563493790943200,0.977943115234375,9.726668357849121,-0.9215940237045288,0.763276994228363
1780563493810459400,0.99745947265625,9.695450782775879,-1.1784640550613403,0.8058810234069824
1780563493829976300,1.016976318359375,9.65681266784668,-1.4470109939575195,0.8319349884986877
1780563493849491500,1.036491455078125,9.61367130279541,-1.7148510217666626,0.8225569725036621
1780563493869008000,1.0560078125,9.564446449279785,-1.989061951637268,0.7778059840202332
1780563493888524800,1.07552490234375,9.564446449279785,-1.989061951637268,0.7778059840202332
1780563493908035800,1.095035888671875,9.507963180541992,-2.267235040664673,0.7058849930763245
1780563493927548000,1.1145478515625,9.507963180541992,-2.267235040664673,0.7058849930763245
1780563493947063300,1.134063232421875,9.397398948669434,-2.7301950454711914,0.5243340134620667
1780563493966577200,1.1535771484375,9.345653533935547,-2.918621063232422,0.4247269928455353
1780563493986089700,1.17308984375,9.293997764587402,-3.0897960662841797,0.33877500891685486
1780563494005601000,1.19260107421875,9.245963096618652,-3.237281084060669,0.268667995929718
1780563494025115600,1.21211572265625,9.203857421875,-3.3592469692230225,0.21086500585079193
1780563494044636400,1.231636474609375,9.16580581665039,-3.4643940925598145,0.16112899780273438
1780563494064157700,1.25115771484375,9.132655143737793,-3.552541971206665,0.11859600245952606
1780563494083674600,1.270674560546875,9.104397773742676,-3.6253769397735596,0.08112899959087372
1780563494103185400,1.290185302734375,9.082598686218262,-3.6802480220794678,0.04669100046157837
1780563494122699800,1.30969970703125,9.066865921020508,-3.7191100120544434,0.012614999897778034
1780563494142217000,1.329217041015625,9.057027816772461,-3.742954969406128,-0.0231539998203516
1780563494161740000,1.348739990234375,9.052638053894043,-3.753110885620117,-0.06249300017952919
1780563494181265700,1.368265625,9.053149223327637,-3.7508909702301025,-0.10641399770975113
1780563494200791000,1.387791015625,9.058843612670898,-3.7354390621185303,-0.15440699458122253
1780563494220317700,1.407317626953125,9.067411422729492,-3.7121100425720215,-0.2056480050086975
1780563494239841800,1.426841796875,9.07841968536377,-3.6816909313201904,-0.2597239911556244
1780563494259360500,1.446360595703125,9.091083526611328,-3.645869016647339,-0.3159329891204834
1780563494278882600,1.465882568359375,9.10497760772705,-3.6055729389190674,-0.3731360137462616
1780563494298410000,1.485409912109375,9.119976043701172,-3.5609829425811768,-0.4306110143661499
1780563494317934000,1.50493408203125,9.135910987854004,-3.5123839378356934,-0.4881500005722046
1780563494337457200,1.52445703125,9.152458190917969,-3.460623025894165,-0.5446149706840515
1780563494356981500,1.5439814453125,9.169010162353516,-3.407515048980713,-0.5984110236167908
1780563494376506000,1.563506103515625,9.18407917022705,-3.3576109409332275,-0.647400975227356
1780563494396034000,1.583033935546875,9.193596839904785,-3.3233230113983154,-0.6879600286483765
1780563494415566000,1.602566162109375,9.196751594543457,-3.3085548877716064,-0.716389000415802
1780563494435096800,1.622096923828125,9.191326141357422,-3.3203539848327637,-0.7312830090522766
1780563494454621700,1.64162158203125,9.181441307067871,-3.347433090209961,-0.7319989800453186
1780563494474142500,1.661142578125,9.170854568481445,-3.3789029121398926,-0.7200340032577515
1780563494493666300,1.680666259765625,9.16183853149414,-3.407258987426758,-0.7009360194206238
1780563494513191400,1.70019140625,9.154597282409668,-3.4307188987731934,-0.6808159947395325
1780563494532712200,1.719712158203125,9.149460792541504,-3.447978973388672,-0.6624119877815247
1780563494552231700,1.739231689453125,9.147777557373047,-3.4552791118621826,-0.6474689841270447
1780563494571752000,1.758751953125,9.145700454711914,-3.462449073791504,-0.6384519934654236
1780563494591266600,1.7782666015625,9.13968563079834,-3.478538990020752,-0.6371039748191833
1780563494610779100,1.797779052734375,9.128461837768555,-3.5072009563446045,-0.6408810019493103
1780563494630298400,1.81729833984375,9.128461837768555,-3.5072009563446045,-0.6408810019493103
1780563494649819000,1.83681884765625,9.100444793701172,-3.5747780799865723,-0.6654819846153259
1780563494669339000,1.8563388671875,9.100444793701172,-3.5747780799865723,-0.6654819846153259
1780563494688863000,1.875863037109375,9.08423900604248,-3.6113080978393555,-0.6892459988594055
1780563494708387600,1.8953876953125,9.05082893371582,-3.680172920227051,-0.7608090043067932
1780563494727907300,1.9149072265625,9.05082893371582,-3.680172920227051,-0.7608090043067932
1780563494747421700,1.934421630859375,9.035082817077637,-3.709007978439331,-0.8065500259399414
1780563494766929200,1.95392919921875,9.019695281982422,-3.7356929779052734,-0.8542150259017944
1780563494786438100,1.973438232421875,9.003716468811035,-3.762691020965576,-0.902912974357605
1780563494805956400,1.992956298828125,8.98758316040039,-3.7895359992980957,-0.9501299858093262
1780563494825476000,2.01247607421875,8.971342086791992,-3.8162269592285156,-0.9957050085067749
1780563494844996400,2.031996337890625,8.95697021484375,-3.8381481170654297,-1.0398579835891724
1780563494864516900,2.051516845703125,8.943869590759277,-3.8571689128875732,-1.0814019441604614
1780563494884036000,2.0710361328125,8.93335247039795,-3.8704819679260254,-1.1200770139694214
1780563494903555600,2.0905556640625,8.926721572875977,-3.8756399154663086,-1.154589056968689
1780563494923078100,2.110078125,8.923624038696289,-3.8738911151885986,-1.18402099609375
1780563494942598100,2.12959814453125,8.923230171203613,-3.867142915725708,-1.208786964416504
1780563494962114800,2.14911474609375,8.92283821105957,-3.8610129356384277,-1.231063961982727
1780563494981630700,2.168630615234375,8.922669410705566,-3.854388952255249,-1.2528539896011353
1780563495001147000,2.18814697265625,8.925826072692871,-3.838839054107666,-1.2778650522232056
1780563495020670700,2.207670654296875,8.932376861572266,-3.81266188621521,-1.3100539445877075
1780563495040200200,2.2272001953125,8.942543029785156,-3.7739880084991455,-1.3520100116729736
1780563495059730000,2.24672998046875,8.955968856811523,-3.722702980041504,-1.404312014579773
1780563495079260700,2.2662607421875,8.971755981445312,-3.6605749130249023,-1.4655309915542603
1780563495098788600,2.28578857421875,8.988666534423828,-3.5908830165863037,-1.532778024673462
1780563495118314500,2.305314453125,9.003514289855957,-3.522423028945923,-1.6028929948806763
1780563495137839600,2.324839599609375,9.01651382446289,-3.455044984817505,-1.674854040145874
1780563495157364500,2.344364501953125,9.027337074279785,-3.3893320560455322,-1.7491739988327026
1780563495176890600,2.363890625,9.036170959472656,-3.3254470825195312,-1.8245600461959839
1780563495196416500,2.38341650390625,9.0439453125,-3.2620630264282227,-1.8989449739456177
1780563495215937000,2.40293701171875,9.05097770690918,-3.1993930339813232,-1.9707039594650269
1780563495235456500,2.42245654296875,9.057774543762207,-3.13870906829834,-2.0359809398651123
1780563495254977500,2.4419775390625,9.064376831054688,-3.0802319049835205,-2.09505295753479
1780563495274498600,2.46149853515625,9.071490287780762,-3.023509979248047,-2.1462628841400146
1780563495294020900,2.481020751953125,9.079054832458496,-2.9692699909210205,-2.1895639896392822
1780563495313546000,2.5005458984375,9.086906433105469,-2.918445110321045,-2.2250430583953857
1780563495333076200,2.520076171875,9.094318389892578,-2.8747758865356445,-2.2514519691467285
1780563495352604200,2.539604248046875,9.101536750793457,-2.838012933731079,-2.2688519954681396
1780563495372128800,2.559128662109375,9.109578132629395,-2.808835983276367,-2.272887945175171
1780563495391655000,2.578655029296875,9.117794036865234,-2.7891271114349365,-2.26419997215271
1780563495411183900,2.598183837890625,9.125879287719727,-2.7795250415802,-2.2433369159698486
1780563495430718500,2.617718505859375,9.13175106048584,-2.7843689918518066,-2.2132370471954346
1780563495450249200,2.637249267578125,9.13175106048584,-2.7843689918518066,-2.2132370471954346
1780563495469774800,2.65677490234375,9.134743690490723,-2.8346400260925293,-2.1357131004333496
1780563495489300500,2.676300537109375,9.129467010498047,-2.8817529678344727,-2.094834089279175
1780563495508825300,2.695825439453125,9.119305610656738,-2.942073106765747,-2.0548648834228516
1780563495528353300,2.715353271484375,9.104755401611328,-3.012281894683838,-2.017319917678833
1780563495547882200,2.73488232421875,9.104755401611328,-3.012281894683838,-2.017319917678833
1780563495567410700,2.75441064453125,9.104755401611328,-3.012281894683838,-2.017319917678833
1780563495586937900,2.773937744140625,9.070396423339844,-3.1661269664764404,-1.9348260164260864
1780563495606464500,2.793464599609375,9.051555633544922,-3.2467479705810547,-1.8889069557189941
1780563495625987600,2.812987548828125,9.031929016113281,-3.329195976257324,-1.838670015335083
1780563495645508400,2.83250830078125,9.01134204864502,-3.4139668941497803,-1.7834080457687378
1780563495665030400,2.852030517578125,8.9890718460083,-3.5026230812072754,-1.7228490114212036
1780563495684549600,2.871549560546875,8.964524269104004,-3.5932180881500244,-1.66315495967865
1780563495704069000,2.891069091796875,8.937150001525879,-3.685163974761963,-1.608389973640442
1780563495723594200,2.91059423828125,8.906962394714355,-3.7772409915924072,-1.5615630149841309
1780563495743124700,2.930124755859375,8.874260902404785,-3.8693790435791016,-1.521644949913025
1780563495762653400,2.9496533203125,8.839686393737793,-3.961358070373535,-1.4857909679412842
1780563495782180600,2.9691806640625,8.80392837524414,-4.051909923553467,-1.4535720348358154
1780563495801711000,2.988711181640625,8.76776123046875,-4.139186859130859,-1.426000952720642
1780563495821239800,3.00823974609375,8.73195743560791,-4.221887111663818,-1.4030619859695435
1780563495840765400,3.027765380859375,8.697274208068848,-4.299331188201904,-1.3831779956817627
1780563495860288000,3.0472880859375,8.66403579711914,-4.371852874755859,-1.3643310070037842
1780563495879813600,3.066813720703125,8.632203102111816,-4.440135955810547,-1.3454610109329224
1780563495899341000,3.086341064453125,8.60184383392334,-4.503779888153076,-1.3282500505447388
1780563495918867500,3.105867431640625,8.571935653686523,-4.562178134918213,-1.3222910165786743
1780563495938392600,3.125392578125,8.542078971862793,-4.616349220275879,-1.327483057975769
1780563495957916700,3.144916748046875,8.511545181274414,-4.667820930480957,-1.343520998954773
1780563495977438700,3.164438720703125,8.480714797973633,-4.718019962310791,-1.3629989624023438
1780563495996958000,3.1839580078125,8.449921607971191,-4.768695831298828,-1.3778129816055298
1780563496016481800,3.203481689453125,8.41939640045166,-4.820629119873047,-1.3839399814605713
1780563496036010500,3.223010498046875,8.390625,-4.874406814575195,-1.370244026184082
1780563496055535400,3.242535400390625,8.36452865600586,-4.928152084350586,-1.3371449708938599
1780563496075055900,3.262055908203125,8.34106159210205,-4.981095790863037,-1.2866120338439941
1780563496094575600,3.28157568359375,8.320652961730957,-5.029660224914551,-1.2285170555114746
1780563496114096400,3.301096435546875,8.303871154785156,-5.070950984954834,-1.170976996421814
1780563496133614600,3.320614501953125,8.29099178314209,-5.104865074157715,-1.1134589910507202
1780563496153134300,3.34013427734375,8.282196044921875,-5.1308979988098145,-1.0578819513320923
1780563496172658000,3.359657958984375,8.276529312133789,-5.151360988616943,-1.0012680292129517
1780563496192184000,3.37918408203125,8.274148941040039,-5.166360855102539,-0.9419029951095581
1780563496211710700,3.398710693359375,8.273316383361816,-5.179005146026611,-0.8775690197944641
1780563496231235000,3.418235107421875,8.2726469039917,-5.191473007202148,-0.8074079751968384
1780563496250761700,3.43776171875,8.272064208984375,-5.2033820152282715,-0.7333210110664368
1780563496270292000,3.4572919921875,8.272064208984375,-5.2033820152282715,-0.7333210110664368
1780563496289824800,3.47682470703125,8.271551132202148,-5.214519023895264,-0.6559249758720398
1780563496309353500,3.496353515625,8.274396896362305,-5.227703094482422,-0.49546098709106445
1780563496328879900,3.5158798828125,8.278763771057129,-5.227786064147949,-0.4151110053062439
1780563496348403500,3.535403564453125,8.285386085510254,-5.2228617668151855,-0.337772011756897
1780563496367925000,3.554925048828125,8.285386085510254,-5.2228617668151855,-0.337772011756897
1780563496387447600,3.574447509765625,8.285386085510254,-5.2228617668151855,-0.337772011756897
1780563496406968300,3.59396826171875,8.304411888122559,-5.198853969573975,-0.22057700157165527
1780563496426488300,3.61348828125,8.315340995788574,-5.182977199554443,-0.17843399941921234
1780563496446008300,3.63300830078125,8.326581001281738,-5.165791034698486,-0.15049900114536285
1780563496465530400,3.6525302734375,8.337411880493164,-5.148626804351807,-0.13856199383735657
1780563496485053200,3.67205322265625,8.347273826599121,-5.132486820220947,-0.14355500042438507
1780563496504575500,3.691575439453125,8.355897903442383,-5.118133068084717,-0.15387199819087982
1780563496524105200,3.711105224609375,8.364794731140137,-5.103306770324707,-0.16267399489879608
1780563496543632100,3.730632080078125,8.376201629638672,-5.084292888641357,-0.1708119958639145
1780563496563154400,3.750154541015625,8.391961097717285,-5.057956218719482,-0.17906300723552704
1780563496582679800,3.7696796875,8.41274356842041,-5.022696018218994,-0.1956070065498352
1780563496602203000,3.789202880859375,8.438273429870605,-4.978247165679932,-0.2293339967727661
1780563496621727200,3.808727294921875,8.467828750610352,-4.924958229064941,-0.28401198983192444
1780563496641253400,3.82825341796875,8.502449035644531,-4.859275817871094,-0.36851799488067627
1780563496660782300,3.8477822265625,8.540678977966309,-4.781868934631348,-0.48013201355934143
1780563496680315400,3.8673154296875,8.581208229064941,-4.693243980407715,-0.6134539842605591
1780563496699845400,3.886845458984375,8.622774124145508,-4.59530782699585,-0.7555750012397766
1780563496719371500,3.90637158203125,8.664100646972656,-4.49153995513916,-0.8941130042076111
1780563496738892000,3.92589208984375,8.703546524047852,-4.385894775390625,-1.025758981704712
1780563496758412800,3.945412841796875,8.738204956054688,-4.284685134887695,-1.151196002960205
1780563496777936600,3.9649365234375,8.767380714416504,-4.1896491050720215,-1.2727409601211548
1780563496797462000,3.9844619140625,8.790637016296387,-4.101797103881836,-1.3928229808807373
1780563496816990500,4.003990478515625,8.808723449707031,-4.020030975341797,-1.5118590593338013
1780563496836516600,4.0235166015625,8.822720527648926,-3.942673921585083,-1.629384994506836
1780563496856038100,4.0430380859375,8.833311080932617,-3.86906099319458,-1.7444119453430176
1780563496875561200,4.062561279296875,8.84034538269043,-3.8014659881591797,-1.8539520502090454
1780563496895089400,4.08208935546875,8.843254089355469,-3.7418251037597656,-1.9584670066833496
1780563496914610700,4.101610595703125,8.841920852661133,-3.6901659965515137,-2.0598790645599365
1780563496934126600,4.121126708984375,8.83636474609375,-3.6470649242401123,-2.158137083053589
1780563496953649700,4.140649658203125,8.826830863952637,-3.61274790763855,-2.2527990341186523
1780563496973172200,4.160172119140625,8.81590461730957,-3.589901924133301,-2.3307559490203857
1780563496992693000,4.17969287109375,8.803876876831055,-3.5782530307769775,-2.3932929039001465
1780563497012216600,4.199216552734375,8.791523933410645,-3.578310012817383,-2.4381959438323975
1780563497031740000,4.218739990234375,8.77951717376709,-3.5910370349884033,-2.4626259803771973
1780563497051263500,4.238263427734375,8.768865585327148,-3.614423990249634,-2.4663569927215576
1780563497070785800,4.257785888671875,8.761051177978516,-3.645559072494507,-2.4482390880584717
1780563497090307800,4.277307861328125,8.754778861999512,-3.680743932723999,-2.41784405708313
1780563497109831400,4.29683154296875,8.754778861999512,-3.680743932723999,-2.41784405708313
1780563497129358300,4.3163583984375,8.745965003967285,-3.768970012664795,-2.3114800453186035
1780563497148886500,4.335886474609375,8.741711616516113,-3.824100971221924,-2.2357819080352783
1780563497168407000,4.355406982421875,8.73621654510498,-3.8859550952911377,-2.148919105529785
1780563497187926500,4.374926513671875,8.73621654510498,-3.8859550952911377,-2.148919105529785
1780563497207447800,4.39444775390625,8.72891902923584,-3.952924966812134,-2.054347038269043
1780563497226967000,4.413967041015625,8.718785285949707,-4.023873805999756,-1.9573520421981812
1780563497246487600,4.433487548828125,8.703837394714355,-4.099707126617432,-1.8642970323562622
1780563497266005500,4.453005615234375,8.683525085449219,-4.179504871368408,-1.7799229621887207
1780563497285522200,4.472522216796875,8.657556533813477,-4.263030052185059,-1.7068350315093994
1780563497305038300,4.492038330078125,8.625384330749512,-4.351109027862549,-1.6463860273361206
1780563497324557300,4.511557373046875,8.58690071105957,-4.443680763244629,-1.5996379852294922
1780563497344080000,4.531079833984375,8.543981552124023,-4.53790807723999,-1.5645370483398438
1780563497363599000,4.55059912109375,8.500968933105469,-4.62782621383667,-1.5351749658584595
1780563497383118300,4.570118408203125,8.460599899291992,-4.712678909301758,-1.4996370077133179
1780563497402641700,4.5896416015625,8.423781394958496,-4.792068004608154,-1.454643964767456
1780563497422162000,4.609161865234375,8.390389442443848,-4.866666793823242,-1.3988980054855347
1780563497441678000,4.628677978515625,8.360189437866211,-4.936625003814697,-1.3330210447311401
1780563497461197800,4.64819775390625,8.333152770996094,-5.001481056213379,-1.2584660053253174
1780563497480721400,4.667721435546875,8.309565544128418,-5.060126781463623,-1.1773780584335327
1780563497500245800,4.687245849609375,8.289318084716797,-5.111045837402344,-1.0974559783935547
1780563497519767600,4.706767578125,8.272908210754395,-5.153804779052734,-1.0184780359268188
1780563497539287600,4.72628759765625,8.260491371154785,-5.188440799713135,-0.9404069781303406
1780563497558809300,4.745809326171875,8.25171184539795,-5.215782165527344,-0.863057017326355
1780563497578335700,4.765335693359375,8.245819091796875,-5.237030029296875,-0.7873820066452026
1780563497597862700,4.784862548828125,8.242177963256836,-5.253209114074707,-0.7143440246582031
1780563497617389600,4.8043896484375,8.240550994873047,-5.264725208282471,-0.644972026348114
1780563497636914400,4.82391455078125,8.241050720214844,-5.271546840667725,-0.5795339941978455
1780563497656432000,4.84343212890625,8.243438720703125,-5.274271011352539,-0.5174620151519775
1780563497675949300,4.86294921875,8.246569633483887,-5.274773120880127,-0.4591729938983917
1780563497695471900,4.882471923828125,8.248830795288086,-5.2755961418151855,-0.4060550034046173
1780563497714996000,4.901995849609375,8.249811172485352,-5.277371883392334,-0.360491007566452
1780563497734516700,4.921516845703125,8.248913764953613,-5.281033992767334,-0.32568201422691345
1780563497754036500,4.941036376953125,8.246957778930664,-5.285449028015137,-0.30280399322509766
1780563497773557500,4.9605576171875,8.245039939880371,-5.289079189300537,-0.2914470136165619
1780563497793077800,4.980077880859375,8.244187355041504,-5.29046106338501,-0.2905200123786926
1780563497812594000,4.999593994140625,8.245955467224121,-5.28725004196167,-0.29866600036621094
1780563497832109800,5.01910986328125,8.250788688659668,-5.278428077697754,-0.3204309940338135
1780563497851628000,5.0386279296875,8.259864807128906,-5.261734962463379,-0.358832985162735
1780563497871146200,5.058146240234375,8.273116111755371,-5.236983776092529,-0.4117780029773712
1780563497890666000,5.077666015625,8.290763854980469,-5.203991889953613,-0.4708620011806488
1780563497910187300,5.097187255859375,8.290763854980469,-5.203991889953613,-0.4708620011806488
1780563497929707800,5.116707763671875,8.337291717529297,-5.116257190704346,-0.5945219993591309
1780563497949229800,5.136229736328125,8.364513397216797,-5.064145088195801,-0.6552519798278809
1780563497968750000,5.15575,8.392753601074219,-5.008327960968018,-0.7199659943580627
1780563497988271000,5.17527099609375,8.422908782958984,-4.9460768699646,-0.7943120002746582
1780563498007794000,5.1947939453125,8.422908782958984,-4.9460768699646,-0.7943120002746582
1780563498027314700,5.214314697265625,8.422908782958984,-4.9460768699646,-0.7943120002746582
1780563498046836200,5.233836181640625,8.485166549682617,-4.805231094360352,-0.9755499958992004
1780563498066354700,5.253354736328125,8.515192985534668,-4.7279791831970215,-1.0852210521697998
1780563498085870300,5.272870361328125,8.542604446411133,-4.649442195892334,-1.202744960784912
1780563498105388500,5.292388427734375,8.567580223083496,-4.572752952575684,-1.3139610290527344
1780563498124912000,5.311912109375,8.588339805603027,-4.50368595123291,-1.4132330417633057
1780563498144434700,5.3314345703125,8.603915214538574,-4.442407131195068,-1.509194016456604
1780563498163958300,5.350958251953125,8.613446235656738,-4.392290115356445,-1.5988490581512451
1780563498183485200,5.370485107421875,8.617670059204102,-4.352654933929443,-1.6823049783706665
1780563498203010600,5.390010498046875,8.617347717285156,-4.322150230407715,-1.7607769966125488
1780563498222538000,5.4095380859375,8.612833023071289,-4.300356864929199,-1.8346799612045288
1780563498242065400,5.4290654296875,8.603996276855469,-4.288273811340332,-1.9031410217285156
1780563498261588500,5.44858837890625,8.591044425964355,-4.2862701416015625,-1.9651579856872559
1780563498281111000,5.468111083984375,8.575446128845215,-4.292325973510742,-2.0193231105804443
1780563498300634000,5.487634033203125,8.559259414672852,-4.303318023681641,-2.064110040664673
1780563498320157200,5.5071572265625,8.543854713439941,-4.317793846130371,-2.097429037094116
1780563498339679000,5.526678955078125,8.529412269592285,-4.336363792419434,-2.117798089981079
1780563498359199200,5.54619921875,8.515240669250488,-4.360734939575195,-2.1247739791870117
1780563498378724400,5.565724365234375,8.500725746154785,-4.392401218414307,-2.117656946182251
1780563498398250800,5.585250732421875,8.485710144042969,-4.432096004486084,-2.0950520038604736
1780563498417772800,5.604772705078125,8.470015525817871,-4.481057167053223,-2.0540099143981934
1780563498437295600,5.624295654296875,8.454375267028809,-4.541203022003174,-1.9851969480514526
1780563498456821200,5.6438212890625,8.438772201538086,-4.612884044647217,-1.8837230205535889
1780563498476342300,5.66334228515625,8.422311782836914,-4.692796230316162,-1.7556569576263428
1780563498495860000,5.68285986328125,8.403521537780762,-4.7755961418151855,-1.616942048072815
1780563498515378200,5.702378173828125,8.382623672485352,-4.856542110443115,-1.4783769845962524
1780563498534900000,5.72189990234375,8.359648704528809,-4.9344072341918945,-1.3445760011672974
1780563498554424000,5.741424072265625,8.334236145019531,-5.007688045501709,-1.2261919975280762
1780563498573947400,5.760947509765625,8.306495666503906,-5.076327800750732,-1.1282769441604614
1780563498593470500,5.780470458984375,8.274975776672363,-5.144499778747559,-1.0482670068740845
1780563498612995600,5.79999560546875,8.23983097076416,-5.212119102478027,-0.9894440174102783
1780563498632526800,5.81952685546875,8.199629783630371,-5.283157825469971,-0.945671021938324
1780563498652060700,5.839060791015625,8.155718803405762,-5.355943202972412,-0.9154859781265259
1780563498671594200,5.85859423828125,8.109493255615234,-5.42919397354126,-0.8944079875946045
1780563498691124000,5.8781240234375,8.062602043151855,-5.501021862030029,-0.8793179988861084
1780563498710649600,5.897649658203125,8.018916130065918,-5.5662522315979,-0.8682259917259216
1780563498730178300,5.91717822265625,7.980014801025391,-5.6249799728393555,-0.8479160070419312
1780563498749706200,5.936706298828125,7.980014801025391,-5.6249799728393555,-0.8479160070419312
1780563498769233000,5.95623291015625,7.947321891784668,-5.675180912017822,-0.8199930191040039
1780563498788760800,5.9757607421875,7.9203619956970215,-5.717469215393066,-0.786387026309967
1780563498808291000,5.995291015625,7.8816328048706055,-5.780539035797119,-0.7107899785041809
1780563498827824400,6.014824462890625,7.8816328048706055,-5.780539035797119,-0.7107899785041809
1780563498847351300,6.034351318359375,7.8816328048706055,-5.780539035797119,-0.7107899785041809
1780563498866872600,6.05387255859375,7.862932205200195,-5.815585136413574,-0.6270999908447266
1780563498886393900,6.073393798828125,7.860126972198486,-5.823914051055908,-0.5834559798240662
1780563498905915600,6.09291552734375,7.860923767089844,-5.827054023742676,-0.5397400259971619
1780563498925438700,6.112438720703125,7.8648858070373535,-5.825493812561035,-0.49716898798942566
1780563498944962000,6.131962158203125,7.8727312088012695,-5.818315029144287,-0.4553169906139374
1780563498964482000,6.15148193359375,7.882684230804443,-5.807703018188477,-0.4169889986515045
1780563498984000300,6.171000244140625,7.893978118896484,-5.7947678565979,-0.38179999589920044
1780563499003513900,6.190513916015625,7.905363082885742,-5.7811689376831055,-0.3511660099029541
1780563499023031000,6.210031005859375,7.91593599319458,-5.7680840492248535,-0.32734599709510803
1780563499042556200,6.22955615234375,7.925487041473389,-5.755736827850342,-0.31330400705337524
1780563499062083000,6.2490830078125,7.934162139892578,-5.74387788772583,-0.3113250136375427
1780563499081611000,6.268611083984375,7.942077159881592,-5.732379913330078,-0.3212659955024719
1780563499101137700,6.2881376953125,7.948825836181641,-5.721944808959961,-0.33987298607826233
1780563499120663300,6.307663330078125,7.954085826873779,-5.71320915222168,-0.3629930019378662
1780563499140192800,6.32719287109375,7.958062171936035,-5.706061840057373,-0.3874250054359436
1780563499159723800,6.346723876953125,7.961438179016113,-5.699594974517822,-0.412445992231369
1780563499179252200,6.366252197265625,7.965600967407227,-5.691773891448975,-0.4392220079898834
1780563499198778600,6.385778564453125,7.972153186798096,-5.6802802085876465,-0.4681679904460907
1780563499218307600,6.4053076171875,7.983095169067383,-5.66236686706543,-0.4977709949016571
1780563499237835500,6.42483544921875,7.999920845031738,-5.635970115661621,-0.5263910293579102
1780563499257363700,6.44436376953125,8.023089408874512,-5.600176811218262,-0.5550360083580017
1780563499276893000,6.463892822265625,8.051868438720703,-5.55461311340332,-0.5947120189666748
1780563499296420000,6.483420166015625,8.084888458251953,-5.500195026397705,-0.6499459743499756
1780563499315952400,6.502952392578125,8.12022590637207,-5.438342094421387,-0.7255060076713562
1780563499335490600,6.522490478515625,8.156063079833984,-5.371420860290527,-0.816366970539093
1780563499355025000,6.54202490234375,8.191388130187988,-5.30145788192749,-0.9141610264778137
1780563499374555400,6.561555419921875,8.224637985229492,-5.2310872077941895,-1.0154099464416504
1780563499394089000,6.5810888671875,8.255000114440918,-5.164297103881836,-1.1067969799041748
1780563499413623000,6.600623046875,8.281854629516602,-5.101819038391113,-1.1926020383834839
1780563499433156900,6.620156982421875,8.303807258605957,-5.046047210693359,-1.274440050125122
1780563499452690000,6.63968994140625,8.321220397949219,-4.994800090789795,-1.3598719835281372
1780563499472224000,6.65922412109375,8.333553314208984,-4.948843955993652,-1.4494179487228394
1780563499491754500,6.67875439453125,8.34038257598877,-4.9099440574646,-1.5396250486373901
1780563499511286800,6.698286865234375,8.34131145477295,-4.879973888397217,-1.6273820400238037
1780563499530817000,6.717817138671875,8.336581230163574,-4.861825942993164,-1.7041300535202026
1780563499550343200,6.73734326171875,8.336581230163574,-4.861825942993164,-1.7041300535202026
1780563499569871600,6.75687158203125,8.32947826385498,-4.8507890701293945,-1.7690809965133667
1780563499589400300,6.776400390625,8.320952415466309,-4.846561908721924,-1.8200500011444092
1780563499608926500,6.795926513671875,8.301148414611816,-4.851533889770508,-1.8956650495529175
1780563499628448500,6.815448486328125,8.292076110839844,-4.857777118682861,-1.919232964515686
1780563499647970300,6.83497021484375,8.28372859954834,-4.868138790130615,-1.9290039539337158
1780563499667497000,6.8544970703125,8.28372859954834,-4.868138790130615,-1.9290039539337158
1780563499687022800,6.87402294921875,8.274601936340332,-4.885805130004883,-1.923503041267395
1780563499706546700,6.893546630859375,8.263469696044922,-4.911441802978516,-1.905987024307251
1780563499726071300,6.9130712890625,8.250260353088379,-4.943610191345215,-1.8798710107803345
1780563499745592800,6.9325927734375,8.235247611999512,-4.981761932373047,-1.8446450233459473
1780563499765116700,6.95211669921875,8.220358848571777,-5.022305965423584,-1.8005919456481934
1780563499784643000,6.97164306640625,8.206990242004395,-5.063691139221191,-1.74480402469635
1780563499804165400,6.991165283203125,8.195591926574707,-5.106210231781006,-1.6729849576950073
1780563499823690500,7.0106904296875,8.185327529907227,-5.149870872497559,-1.5872100591659546
1780563499843219500,7.030219482421875,8.17554759979248,-5.193802833557129,-1.491582989692688
1780563499862743300,7.049743408203125,8.165778160095215,-5.237131118774414,-1.3901519775390625
1780563499882264800,7.069264892578125,8.15565299987793,-5.280930042266846,-1.2794959545135498
1780563499901788200,7.0887880859375,8.143387794494629,-5.326120853424072,-1.1651840209960938
1780563499921314800,7.108314697265625,8.127155303955078,-5.3742852210998535,-1.051859974861145
1780563499940841700,7.127841796875,8.105742454528809,-5.42502498626709,-0.9518659710884094
1780563499960364500,7.147364501953125,8.079606056213379,-5.476537227630615,-0.876075029373169
1780563499979889700,7.1668896484375,8.050569534301758,-5.52699613571167,-0.8250030279159546
1780563499999415300,7.186415283203125,8.020483016967773,-5.573638916015625,-0.8039860129356384
1780563500018940700,7.205940673828125,7.9918928146362305,-5.615239143371582,-0.7992089986801147
1780563500038464300,7.22546435546875,7.965910911560059,-5.651322841644287,-0.8042500019073486
1780563500057984500,7.244984619140625,7.943149089813232,-5.683106899261475,-0.8053910136222839
1780563500077506600,7.264506591796875,7.923128128051758,-5.712124824523926,-0.7972819805145264
1780563500097036000,7.2840361328125,7.905467987060547,-5.739102840423584,-0.7786319851875305
1780563500116566800,7.30356689453125,7.890701770782471,-5.763282775878906,-0.7492409944534302
1780563500136092700,7.3230927734375,7.879786968231201,-5.782355785369873,-0.7164559960365295
1780563500155615200,7.342615234375,7.873600959777832,-5.795254230499268,-0.6792839765548706
1780563500175137500,7.362137451171875,7.873187065124512,-5.800158977508545,-0.6411489844322205
1780563500194663700,7.38166357421875,7.878935813903809,-5.796928882598877,-0.5983020067214966
1780563500214185000,7.40118505859375,7.888930797576904,-5.788119792938232,-0.5499500036239624
1780563500233700000,7.4207001953125,7.901904106140137,-5.775047779083252,-0.49873000383377075
1780563500253216000,7.440216064453125,7.916840076446533,-5.7587151527404785,-0.4481480121612549
1780563500272732200,7.459732177734375,7.933769226074219,-5.7389397621154785,-0.3998430073261261
1780563500292247000,7.4792470703125,7.952617168426514,-5.715874195098877,-0.35304200649261475
1780563500311761400,7.498761474609375,7.972912788391113,-5.690145015716553,-0.3080439865589142
1780563500331276000,7.518276123046875,7.994081974029541,-5.662403106689453,-0.2680070102214813
1780563500350796000,7.537796142578125,8.01350212097168,-5.636413097381592,-0.23373399674892426
1780563500370313700,7.557313720703125,8.028702735900879,-5.615774154663086,-0.2073889970779419
1780563500389825500,7.576825439453125,8.038400650024414,-5.602403163909912,-0.19286799430847168
1780563500409337300,7.59633740234375,8.042266845703125,-5.596958160400391,-0.1897590011358261
1780563500428851200,7.615851318359375,8.040727615356445,-5.598954200744629,-0.19597500562667847
1780563500448374500,7.63537451171875,8.034774780273438,-5.607047080993652,-0.2082809954881668
1780563500467898600,7.654898681640625,8.034774780273438,-5.607047080993652,-0.2082809954881668
1780563500487416000,7.674416015625,8.026378631591797,-5.618451118469238,-0.22407999634742737
1780563500506939600,7.693939697265625,8.018067359924316,-5.62959623336792,-0.24132299423217773
1780563500526465500,7.713465576171875,8.012977600097656,-5.63579797744751,-0.2644740045070648
1780563500545988600,7.732988525390625,8.013797760009766,-5.632931232452393,-0.2985289990901947
1780563500565507800,7.7525078125,8.022278785705566,-5.6182050704956055,-0.3446730077266693
1780563500585023200,7.772023193359375,8.038933753967285,-5.590335845947266,-0.4045630097389221
1780563500604543200,7.791543212890625,8.062478065490723,-5.551009178161621,-0.4719640016555786
1780563500624064300,7.811064208984375,8.090117454528809,-5.503702163696289,-0.5470479726791382
1780563500643586000,7.8305859375,8.118419647216797,-5.453561782836914,-0.6244270205497742
1780563500663107300,7.850107421875,8.144569396972656,-5.405107021331787,-0.7005689740180969
1780563500682627600,7.869627685546875,8.169027328491211,-5.35745906829834,-0.7775660157203674
1780563500702146600,7.889146484375,8.193367004394531,-5.3080291748046875,-0.8564860224723816
1780563500721667600,7.90866748046875,8.217658042907715,-5.256890773773193,-0.9355229735374451
1780563500741193200,7.928193115234375,8.241592407226562,-5.204580783843994,-1.0141489505767822
1780563500760714500,7.947714599609375,8.264328956604004,-5.152653217315674,-1.091338038444519
1780563500780235000,7.967235107421875,8.284918785095215,-5.102834224700928,-1.1667089462280273
1780563500799761000,7.986760986328125,8.300461769104004,-5.0585222244262695,-1.2464649677276611
1780563500819284500,8.006284423828125,8.309720039367676,-5.021842956542969,-1.3302769660949707
1780563500838806500,8.025806640625,8.313355445861816,-4.991702079772949,-1.4181090593338013
1780563500858329600,8.04532958984375,8.31176471710205,-4.968161106109619,-1.5072890520095825
1780563500877856500,8.0648564453125,8.305258750915527,-4.952054977416992,-1.5936789512634277
1780563500897382400,8.08438232421875,8.294182777404785,-4.944630146026611,-1.672469973564148
1780563500916902000,8.10390185546875,8.279738426208496,-4.94748592376709,-1.734449028968811
1780563500936422700,8.123422607421874,8.262393951416016,-4.9604811668396,-1.7794549465179443
1780563500955947800,8.14294775390625,8.242279052734375,-4.980703830718994,-1.8158769607543945
1780563500975475500,8.162475341796876,8.221701622009277,-5.004609107971191,-1.8432300090789795
1780563500994998800,8.181998779296874,8.202895164489746,-5.028379917144775,-1.8622289896011353
1780563501014517200,8.201517333984375,8.186941146850586,-5.0503621101379395,-1.8729230165481567
1780563501034035000,8.221034912109374,8.173664093017578,-5.070941925048828,-1.8752989768981934
1780563501053554700,8.2405546875,8.16185188293457,-5.091644763946533,-1.8706480264663696
1780563501073075200,8.2600751953125,8.150421142578125,-5.114224910736084,-1.8588550090789795
1780563501092598000,8.279597900390625,8.138893127441406,-5.139533042907715,-1.839460015296936
1780563501112124000,8.2991240234375,8.12743854522705,-5.169698238372803,-1.8052560091018677
1780563501131648500,8.3186484375,8.116108894348145,-5.206676006317139,-1.7490839958190918
1780563501151171300,8.33817138671875,8.103673934936523,-5.252356052398682,-1.6682980060577393
1780563501170697500,8.357697509765625,8.089098930358887,-5.307382106781006,-1.5614650249481201
1780563501190225700,8.3772255859375,8.071096420288086,-5.3690571784973145,-1.4389679431915283
1780563501209749800,8.396749755859375,8.050161361694336,-5.433750152587891,-1.3073819875717163
1780563501229274000,8.416274169921875,8.050161361694336,-5.433750152587891,-1.3073819875717163
1780563501248797700,8.435797607421875,8.00255298614502,-5.553124904632568,-1.0779399871826172
1780563501268320500,8.455320556640626,7.976099014282227,-5.60650110244751,-0.9944810271263123
1780563501287847400,8.474847412109375,7.976099014282227,-5.60650110244751,-0.9944810271263123
1780563501307371500,8.49437158203125,7.976099014282227,-5.60650110244751,-0.9944810271263123
1780563501326893300,8.513893310546875,7.911923885345459,-5.713324069976807,-0.8940719962120056
1780563501346415400,8.533415283203125,7.875833988189697,-5.766900062561035,-0.8683940172195435
1780563501365940500,8.5529404296875,7.838406085968018,-5.820512771606445,-0.8491290211677551
1780563501385469000,8.572468994140625,7.800755023956299,-5.8734211921691895,-0.831358015537262
1780563501404995300,8.591995361328125,7.766574859619141,-5.922656059265137,-0.801522970199585
1780563501424521200,8.611521240234374,7.738645076751709,-5.964920997619629,-0.7570210099220276
1780563501444043800,8.631043701171874,7.716826915740967,-6.0005388259887695,-0.6957899928092957
1780563501463569000,8.65056884765625,7.700503826141357,-6.028878211975098,-0.6283789873123169
1780563501483097600,8.67009765625,7.689968109130859,-6.049063205718994,-0.5596489906311035
1780563501502622500,8.68962255859375,7.6853508949279785,-6.060519218444824,-0.49547499418258667
1780563501522143200,8.709143310546875,7.6863179206848145,-6.063289165496826,-0.44388100504875183
1780563501541670100,8.728670166015625,7.692777156829834,-6.057939052581787,-0.4031580090522766
1780563501561196500,8.748196533203124,7.704232215881348,-6.045856952667236,-0.36388999223709106
1780563501580720000,8.76772021484375,7.719422817230225,-6.02869176864624,-0.3246079981327057
1780563501600247800,8.787247802734376,7.7367448806762695,-6.008488178253174,-0.2843160033226013
1780563501619776300,8.8067763671875,7.755232810974121,-5.986355781555176,-0.24476000666618347
1780563501639300400,8.82630029296875,7.774532794952393,-5.962612152099609,-0.20949800312519073
1780563501658818000,8.845818115234374,7.794577121734619,-5.937314033508301,-0.18129900097846985
1780563501678338600,8.865338623046876,7.814873218536377,-5.911170959472656,-0.1606539934873581
1780563501697864200,8.8848642578125,7.834373950958252,-5.885673999786377,-0.1464489996433258
1780563501717389600,8.9043896484375,7.8521342277526855,-5.862180233001709,-0.13725100457668304
1780563501736915700,8.923915771484374,7.867485046386719,-5.841695785522461,-0.13140399754047394
1780563501756441000,8.943441162109375,7.88069486618042,-5.82393217086792,-0.1282469928264618
1780563501775965400,8.96296533203125,7.892531871795654,-5.80788516998291,-0.12809200584888458
1780563501795493400,8.982493408203124,7.903656005859375,-5.792658805847168,-0.1316079944372177
1780563501815023000,9.002023193359374,7.91474723815918,-5.77731990814209,-0.13910900056362152
1780563501834550000,9.021550048828125,7.929346084594727,-5.757041931152344,-0.14805899560451508
1780563501854076000,9.041075927734376,7.948144912719727,-5.73057222366333,-0.165910005569458
1780563501873602300,9.060602294921875,7.972696781158447,-5.695536136627197,-0.19230100512504578
1780563501893129500,9.08012939453125,8.004714965820312,-5.648983955383301,-0.23135800659656525
1780563501912658400,9.099658447265625,8.044458389282227,-5.589777946472168,-0.28474000096321106
1780563501932188200,9.119188232421875,8.090359687805176,-5.518689155578613,-0.3607580065727234
1780563501951716400,9.13871630859375,8.1366548538208,-5.442670822143555,-0.4606359899044037
1780563501971243000,9.158242919921875,8.180980682373047,-5.364604949951172,-0.5766609907150269
1780563501990770400,9.1777705078125,8.221776962280273,-5.285463809967041,-0.7115229964256287
1780563502010296000,9.197296142578125,8.221776962280273,-5.285463809967041,-0.7115229964256287
1780563502029818400,9.216818359375,8.257624626159668,-5.207076072692871,-0.859046995639801
1780563502049341000,9.2363408203125,8.287861824035645,-5.130547046661377,-1.014312982559204
1780563502068867600,9.25586767578125,8.314446449279785,-5.055494785308838,-1.162729024887085
1780563502088392200,9.27539208984375,8.362560272216797,-4.906268119812012,-1.4269249439239502
1780563502107915300,9.294915283203125,8.384204864501953,-4.834729194641113,-1.5396380424499512
1780563502127439600,9.314439697265625,8.384204864501953,-4.834729194641113,-1.5396380424499512
1780563502146966800,9.333966796875,8.401419639587402,-4.770053863525391,-1.6439980268478394
1780563502166495500,9.35349560546875,8.414511680603027,-4.7147369384765625,-1.734138011932373
1780563502186023200,9.373023193359375,8.42308235168457,-4.670283794403076,-1.8111109733581543
1780563502205551900,9.3925517578125,8.427732467651367,-4.636756896972656,-1.8745189905166626
1780563502225081000,9.4120810546875,8.428448677062988,-4.614623069763184,-1.9252300262451172
1780563502244614700,9.43161474609375,8.426841735839844,-4.602352142333984,-1.9612970352172852
1780563502264150500,9.451150634765625,8.424847602844238,-4.597315788269043,-1.9815670251846313
1780563502283679700,9.4706796875,8.422147750854492,-4.597084999084473,-1.9935460090637207
1780563502303208400,9.49020849609375,8.418872833251953,-4.60107421875,-1.9981689453125
1780563502322739000,9.509739013671876,8.414523124694824,-4.6097612380981445,-1.9964690208435059
1780563502342265600,9.529265625,8.408528327941895,-4.623960018157959,-1.9888759851455688
1780563502361793500,9.54879345703125,8.400639533996582,-4.64404821395874,-1.975361943244934
1780563502381323500,9.568323486328126,8.391393661499023,-4.668914794921875,-1.9559520483016968
1780563502400852700,9.587852783203125,8.381941795349121,-4.696149826049805,-1.9311200380325317
1780563502420383500,9.607383544921875,8.373201370239258,-4.723965167999268,-1.9009599685668945
1780563502439912700,9.62691259765625,8.362276077270508,-4.757990837097168,-1.8638299703598022
1780563502459446000,9.646446044921875,8.349920272827148,-4.799450874328613,-1.8122080564498901
1780563502478976800,9.665976806640625,8.334199905395508,-4.851525783538818,-1.744649052619934
1780563502498501600,9.685501708984376,8.313355445861816,-4.916750907897949,-1.659425973892212
1780563502518028800,9.70502880859375,8.28659439086914,-4.9947381019592285,-1.5572179555892944
1780563502537561000,9.72456103515625,8.254546165466309,-5.081812858581543,-1.441406011581421
1780563502557094700,9.7440947265625,8.221983909606934,-5.167395114898682,-1.3179539442062378
1780563502576626400,9.76362646484375,8.189698219299316,-5.247259140014648,-1.1979570388793945
1780563502596157400,9.783157470703125,8.157952308654785,-5.32069206237793,-1.085381031036377
1780563502615687400,9.8026875,8.125909805297852,-5.388381004333496,-0.9873849749565125
1780563502635214000,9.822214111328124,8.093544006347656,-5.45072078704834,-0.907833993434906
1780563502654737700,9.841737548828124,8.06039047241211,-5.509170055389404,-0.8480209708213806
1780563502674264000,9.86126416015625,8.026541709899902,-5.564731121063232,-0.8052229881286621
1780563502693795800,9.8807958984375,7.991818904876709,-5.618682861328125,-0.7753919959068298
1780563502713327900,9.900327880859376,7.958713054656982,-5.668667793273926,-0.7517079710960388
1780563502732855600,9.91985546875,7.9302568435668945,-5.712409019470215,-0.7206810116767883
1780563502752383000,9.939383056640626,7.90574312210083,-5.7504658699035645,-0.6865540146827698
1780563502771916000,9.958916015625,7.884609222412109,-5.783867835998535,-0.6479269862174988
1780563502791447800,9.97844775390625,7.866125106811523,-5.813553810119629,-0.6055300235748291
1780563502810973000,9.997972900390625,7.8512067794799805,-5.838383197784424,-0.5584110021591187
1780563502830498800,10.017498779296876,7.839875221252441,-5.858288764953613,-0.5067459940910339
1780563502850027500,10.037027587890625,7.831387996673584,-5.873869895935059,-0.4549719989299774
1780563502869556200,10.05655615234375,7.82600212097168,-5.885406970977783,-0.3945319950580597
1780563502889088500,10.076088623046875,7.82600212097168,-5.885406970977783,-0.3945319950580597
1780563502908621800,10.095621826171875,7.823033809661865,-5.893521785736084,-0.3264020085334778
1780563502928154000,10.115154052734376,7.8223772048950195,-5.898077964782715,-0.25117701292037964
1780563502947684000,10.13468408203125,7.82707405090332,-5.896586894989014,-0.08477099984884262
1780563502967211800,10.154211669921875,7.82707405090332,-5.896586894989014,-0.08477099984884262
1780563502986740200,10.173740234375,7.830782890319824,-5.892268180847168,0.0008989999769255519
1780563503006265900,10.193265869140625,7.834020137786865,-5.887375831604004,0.08325300365686417
1780563503025790000,10.2127900390625,7.83688497543335,-5.8820929527282715,0.1556140035390854
1780563503045313800,10.232313720703125,7.840014934539795,-5.875955104827881,0.2174919992685318
1780563503064838400,10.25183837890625,7.844380855560303,-5.8680620193481445,0.26743900775909424
1780563503084362800,10.27136279296875,7.851165771484375,-5.857166767120361,0.30459100008010864
1780563503103882200,10.29088232421875,7.86079216003418,-5.842976093292236,0.3279600143432617
1780563503123402500,10.310402587890625,7.872443199157715,-5.826621055603027,0.33928900957107544
1780563503142928100,10.32992822265625,7.885499954223633,-5.808993816375732,0.33834999799728394
1780563503162455600,10.34945556640625,7.8999528884887695,-5.79013204574585,0.32422301173210144
1780563503181981200,10.368981201171875,7.91880989074707,-5.76619815826416,0.28878098726272583
1780563503201502500,10.38850244140625,7.942232131958008,-5.736508846282959,0.2310830056667328
1780563503221019600,10.40801953125,7.970219135284424,-5.700215816497803,0.1521259993314743
1780563503240535600,10.42753564453125,8.001959800720215,-5.657341003417969,0.05582699924707413
1780563503260056000,10.44705615234375,8.036300659179688,-5.6085381507873535,-0.04653099924325943
1780563503279575300,10.4665751953125,8.072442054748535,-5.554472923278809,-0.15326599776744843
1780563503299092500,10.486092529296876,8.110027313232422,-5.495450019836426,-0.2597529888153076
1780563503318613500,10.505613525390626,8.149909973144531,-5.429696083068848,-0.370618999004364
1780563503338137900,10.525137939453124,8.192292213439941,-5.355469226837158,-0.4952720105648041
1780563503357661200,10.5446611328125,8.234283447265625,-5.276825904846191,-0.6258500218391418
1780563503377187600,10.5641875,8.27285099029541,-5.198037147521973,-0.7618100047111511
1780563503396713000,10.583712890625,8.306618690490723,-5.121383190155029,-0.9008319973945618
1780563503416232200,10.603232177734375,8.33110237121582,-5.0530619621276855,-1.0484700202941895
1780563503435751700,10.622751708984374,8.34484577178955,-4.995625019073486,-1.2030260562896729
1780563503455274500,10.6422744140625,8.348225593566895,-4.949906826019287,-1.358502984046936
1780563503474799400,10.66179931640625,8.342142105102539,-4.91338586807251,-1.5189770460128784
1780563503494324000,10.681323974609375,8.331542015075684,-4.881274223327637,-1.6728919744491577
1780563503513847800,10.700847900390626,8.31666088104248,-4.855183124542236,-1.8166860342025757
1780563503533371100,10.72037109375,8.298832893371582,-4.8378071784973145,-1.9403599500656128
1780563503552899300,10.7398994140625,8.2785005569458,-4.83029317855835,-2.043200969696045
1780563503572429800,10.759429931640625,8.256895065307617,-4.831305980682373,-2.1265408992767334
1780563503591954400,10.778954345703125,8.236861228942871,-4.8349199295043945,-2.1949191093444824
1780563503611474200,10.79847412109375,8.217634201049805,-4.8420000076293945,-2.250670909881592
1780563503630996200,10.817996337890625,8.198121070861816,-4.855210781097412,-2.2929749488830566
1780563503650519800,10.837519775390625,8.176478385925293,-4.8792619705200195,-2.319053888320923
1780563503670039600,10.85703955078125,8.176478385925293,-4.8792619705200195,-2.319053888320923
1780563503689559300,10.876559326171876,8.116347312927246,-4.982985019683838,-2.3097081184387207
1780563503709083100,10.896083251953126,8.080145835876465,-5.060291767120361,-2.2681870460510254
1780563503728609300,10.915609375,8.044118881225586,-5.147396087646484,-2.199198007583618
1780563503748133000,10.935133056640625,8.044118881225586,-5.147396087646484,-2.199198007583618
1780563503767658000,10.954657958984376,7.974748134613037,-5.342526912689209,-1.9750440120697021
1780563503787182300,10.974182373046874,7.974748134613037,-5.342526912689209,-1.9750440120697021
1780563503806708200,10.993708251953125,7.942285060882568,-5.444778919219971,-1.8205699920654297
1780563503826236200,11.013236083984374,7.910071849822998,-5.545723915100098,-1.6479339599609375
1780563503845763600,11.032763671875,7.875380992889404,-5.644812107086182,-1.4678070545196533
1780563503865290200,11.052290283203124,7.834205150604248,-5.743093967437744,-1.2969609498977661
1780563503884817000,11.07181689453125,7.7865519523620605,-5.8406147956848145,-1.1387779712677002
1780563503904341000,11.091341064453125,7.7322869300842285,-5.937252044677734,-1.000383973121643
1780563503923866000,11.1108662109375,7.672283172607422,-6.034045219421387,-0.8754249811172485
1780563503943397000,11.130397216796876,7.60693883895874,-6.1313700675964355,-0.7620890140533447
1780563503962925000,11.149925048828125,7.539741039276123,-6.2247419357299805,-0.6670010089874268
1780563503982448600,11.16944873046875,7.473905086517334,-6.311326026916504,-0.5898309946060181
1780563504001971000,11.188970947265625,7.410378932952881,-6.390963077545166,-0.53090500831604
1780563504021494000,11.208493896484375,7.35272216796875,-6.461043834686279,-0.48207101225852966
1780563504041015600,11.228015625,7.300848960876465,-6.522535800933838,-0.44059398770332336
1780563504060539100,11.2475390625,7.254283905029297,-6.576786041259766,-0.40155500173568726
1780563504080062700,11.267062744140626,7.212823867797852,-6.624623775482178,-0.3598729968070984
1780563504099581400,11.28658154296875,7.1733927726745605,-6.669336795806885,-0.3199329972267151
1780563504119105000,11.30610498046875,7.137069225311279,-6.710143089294434,-0.27607598900794983
1780563504138631000,11.325630859375,7.105237007141113,-6.745344161987305,-0.23652499914169312
1780563504158150700,11.345150634765625,7.082284927368164,-6.770596027374268,-0.200654998421669
1780563504177672200,11.364672119140625,7.067087173461914,-6.787359237670898,-0.16747400164604187
1780563504197195800,11.38419580078125,7.054659843444824,-6.801084041595459,-0.1304139941930771
1780563504216714200,11.40371435546875,7.044844150543213,-6.811981201171875,-0.0841670036315918
1780563504236232400,11.423232421875,7.038483142852783,-6.8189778327941895,-0.03597300127148628
1780563504255754800,11.442754638671875,7.037384033203125,-6.820196151733398,0.011575000360608101
1780563504275276300,11.4622763671875,7.041745185852051,-6.8154802322387695,0.055153001099824905
1780563504294793000,11.48179296875,7.0530900955200195,-6.803359031677246,0.09065800160169601
1780563504314304300,11.50130419921875,7.069879055023193,-6.785511016845703,0.11676900088787079
1780563504333815800,11.52081591796875,7.0889410972595215,-6.7652740478515625,0.13408200442790985
1780563504353335000,11.5403349609375,7.1093430519104,-6.743634223937988,0.14368599653244019
1780563504372853800,11.559853759765625,7.128796100616455,-6.722990989685059,0.14713700115680695
1780563504392367400,11.579367431640625,7.144323825836182,-6.706470012664795,0.14790299534797668
1780563504411880700,11.598880615234375,7.155051231384277,-6.695001125335693,0.14903399348258972
1780563504431394800,11.618394775390625,7.162837028503418,-6.686605930328369,0.15191499888896942
1780563504450909400,11.637909423828125,7.1716461181640625,-6.677048206329346,0.1565449982881546
1780563504470422300,11.65742236328125,7.182819843292236,-6.664917945861816,0.1611430048942566
1780563504489938000,11.67693798828125,7.182819843292236,-6.664917945861816,0.1611430048942566
1780563504509462300,11.696462158203126,7.219005107879639,-6.625988960266113,0.1490669995546341
1780563504528982800,11.715982666015625,7.243680000305176,-6.599455833435059,0.12756900489330292
1780563504548494000,11.735494140625,7.273904800415039,-6.566678047180176,0.09505400061607361
1780563504568012300,11.75501220703125,7.273904800415039,-6.566678047180176,0.09505400061607361
1780563504587538000,11.774537841796874,7.273904800415039,-6.566678047180176,0.09505400061607361
1780563504607061800,11.794061767578125,7.353334903717041,-6.478306770324707,0.0030269999988377094
1780563504626583800,11.813583740234375,7.4018988609313965,-6.422483921051025,-0.0598439984023571
1780563504646104000,11.83310400390625,7.45791482925415,-6.356094837188721,-0.13988099992275238
1780563504665623300,11.852623291015625,7.521286964416504,-6.278059005737305,-0.23705799877643585
1780563504685144000,11.87214404296875,7.590762138366699,-6.1888041496276855,-0.34500399231910706
1780563504704665000,11.8916650390625,7.664208889007568,-6.090246200561523,-0.4569360017776489
1780563504724189200,11.911189208984375,7.739070892333984,-5.984332084655762,-0.5783979892730713
1780563504743713300,11.93071337890625,7.812527179718018,-5.874979019165039,-0.6993119716644287
1780563504763235000,11.950235107421875,7.877607822418213,-5.771490097045898,-0.8204789757728577
1780563504782762200,11.96976220703125,7.932535171508789,-5.676723003387451,-0.9432330131530762
1780563504802285000,11.98928515625,7.976110935211182,-5.592164993286133,-1.0720770359039307
1780563504821799700,12.008799560546874,8.008548736572266,-5.518947124481201,-1.201812982559204
1780563504841312300,12.028312255859374,8.031454086303711,-5.458208084106445,-1.3204929828643799
1780563504860823800,12.04782373046875,8.046687126159668,-5.410099983215332,-1.4218449592590332
1780563504880341000,12.067341064453124,8.059903144836426,-5.368931770324707,-1.500836968421936
1780563504899864600,12.086864501953125,8.071725845336914,-5.335626125335693,-1.555096983909607
1780563504919381800,12.1063818359375,8.082558631896973,-5.310009002685547,-1.5862009525299072
1780563504938892500,12.125892578125,8.09106159210205,-5.291526794433594,-1.604509949684143
1780563504958406100,12.14540625,8.096566200256348,-5.280953884124756,-1.6115659475326538
1780563504977923000,12.164923095703125,8.098670959472656,-5.278526782989502,-1.6089379787445068
1780563504997439200,12.184439208984376,8.097358703613281,-5.284071922302246,-1.5972939729690552
1780563505016947500,12.203947509765625,8.093114852905273,-5.296937942504883,-1.5760509967803955
1780563505036455400,12.223455322265625,8.086214065551758,-5.316342830657959,-1.5458450317382812
1780563505055967500,12.242967529296875,8.07656478881836,-5.341835975646973,-1.5079360008239746
1780563505075479000,12.26247900390625,8.064457893371582,-5.372618198394775,-1.4627050161361694
1780563505094990800,12.281990966796876,8.049379348754883,-5.410639762878418,-1.404440999031067
1780563505114503400,12.30150341796875,8.032869338989258,-5.45280122756958,-1.3341519832611084
1780563505134015200,12.32101513671875,8.014792442321777,-5.4991631507873535,-1.2499200105667114
1780563505153526800,12.34052685546875,7.9944682121276855,-5.549699783325195,-1.1529539823532104
1780563505173038000,12.3600380859375,7.971345901489258,-5.603658199310303,-1.0472029447555542
1780563505192546300,12.37954638671875,7.945621967315674,-5.659181118011475,-0.9384829998016357
1780563505212054500,12.399054443359375,7.918842792510986,-5.713890075683594,-0.826665997505188
1780563505231559200,12.41855908203125,7.8891191482543945,-5.770096778869629,-0.7125800251960754
1780563505251064000,12.43806396484375,7.855627059936523,-5.828188896179199,-0.6011070013046265
1780563505270581000,12.4575810546875,7.8182291984558105,-5.887582778930664,-0.501645028591156
1780563505290103800,12.477103759765624,7.777870178222656,-5.946969032287598,-0.42223599553108215
1780563505309620700,12.496620849609375,7.735857009887695,-6.005434036254883,-0.36230799555778503
1780563505329134000,12.516134033203125,7.694002151489258,-6.060884952545166,-0.3286300003528595
1780563505348648700,12.535648681640625,7.654393196105957,-6.1114630699157715,-0.31665199995040894
1780563505368162600,12.55516259765625,7.654393196105957,-6.1114630699157715,-0.31665199995040894
1780563505387680500,12.574680419921876,7.654393196105957,-6.1114630699157715,-0.31665199995040894
1780563505407202000,12.5942021484375,7.588550090789795,-6.192938804626465,-0.31844499707221985
1780563505426718200,12.61371826171875,7.561644077301025,-6.225640773773193,-0.3207859992980957
1780563505446234400,12.633234375,7.538716793060303,-6.253345966339111,-0.3215450048446655
1780563505465755000,12.6527548828125,7.52033805847168,-6.275431156158447,-0.32166099548339844
1780563505485271300,12.672271240234375,7.506629943847656,-6.291790962219238,-0.32230499386787415
1780563505504782800,12.691782958984374,7.496396064758301,-6.303791046142578,-0.3259980082511902
1780563505524296200,12.711296142578124,7.489437103271484,-6.312257766723633,-0.3220750093460083
1780563505543815000,12.73081494140625,7.485825061798096,-6.3174967765808105,-0.30276599526405334
1780563505563334000,12.750333984375,7.485436916351318,-6.319464206695557,-0.26943299174308777
1780563505582842600,12.769842529296875,7.488182067871094,-6.317941188812256,-0.2252659946680069
1780563505602354400,12.7893544921875,7.494447231292725,-6.312107086181641,-0.17483800649642944
1780563505621875700,12.808875732421875,7.504601001739502,-6.301258087158203,-0.12291400134563446
1780563505641396000,12.82839599609375,7.518980026245117,-6.28482723236084,-0.07660800218582153
1780563505660918500,12.84791845703125,7.537128925323486,-6.263420104980469,-0.035218000411987305
1780563505680441000,12.867441162109374,7.55722713470459,-6.239254951477051,0.0037400000728666782
1780563505699959600,12.88695947265625,7.577364921569824,-6.214635848999023,0.042931001633405685
1780563505719478300,12.906478271484374,7.595716953277588,-6.191773891448975,0.08366400003433228
1780563505738999000,12.9259990234375,7.6113691329956055,-6.1718220710754395,0.1251399964094162
1780563505758521300,12.945521240234376,7.623619079589844,-6.155766010284424,0.16425099968910217
1780563505778041600,12.96504150390625,7.632266044616699,-6.14404821395874,0.1979829967021942
1780563505797553200,12.98455322265625,7.637681007385254,-6.136363983154297,0.225505992770195
1780563505817062000,13.004061767578126,7.639928817749023,-6.132692813873291,0.24808800220489502
1780563505836573200,13.0235732421875,7.6395978927612305,-6.13228178024292,0.2677080035209656
1780563505856082700,13.043082763671874,7.637646198272705,-6.133909225463867,0.28551799058914185
1780563505875590700,13.062590576171875,7.635292053222656,-6.1360602378845215,0.30177798867225647
1780563505895104500,13.0821044921875,7.634232044219971,-6.136653900146484,0.31616801023483276
1780563505914621400,13.101621337890625,7.635969161987305,-6.133882999420166,0.3277919888496399
1780563505934129400,13.12112939453125,7.641158103942871,-6.12698221206665,0.3358280062675476
1780563505953631500,13.140631591796875,7.649490833282471,-6.116396903991699,0.33908000588417053
1780563505973137200,13.16013720703125,7.659718036651611,-6.104020118713379,0.33112800121307373
1780563505992643800,13.179643798828126,7.672036170959473,-6.089566230773926,0.31149598956108093
1780563506012148200,13.199148193359376,7.68713903427124,-6.0721611976623535,0.27699199318885803
1780563506031656400,13.218656494140625,7.704837799072266,-6.051805019378662,0.22611500322818756
1780563506051168300,13.238168212890624,7.724031925201416,-6.02942419052124,0.15921400487422943
1780563506070677800,13.257677734375,7.743032932281494,-6.006606101989746,0.0782570019364357
1780563506090185000,13.27718505859375,7.761198043823242,-5.9836201667785645,-0.009425999596714973
1780563506109694500,13.296694580078125,7.777200222015381,-5.961819171905518,-0.10887999832630157
1780563506129202700,13.31620263671875,7.79018497467041,-5.941918849945068,-0.21589599549770355
1780563506148713200,13.335713134765625,7.799938201904297,-5.92400598526001,-0.3272770047187805
1780563506168225000,13.35522509765625,7.799938201904297,-5.92400598526001,-0.3272770047187805
1780563506187731200,13.374731201171874,7.799938201904297,-5.92400598526001,-0.3272770047187805
1780563506207240000,13.394239990234375,7.8039679527282715,-5.902871131896973,-0.5423960089683533
1780563506226755600,13.413755615234376,7.800583839416504,-5.897282123565674,-0.6426029801368713
1780563506246270000,13.43327001953125,7.794544219970703,-5.89516019821167,-0.7294989824295044
1780563506265779200,13.452779296875,7.785865783691406,-5.897129058837891,-0.8025869727134705
1780563506285284600,13.47228466796875,7.775381088256836,-5.902653217315674,-0.8614649772644043
1780563506304791800,13.491791748046875,7.766891002655029,-5.9064531326293945,-0.9106190204620361
1780563506324306200,13.51130615234375,7.760321140289307,-5.908792972564697,-0.9505670070648193
1780563506343822000,13.530822021484376,7.756049156188965,-5.90907096862793,-0.9831439852714539
1780563506363337500,13.55033740234375,7.754542827606201,-5.906919002532959,-1.0076570510864258
1780563506382861600,13.569861572265625,7.755984783172607,-5.902742862701416,-1.0209460258483887
1780563506402386200,13.58938623046875,7.760083198547363,-5.897256851196289,-1.0215059518814087
1780563506421906000,13.608906005859374,7.76682186126709,-5.890167236328125,-1.0111349821090698
1780563506441427200,13.62842724609375,7.7757182121276855,-5.8813958168029785,-0.9936730265617371
1780563506460945400,13.6479453125,7.786022186279297,-5.871275901794434,-0.9726139903068542
1780563506480464100,13.667464111328124,7.796759128570557,-5.860675811767578,-0.9502760171890259
1780563506499981300,13.686981201171875,7.806894779205322,-5.850622177124023,-0.9287639856338501
1780563506519494400,13.706494384765625,7.815600872039795,-5.842018127441406,-0.9095010161399841
1780563506539006500,13.72600634765625,7.8226141929626465,-5.835140228271484,-0.8932219743728638
1780563506558515700,13.745515625,7.828436851501465,-5.829348087310791,-0.8799260258674622
1780563506578030600,13.765030517578126,7.833683013916016,-5.824031829833984,-0.8683620095252991
1780563506597553400,13.784553466796876,7.838741779327393,-5.818932056427002,-0.8568170070648193
1780563506617071400,13.8040712890625,7.844429016113281,-5.813289165496826,-0.8429700136184692
1780563506636584000,13.823583984375,7.851716041564941,-5.806125164031982,-0.8242930173873901
1780563506656100600,13.8431005859375,7.861433029174805,-5.7964677810668945,-0.7992619872093201
1780563506675612400,13.8626123046875,7.8740410804748535,-5.783508777618408,-0.7684329748153687
1780563506695119000,13.882119140625,7.886723041534424,-5.770431995391846,-0.7360010147094727
1780563506714633000,13.901633056640625,7.89832878112793,-5.758150100708008,-0.7071939706802368
1780563506734148400,13.9211484375,7.90661096572876,-5.749228000640869,-0.6869339942932129
1780563506753660000,13.940659912109375,7.909908771514893,-5.745701789855957,-0.678417980670929
1780563506773173200,13.96017333984375,7.910337924957275,-5.744225025177002,-0.6858739852905273
1780563506792688400,13.9796884765625,7.907894134521484,-5.744976997375488,-0.7074260115623474
1780563506812204800,13.999204833984376,7.906459808349609,-5.742906093597412,-0.7395300269126892
1780563506831723300,14.01872314453125,7.90732479095459,-5.736743927001953,-0.7771490216255188
1780563506851237400,14.0382373046875,7.911575794219971,-5.725551128387451,-0.8154900074005127
1780563506870749700,14.057749755859374,7.9192728996276855,-5.709628105163574,-0.8516179919242859
1780563506890261500,14.077261474609376,7.927468776702881,-5.6938557624816895,-0.880478024482727
1780563506909769700,14.096769775390625,7.936669826507568,-5.678843975067139,-0.8944230079650879
1780563506929275100,14.116275146484375,7.946420192718506,-5.665599822998047,-0.8918330073356628
1780563506948783000,14.135783203125,7.957330226898193,-5.653288841247559,-0.8724769949913025
1780563506968295400,14.15529541015625,7.957330226898193,-5.653288841247559,-0.8724769949913025
1780563506987808500,14.17480859375,7.957330226898193,-5.653288841247559,-0.8724769949913025
1780563507007324000,14.194323974609375,7.986295223236084,-5.619303226470947,-0.8261470198631287
1780563507026837000,14.2138369140625,8.003829956054688,-5.5981550216674805,-0.7996010184288025
1780563507046345700,14.233345703125,8.042473793029785,-5.549403190612793,-0.7501479983329773
1780563507065852000,14.252851806640624,8.042473793029785,-5.549403190612793,-0.7501479983329773
1780563507085359400,14.272359375,8.063470840454102,-5.522093772888184,-0.7258989810943604
1780563507104866300,14.2918662109375,8.084054946899414,-5.4963507652282715,-0.6915010213851929
1780563507124372700,14.311372802734375,8.10363483428955,-5.47264289855957,-0.6490600109100342
1780563507143885600,14.330885498046875,8.12120532989502,-5.452054023742676,-0.6009309887886047
1780563507163398100,14.350398193359375,8.13634204864502,-5.434741973876953,-0.5509439706802368
1780563507182908200,14.369908203125,8.149723052978516,-5.419357776641846,-0.502560019493103
1780563507202416600,14.389416748046875,8.161190032958984,-5.405852794647217,-0.4601449966430664
1780563507221926000,14.40892578125,8.17032527923584,-5.394824981689453,-0.4261859953403473
1780563507241439500,14.428439453125,8.176163673400879,-5.387699127197266,-0.40374699234962463
1780563507260956200,14.4479560546875,8.178736686706543,-5.384334087371826,-0.396467000246048
1780563507280471800,14.467471923828125,8.179535865783691,-5.3823018074035645,-0.40745699405670166
1780563507299985400,14.4869853515625,8.182774543762207,-5.375082969665527,-0.43665799498558044
1780563507319499000,14.5064990234375,8.190903663635254,-5.358951091766357,-0.48032599687576294
1780563507339012000,14.52601220703125,8.206313133239746,-5.330376148223877,-0.5324599742889404
1780563507358524200,14.545524169921874,8.230570793151855,-5.287018775939941,-0.58747798204422
1780563507378033400,14.565033447265625,8.263652801513672,-5.228764057159424,-0.6419309973716736
1780563507397540600,14.58454052734375,8.303903579711914,-5.157765865325928,-0.6947050094604492
1780563507417045500,14.60404541015625,8.346986770629883,-5.080265998840332,-0.7474709749221802
1780563507426797800,14.6137978515625,8.346986770629883,-5.080265998840332,-0.7474709749221802
1780563507456071200,14.6430712890625,8.433876991271973,-4.917002201080322,-0.856033980846405
1780563507475582500,14.66258251953125,8.475847244262695,-4.83433198928833,-0.9106230139732361
1780563507495093000,14.682093017578126,8.51590347290039,-4.752151012420654,-0.9677019715309143
1780563507514603800,14.701603759765625,8.552706718444824,-4.671052932739258,-1.0356019735336304
1780563507534118400,14.721118408203125,8.585798263549805,-4.59161901473999,-1.1140459775924683
1780563507553634300,14.74063427734375,8.6149263381958,-4.51397180557251,-1.2029529809951782
1780563507573151000,14.76015087890625,8.63998031616211,-4.440334796905518,-1.2938920259475708
1780563507592664800,14.779664794921874,8.662809371948242,-4.3681769371032715,-1.3837430477142334
1780563507612179700,14.7991796875,8.685074806213379,-4.295131206512451,-1.4701440334320068
1780563507631697200,14.818697265625,8.708525657653809,-4.220923900604248,-1.5444660186767578
1780563507651215600,14.838215576171875,8.733503341674805,-4.145855903625488,-1.6055500507354736
1780563507670738700,14.85773876953125,8.759075164794922,-4.072784900665283,-1.652575969696045
1780563507690262300,14.87726220703125,8.784180641174316,-3.999260902404785,-1.698259949684143
1780563507709782500,14.896782470703124,8.80822467803955,-3.9269680976867676,-1.741866946220398
1780563507729300200,14.91630029296875,8.831291198730469,-3.8567581176757812,-1.7814890146255493
1780563507748814600,14.935814697265625,8.853507041931152,-3.790182113647461,-1.813815951347351
1780563507768329700,14.955329833984376,8.874250411987305,-3.730426073074341,-1.8361910581588745
1780563507787852500,14.9748525390625,8.874250411987305,-3.730426073074341,-1.8361910581588745
1780563507807376400,14.99437646484375,8.92097282409668,-3.620361089706421,-1.8300889730453491
1780563507826898700,15.013898681640624,8.976588249206543,-3.5177600383758545,-1.7567670345306396
1780563507885467000,15.072466796875,9.005672454833984,-3.4725561141967773,-1.6968239545822144
1780563507904988000,15.09198779296875,9.034154891967773,-3.433868885040283,-1.622521996498108
1780563507924504000,15.111504150390624,9.058777809143066,-3.405890941619873,-1.5422229766845703
1780563507944019500,15.13101953125,9.078489303588867,-3.3893299102783203,-1.460644006729126
1780563507963533600,15.150533447265625,9.092818260192871,-3.383708953857422,-1.382446050643921
1780563507983049000,15.170049072265625,9.102336883544922,-3.3872718811035156,-1.309141993522644
1780563508002563800,15.189563720703125,9.109336853027344,-3.3944239616394043,-1.2401100397109985
1780563508022080800,15.209080810546874,9.11516284942627,-3.4018590450286865,-1.17522394657135
1780563508041601000,15.22860107421875,9.121237754821777,-3.405791997909546,-1.1151750087738037
1780563508061119500,15.248119384765625,9.128081321716309,-3.4029359817504883,-1.066841959953308
1780563508080635000,15.267634765625,9.136470794677734,-3.3920140266418457,-1.0291459560394287
1780563508100146200,15.287146240234375,9.146879196166992,-3.372083902359009,-1.0018279552459717
1780563508119658200,15.306658203125,9.159445762634277,-3.34265398979187,-0.9855049848556519
1780563508139177500,15.326177490234375,9.173735618591309,-3.304452896118164,-0.9814069867134094
1780563508158697000,15.345697021484375,9.188973426818848,-3.2596099376678467,-0.9887890219688416
1780563508178219000,15.365218994140625,9.205124855041504,-3.210258960723877,-0.9999529719352722
1780563508197743000,15.3847431640625,9.221240997314453,-3.1584389209747314,-1.0163530111312866
1780563508217263400,15.404263427734374,9.236466407775879,-3.1062328815460205,-1.0387519598007202
1780563508236785700,15.42378564453125,9.250243186950684,-3.055501937866211,-1.0662579536437988
1780563508256311300,15.443311279296875,9.262392044067383,-3.0077569484710693,-1.0961300134658813
1780563508275836000,15.4628359375,9.27342414855957,-2.962620973587036,-1.125380039215088
1780563508295357700,15.482357666015625,9.283984184265137,-2.9191160202026367,-1.151695966720581
1780563508314878000,15.5018779296875,9.295265197753906,-2.8741350173950195,-1.173622965812683
1780563508334398700,15.521398681640624,9.308700561523438,-2.822999954223633,-1.1911150217056274
1780563508353922600,15.540922607421875,9.325363159179688,-2.761543035507202,-1.2047770023345947
1780563508373447000,15.560447021484375,9.34598159790039,-2.686566114425659,-1.2144850492477417
1780563508392971000,15.579970947265625,9.36931037902832,-2.5996880531311035,-1.2237800359725952
1780563508412492000,15.599491943359375,9.39477252960205,-2.5018959045410156,-1.2323720455169678
1780563508432010200,15.61901025390625,9.421031951904297,-2.3966500759124756,-1.2410540580749512
1780563508451534000,15.6385341796875,9.44681167602539,-2.288374900817871,-1.249439001083374
1780563508471063000,15.65806298828125,9.471833229064941,-2.1777091026306152,-1.2577630281448364
1780563508490590500,15.677590576171875,9.495137214660645,-2.067188024520874,-1.2685070037841797
1780563508510113000,15.697113037109375,9.517080307006836,-1.956902027130127,-1.2789570093154907
1780563508529635300,15.71663525390625,9.537792205810547,-1.846519947052002,-1.288748025894165
1780563508549161000,15.736160888671876,9.55750846862793,-1.7359050512313843,-1.2964099645614624
1780563508568685000,15.75568505859375,9.576210975646973,-1.6255760192871094,-1.3014179468154907
1780563508588214000,15.775214111328125,9.576210975646973,-1.6255760192871094,-1.3014179468154907
1780563508607737600,15.794737548828126,9.576210975646973,-1.6255760192871094,-1.3014179468154907
1780563508627253800,15.814253662109374,9.60910701751709,-1.4148839712142944,-1.305053949356079
1780563508646778000,15.833778076171875,9.623398780822754,-1.3161749839782715,-1.303030014038086
1780563508666306600,15.853306640625,9.636161804199219,-1.2236260175704956,-1.2988909482955933
1780563508685833500,15.87283349609375,9.647371292114258,-1.1376359462738037,-1.2938339710235596
1780563508705353000,15.89235302734375,9.657039642333984,-1.0580689907073975,-1.2892160415649414
1780563508724876300,15.911876220703125,9.665311813354492,-0.9838489890098572,-1.2859970331192017
1780563508744399600,15.931399658203125,9.6724214553833,-0.9136360287666321,-1.284345030784607
1780563508763917800,15.950917724609376,9.67852783203125,-0.8461130261421204,-1.284600019454956
1780563508783432400,15.970432373046876,9.683676719665527,-0.7812460064888,-1.2868809700012207
1780563508802950100,15.9899501953125,9.68809700012207,-0.7198290228843689,-1.2894259691238403
1780563508822470100,16.00947021484375,9.692037582397461,-0.6624389886856079,-1.290578007698059
1780563508841982700,16.028982666015626,9.695685386657715,-0.6085780262947083,-1.2896959781646729
1780563508861494500,16.04849462890625,9.699130058288574,-0.5568289756774902,-1.2871739864349365
1780563508881014300,16.06801416015625,9.702346801757812,-0.5061249732971191,-1.283866047859192
1780563508900536800,16.087536865234377,9.705370903015137,-0.45610201358795166,-1.279742956161499
1780563508920057600,16.1070576171875,9.708154678344727,-0.4080770015716553,-1.2748390436172485
1780563508939577900,16.126577880859376,9.710588455200195,-0.36490198969841003,-1.2693779468536377
1780563508959099400,16.146099365234374,9.712624549865723,-0.3293150067329407,-1.263519048690796
1780563508978617300,16.165617431640626,9.714136123657227,-0.30289098620414734,-1.2584999799728394
1780563508998133000,16.185133056640623,9.715051651000977,-0.28522101044654846,-1.2555530071258545
1780563509017651200,16.204651123046876,9.71536636352539,-0.2747890055179596,-1.2554529905319214
1780563509037175000,16.224175048828126,9.715060234069824,-0.26886600255966187,-1.2590960264205933
1780563509056702000,16.243701904296874,9.714242935180664,-0.2642990052700043,-1.266347050666809
1780563509076226600,16.2632265625,9.713081359863281,-0.25944098830223083,-1.2762260437011719
1780563509095747800,16.282747802734374,9.711861610412598,-0.2539939880371094,-1.286553978919983
1780563509115265800,16.302265869140626,9.710882186889648,-0.24800999462604523,-1.2950960397720337
1780563509134786600,16.32178662109375,9.710223197937012,-0.24197399616241455,-1.3011629581451416
1780563509154306800,16.341306884765626,9.709929466247559,-0.23691000044345856,-1.3042830228805542
1780563509173822700,16.36082275390625,9.710023880004883,-0.23329399526119232,-1.30423104763031
1780563509193338000,16.380338134765626,9.710516929626465,-0.23047900199890137,-1.3010540008544922
1780563509212854800,16.399854736328123,9.711272239685059,-0.2287909984588623,-1.295704960823059
1780563509232373000,16.419373046875,9.712122917175293,-0.2284809947013855,-1.2893669605255127
1780563509251893800,16.438893798828126,9.713042259216309,-0.2293500006198883,-1.2822669744491577
1780563509271416300,16.458416259765624,9.71407699584961,-0.23114199936389923,-1.2740809917449951
1780563509290936800,16.477936767578125,9.715275764465332,-0.2340250015258789,-1.2643779516220093
1780563509310454300,16.497454345703126,9.716656684875488,-0.2387859970331192,-1.2528250217437744
1780563509329973000,16.516972900390623,9.71827220916748,-0.24504800140857697,-1.2390029430389404
1780563509349494000,16.536493896484377,9.72014045715332,-0.252593994140625,-1.2227269411087036
1780563509369011700,16.55601171875,9.722260475158691,-0.26130199432373047,-1.2039070129394531
1780563509388522800,16.575522705078125,9.724556922912598,-0.2705470025539398,-1.1831300258636475
1780563509408034800,16.595034912109377,9.724556922912598,-0.2705470025539398,-1.1831300258636475
1780563509427551000,16.614551025390625,9.724556922912598,-0.2705470025539398,-1.1831300258636475
1780563509447069700,16.634069580078126,9.729151725769043,-0.2879149913787842,-1.1404860019683838
1780563509466586600,16.653586669921875,9.731080055236816,-0.2963089942932129,-1.1217260360717773
1780563509486102500,16.6731025390625,9.732606887817383,-0.30496498942375183,-1.106057047843933
1780563509505620700,16.692620849609376,9.733699798583984,-0.3139890134334564,-1.0938390493392944
1780563509525142300,16.712142333984374,9.734468460083008,-0.32333099842071533,-1.084238052368164
1780563509544665900,16.731665771484376,9.735014915466309,-0.3329769968986511,-1.0763859748840332
1780563509564191700,16.751191650390624,9.735486030578613,-0.3425399959087372,-1.0691059827804565
1780563509583713000,16.770713134765625,9.735968589782715,-0.35154199600219727,-1.061758041381836
1780563509603230700,16.790230712890626,9.736459732055664,-0.3598949909210205,-1.0544350147247314
1780563509622752800,16.809752685546876,9.736907958984375,-0.3675059974193573,-1.0476399660110474
1780563509642278100,16.829278076171875,9.737272262573242,-0.3745039999485016,-1.0417670011520386
1780563509661800400,16.848800537109376,9.73752212524414,-0.38117799162864685,-1.0369980335235596
1780563509681319000,16.86831884765625,9.737640380859375,-0.38772499561309814,-1.033452033996582
1780563509700837600,16.887837646484375,9.737666130065918,-0.3934740126132965,-1.0310369729995728
1780563509720354000,16.90735400390625,9.737605094909668,-0.3984380066394806,-1.0297050476074219
1780563509739872300,16.926872314453124,9.737446784973145,-0.40340399742126465,-1.0292680263519287
1780563509759394300,16.946394287109374,9.73721694946289,-0.4080120027065277,-1.0296310186386108
