time,seconds_elapsed,z,y,x
1781033166967608300,0.3696083984375,-30.712501525878906,6.956250190734863,63.50625228881836
1781033166987902200,0.389902099609375,-27.48750114440918,6.562500476837158,64.06875610351562
1781033167008043500,0.41004345703125,-25.368751525878906,6.093750476837158,65.8687515258789
1781033167027829200,0.429829345703125,-26.062501907348633,6.487500190734863,65.70000457763672
1781033167047902000,0.44990185546875,-25.200000762939453,5.943750381469727,63.76875305175781
1781033167067898600,0.469898681640625,-26.962501525878906,3.8625001907348633,63.76875305175781
1781033167087895300,0.489895263671875,-26.45625114440918,2.325000047683716,64.01250457763672
1781033167108128300,0.510128173828125,-23.53125,1.7812501192092896,62.250003814697266
1781033167128125000,0.530125,-20.83125114440918,1.2750000953674316,60.91875076293945
1781033167148121600,0.55012158203125,-19.89375114440918,0.9187500476837158,61.500003814697266
1781033167168126000,0.5701259765625,-19.59375,-1.1812500953674316,61.687503814697266
1781033167188122600,0.59012255859375,-17.756250381469727,-3.4312500953674316,60.187503814697266
1781033167208127000,0.610126953125,-17.306251525878906,-4.256250381469727,59.45625305175781
1781033167227894800,0.629894775390625,-17.55000114440918,-4.481250286102295,59.025001525878906
1781033167247891500,0.649891357421875,-18.712501525878906,-4.706250190734863,58.181251525878906
1781033167267895600,0.6698955078125,-19.087501525878906,-5.981250286102295,59.08125305175781
1781033167287892200,0.689892333984375,-17.25,-6.768750190734863,59.400001525878906
1781033167308125400,0.71012548828125,-15.862500190734863,-8.793750762939453,57.900001525878906
1781033167328129500,0.730129638671875,-16.51875114440918,-9.112500190734863,58.72500228881836
1781033167348126200,0.750126220703125,-17.193750381469727,-9.693750381469727,58.66875076293945
1781033167368123000,0.770122802734375,-17.25,-11.231250762939453,55.57500076293945
1781033167388127000,0.790126953125,-16.80000114440918,-12.075000762939453,54.63750076293945
1781033167408123600,0.81012353515625,-16.275001525878906,-12.768750190734863,55.81875228881836
1781033167427891700,0.8298916015625,-15.787500381469727,-12.90000057220459,56.83125305175781
1781033167447895800,0.849895751953125,-15.787500381469727,-12.90000057220459,56.83125305175781
1781033167467892500,0.869892578125,-13.950000762939453,-13.293750762939453,56.98125076293945
1781033167487896800,0.889896728515625,-15.318750381469727,-14.325000762939453,55.85625076293945
1781033167508129800,0.9101298828125,-16.5,-15.600000381469727,53.85000228881836
1781033167528126500,0.93012646484375,-14.02500057220459,-14.700000762939453,53.51250076293945
1781033167548130600,0.950130615234375,-13.350000381469727,-15.131250381469727,52.837501525878906
1781033167568127200,0.970127197265625,-14.475000381469727,-16.106250762939453,52.51875305175781
1781033167588131600,0.990131591796875,-14.906250953674316,-15.862500190734863,53.17500305175781
1781033167608136000,1.010135986328125,-15.843750953674316,-16.70625114440918,51.843753814697266
1781033167627896000,1.02989599609375,-12.562500953674316,-17.90625,46.48125076293945
1781033167647900400,1.049900390625,-12.562500953674316,-17.90625,46.48125076293945
1781033167667897000,1.06989697265625,-12.300000190734863,-18.86250114440918,46.368751525878906
1781033167687863000,1.089863037109375,-14.081250190734863,-18.712501525878906,48.281253814697266
1781033167707966500,1.109966552734375,-14.550000190734863,-18.95625114440918,47.41875076293945
1781033167747511000,1.149510986328125,-14.96250057220459,-19.856250762939453,48.16875076293945
1781033167787679700,1.1896796875,-17.212501525878906,-19.537500381469727,49.66875076293945
1781033167807889400,1.209889404296875,-17.868751525878906,-21.318750381469727,48.656253814697266
1781033167827893000,1.22989306640625,-21.5625,-21.600000381469727,46.78125
1781033167847890000,1.249889892578125,-21.5625,-21.600000381469727,46.78125
1781033167867886300,1.26988623046875,-20.15625,-21.506250381469727,48.45000076293945
1781033167887890700,1.289890625,-20.34375,-20.193750381469727,50.681251525878906
1781033167908124000,1.3101240234375,-20.756250381469727,-20.08125114440918,52.14375305175781
1781033167928120300,1.330120361328125,-19.61250114440918,-21.337501525878906,50.962501525878906
1781033167948124700,1.350124755859375,-19.200000762939453,-21,50.36250305175781
1781033167968121300,1.370121337890625,-18.975000381469727,-21.225000381469727,49.931251525878906
1781033167988125400,1.39012548828125,-18.09375,-21.318750381469727,48.86250305175781
1781033168008129800,1.4101298828125,-17.212501525878906,-19.96875,49.01250076293945
1781033168027897600,1.429897705078125,-19.462501525878906,-20.681251525878906,49.368751525878906
1781033168047902200,1.449902099609375,-19.462501525878906,-20.681251525878906,49.368751525878906
1781033168067898600,1.469898681640625,-18.375,-19.80000114440918,48.41250228881836
1781033168087895300,1.489895263671875,-18.09375,-19.5,50.10000228881836
1781033168108128300,1.510128173828125,-19.650001525878906,-18.131250381469727,52.76250076293945
1781033168128125000,1.530125,-20.587501525878906,-17.55000114440918,52.63125228881836
1781033168148121600,1.55012158203125,-19.89375114440918,-19.59375,51.150001525878906
1781033168168125700,1.570125732421875,-19.89375114440918,-19.80000114440918,50.92500305175781
1781033168188122400,1.590122314453125,-18.375,-16.950000762939453,50.587501525878906
1781033168208126700,1.610126708984375,-16.98750114440918,-17.71875,50.906253814697266
1781033168227894500,1.62989453125,-21.431251525878906,-17.83125114440918,54.056251525878906
1781033168247891200,1.64989111328125,-21.431251525878906,-17.83125114440918,54.056251525878906
1781033168267895600,1.6698955078125,-20.100000381469727,-17.0625,54.13125228881836
1781033168287892200,1.689892333984375,-20.100000381469727,-17.0625,54.13125228881836
1781033168308125200,1.710125244140625,-20.100000381469727,-17.0625,54.13125228881836
1781033168328129500,1.730129638671875,-18.975000381469727,-17.568750381469727,52.61250305175781
1781033168348126200,1.750126220703125,-21.506250381469727,-17.8125,51.58125305175781
1781033168368122600,1.77012255859375,-19.5,-17.475000381469727,51.16875076293945
1781033168388127000,1.790126953125,-20.34375,-18.337501525878906,52.33125305175781
1781033168408123600,1.81012353515625,-21.712501525878906,-18.356250762939453,51.91875076293945
1781033168427891700,1.8298916015625,-17.231250762939453,-17.568750381469727,50.306251525878906
1781033168447895800,1.849895751953125,-19.51875114440918,-18.375,49.406253814697266
1781033168467892500,1.869892578125,-22.012500762939453,-18.131250381469727,49.66875076293945
1781033168487843300,1.88984326171875,-20.006250381469727,-17.400001525878906,49.51875305175781
1781033168507939000,1.90993896484375,-20.193750381469727,-18.337501525878906,49.837501525878906
1781033168547757800,1.9497578125,-22.481250762939453,-18.9375,48.95625305175781
1781033168567807700,1.969807861328125,-22.856250762939453,-20.17500114440918,50.493751525878906
1781033168587942000,1.98994189453125,-22.762500762939453,-20.193750381469727,52.98750305175781
1781033168608181800,2.010181640625,-20.756250381469727,-20.287500381469727,51.91875076293945
1781033168627888600,2.029888671875,-21.67500114440918,-20.100000381469727,51.525001525878906
1781033168647885300,2.04988525390625,-23.043750762939453,-20.512500762939453,51.07500076293945
1781033168667889400,2.069889404296875,-22.162500381469727,-21,49.76250076293945
1781033168687886300,2.08988623046875,-22.818750381469727,-21.731250762939453,50.118751525878906
1781033168708126700,2.110126708984375,-25.256250381469727,-20.700000762939453,53.38125228881836
1781033168728131000,2.130131103515625,-25.293750762939453,-18.75,53.79375076293945
1781033168748127700,2.150127685546875,-23.943750381469727,-18.600000381469727,53.38125228881836
1781033168768131800,2.1701318359375,-23.45625114440918,-18.95625114440918,53.962501525878906
1781033168788128500,2.19012841796875,-26.381250381469727,-18.637500762939453,55.275001525878906
1781033168808125200,2.210125244140625,-28.443750381469727,-17.36250114440918,56.47500228881836
1781033168827893200,2.229893310546875,-26.64375114440918,-17.287500381469727,55.218753814697266
1781033168847889700,2.2498896484375,-23.4375,-17.887500762939453,55.53750228881836
1781033168867886600,2.269886474609375,-23.475000381469727,-18.168750762939453,54.26250076293945
1781033168887891000,2.289890869140625,-24.600000381469727,-17.53125,54.750003814697266
1781033168908124000,2.3101240234375,-26.193750381469727,-16.875,55.875003814697266
1781033168928120600,2.33012060546875,-27.637500762939453,-15.99375057220459,54.525001525878906
1781033168948124700,2.350124755859375,-27.412500381469727,-15.225000381469727,54.39375305175781
1781033168968121300,2.370121337890625,-28.33125114440918,-13.968750953674316,55.80000305175781
1781033168988125700,2.390125732421875,-28.500001907348633,-10.96875,60.07500076293945
1781033169008129800,2.4101298828125,-31.05000114440918,-8.15625,61.44375228881836
1781033169027897900,2.42989794921875,-34.275001525878906,-5.981250286102295,61.931251525878906
1781033169047902000,2.44990185546875,-32.28750228881836,-4.106250286102295,61.48125076293945
1781033169067898600,2.469898681640625,-32.587501525878906,-2.0062501430511475,61.29375076293945
1781033169087895300,2.489895263671875,-35.64375305175781,0.8812500238418579,60.806251525878906
1781033169108128300,2.510128173828125,-35.79375076293945,5.043750286102295,60.01875305175781
1781033169128125000,2.530125,-36.30000305175781,8.21250057220459,61.20000076293945
1781033169148121300,2.550121337890625,-35.51250076293945,11.568750381469727,60.11250305175781
1781033169168125700,2.570125732421875,-34.087501525878906,14.831250190734863,57.525001525878906
1781033169188122400,2.590122314453125,-33.30000305175781,18.01875114440918,56.41875076293945
1781033169208126500,2.61012646484375,-32.681251525878906,19.275001525878906,55.500003814697266
1781033169227894500,2.62989453125,-34.20000076293945,22.05000114440918,53.531253814697266
1781033169247891200,2.64989111328125,-33.525001525878906,28.593751907348633,51.31875228881836
1781033169267895600,2.6698955078125,-32.36250305175781,31.181251525878906,47.41875076293945
1781033169287831000,2.6898310546875,-32.98125076293945,32.66250228881836,43.837501525878906
1781033169307942700,2.709942626953125,-33.1875,37.29375076293945,41.23125076293945
1781033169347472400,2.749472412109375,-27.58125114440918,41.587501525878906,35.19375228881836
1781033169387655700,2.78965576171875,-25.068750381469727,47.04375076293945,25.968751907348633
1781033169407888000,2.809887939453125,-26.662500381469727,49.406253814697266,21.037500381469727
1781033169427891700,2.8298916015625,-27.056251525878906,50.23125076293945,16.350000381469727
1781033169447896000,2.84989599609375,-24.037500381469727,49.837501525878906,11.49375057220459
1781033169467892500,2.869892578125,-22.59375,48.656253814697266,5.71875
1781033169487896800,2.889896728515625,-22.950000762939453,48.54375076293945,1.5562500953674316
1781033169508129800,2.9101298828125,-22.668750762939453,49.16250228881836,-3.3937501907348633
1781033169528126200,2.930126220703125,-21.95625114440918,49.33125305175781,-8.981250762939453
1781033169548130600,2.950130615234375,-22.725000381469727,47.71875,-12.918750762939453
1781033169568127500,2.97012744140625,-22.80000114440918,46.70625305175781,-16.350000381469727
1781033169588131800,2.9901318359375,-22.6875,46.23750305175781,-20.15625
1781033169608136200,3.01013623046875,-22.462501525878906,44.19375228881836,-22.03125
1781033169627896300,3.029896240234375,-24.243751525878906,41.45625305175781,-22.931251525878906
1781033169647892700,3.049892822265625,-22.6875,40.95000076293945,-24.468751907348633
1781033169667889400,3.069889404296875,-22.725000381469727,39.41250228881836,-27.131250381469727
1781033169687886000,3.089885986328125,-27.093751907348633,37.72500228881836,-29.981250762939453
1781033169708126700,3.110126708984375,-25.725000381469727,36.69375228881836,-30.731250762939453
1781033169728131000,3.130131103515625,-25.875001907348633,34.80000305175781,-30.318750381469727
1781033169748127700,3.150127685546875,-28.012500762939453,34.66875076293945,-32.60625076293945
1781033169768131800,3.1701318359375,-26.231250762939453,34.10625076293945,-34.76250076293945
1781033169788128500,3.19012841796875,-23.700000762939453,33.375,-34.03125
1781033169808125200,3.210125244140625,-22.068750381469727,33.41250228881836,-33.20625305175781
1781033169827893000,3.22989306640625,-21.131250381469727,31.818750381469727,-33.806251525878906
1781033169847889700,3.2498896484375,-20.4375,30.412500381469727,-34.59375
1781033169867886600,3.269886474609375,-23.381250381469727,31.51875114440918,-32.98125076293945
1781033169887891000,3.289890869140625,-26.568750381469727,32.775001525878906,-31.968751907348633
1781033169908124000,3.3101240234375,-23.681251525878906,32.19375228881836,-34.368751525878906
1781033169928120600,3.33012060546875,-22.05000114440918,32.41875076293945,-33.525001525878906
1781033169948124400,3.35012451171875,-22.481250762939453,32.70000076293945,-32.4375
1781033169968121000,3.37012109375,-21.375,33,-33.243751525878906
1781033169988125400,3.39012548828125,-22.743751525878906,35.70000076293945,-30.86250114440918
1781033170008129800,3.4101298828125,-22.950000762939453,38.17500305175781,-28.312501907348633
1781033170027897600,3.429897705078125,-19.556251525878906,39.900001525878906,-27.731250762939453
1781033170047902000,3.44990185546875,-19.33125114440918,40.125,-27.30000114440918
1781033170067906000,3.469906005859375,-19.931251525878906,39.9375,-24.600000381469727
1781033170087887600,3.4898876953125,-15.300000190734863,40.63125228881836,-22.068750381469727
1781033170107975700,3.5099755859375,-15.037500381469727,42.73125076293945,-19.350000381469727
1781033170147528200,3.549528076171875,-18.825000762939453,47.66250228881836,-12.750000953674316
1781033170187689000,3.58968896484375,-19.087501525878906,51.01875305175781,-3.6187500953674316
1781033170207891200,3.60989111328125,-19.462501525878906,51.843753814697266,-0.20625001192092896
1781033170227894500,3.62989453125,-20.493751525878906,52.275001525878906,3.187500238418579
1781033170247891200,3.64989111328125,-20.587501525878906,52.181251525878906,7.125000476837158
1781033170267895600,3.6698955078125,-20.4375,50.70000076293945,10.5
1781033170287892200,3.689892333984375,-24.131250381469727,49.743751525878906,15.43125057220459
1781033170308125200,3.710125244140625,-27.150001525878906,48.337501525878906,19.462501525878906
1781033170328129500,3.730129638671875,-29.231250762939453,46.14375305175781,23.212501525878906
1781033170348126200,3.750126220703125,-28.837501525878906,43.29375076293945,26.437501907348633
1781033170368122600,3.77012255859375,-27.67500114440918,40.33125305175781,30.881250381469727
1781033170388127000,3.790126953125,-28.80000114440918,38.47500228881836,37.14375305175781
1781033170408123600,3.81012353515625,-30.637500762939453,35.32500076293945,40.98750305175781
1781033170427891700,3.8298916015625,-32.962501525878906,31.05000114440918,42.82500076293945
1781033170447896000,3.84989599609375,-34.40625,27.993751525878906,45.22500228881836
1781033170467892500,3.869892578125,-34.6875,25.70625114440918,48.31875228881836
1781033170487896800,3.889896728515625,-32.25,21.375,49.89375305175781
1781033170508129800,3.9101298828125,-30.712501525878906,18.86250114440918,52.51875305175781
1781033170528126500,3.93012646484375,-29.681251525878906,15.825000762939453,53.41875076293945
1781033170548130800,3.950130859375,-29.400001525878906,12.300000190734863,52.42500305175781
1781033170568127500,3.97012744140625,-29.775001525878906,9.61875057220459,52.556251525878906
1781033170588131600,3.990131591796875,-29.887500762939453,6.412500381469727,53.250003814697266
1781033170608136000,4.010135986328125,-29.793750762939453,4.181250095367432,54.243751525878906
1781033170627896300,4.029896240234375,-30.01875114440918,1.9500000476837158,52.556251525878906
1781033170647892700,4.049892822265625,-30.656251907348633,-0.6187500357627869,51.45000076293945
1781033170667889400,4.069889404296875,-25.968751907348633,-3.637500047683716,53.156253814697266
1781033170687886000,4.089885986328125,-24.356250762939453,-5.0625,52.14375305175781
1781033170708126700,4.110126708984375,-24.825000762939453,-6.300000190734863,50.98125076293945
1781033170728131000,4.130131103515625,-23.662500381469727,-7.106250286102295,50.45625305175781
1781033170748127700,4.150127685546875,-22.05000114440918,-6.693750381469727,51.31875228881836
1781033170768132000,4.170132080078125,-21.337501525878906,-7.818750381469727,51.82500076293945
1781033170788128500,4.19012841796875,-22.03125,-9.487500190734863,49.76250076293945
1781033170808125200,4.210125244140625,-19.950000762939453,-10.875,49.593753814697266
1781033170827893000,4.22989306640625,-19.03125,-10.875,49.80000305175781
1781033170847889700,4.2498896484375,-18.58125114440918,-11.887500762939453,48.86250305175781
1781033170867894000,4.26989404296875,-19.21875,-14.043750762939453,48.20625305175781
1781033170887867600,4.28986767578125,-20.83125114440918,-14.456250190734863,47.55000305175781
1781033170907971000,4.30997119140625,-19.725000381469727,-12.300000190734863,48.39375305175781
1781033170947774200,4.349774169921875,-21.037500381469727,-13.55625057220459,49.312503814697266
1781033170967801300,4.36980126953125,-20.17500114440918,-12.862500190734863,48.337501525878906
1781033170987935200,4.389935302734375,-17.418750762939453,-14.49375057220459,47.73750305175781
1781033171008152600,4.410152587890625,-18.84375,-15.000000953674316,45.60000228881836
1781033171027890000,4.429889892578125,-18.20625114440918,-14.100000381469727,44.868751525878906
1781033171047894300,4.449894287109375,-17.71875,-16.3125,43.57500076293945
1781033171067891000,4.469890869140625,-16.856250762939453,-16.443750381469727,41.88750076293945
1781033171087887600,4.4898876953125,-14.643750190734863,-17.025001525878906,39.50625228881836
1781033171108128300,4.510128173828125,-15.731250762939453,-20.137500762939453,38.56875228881836
1781033171128125000,4.530125,-16.98750114440918,-21.918750762939453,40.462501525878906
1781033171148121600,4.55012158203125,-15.862500190734863,-21.168750762939453,40.33125305175781
1781033171168126000,4.5701259765625,-14.531250953674316,-20.868751525878906,39.50625228881836
1781033171188122400,4.590122314453125,-15.825000762939453,-22.106250762939453,40.650001525878906
1781033171208126700,4.610126708984375,-18.337501525878906,-22.481250762939453,40.40625
1781033171227894800,4.629894775390625,-16.78125,-20.92500114440918,40.78125
1781033171247891200,4.64989111328125,-12.468750953674316,-20.681251525878906,39.73125076293945
1781033171267895600,4.6698955078125,-12.918750762939453,-22.275001525878906,38.71875
1781033171287892000,4.68989208984375,-13.331250190734863,-22.78125,39.712501525878906
1781033171308125000,4.710125,-14.268750190734863,-21.993751525878906,39.806251525878906
1781033171328129300,4.73012939453125,-14.062500953674316,-20.64375114440918,39.95625305175781
1781033171348126000,4.7501259765625,-12.768750190734863,-21.618751525878906,37.33125305175781
1781033171368122600,4.77012255859375,-14.325000762939453,-22.96875,36.78750228881836
1781033171388127000,4.790126953125,-16.78125,-21.975000381469727,39.618751525878906
1781033171408123600,4.81012353515625,-17.71875,-20.212501525878906,40.03125
1781033171427891500,4.829891357421875,-16.78125,-20.15625,41.08125305175781
1781033171447895800,4.849895751953125,-17.681251525878906,-20.306251525878906,41.47500228881836
1781033171467892500,4.869892578125,-19.293750762939453,-20.71875,40.61250305175781
1781033171487896600,4.889896484375,-19.03125,-20.662500381469727,41.45625305175781
1781033171508129800,4.9101298828125,-18.806251525878906,-19.650001525878906,42.39375305175781
1781033171528126500,4.93012646484375,-19.931251525878906,-19.200000762939453,43.087501525878906
1781033171548130600,4.950130615234375,-17.64375114440918,-19.40625,43.23750305175781
1781033171568127200,4.970127197265625,-18.168750762939453,-18.918750762939453,41.83125305175781
1781033171588131600,4.990131591796875,-21.637500762939453,-16.743751525878906,42.11250305175781
1781033171608136000,5.010135986328125,-20.193750381469727,-17.17500114440918,44.34375
1781033171627896000,5.02989599609375,-17.662500381469727,-17.625,44.0625
1781033171647900400,5.049900390625,-17.043750762939453,-16.33125114440918,43.368751525878906
1781033171667897000,5.06989697265625,-19.743751525878906,-15.825000762939453,44.70000076293945
1781033171687802000,5.089802001953125,-22.275001525878906,-14.643750190734863,44.64375305175781
1781033171707883300,5.10988330078125,-22.575000762939453,-13.125000953674316,44.17500305175781
1781033171747640000,5.14964013671875,-20.45625114440918,-13.800000190734863,45.95625305175781
1781033171767736000,5.169736083984375,-22.668750762939453,-13.050000190734863,48.13125228881836
1781033171787892200,5.189892333984375,-23.587501525878906,-11.8125,49.125003814697266
1781033171808125200,5.210125244140625,-25.012500762939453,-10.518750190734863,48.22500228881836
1781033171827893200,5.229893310546875,-24.600000381469727,-9.787500381469727,47.681251525878906
1781033171847890000,5.249889892578125,-23.193750381469727,-9.506250381469727,49.16250228881836
1781033171867886300,5.26988623046875,-23.212501525878906,-9.375,48.54375076293945
1781033171887890700,5.289890625,-24.150001525878906,-9,48.187503814697266
1781033171908123600,5.31012353515625,-21.881250381469727,-7.837500095367432,48.69375228881836
1781033171928120300,5.330120361328125,-20.793750762939453,-8.77500057220459,46.5
1781033171948124700,5.350124755859375,-22.59375,-10.537500381469727,45.712501525878906
1781033171968121000,5.37012109375,-21.056251525878906,-9.43125057220459,45.39375305175781
1781033171988125400,5.39012548828125,-20.381250381469727,-8.231250762939453,46.14375305175781
1781033172008129800,5.4101298828125,-20.475000381469727,-10.59375,47.98125076293945
1781033172027897600,5.429897705078125,-20.700000762939453,-11.606250762939453,47.025001525878906
1781033172047902000,5.44990185546875,-20.943750381469727,-12.037500381469727,46.35000228881836
1781033172067898600,5.469898681640625,-19.743751525878906,-13.143750190734863,47.26875305175781
1781033172087895300,5.489895263671875,-20.193750381469727,-13.125000953674316,47.493751525878906
1781033172108128300,5.510128173828125,-19.6875,-15.487500190734863,46.80000305175781
1781033172128124700,5.530124755859375,-19.03125,-15.356250762939453,45.97500228881836
1781033172148121300,5.550121337890625,-18.225000381469727,-13.125000953674316,44.98125076293945
1781033172168125700,5.570125732421875,-16.106250762939453,-14.662500381469727,45.618751525878906
1781033172188122400,5.590122314453125,-14.943750381469727,-15.656250953674316,45.07500076293945
1781033172208126700,5.610126708984375,-15.90000057220459,-16.537500381469727,43.33125305175781
1781033172227894500,5.62989453125,-16.087501525878906,-18.28125,43.14375305175781
1781033172247891200,5.64989111328125,-14.737500190734863,-18.5625,42.056251525878906
1781033172267895600,5.6698955078125,-15.225000381469727,-18.84375,40.78125
1781033172287892200,5.689892333984375,-14.756250381469727,-19.837501525878906,40.462501525878906
1781033172308125200,5.710125244140625,-14.081250190734863,-20.700000762939453,39.31875228881836
1781033172328129500,5.730129638671875,-14.250000953674316,-22.40625,39.5625
1781033172348126200,5.750126220703125,-13.312500953674316,-22.106250762939453,41.025001525878906
1781033172368123000,5.770122802734375,-13.800000190734863,-21.1875,40.51875305175781
1781033172388127200,5.790127197265625,-12.168750762939453,-23.15625,40.06875228881836
1781033172408123600,5.81012353515625,-11.456250190734863,-24.337501525878906,39.73125076293945
1781033172427891700,5.8298916015625,-14.700000762939453,-22.96875,39.48750305175781
1781033172447895800,5.849895751953125,-13.312500953674316,-22.33125114440918,40.80000305175781
1781033172467892500,5.869892578125,-11.86875057220459,-22.368751525878906,43.275001525878906
1781033172487782400,5.889782470703125,-15.037500381469727,-22.106250762939453,43.556251525878906
1781033172507840500,5.909840576171875,-15.506250381469727,-22.725000381469727,42.86250305175781
1781033172547651300,5.9496513671875,-18.01875114440918,-22.293750762939453,43.14375305175781
1781033172567762400,5.969762451171875,-21.65625,-21.58125114440918,44.28750228881836
1781033172587933700,5.98993359375,-21.900001525878906,-18.1875,46.125
1781033172608173800,6.010173828125,-21.168750762939453,-17.850000381469727,48.22500228881836
1781033172627888400,6.029888427734375,-20.231250762939453,-19.012500762939453,48.30000305175781
1781033172647885000,6.049885009765625,-20.73750114440918,-17.493751525878906,48.056251525878906
1781033172667889400,6.069889404296875,-23.943750381469727,-15.468750953674316,48.91875076293945
1781033172687886000,6.089885986328125,-27.20625114440918,-13.518750190734863,48.750003814697266
1781033172708126700,6.110126708984375,-30.131250381469727,-11.756250381469727,51.468753814697266
1781033172728131000,6.130131103515625,-29.887500762939453,-10.293750762939453,53.306251525878906
1781033172748127500,6.15012744140625,-29.775001525878906,-7.106250286102295,52.181251525878906
1781033172768131800,6.1701318359375,-32.36250305175781,-4.200000286102295,52.10625076293945
1781033172788128500,6.19012841796875,-32.17500305175781,-2.8312501907348633,52.462501525878906
1781033172808125200,6.210125244140625,-33.84375,0.28125,52.81875228881836
1781033172827893000,6.22989306640625,-36.03750228881836,4.481250286102295,51.843753814697266
1781033172847889700,6.2498896484375,-34.53750228881836,6.318750381469727,50.98125076293945
1781033172867886300,6.26988623046875,-35.45625305175781,9.543750762939453,53.00625228881836
1781033172887890400,6.289890380859375,-37.40625,13.593750953674316,52.837501525878906
1781033172908123400,6.310123291015625,-39.39375305175781,16.293750762939453,50.025001525878906
1781033172928120000,6.3301201171875,-39.76875305175781,19.443750381469727,48.30000305175781
1781033172948124400,6.35012451171875,-35.98125076293945,22.05000114440918,47.92500305175781
1781033172968121000,6.37012109375,-35.17500305175781,25.650001525878906,47.47500228881836
1781033172988125200,6.390125244140625,-38.10000228881836,29.118751525878906,44.34375
1781033173008129500,6.410129638671875,-38.775001525878906,32.55000305175781,41.17500305175781
1781033173027897600,6.429897705078125,-38.73750305175781,35.98125076293945,38.212501525878906
1781033173047901700,6.449901611328125,-36.337501525878906,37.72500228881836,35.88750076293945
1781033173067898400,6.4698984375,-34.743751525878906,39.03750228881836,30.39375114440918
1781033173087895000,6.48989501953125,-35.587501525878906,40.33125305175781,26.793750762939453
1781033173108128000,6.5101279296875,-33.86250305175781,42.30000305175781,25.125001907348633
1781033173128124700,6.530124755859375,-31.368751525878906,44.75625228881836,19.537500381469727
1781033173148121300,6.550121337890625,-29.943750381469727,46.40625,16.162500381469727
1781033173168125700,6.570125732421875,-29.568750381469727,46.38750076293945,13.237500190734863
1781033173188122400,6.590122314453125,-28.33125114440918,46.91250228881836,9.956250190734863
1781033173208126700,6.610126708984375,-28.931251525878906,48,6.131250381469727
1781033173227894800,6.629894775390625,-30.618751525878906,48.20625305175781,3.468750238418579
1781033173247891200,6.64989111328125,-31.125001907348633,45.28125,0.01875000074505806
1781033173267895300,6.669895263671875,-30.58125114440918,44.73750305175781,-4.837500095367432
1781033173287793000,6.68979296875,-29.775001525878906,44.64375305175781,-8.58750057220459
1781033173307866000,6.7098662109375,-28.275001525878906,44.00625228881836,-12.018750190734863
1781033173347631600,6.749631591796875,-26.156251907348633,45.46875,-15.412500381469727
1781033173367727600,6.7697275390625,-26.137500762939453,43.23750305175781,-17.118751525878906
1781033173387891500,6.789891357421875,-28.05000114440918,42.431251525878906,-20.71875
1781033173408123400,6.810123291015625,-27.281251907348633,42.337501525878906,-24.693750381469727
1781033173427891500,6.829891357421875,-25.012500762939453,40.66875076293945,-26.137500762939453
1781033173447895600,6.8498955078125,-23.606250762939453,38.0625,-27.281251907348633
1781033173467892200,6.869892333984375,-22.912500381469727,35.83125305175781,-28.968751907348633
1781033173487896600,6.889896484375,-22.443750381469727,35.4375,-29.025001525878906
1781033173508129500,6.910129638671875,-24.95625114440918,35.681251525878906,-28.762500762939453
1781033173528126200,6.930126220703125,-27.86250114440918,32.75625228881836,-29.681251525878906
1781033173548130600,6.950130615234375,-28.500001907348633,31.462501525878906,-29.193750381469727
1781033173568127200,6.970127197265625,-27.806251525878906,31.462501525878906,-29.193750381469727
1781033173588131300,6.99013134765625,-27.618751525878906,31.350000381469727,-30.67500114440918
1781033173608135700,7.0101357421875,-27.637500762939453,31.106250762939453,-31.312501907348633
1781033173627896000,7.02989599609375,-29.212501525878906,29.756250381469727,-31.875001907348633
1781033173647892700,7.049892822265625,-29.212501525878906,29.756250381469727,-31.875001907348633
1781033173667889400,7.069889404296875,-30.11250114440918,28.968751907348633,-32.36250305175781
1781033173687886000,7.089885986328125,-29.193750381469727,30.000001907348633,-31.012500762939453
1781033173708126700,7.110126708984375,-28.125001907348633,32.66250228881836,-31.14375114440918
1781033173728131000,7.130131103515625,-27.243751525878906,34.03125,-30.787500381469727
1781033173748127700,7.150127685546875,-27.412500381469727,34.181251525878906,-28.70625114440918
1781033173768131800,7.1701318359375,-26.250001907348633,35.64375305175781,-26.681251525878906
1781033173788128500,7.19012841796875,-25.106250762939453,36.86250305175781,-25.51875114440918
1781033173808125200,7.210125244140625,-24.693750381469727,39.431251525878906,-24.412500381469727
1781033173827893000,7.22989306640625,-22.087501525878906,43.087501525878906,-18.412500381469727
1781033173847889700,7.2498896484375,-22.087501525878906,43.087501525878906,-18.412500381469727
1781033173867886300,7.26988623046875,-21.600000381469727,45,-15.918750762939453
1781033173887890400,7.289890380859375,-22.23750114440918,46.556251525878906,-13.050000190734863
1781033173908123400,7.310123291015625,-21.20625114440918,47.625,-8.568750381469727
1781033173928120000,7.3301201171875,-21.056251525878906,47.36250305175781,-4.012500286102295
1781033173948124400,7.35012451171875,-23.868751525878906,49.80000305175781,2.7375001907348633
1781033173968121000,7.37012109375,-27.562501907348633,51.056251525878906,9.15000057220459
1781033173988125400,7.39012548828125,-29.400001525878906,48.525001525878906,13.481250762939453
1781033174008129800,7.4101298828125,-29.64375114440918,47.587501525878906,19.200000762939453
1781033174027897900,7.42989794921875,-32.23125076293945,39.84375,31.293750762939453
1781033174047902000,7.44990185546875,-32.23125076293945,39.84375,31.293750762939453
1781033174067906300,7.46990625,-34.6875,36.431251525878906,36.97500228881836
1781033174087841500,7.489841552734375,-37.76250076293945,29.906251907348633,41.92500305175781
1781033174107945700,7.50994580078125,-39.54375076293945,24,45.03750228881836
1781033174147702800,7.549702880859375,-38.79375076293945,13.537500381469727,52.01250076293945
1781033174167768000,7.56976806640625,-39.9375,7.725000381469727,53.681251525878906
1781033174187893800,7.589893798828125,-38.25,1.21875,51.50625228881836
1781033174208134100,7.610134033203125,-33.337501525878906,-3.937500238418579,50.26875305175781
1781033174227894500,7.62989453125,-27.243751525878906,-10.987500190734863,49.44375228881836
1781033174247891200,7.64989111328125,-27.243751525878906,-10.987500190734863,49.44375228881836
1781033174267895600,7.6698955078125,-22.89375114440918,-12.843750953674316,48.16875076293945
1781033174287892200,7.689892333984375,-22.931251525878906,-11.90625,47.85000228881836
1781033174308125200,7.710125244140625,-20.83125114440918,-14.418750762939453,47.962501525878906
1781033174328129300,7.73012939453125,-21.20625114440918,-16.5,48.375003814697266
1781033174348126000,7.7501259765625,-19.837501525878906,-17.55000114440918,47.41875076293945
1781033174368122600,7.77012255859375,-18.243751525878906,-18.975000381469727,46.40625
1781033174388127000,7.790126953125,-16.856250762939453,-20.400001525878906,45.618751525878906
1781033174408123600,7.81012353515625,-16.650001525878906,-21.28125,44.08125305175781
1781033174427891700,7.8298916015625,-15.487500190734863,-23.493751525878906,42.78750228881836
1781033174447896000,7.84989599609375,-15.487500190734863,-23.493751525878906,42.78750228881836
1781033174467892500,7.869892578125,-16.40625,-23.700000762939453,42.5625
1781033174487896800,7.889896728515625,-16.40625,-23.700000762939453,42.5625
1781033174508129800,7.9101298828125,-16.40625,-23.700000762939453,42.5625
1781033174528126500,7.93012646484375,-17.381250381469727,-22.40625,41.66250228881836
1781033174548130600,7.950130615234375,-17.043750762939453,-22.98750114440918,44.306251525878906
1781033174568127200,7.970127197265625,-15.487500190734863,-22.256250381469727,44.15625
1781033174588131600,7.990131591796875,-14.175000190734863,-20.775001525878906,43.48125076293945
1781033174608136000,8.010135986328125,-15.393750190734863,-20.512500762939453,41.64375305175781
1781033174627896300,8.029896240234375,-16.275001525878906,-21.262500762939453,41.56875228881836
1781033174647892700,8.049892822265624,-18.543750762939453,-21.412500381469727,41.775001525878906
1781033174667889400,8.069889404296875,-19.462501525878906,-22.631250381469727,40.61250305175781
1781033174687886000,8.089885986328126,-18.76875114440918,-22.200000762939453,41.493751525878906
1781033174708126700,8.110126708984374,-17.231250762939453,-20.92500114440918,40.78125
1781033174728131000,8.130131103515625,-14.77500057220459,-20.0625,40.03125
1781033174748127700,8.150127685546876,-15.450000762939453,-20.850000381469727,39.525001525878906
1781033174768131800,8.1701318359375,-17.493751525878906,-20.83125114440918,39.54375076293945
1781033174788128500,8.19012841796875,-18.86250114440918,-20.606250762939453,39.78750228881836
1781033174808125000,8.210125,-19.03125,-22.51875114440918,39.78750228881836
1781033174827893000,8.22989306640625,-18.618751525878906,-22.200000762939453,38.98125076293945
1781033174847889700,8.2498896484375,-17.231250762939453,-21.58125114440918,39.88125228881836
1781033174867894000,8.26989404296875,-16.256250381469727,-21.618751525878906,42.150001525878906
1781033174887822000,8.289822021484374,-18.09375,-19.78125,43.20000076293945
1781033174907918000,8.30991796875,-19.631250381469727,-18.431251525878906,45.86250305175781
1781033174947682800,8.349682861328125,-15.281250953674316,-18.225000381469727,46.66875076293945
1781033174967755800,8.369755859375,-17.512500762939453,-17.681251525878906,48.618751525878906
1781033174987896600,8.389896484375,-21.168750762939453,-18.056251525878906,48.20625305175781
1781033175008137500,8.410137451171876,-22.837501525878906,-16.98750114440918,46.66875076293945
1781033175027899000,8.42989892578125,-20.775001525878906,-17.587501525878906,46.80000305175781
1781033175047903200,8.4499033203125,-19.40625,-17.381250381469727,47.00625228881836
1781033175067900000,8.46989990234375,-19.70625114440918,-14.268750190734863,47.56875228881836
1781033175087896300,8.489896240234375,-20.662500381469727,-13.762500762939453,46.59375
1781033175108128300,8.510128173828125,-21.318750381469727,-14.531250953674316,46.51875305175781
1781033175128124700,8.530124755859376,-22.818750381469727,-15.300000190734863,48.73125076293945
1781033175148121300,8.550121337890625,-23.71875,-14.231250762939453,50.10000228881836
1781033175168125700,8.570125732421875,-24.76875114440918,-11.887500762939453,47.868751525878906
1781033175188122400,8.590122314453126,-25.743751525878906,-11.02500057220459,46.51875305175781
1781033175208126500,8.61012646484375,-26.137500762939453,-10.668750762939453,48.63750076293945
1781033175227894500,8.62989453125,-25.631250381469727,-11.15625,49.837501525878906
1781033175247891200,8.64989111328125,-27.20625114440918,-10.6875,50.94375228881836
1781033175267895300,8.669895263671876,-29.475000381469727,-10.631250381469727,51.16875076293945
1781033175287892000,8.68989208984375,-28.875001907348633,-10.612500190734863,48.88125228881836
1781033175308125200,8.710125244140626,-26.418750762939453,-9.356250762939453,48.16875076293945
1781033175328129500,8.730129638671874,-24.562501907348633,-9.487500190734863,49.38750076293945
1781033175348126200,8.750126220703125,-23.887500762939453,-9.731250762939453,48.712501525878906
1781033175368123000,8.770122802734376,-24.562501907348633,-10.293750762939453,48.656253814697266
1781033175388127000,8.790126953125,-27.281251907348633,-10.425000190734863,49.087501525878906
1781033175408123600,8.81012353515625,-26.587501525878906,-11.043750762939453,48.60000228881836
1781033175427891500,8.829891357421875,-23.325000762939453,-13.162500381469727,49.181251525878906
1781033175447895800,8.849895751953126,-23.15625,-12.262500762939453,48.22500228881836
1781033175467892500,8.869892578125,-23.625,-11.30625057220459,48.13125228881836
1781033175487896600,8.889896484375,-21.731250762939453,-12.375000953674316,49.44375228881836
1781033175508129500,8.910129638671876,-21.525001525878906,-13.83750057220459,47.83125305175781
1781033175528126200,8.930126220703125,-19.068750381469727,-15.037500381469727,45.1875
1781033175548130600,8.950130615234375,-15.881250381469727,-15.093750953674316,44.94375228881836
1781033175568127200,8.970127197265626,-17.90625,-14.77500057220459,46.23750305175781
1781033175588131600,8.990131591796874,-18.525001525878906,-15.262500762939453,47.45625305175781
1781033175608135700,9.0101357421875,-16.743751525878906,-14.925000190734863,47.04375076293945
1781033175627896000,9.02989599609375,-17.26875114440918,-15.093750953674316,44.53125
1781033175647900400,9.049900390625,-15.168750762939453,-16.462501525878906,44.79375076293945
1781033175667896800,9.069896728515625,-12.80625057220459,-16.912500381469727,46.80000305175781
1781033175687855400,9.08985546875,-16.462501525878906,-18.09375,45.65625
1781033175707958800,9.109958740234376,-14.850000381469727,-18.693750381469727,45.58125305175781
1781033175747792400,9.14979248046875,-12.15000057220459,-17.8125,45.03750228881836
1781033175767835000,9.1698349609375,-11.512500762939453,-17.118751525878906,44.26875305175781
1781033175787969000,9.189968994140624,-12.450000762939453,-16.743751525878906,43.89375305175781
1781033175808186000,9.21018603515625,-11.02500057220459,-18.46875,44.118751525878906
1781033175827893000,9.22989306640625,-10.78125,-19.256250381469727,43.81875228881836
1781033175847889700,9.2498896484375,-11.68125057220459,-19.837501525878906,43.76250076293945
1781033175867886300,9.26988623046875,-12.093750953674316,-20.325000762939453,44.962501525878906
1781033175887890700,9.289890625,-11.418750762939453,-19.575000762939453,44.83125305175781
1781033175908123600,9.31012353515625,-13.068750381469727,-19.03125,43.85625076293945
1781033175928120300,9.330120361328126,-16.200000762939453,-20.043750762939453,45.22500228881836
1781033175948124400,9.35012451171875,-14.325000762939453,-20.606250762939453,45.78750228881836
1781033175968121000,9.37012109375,-13.46250057220459,-18.693750381469727,45.993751525878906
1781033175988125400,9.39012548828125,-14.156250953674316,-18.28125,46.25625228881836
1781033176008129800,9.4101298828125,-15.99375057220459,-19.293750762939453,45.11250305175781
1781033176027897600,9.429897705078124,-17.625,-20.568750381469727,43.125
1781033176047902000,9.44990185546875,-18.5625,-19.012500762939453,43.29375076293945
1781033176067898600,9.469898681640625,-19.743751525878906,-17.868751525878906,43.01250076293945
1781033176087895000,9.48989501953125,-19.068750381469727,-18.900001525878906,42.056251525878906
1781033176108128000,9.5101279296875,-18.543750762939453,-18.9375,44.13750076293945
1781033176128124700,9.530124755859376,-18.75,-18.28125,45.45000076293945
1781033176148121300,9.550121337890625,-19.5,-17.006250381469727,44.36250305175781
1781033176168125700,9.570125732421875,-20.64375114440918,-17.212501525878906,43.931251525878906
1781033176188122400,9.590122314453126,-21.11250114440918,-17.231250762939453,43.51875305175781
1781033176208126500,9.61012646484375,-20.418750762939453,-17.025001525878906,43.95000076293945
1781033176227894500,9.62989453125,-19.931251525878906,-17.137500762939453,44.962501525878906
1781033176247891000,9.649890869140625,-21.5625,-17.83125114440918,43.23750305175781
1781033176267895300,9.669895263671876,-20.90625,-18.075000762939453,42.375
1781033176287892000,9.68989208984375,-19.743751525878906,-17.625,43.462501525878906
1781033176308125000,9.710125,-21.975000381469727,-18.525001525878906,44.00625228881836
1781033176328129300,9.73012939453125,-22.181251525878906,-18.712501525878906,44.19375228881836
1781033176348125700,9.750125732421875,-22.6875,-17.587501525878906,43.6875
1781033176368122400,9.770122314453126,-22.5,-17.08125114440918,42.69375228881836
1781033176388126700,9.790126708984374,-20.64375114440918,-17.606250762939453,43.66875076293945
1781033176408123400,9.810123291015625,-19.462501525878906,-18.11250114440918,44.85000228881836
1781033176427891500,9.829891357421875,-21.731250762939453,-18.11250114440918,44.66250228881836
1781033176447895600,9.8498955078125,-20.83125114440918,-17.92500114440918,44.681251525878906
1781033176467892200,9.869892333984374,-19.200000762939453,-18.693750381469727,45
1781033176487889200,9.88988916015625,-20.775001525878906,-19.42500114440918,45.150001525878906
1781033176507992600,9.90999267578125,-22.181251525878906,-17.475000381469727,45.375
1781033176547871700,9.949871826171876,-23.92500114440918,-18.900001525878906,46.462501525878906
1781033176567875800,9.969875732421874,-23.006250381469727,-17.043750762939453,48.54375076293945
1781033176588002000,9.990001953125,-25.968751907348633,-16.012500762939453,49.10625076293945
1781033176608189000,10.01018896484375,-26.400001525878906,-16.931251525878906,49.42500305175781
1781033176627888000,10.02988818359375,-25.218751907348633,-17.887500762939453,49.72500228881836
1781033176647884800,10.049884765625,-25.537500381469727,-15.825000762939453,48.900001525878906
1781033176667889200,10.06988916015625,-23.92500114440918,-13.781250953674316,51.000003814697266
1781033176687885800,10.0898857421875,-24.11250114440918,-12.881250381469727,52.743751525878906
1781033176708126700,10.110126708984374,-27.356250762939453,-12.52500057220459,51.993751525878906
1781033176728130800,10.130130859375,-26.45625114440918,-11.11875057220459,52.968753814697266
1781033176748127500,10.15012744140625,-25.968751907348633,-8.831250190734863,55.500003814697266
1781033176768131800,10.1701318359375,-26.437501907348633,-8.231250762939453,55.781253814697266
1781033176788128500,10.19012841796875,-26.73750114440918,-7.181250095367432,54.22500228881836
1781033176808125000,10.210125,-25.575000762939453,-7.987500190734863,54.13125228881836
1781033176827893000,10.22989306640625,-25.781251907348633,-7.068750381469727,56.10000228881836
1781033176847889700,10.2498896484375,-27.58125114440918,-5.381250381469727,57.97500228881836
1781033176867886000,10.269885986328125,-28.293750762939453,-4.40625,57.88125228881836
1781033176887890400,10.289890380859376,-30.225000381469727,-0.3187500238418579,58.33125305175781
1781033176908123400,10.310123291015625,-29.55000114440918,1.0500000715255737,58.91250228881836
1781033176928120000,10.3301201171875,-30.056251525878906,1.3875000476837158,58.10625076293945
1781033176948124400,10.35012451171875,-30.67500114440918,4.893750190734863,56.00625228881836
1781033176968121000,10.37012109375,-30.356250762939453,9.05625057220459,55.20000076293945
1781033176988125200,10.390125244140625,-30.243751525878906,13.46250057220459,55.05000305175781
1781033177008129500,10.410129638671876,-29.662500381469727,16.3125,54.73125076293945
1781033177027897300,10.4298974609375,-30.450000762939453,20.568750381469727,54.993751525878906
1781033177047901700,10.449901611328125,-29.025001525878906,23.8125,52.42500305175781
1781033177067898600,10.469898681640625,-29.100000381469727,25.275001525878906,51.31875228881836
1781033177087895300,10.489895263671874,-29.006250381469727,28.650001525878906,50.23125076293945
1781033177108128300,10.510128173828125,-28.068750381469727,30.656251907348633,46.06875228881836
1781033177128125000,10.530125,-25.89375114440918,32.8125,44.41875076293945
1781033177148121300,10.550121337890625,-22.368751525878906,36.78750228881836,44.19375228881836
1781033177168125700,10.570125732421875,-23.006250381469727,39.82500076293945,40.98750305175781
1781033177188122400,10.590122314453126,-24.375001907348633,42.375,36.07500076293945
1781033177208126500,10.61012646484375,-25.256250381469727,45.618751525878906,32.90625
1781033177227894500,10.62989453125,-22.89375114440918,46.29375076293945,29.418750762939453
1781033177247891200,10.64989111328125,-19.42500114440918,47.66250228881836,24.95625114440918
1781033177267895300,10.669895263671876,-18.30000114440918,50.775001525878906,20.26875114440918
1781033177287892000,10.68989208984375,-19.350000381469727,50.88750076293945,16.125
1781033177308048600,10.710048583984374,-20.83125114440918,51.22500228881836,12.656250953674316
1781033177327908400,10.729908447265625,-19.350000381469727,51.16875076293945,9.300000190734863
1781033177367726600,10.7697265625,-19.762500762939453,50.156253814697266,2.9437501430511475
1781033177387807200,10.78980712890625,-18.056251525878906,51.26250076293945,0.13125000894069672
1781033177407948300,10.8099482421875,-17.475000381469727,49.98750305175781,-4.181250095367432
1781033177427953000,10.829952880859375,-19.575000762939453,48.281253814697266,-7.050000190734863
1781033177447896000,10.84989599609375,-21.450000762939453,47.962501525878906,-9.15000057220459
1781033177467892700,10.869892822265625,-21.9375,47.10000228881836,-10.6875
1781033177487896800,10.889896728515625,-20.15625,46.78125,-12
1781033177508129500,10.910129638671876,-17.868751525878906,45.73125076293945,-12.956250190734863
1781033177528126500,10.93012646484375,-19.931251525878906,46.181251525878906,-12.468750953674316
1781033177548130800,10.950130859375,-23.381250381469727,46.76250076293945,-13.012500762939453
1781033177568127200,10.970127197265626,-21.506250381469727,44.8125,-13.031250953674316
1781033177588131600,10.990131591796874,-20.587501525878906,44.8125,-12.825000762939453
1781033177608135700,11.0101357421875,-20.400001525878906,44.53125,-14.11875057220459
1781033177627895800,11.029895751953125,-20.568750381469727,43.21875,-13.612500190734863
1781033177647892500,11.049892578125,-23.08125114440918,44.681251525878906,-12.393750190734863
1781033177667889200,11.06988916015625,-22.181251525878906,46.03125,-12.05625057220459
1781033177687885800,11.0898857421875,-20.568750381469727,45.86250305175781,-11.456250190734863
1781033177708126700,11.110126708984374,-21.900001525878906,45.375,-10.668750762939453
1781033177728130800,11.130130859375,-24.187501907348633,47.19375228881836,-9.61875057220459
1781033177748127500,11.15012744140625,-23.193750381469727,45.95625305175781,-8.100000381469727
1781033177768131800,11.1701318359375,-22.650001525878906,45.11250305175781,-6.318750381469727
1781033177788128500,11.19012841796875,-25.14375114440918,47.85000228881836,-3.3000001907348633
1781033177808125000,11.210125,-24.825000762939453,48.243751525878906,-0.5437500476837158
1781033177827893000,11.22989306640625,-22.70625114440918,47.38125228881836,1.4250000715255737
1781033177847889700,11.2498896484375,-21.900001525878906,48.468753814697266,5.90625
1781033177867886000,11.269885986328125,-22.837501525878906,48.30000305175781,11.512500762939453
1781033177887890400,11.289890380859376,-24.30000114440918,48.243751525878906,15.881250381469727
1781033177908123400,11.310123291015625,-25.762500762939453,49.16250228881836,20.587501525878906
1781033177928120000,11.3301201171875,-27.39375114440918,45.75,23.568750381469727
1781033177948124400,11.35012451171875,-29.887500762939453,41.41875076293945,27.075000762939453
1781033177968121000,11.37012109375,-32.88750076293945,39.50625228881836,31.89375114440918
1781033177988125200,11.390125244140625,-33.09375,35.75625228881836,36.07500076293945
1781033178008129500,11.410129638671876,-34.91250228881836,30.431251525878906,39.03750228881836
1781033178027897300,11.4298974609375,-39.67500305175781,26.568750381469727,43.23750305175781
1781033178047901700,11.449901611328125,-40.125,22.42500114440918,46.96875
1781033178067898400,11.4698984375,-37.85625076293945,16.743751525878906,48.60000228881836
1781033178087895000,11.48989501953125,-36.993751525878906,12.262500762939453,50.60625076293945
1781033178108082200,11.510082275390625,-35.94375228881836,7.668750286102295,50.94375228881836
1781033178127941600,11.529941650390626,-34.42500305175781,2.043750047683716,50.306251525878906
1781033178167767600,11.569767578125,-30.450000762939453,-5.15625,46.98750305175781
1781033178187810000,11.58981005859375,-28.14375114440918,-6.562500476837158,46.61250305175781
1781033178207951600,11.60995166015625,-25.968751907348633,-9.768750190734863,47.70000076293945
1781033178227932400,11.629932373046875,-26.981250762939453,-13.55625057220459,48.337501525878906
1781033178247891000,11.649890869140625,-28.61250114440918,-15.412500381469727,46.06875228881836
1781033178267895300,11.669895263671876,-28.125001907348633,-18.243751525878906,44.08125305175781
1781033178287891700,11.6898916015625,-24.900001525878906,-20.475000381469727,43.20000076293945
1781033178308125000,11.710125,-22.70625114440918,-19.875,41.15625
1781033178328129300,11.73012939453125,-23.868751525878906,-20.493751525878906,40.25625228881836
1781033178348126000,11.7501259765625,-24,-22.537500381469727,41.28750228881836
1781033178368122600,11.77012255859375,-22.650001525878906,-21.787500381469727,41.36250305175781
1781033178388127000,11.790126953125,-20.83125114440918,-21.356250762939453,42.22500228881836
1781033178408123400,11.810123291015625,-22.387500762939453,-21.075000762939453,43.10625076293945
1781033178427891500,11.829891357421875,-23.568750381469727,-21,41.45625305175781
1781033178447895600,11.8498955078125,-23.625,-20.90625,40.01250076293945
1781033178467892200,11.869892333984374,-22.78125,-19.631250381469727,39.11250305175781
1781033178487896600,11.889896484375,-21.618751525878906,-19.368751525878906,40.368751525878906
1781033178508129500,11.910129638671876,-21.375,-18.918750762939453,41.25
1781033178528126200,11.930126220703125,-21.150001525878906,-18.506250381469727,41.70000076293945
1781033178548130600,11.950130615234375,-22.23750114440918,-19.256250381469727,41.85000228881836
1781033178568127200,11.970127197265626,-22.462501525878906,-19.631250381469727,42.01875305175781
1781033178588131600,11.990131591796874,-23.36250114440918,-18.356250762939453,43.40625
1781033178608135700,12.0101357421875,-24.11250114440918,-18.075000762939453,41.775001525878906
1781033178627896000,12.02989599609375,-22.23750114440918,-19.256250381469727,41.85000228881836
1781033178647892700,12.049892822265624,-20.625,-19.200000762939453,42.88125228881836
1781033178667889200,12.06988916015625,-19.818750381469727,-19.012500762939453,40.181251525878906
1781033178687885800,12.0898857421875,-19.59375,-20.475000381469727,38.56875228881836
1781033178708126500,12.11012646484375,-18.01875114440918,-21.375,36.993751525878906
1781033178728130800,12.130130859375,-17.850000381469727,-21.28125,35.55000305175781
1781033178748127500,12.15012744140625,-16.462501525878906,-22.106250762939453,35.025001525878906
1781033178768131800,12.1701318359375,-13.443750381469727,-23.26875114440918,35.70000076293945
1781033178788128500,12.19012841796875,-16.14375114440918,-23.325000762939453,36.97500228881836
1781033178808125200,12.210125244140626,-18.993751525878906,-23.25,40.33125305175781
1781033178827893000,12.22989306640625,-16.912500381469727,-22.80000114440918,41.625
1781033178847889700,12.2498896484375,-16.98750114440918,-22.556251525878906,39.5625
1781033178867893800,12.269893798828125,-17.45625114440918,-22.762500762939453,39.337501525878906
1781033178887898000,12.289898193359376,-15.637500762939453,-21.76875114440918,40.05000305175781
1781033178908108300,12.3101083984375,-16.743751525878906,-21.881250381469727,41.08125305175781
1781033178927982800,12.32998291015625,-14.981250762939453,-21.450000762939453,39.243751525878906
1781033178967816700,12.369816650390625,-13.912500381469727,-21.056251525878906,36.993751525878906
1781033178987843800,12.38984375,-15.018750190734863,-22.59375,36.82500076293945
1781033179007734300,12.409734375,-15.52500057220459,-21.225000381469727,36.78750228881836
1781033179047658800,12.44965869140625,-18.375,-21.525001525878906,40.3125
1781033179067655200,12.4696552734375,-19.5,-21.056251525878906,41.19375228881836
1781033179087887600,12.4898876953125,-21.600000381469727,-18.9375,41.04375076293945
1781033179108128300,12.510128173828125,-22.293750762939453,-17.118751525878906,42.28125
1781033179128124700,12.530124755859376,-22.23750114440918,-18,43.23750305175781
1781033179148121300,12.550121337890625,-23.17500114440918,-18.056251525878906,42.39375305175781
1781033179168125400,12.57012548828125,-20.006250381469727,-17.55000114440918,42
1781033179188122000,12.5901220703125,-20.4375,-17.662500381469727,42.82500076293945
1781033179208126500,12.61012646484375,-22.5,-16.650001525878906,43.38750076293945
1781033179227894300,12.629894287109375,-20.231250762939453,-16.256250381469727,43.81875228881836
1781033179247891000,12.649890869140625,-19.80000114440918,-15.71250057220459,43.462501525878906
1781033179267895300,12.669895263671876,-20.55000114440918,-14.21250057220459,42.78750228881836
1781033179287892000,12.68989208984375,-21.20625114440918,-15.187500953674316,42.69375228881836
1781033179308125000,12.710125,-17.71875,-15.90000057220459,43.81875228881836
1781033179328129300,12.73012939453125,-19.98750114440918,-14.812500953674316,45.22500228881836
1781033179348126000,12.7501259765625,-22.725000381469727,-13.406250953674316,45.82500076293945
1781033179368122600,12.77012255859375,-19.98750114440918,-13.18125057220459,46.650001525878906
1781033179388126700,12.790126708984374,-21.618751525878906,-13.443750381469727,45.375
1781033179408123600,12.81012353515625,-19.78125,-13.218750953674316,46.21875
1781033179427891500,12.829891357421875,-19.23750114440918,-13.068750381469727,48.525001525878906
1781033179447895800,12.849895751953126,-18.825000762939453,-12.506250381469727,48.16875076293945
1781033179467892500,12.869892578125,-17.681251525878906,-11.700000762939453,48.86250305175781
1781033179487896600,12.889896484375,-19.05000114440918,-11.11875057220459,48.937503814697266
1781033179508129500,12.910129638671876,-19.05000114440918,-11.925000190734863,48.431251525878906
1781033179528126200,12.930126220703125,-19.275001525878906,-11.90625,48.656253814697266
1781033179548130600,12.950130615234375,-18.806251525878906,-12.05625057220459,49.25625228881836
1781033179568127200,12.970127197265626,-19.21875,-12.206250190734863,49.875003814697266
1781033179588131300,12.99013134765625,-18.337501525878906,-12.262500762939453,49.218753814697266
1781033179608135700,13.0101357421875,-17.887500762939453,-11.456250190734863,49.72500228881836
1781033179627895800,13.029895751953125,-18.318750381469727,-10.612500190734863,50.868751525878906
1781033179647900200,13.049900146484376,-16.762500762939453,-10.93125057220459,49.35000228881836
1781033179667896800,13.069896728515625,-16.33125114440918,-12.99375057220459,47.25
1781033179687893500,13.0898935546875,-15.843750953674316,-14.362500190734863,46.89375305175781
1781033179708103400,13.110103515625,-16.98750114440918,-14.156250953674316,47.13750076293945
1781033179727970300,13.12997021484375,-19.575000762939453,-13.875000953674316,45.11250305175781
1781033179767796500,13.16979638671875,-17.868751525878906,-14.475000381469727,47.73750305175781
1781033179787823600,13.18982373046875,-19.481250762939453,-15.131250381469727,46.42500305175781
1781033179807950000,13.2099501953125,-19.950000762939453,-17.193750381469727,44.118751525878906
1781033179827931100,13.22993115234375,-15.843750953674316,-17.681251525878906,43.61250305175781
1781033179847889700,13.2498896484375,-14.512500762939453,-17.15625,43.03125
1781033179867886300,13.26988623046875,-15.637500762939453,-18.131250381469727,42.73125076293945
1781033179887890700,13.289890625,-18.150001525878906,-18.48750114440918,42.50625228881836
1781033179908123400,13.310123291015625,-19.575000762939453,-17.756250381469727,41.775001525878906
1781033179928120000,13.3301201171875,-18.637500762939453,-18.975000381469727,41.00625228881836
1781033179948124400,13.35012451171875,-19.950000762939453,-20.868751525878906,41.23125076293945
1781033179968121000,13.37012109375,-20.625,-21.037500381469727,41.41875076293945
1781033179988125200,13.390125244140625,-19.275001525878906,-20.100000381469727,41.306251525878906
1781033180008129500,13.410129638671876,-19.012500762939453,-20.83125114440918,41.85000228881836
1781033180027897300,13.4298974609375,-20.418750762939453,-21.693750381469727,40.3125
1781033180047901700,13.449901611328125,-20.418750762939453,-21.693750381469727,40.3125
1781033180067898400,13.4698984375,-20.625,-22.6875,39.78750228881836
1781033180087895000,13.48989501953125,-21.375,-21.993751525878906,38.625
1781033180108128000,13.5101279296875,-18.787500381469727,-22.256250381469727,40.85625076293945
1781033180128124700,13.530124755859376,-17.606250762939453,-22.78125,41.83125305175781
1781033180148121300,13.550121337890625,-17.45625114440918,-20.53125,41.04375076293945
1781033180168125400,13.57012548828125,-18.84375,-20.73750114440918,40.61250305175781
1781033180188122000,13.5901220703125,-21.09375,-21.65625,40.53750228881836
1781033180208126500,13.61012646484375,-21.09375,-21.46875,40.76250076293945
1781033180227894300,13.629894287109375,-18.993751525878906,-22.21875,41.28750228881836
1781033180247891000,13.649890869140625,-18.993751525878906,-22.21875,41.28750228881836
1781033180267895000,13.66989501953125,-19.293750762939453,-21.131250381469727,40.368751525878906
1781033180287892000,13.68989208984375,-19.537500381469727,-19.950000762939453,40.70625305175781
1781033180308125000,13.710125,-21.075000762939453,-20.17500114440918,42.5625
1781033180328129300,13.73012939453125,-21.75,-19.59375,42.63750076293945
1781033180348126000,13.7501259765625,-22.462501525878906,-18.20625114440918,43.21875
1781033180368122400,13.770122314453126,-21.20625114440918,-19.181251525878906,45.78750228881836
1781033180388126700,13.790126708984374,-22.106250762939453,-19.350000381469727,45.993751525878906
1781033180408123100,13.810123046875,-24.39375114440918,-18.900001525878906,46.48125076293945
1781033180427891200,13.82989111328125,-23.512500762939453,-14.100000381469727,49.275001525878906
1781033180447895600,13.8498955078125,-23.512500762939453,-14.100000381469727,49.275001525878906
1781033180467900000,13.86989990234375,-26.981250762939453,-13.331250190734863,48.76875305175781
1781033180487904000,13.889904052734375,-27.637500762939453,-13.500000953674316,48.97500228881836
1781033180508114200,13.9101142578125,-29.681251525878906,-11.40000057220459,51.093753814697266
1781033180527973600,13.9299736328125,-32.08125305175781,-7.743750095367432,50.88750076293945
1781033180567822800,13.96982275390625,-34.66875076293945,-4.012500286102295,51.525001525878906
1781033180587842300,13.98984228515625,-33.82500076293945,-0.9187500476837158,52.06875228881836
1781033180607983900,14.00998388671875,-35.493751525878906,0.7875000238418579,51.431251525878906
1781033180627949600,14.029949462890626,-40.06875228881836,5.831250190734863,48.48750305175781
1781033180647885000,14.049885009765624,-40.06875228881836,5.831250190734863,48.48750305175781
1781033180667889400,14.069889404296875,-39.39375305175781,7.612500190734863,49.500003814697266
1781033180687885800,14.0898857421875,-37.63125228881836,9.52500057220459,49.687503814697266
1781033180708126700,14.110126708984374,-41.587501525878906,12.037500381469727,49.16250228881836
1781033180728130800,14.130130859375,-41.587501525878906,12.037500381469727,49.16250228881836
1781033180748127500,14.15012744140625,-41.587501525878906,12.037500381469727,49.16250228881836
1781033180768131800,14.1701318359375,-41.587501525878906,12.037500381469727,49.16250228881836
1781033180788128500,14.19012841796875,-38.41875076293945,29.568750381469727,42.30000305175781
1781033180808125000,14.210125,-39.900001525878906,32.19375228881836,41.36250305175781
1781033180827893000,14.22989306640625,-36.45000076293945,34.125,36.75
1781033180847889400,14.249889404296875,-33.712501525878906,37.837501525878906,32.75625228881836
1781033180867886000,14.269885986328125,-32.28750228881836,40.5,29.906251907348633
1781033180887890400,14.289890380859376,-31.23750114440918,40.5,27.187501907348633
1781033180908123400,14.310123291015625,-29.981250762939453,41.83125305175781,24.618751525878906
1781033180928120000,14.3301201171875,-28.593751907348633,44.212501525878906,20.493751525878906
1781033180948124400,14.35012451171875,-31.087501525878906,46.38750076293945,15.750000953674316
1781033180968121000,14.37012109375,-29.212501525878906,47.98125076293945,11.325000762939453
1781033180988125200,14.390125244140625,-25.98750114440918,49.51875305175781,6.693750381469727
1781033181008129500,14.410129638671876,-22.462501525878906,48.843753814697266,3.0375001430511475
1781033181027897300,14.4298974609375,-22.33125114440918,49.63125228881836,0.6187500357627869
1781033181047901400,14.4499013671875,-24.30000114440918,49.125003814697266,-4.200000286102295
1781033181067898000,14.469898193359375,-24.337501525878906,46.181251525878906,-7.650000095367432
1781033181087894800,14.489894775390624,-25.743751525878906,45.67500305175781,-9.768750190734863
1781033181108128000,14.5101279296875,-26.08125114440918,44.400001525878906,-14.287500381469727
1781033181128124700,14.530124755859376,-23.943750381469727,44.28750228881836,-18.056251525878906
1781033181148121300,14.550121337890625,-23.756250381469727,42.525001525878906,-21.375
1781033181168125400,14.57012548828125,-27.412500381469727,39.46875,-24.375001907348633
1781033181188122000,14.5901220703125,-25.968751907348633,37.16250228881836,-24.225000381469727
1781033181208126500,14.61012646484375,-26.83125114440918,35.45625305175781,-23.981250762939453
1781033181227894300,14.629894287109375,-31.406251907348633,35.681251525878906,-24.337501525878906
1781033181247891000,14.649890869140625,-32.83125305175781,35.400001525878906,-26.025001525878906
1781033181267895300,14.669895263671876,-32.306251525878906,33.48750305175781,-25.61250114440918
1781033181287892000,14.68989208984375,-32.28750228881836,32.13750076293945,-25.762500762939453
1781033181308102100,14.71010205078125,-31.200000762939453,33.60000228881836,-26.64375114440918
1781033181327961300,14.72996142578125,-32.08125305175781,33.900001525878906,-25.350000381469727
1781033181367802600,14.769802734375,-28.650001525878906,34.89375305175781,-24.037500381469727
1781033181387829800,14.789829833984374,-28.293750762939453,37.95000076293945,-24.318750381469727
1781033181407971300,14.809971435546874,-28.51875114440918,38.56875228881836,-23.850000381469727
1781033181427944700,14.82994482421875,-28.218751907348633,38.53125,-21.5625
1781033181447895600,14.8498955078125,-25.98750114440918,39.993751525878906,-22.256250381469727
1781033181467892200,14.869892333984374,-23.4375,40.5,-19.931251525878906
1781033181487896600,14.889896484375,-24.900001525878906,42.67500305175781,-14.062500953674316
1781033181508129500,14.910129638671876,-28.23750114440918,45.73125076293945,-9.318750381469727
1781033181528126200,14.930126220703125,-26.568750381469727,46.48125076293945,-6.543750286102295
1781033181548130300,14.95013037109375,-25.593751907348633,47.23125076293945,-3.9750001430511475
1781033181568127000,14.970126953125,-25.462501525878906,48.562503814697266,1.3687500953674316
1781033181588131300,14.99013134765625,-27.806251525878906,48.750003814697266,6.206250190734863
1781033181608135700,15.0101357421875,-31.256250381469727,47.23125076293945,11.268750190734863
1781033181627895800,15.029895751953125,-32.88750076293945,46.087501525878906,16.368751525878906
1781033181647892500,15.049892578125,-33.375,45.337501525878906,21.900001525878906
1781033181667889200,15.06988916015625,-33.03750228881836,40.98750305175781,28.500001907348633
1781033181687885800,15.0898857421875,-35.962501525878906,35.493751525878906,31.687501907348633
1781033181708126500,15.11012646484375,-39.806251525878906,31.23750114440918,35.83125305175781
1781033181728130800,15.130130859375,-44.00625228881836,25.818750381469727,42.58125305175781
1781033181748127200,15.150127197265626,-44.36250305175781,21.056251525878906,48.50625228881836
1781033181768131600,15.170131591796874,-41.83125305175781,17.325000762939453,53.28750228881836
1781033181788128300,15.190128173828125,-42.1875,11.34375,58.25625228881836
1781033181808125000,15.210125,-40.53750228881836,4.612500190734863,61.05000305175781
1781033181827892700,15.229892822265626,-36.97500228881836,-0.8250000476837158,60.843753814697266
1781033181847889400,15.249889404296875,-33.45000076293945,-5.568750381469727,59.681251525878906
1781033181867886000,15.269885986328125,-30.825000762939453,-9.80625057220459,59.812503814697266
1781033181887890400,15.289890380859376,-26.793750762939453,-13.425000190734863,61.05000305175781
1781033181908123400,15.310123291015625,-23.8125,-15.262500762939453,59.98125076293945
1781033181928120000,15.3301201171875,-24.281251907348633,-16.89375114440918,58.556251525878906
1781033181948124200,15.350124267578124,-20.83125114440918,-18.09375,58.406253814697266
1781033181968120800,15.370120849609375,-18.825000762939453,-18.431251525878906,56.88750076293945
1781033181988125200,15.390125244140625,-17.887500762939453,-18.787500381469727,57.26250076293945
1781033182008129500,15.410129638671876,-16.5,-18.787500381469727,57.67500305175781
1781033182027897300,15.4298974609375,-17.53125,-17.587501525878906,55.29375076293945
1781033182047901700,15.449901611328125,-18,-18.056251525878906,54.22500228881836
1781033182067906000,15.469906005859375,-16.125,-20.400001525878906,53.94375228881836
1781033182087902700,15.48990283203125,-16.40625,-21.11250114440918,51.993751525878906
1781033182108120600,15.51012060546875,-17.15625,-20.4375,50.400001525878906
1781033182127987500,15.529987548828124,-14.662500381469727,-19.70625114440918,50.26875305175781
1781033182167859200,15.569859130859374,-18.76875114440918,-19.23750114440918,50.75625228881836
1781033182187871200,15.589871337890624,-16.51875114440918,-19.556251525878906,49.462501525878906
1781033182208005000,15.610005126953125,-15.206250190734863,-19.462501525878906,48.20625305175781
1781033182227963100,15.629963134765624,-15.487500190734863,-19.59375,46.3125
1781033182247891200,15.64989111328125,-15.487500190734863,-20.025001525878906,45.86250305175781
1781033182267895600,15.6698955078125,-16.368751525878906,-20.15625,46.48125076293945
1781033182287892000,15.68989208984375,-16.21875,-18.48750114440918,45.82500076293945
1781033182308125000,15.710125,-15.075000762939453,-18.318750381469727,45.618751525878906
1781033182328129300,15.73012939453125,-13.762500762939453,-19.668750762939453,42.97500228881836
1781033182348126000,15.7501259765625,-11.268750190734863,-19.912500381469727,42.712501525878906
1781033182368122400,15.770122314453126,-11.231250762939453,-19.818750381469727,43.96875
1781033182388126700,15.790126708984374,-13.331250190734863,-19.743751525878906,42.13125228881836
1781033182408123400,15.810123291015625,-14.662500381469727,-20.850000381469727,42.431251525878906
1781033182427891200,15.82989111328125,-14.081250190734863,-22.40625,44.75625228881836
1781033182447895600,15.8498955078125,-13.631250381469727,-22.21875,44.98125076293945
1781033182467892200,15.869892333984374,-12.037500381469727,-20.83125114440918,45.95625305175781
1781033182487896600,15.889896484375,-11.0625,-20.493751525878906,48.056251525878906
1781033182508129500,15.910129638671876,-14.02500057220459,-19.631250381469727,48.806251525878906
1781033182528126200,15.930126220703125,-17.700000762939453,-19.21875,48.67500305175781
1781033182548130600,15.950130615234375,-17.006250381469727,-18.412500381469727,49.38750076293945
1781033182568127200,15.970127197265626,-14.343750953674316,-16.98750114440918,48.26250076293945
1781033182588131300,15.99013134765625,-16.650001525878906,-17.775001525878906,47.36250305175781
1781033182608135700,16.0101357421875,-18,-18.337501525878906,47.51250076293945
1781033182627895800,16.029895751953124,-18.01875114440918,-17.587501525878906,47.19375228881836
1781033182647892500,16.049892578125,-19.6875,-15.468750953674316,47.025001525878906
1781033182667889200,16.06988916015625,-17.681251525878906,-14.568750381469727,46.48125076293945
1781033182687885800,16.0898857421875,-16.5,-15.543750762939453,46.57500076293945
1781033182708126500,16.11012646484375,-16.96875,-14.531250953674316,47.306251525878906
1781033182728130800,16.130130859375,-17.850000381469727,-12.225000381469727,49.85625076293945
1781033182748127500,16.15012744140625,-19.181251525878906,-12.731250762939453,50.437503814697266
1781033182768131800,16.1701318359375,-18.506250381469727,-13.55625057220459,49.70625305175781
1781033182788128300,16.190128173828125,-18.75,-13.762500762939453,49.48125076293945
1781033182808125000,16.210125,-21.20625114440918,-13.856250762939453,50.531253814697266
1781033182827893000,16.22989306640625,-21.450000762939453,-12.262500762939453,51.337501525878906
1781033182847889400,16.249889404296876,-21.262500762939453,-12.15000057220459,50.306251525878906
1781033182867893800,16.269893798828125,-22.443750381469727,-10.575000762939453,50.493751525878906
1781033182887898000,16.289898193359374,-23.8125,-9.15000057220459,51.48750305175781
1781033182908077800,16.310077880859374,-24.693750381469727,-10.3125,51.16875076293945
1781033182927944700,16.32994482421875,-24.637500762939453,-10.59375,52.80000305175781
1781033182967732500,16.369732421875,-26.55000114440918,-9.71250057220459,51.243751525878906
1781033182987790000,16.3897900390625,-26.756250381469727,-8.0625,52.875003814697266
1781033183007924200,16.40992431640625,-22.61250114440918,-7.012500286102295,54.843753814697266
1781033183027920400,16.42992041015625,-21,-8.58750057220459,54.45000076293945
1781033183047894000,16.44989404296875,-24.39375114440918,-10.950000762939453,52.968753814697266
1781033183067890700,16.469890625,-25.087501525878906,-11.77500057220459,52.05000305175781
1781033183087887000,16.48988720703125,-24.20625114440918,-12.487500190734863,50.28750228881836
1781033183108128000,16.5101279296875,-22.387500762939453,-12.075000762939453,50.94375228881836
1781033183128124700,16.530124755859376,-21.637500762939453,-12.168750762939453,52.593753814697266
1781033183148121000,16.55012109375,-21.412500381469727,-11.756250381469727,52.85625076293945
1781033183168125400,16.57012548828125,-21.881250381469727,-11.006250381469727,52.72500228881836
1781033183188122000,16.5901220703125,-21.431251525878906,-12.80625057220459,51.69375228881836
1781033183208126500,16.61012646484375,-20.700000762939453,-15.581250190734863,50.775001525878906
1781033183227894500,16.62989453125,-21.806251525878906,-14.700000762939453,52.10625076293945
1781033183247891000,16.649890869140624,-21.150001525878906,-14.343750953674316,51.73125076293945
1781033183267895300,16.669895263671876,-15.956250190734863,-14.718750953674316,50.19375228881836
1781033183287892000,16.68989208984375,-13.706250190734863,-15.637500762939453,48.41250228881836
1781033183308125000,16.710125,-15.24375057220459,-17.53125,48.41250228881836
1781033183328129000,16.73012890625,-15.693750381469727,-17.92500114440918,48.16875076293945
1781033183348125700,16.750125732421875,-14.812500953674316,-18.618751525878906,46.63125228881836
1781033183368122400,16.770122314453126,-14.30625057220459,-19.350000381469727,47.38125228881836
1781033183388126700,16.790126708984374,-13.575000762939453,-18.225000381469727,49.98750305175781
1781033183408123400,16.810123291015625,-11.49375057220459,-17.981250762939453,51.03750228881836
1781033183427891200,16.82989111328125,-14.96250057220459,-18.86250114440918,48.69375228881836
1781033183447895600,16.8498955078125,-17.71875,-20.493751525878906,46.875
1781033183467892200,16.869892333984374,-16.368751525878906,-19.950000762939453,46.70625305175781
1781033183487896300,16.889896240234375,-14.550000190734863,-20.36250114440918,46.650001525878906
1781033183508129500,16.910129638671876,-14.325000762939453,-19.98750114440918,46.48125076293945
1781033183528126200,16.930126220703126,-15.05625057220459,-19.068750381469727,45.75
1781033183548130600,16.950130615234375,-15.281250953674316,-20.45625114440918,45.1875
1781033183568127200,16.970127197265626,-12.300000190734863,-20.475000381469727,45.35625076293945
1781033183588131000,16.990131103515626,-10.18125057220459,-20.17500114440918,47.45625305175781
1781033183608135400,17.010135498046875,-11.58750057220459,-19.012500762939453,47.19375228881836
1781033183627895800,17.029895751953124,-12.131250381469727,-18.76875114440918,45.13125228881836
1781033183647900200,17.049900146484376,-10.950000762939453,-20.137500762939453,44.98125076293945
1781033183667896800,17.069896728515626,-12.037500381469727,-19.98750114440918,46.875
1781033183687893500,17.0898935546875,-15.262500762939453,-20.006250381469727,46.06875228881836
1781033183708088300,17.11008837890625,-15.937500953674316,-21,45.54375076293945
1781033183727947800,17.12994775390625,-15.468750953674316,-20.193750381469727,46.05000305175781
1781033183767766000,17.16976611328125,-17.71875,-18.86250114440918,48.30000305175781
1781033183787808500,17.18980859375,-17.962501525878906,-19.89375114440918,47.15625
1781033183807942400,17.2099423828125,-17.981250762939453,-20.15625,46.275001525878906
1781033183827931000,17.229930908203126,-16.575000762939453,-20.100000381469727,47.306251525878906
1781033183847889700,17.2498896484375,-15.225000381469727,-19.537500381469727,47.15625
1781033183867886300,17.26988623046875,-17.587501525878906,-18.86250114440918,45.375
1781033183887890400,17.289890380859376,-19.14375114440918,-19.14375114440918,46.61250305175781
1781033183908123600,17.31012353515625,-17.325000762939453,-18.76875114440918,46.837501525878906
1781033183928120000,17.3301201171875,-16.89375114440918,-18.037500381469727,46.5
1781033183948124400,17.35012451171875,-18.900001525878906,-18.525001525878906,47.306251525878906
1781033183968121000,17.37012109375,-19.3125,-18.806251525878906,48.73125076293945
1781033183988125400,17.39012548828125,-21.618751525878906,-18.243751525878906,48.187503814697266
1781033184008129800,17.4101298828125,-22.5,-18.806251525878906,48.13125228881836
1781033184027897600,17.429897705078126,-21.075000762939453,-18.65625,50.64375305175781
1781033184047901700,17.449901611328126,-22.912500381469727,-17.4375,51.20625305175781
1781033184067898400,17.4698984375,-22.42500114440918,-17.775001525878906,51.78750228881836
1781033184087895000,17.48989501953125,-22.387500762939453,-17.118751525878906,53.10000228881836
1781033184108128000,17.5101279296875,-24,-14.86875057220459,54.618751525878906
1781033184128124700,17.530124755859376,-24.243751525878906,-13.856250762939453,55.35000228881836
1781033184148121300,17.550121337890626,-26.062501907348633,-12.412500381469727,56.36250305175781
1781033184168125700,17.570125732421875,-28.181251525878906,-10.6875,56.156253814697266
1781033184188122400,17.590122314453126,-27.037500381469727,-10.893750190734863,55.91250228881836
1781033184208126500,17.61012646484375,-24.075000762939453,-10.575000762939453,55.70625305175781
1781033184227894300,17.629894287109376,-26.231250762939453,-8.737500190734863,54.26250076293945
1781033184247891000,17.649890869140624,-28.106250762939453,-6.150000095367432,55.181251525878906
1781033184267895300,17.669895263671876,-26.943750381469727,-5.71875,56.062503814697266
1781033184287892000,17.68989208984375,-27.86250114440918,-4.6875,56.79375076293945
1781033184308125000,17.710125,-30.000001907348633,-1.5562500953674316,57.375003814697266
1781033184328129000,17.73012890625,-31.387500762939453,0.05625000223517418,57.97500228881836
1781033184348125700,17.750125732421875,-32.681251525878906,0.22500000894069672,60.30000305175781
1781033184368122400,17.770122314453126,-30.39375114440918,0.6187500357627869,60.73125076293945
1781033184388126700,17.790126708984374,-28.837501525878906,2.1187500953674316,60.67500305175781
1781033184408123400,17.810123291015625,-32.32500076293945,4.087500095367432,60.50625228881836
1781033184427891200,17.82989111328125,-33.58125305175781,7.125000476837158,59.79375076293945
1781033184447895600,17.8498955078125,-31.781251907348633,8.850000381469727,60.187503814697266
1781033184467892200,17.869892333984374,-30.281251907348633,10.65000057220459,58.91250228881836
1781033184487896300,17.889896240234375,-31.80000114440918,14.02500057220459,57.41250228881836
1781033184508076000,17.910075927734376,-33.76875305175781,16.78125,55.23750305175781
1781033184527935200,17.929935302734375,-31.931251525878906,21.356250762939453,52.38750076293945
1781033184567730700,17.969730712890627,-30.637500762939453,28.181251525878906,48.750003814697266
1781033184587780900,17.98978076171875,-27.656251907348633,31.743751525878906,45.35625076293945
1781033184607922700,18.009922607421874,-26.906251907348633,34.837501525878906,42.993751525878906
1781033184627918800,18.0299189453125,-23.606250762939453,35.94375228881836,40.368751525878906
1781033184647884800,18.049884765625,-23.55000114440918,38.83125305175781,37.76250076293945
1781033184667889200,18.06988916015625,-25.968751907348633,42.618751525878906,36.54375076293945
1781033184687885800,18.0898857421875,-25.012500762939453,44.400001525878906,32.13750076293945
1781033184708126500,18.11012646484375,-22.931251525878906,44.775001525878906,26.943750381469727
1781033184728130800,18.130130859375,-20.775001525878906,45.056251525878906,23.212501525878906
1781033184748127500,18.15012744140625,-21.356250762939453,46.21875,20.4375
1781033184768131800,18.1701318359375,-22.6875,48.86250305175781,16.98750114440918
1781033184788128300,18.190128173828125,-21.67500114440918,49.81875228881836,14.156250953674316
1781033184808124700,18.210124755859376,-21.787500381469727,50.13750076293945,10.668750762939453
1781033184827892700,18.229892822265626,-22.89375114440918,51.150001525878906,5.793750286102295
1781033184847889400,18.249889404296876,-23.92500114440918,51.281253814697266,2.0625
1781033184867886000,18.269885986328124,-21.48750114440918,48.656253814697266,-1.9875000715255737
1781033184887890400,18.289890380859376,-21.131250381469727,46.96875,-6.956250190734863
1781033184908123600,18.31012353515625,-22.61250114440918,47.36250305175781,-9.825000762939453
1781033184928120000,18.3301201171875,-22.42500114440918,46.01250076293945,-12.468750953674316
1781033184948124400,18.35012451171875,-24.787500381469727,45.26250076293945,-15.450000762939453
1781033184968120800,18.370120849609375,-23.90625,43.743751525878906,-17.700000762939453
1781033184988125200,18.390125244140624,-23.850000381469727,42.03750228881836,-17.475000381469727
1781033185008129500,18.410129638671876,-28.650001525878906,41.4375,-18.525001525878906
1781033185027897300,18.4298974609375,-28.481250762939453,40.48125076293945,-21.131250381469727
1781033185047901700,18.449901611328126,-27.806251525878906,39.431251525878906,-22.5
1781033185067898000,18.469898193359374,-29.343751907348633,36.525001525878906,-23.025001525878906
1781033185087894800,18.489894775390624,-27.95625114440918,35.306251525878906,-23.568750381469727
1781033185108127700,18.510127685546873,-26.92500114440918,35.28750228881836,-26.512500762939453
1781033185128124400,18.53012451171875,-30.318750381469727,34.53750228881836,-26.756250381469727
1781033185148121300,18.550121337890626,-32.10000228881836,35.28750228881836,-24.787500381469727
1781033185168125400,18.57012548828125,-29.118751525878906,35.493751525878906,-23.962501525878906
1781033185188122400,18.590122314453126,-28.462501525878906,36.84375,-23.8125
1781033185208126500,18.61012646484375,-27.806251525878906,38.212501525878906,-23.25
1781033185227894500,18.62989453125,-25.70625114440918,38.08125305175781,-22.05000114440918
1781033185247891200,18.64989111328125,-27.037500381469727,37.78125,-21.01875114440918
1781033185267895300,18.669895263671876,-29.043750762939453,35.868751525878906,-21.412500381469727
1781033185287892200,18.689892333984375,-30.86250114440918,35.92500305175781,-20.981250762939453
1781033185308117200,18.7101171875,-29.287500381469727,38.681251525878906,-19.650001525878906
1781033185327992000,18.729991943359376,-26.55000114440918,38.66250228881836,-19.481250762939453
1781033185367559200,18.76955908203125,-26.17500114440918,43.96875,-17.4375
1781033185407697400,18.809697509765623,-23.26875114440918,45.60000228881836,-10.425000190734863
1781033185427655400,18.829655517578125,-24.881250381469727,47.00625228881836,-9.84375
1781033185447895600,18.8498955078125,-24.86250114440918,47.04375076293945,-9.206250190734863
1781033185467892200,18.869892333984374,-22.481250762939453,47.868751525878906,-5.400000095367432
1781033185487896300,18.889896240234375,-21,48.69375228881836,-1.3687500953674316
1781033185508129300,18.91012939453125,-22.012500762939453,48.20625305175781,2.34375
1781033185528126000,18.9301259765625,-21.431251525878906,49.89375305175781,7.312500476837158
1781033185548130300,18.95013037109375,-21.993751525878906,51.618751525878906,12.487500190734863
1781033185568126700,18.970126708984374,-23.418750762939453,49.593753814697266,16.23750114440918
1781033185588131000,18.990131103515626,-24.356250762939453,47.19375228881836,20.15625
1781033185608135400,19.010135498046875,-26.193750381469727,45.056251525878906,24.731250762939453
1781033185627895800,19.029895751953124,-28.05000114440918,42.69375228881836,29.062501907348633
1781033185647892200,19.049892333984374,-29.475000381469727,41.66250228881836,33.13125228881836
1781033185667889000,19.069888916015625,-30.168750762939453,37.875,36.46875
1781033185687885600,19.089885498046876,-28.781251907348633,32.493751525878906,39.41250228881836
1781033185708126200,19.110126220703126,-28.61250114440918,29.437501907348633,42.41250228881836
1781033185728130600,19.130130615234375,-29.156251907348633,26.062501907348633,43.5
1781033185748127200,19.150127197265626,-29.681251525878906,22.14375114440918,44.962501525878906
1781033185768131600,19.170131591796874,-29.493751525878906,17.287500381469727,46.931251525878906
1781033185788128300,19.190128173828125,-27.993751525878906,12.881250381469727,47.26875305175781
1781033185808125000,19.210125,-29.493751525878906,9.637500762939453,47.34375
1781033185827892700,19.229892822265626,-30.975000381469727,7.050000190734863,48.525001525878906
1781033185847889400,19.249889404296876,-28.350000381469727,2.981250047683716,48.48750305175781
1781033185867886000,19.269885986328124,-26.493751525878906,-1.2750000953674316,45.712501525878906
1781033185887890400,19.289890380859376,-28.312501907348633,-3.262500047683716,44.25
1781033185908123400,19.310123291015625,-28.443750381469727,-6.281250476837158,44.98125076293945
1781033185928120000,19.3301201171875,-26.756250381469727,-8.550000190734863,45.95625305175781
1781033185948124200,19.350124267578124,-23.700000762939453,-11.081250190734863,46.087501525878906
1781033185968120800,19.370120849609375,-23.90625,-13.65000057220459,44.75625228881836
1781033185988125000,19.390125,-24.187501907348633,-13.781250953674316,42.88125228881836
1781033186008129300,19.41012939453125,-22.256250381469727,-16.631250381469727,43.59375
1781033186027897000,19.42989697265625,-22.631250381469727,-17.887500762939453,44.90625
1781033186047901400,19.4499013671875,-21.543750762939453,-17.756250381469727,44.08125305175781
1781033186067898400,19.4698984375,-19.462501525878906,-19.575000762939453,43.23750305175781
1781033186087895000,19.48989501953125,-17.381250381469727,-21.168750762939453,42.84375
1781033186108128300,19.510128173828125,-18.262500762939453,-22.106250762939453,43.16250228881836
1781033186128033300,19.530033203125,-19.875,-22.33125114440918,42.31875228881836
1781033186147885300,19.54988525390625,-17.606250762939453,-22.387500762939453,41.88750076293945
1781033186187649800,19.58964990234375,-17.15625,-19.162500381469727,44.10000228881836
1781033186207745800,19.609745849609375,-16.275001525878906,-19.40625,43.42500305175781
1781033186227658000,19.629657958984374,-16.443750381469727,-21.337501525878906,43.21875
1781033186247891200,19.64989111328125,-16.443750381469727,-21.337501525878906,43.21875
1781033186267895300,19.669895263671876,-15.750000953674316,-20.325000762939453,44.36250305175781
1781033186287892000,19.68989208984375,-18.787500381469727,-19.200000762939453,43.275001525878906
1781033186308125000,19.710125,-18.600000381469727,-18.48750114440918,42.50625228881836
1781033186328129000,19.73012890625,-17.92500114440918,-16.6875,43.743751525878906
1781033186348125700,19.750125732421875,-18.39375114440918,-14.437500953674316,45.45000076293945
1781033186368122400,19.770122314453126,-15.843750953674316,-15.206250190734863,45.97500228881836
1781033186388126700,19.790126708984374,-16.80000114440918,-14.850000381469727,45.39375305175781
1781033186408123100,19.810123046875,-20.025001525878906,-14.512500762939453,44.212501525878906
1781033186427891200,19.82989111328125,-20.26875114440918,-11.4375,46.837501525878906
1781033186447895300,19.849895263671876,-20.26875114440918,-11.4375,46.837501525878906
1781033186467892000,19.86989208984375,-20.418750762939453,-12.52500057220459,47.75625228881836
1781033186487896300,19.889896240234375,-19.98750114440918,-11.96250057220459,47.60625076293945
1781033186508129500,19.910129638671876,-20.962501525878906,-11.68125057220459,45.993751525878906
1781033186528126000,19.9301259765625,-21.65625,-12.131250381469727,44.90625
1781033186548130300,19.95013037109375,-20.700000762939453,-13.46250057220459,45.375
1781033186568127000,19.970126953125,-20.943750381469727,-14.475000381469727,44.4375
1781033186588131300,19.99013134765625,-19.59375,-14.550000190734863,43.57500076293945
1781033186608135400,20.010135498046875,-17.53125,-16.575000762939453,42.50625228881836
1781033186627895800,20.029895751953124,-17.025001525878906,-17.73750114440918,42.58125305175781
1781033186647892200,20.049892333984374,-17.025001525878906,-17.73750114440918,42.58125305175781
1781033186667889000,20.069888916015625,-19.762500762939453,-18.30000114440918,42.337501525878906
1781033186687885600,20.089885498046876,-21.337501525878906,-19.23750114440918,42.26250076293945
1781033186708126200,20.110126220703126,-20.625,-20.212501525878906,42.150001525878906
1781033186728130600,20.130130615234375,-17.850000381469727,-20.400001525878906,42.712501525878906
1781033186748127200,20.150127197265626,-15.825000762939453,-19.856250762939453,42.76875305175781
1781033186768131600,20.170131591796874,-17.943750381469727,-19.78125,40.70625305175781
1781033186788128300,20.190128173828125,-19.087501525878906,-20.587501525878906,40.01250076293945
1781033186808125000,20.210125,-17.681251525878906,-22.96875,39.11250305175781
1781033186827892700,20.229892822265626,-15.225000381469727,-21.46875,38.83125305175781
1781033186847889700,20.2498896484375,-15.225000381469727,-21.46875,38.83125305175781
1781033186867893800,20.269893798828125,-15.881250381469727,-20.625,39.97500228881836
1781033186887898000,20.289898193359374,-18.412500381469727,-20.83125114440918,39.337501525878906
1781033186908131000,20.310131103515626,-18.356250762939453,-22.51875114440918,39.78750228881836
1781033186928066600,20.330066650390624,-16.275001525878906,-22.875,40.556251525878906
1781033186947934200,20.349934326171876,-19.51875114440918,-20.512500762939453,40.85625076293945
1781033186987707100,20.38970703125,-18.76875114440918,-19.96875,43.20000076293945
1781033187007772400,20.4097724609375,-18.131250381469727,-20.08125114440918,41.71875
1781033187027661800,20.429661865234376,-20.100000381469727,-21.67500114440918,43.21875
1781033187047901700,20.449901611328126,-20.100000381469727,-21.67500114440918,43.21875
1781033187067890700,20.469890625,-23.100000381469727,-17.475000381469727,45.16875076293945
1781033187087887000,20.48988720703125,-24.01875114440918,-18.28125,44.47500228881836
1781033187108127700,20.510127685546873,-24.900001525878906,-18.412500381469727,45.30000305175781
1781033187128124400,20.53012451171875,-23.793750762939453,-17.681251525878906,44.94375228881836
1781033187148121000,20.55012109375,-23.36250114440918,-16.537500381469727,44.64375305175781
1781033187168125400,20.57012548828125,-22.275001525878906,-16.23750114440918,43.63125228881836
1781033187188122000,20.5901220703125,-19.837501525878906,-15.206250190734863,42.67500305175781
1781033187208126500,20.61012646484375,-22.03125,-14.981250762939453,45.22500228881836
1781033187227894300,20.629894287109376,-24.037500381469727,-16.293750762939453,45.30000305175781
1781033187247891000,20.649890869140624,-24.525001525878906,-15.300000190734863,45.618751525878906
1781033187267895300,20.669895263671876,-25.387500762939453,-14.606250762939453,47.15625
1781033187287892000,20.68989208984375,-25.818750381469727,-14.943750381469727,47.962501525878906
1781033187308125000,20.710125,-25.556251525878906,-14.68125057220459,49.031253814697266
1781033187328129300,20.73012939453125,-22.837501525878906,-14.137500762939453,48.86250305175781
1781033187348125700,20.750125732421875,-21.712501525878906,-14.381250381469727,48.41250228881836
1781033187368122600,20.77012255859375,-22.818750381469727,-14.325000762939453,49.05000305175781
1781033187388126700,20.790126708984374,-22.106250762939453,-14.68125057220459,49.63125228881836
1781033187408123400,20.810123291015625,-22.668750762939453,-12.825000762939453,48.58125305175781
1781033187427891200,20.82989111328125,-23.137500762939453,-13.27500057220459,47.493751525878906
1781033187447895300,20.849895263671876,-23.0625,-14.325000762939453,49.05000305175781
1781033187467892000,20.86989208984375,-22.856250762939453,-13.987500190734863,48.45000076293945
1781033187487896300,20.889896240234375,-22.443750381469727,-14.250000953674316,47.38125228881836
1781033187508129300,20.91012939453125,-20.118751525878906,-14.175000190734863,48.82500076293945
1781033187528126000,20.9301259765625,-19.89375114440918,-14.606250762939453,48.150001525878906
1781033187548130300,20.95013037109375,-22.40625,-15.393750190734863,47.47500228881836
1781033187568126700,20.970126708984374,-21.9375,-15.206250190734863,47.493751525878906
1781033187588131000,20.990131103515626,-20.08125114440918,-15.318750381469727,48.900001525878906
1781033187608135400,21.010135498046875,-16.837501525878906,-16.89375114440918,49.125003814697266
1781033187627895600,21.0298955078125,-17.100000381469727,-18.618751525878906,46.44375228881836
1781033187647900000,21.04989990234375,-19.462501525878906,-18.731250762939453,44.38125228881836
1781033187667896300,21.069896240234375,-19.05000114440918,-17.850000381469727,43.42500305175781
1781033187687893000,21.08989306640625,-18.337501525878906,-18.993751525878906,43.5
1781033187708134000,21.1101337890625,-16.6875,-21.150001525878906,43.25625228881836
1781033187728061700,21.130061767578123,-16.03125,-22.631250381469727,41.212501525878906
1781033187747929300,21.149929443359376,-17.943750381469727,-21.39375114440918,39.48750305175781
1781033187787693800,21.18969384765625,-16.03125,-23.662500381469727,40.48125076293945
1781033187807759400,21.20975927734375,-17.606250762939453,-24.01875114440918,40.44375228881836
1781033187827656400,21.229656494140624,-20.325000762939453,-23.73750114440918,41.118751525878906
1781033187847889400,21.249889404296876,-19.875,-23.55000114440918,41.36250305175781
1781033187867886000,21.269885986328124,-19.42500114440918,-23.55000114440918,41.34375
1781033187887890400,21.289890380859376,-22.818750381469727,-24.712501525878906,40.63125228881836
1781033187908123400,21.310123291015625,-22.575000762939453,-26.343751907348633,39.41250228881836
1781033187928120000,21.3301201171875,-19.80000114440918,-26.250001907348633,41.0625
1781033187948124400,21.35012451171875,-18.67500114440918,-25.031251907348633,42.22500228881836
1781033187968121000,21.37012109375,-20.287500381469727,-25.481250762939453,41.15625
1781033187988125200,21.390125244140624,-20.962501525878906,-25.875001907348633,40.89375305175781
1781033188008129500,21.410129638671876,-21.787500381469727,-26.718751907348633,42.28125
1781033188027897300,21.4298974609375,-23.83125114440918,-24.412500381469727,44.625
1781033188047901700,21.449901611328126,-24.356250762939453,-21.46875,45.58125305175781
1781033188067898400,21.4698984375,-26.437501907348633,-21.11250114440918,44.79375076293945
1781033188087895000,21.48989501953125,-26.418750762939453,-22.481250762939453,44.4375
1781033188108128000,21.5101279296875,-27.056251525878906,-23.587501525878906,44.94375228881836
1781033188128124400,21.53012451171875,-29.55000114440918,-22.3125,46.14375305175781
1781033188148121000,21.55012109375,-29.512500762939453,-19.181251525878906,49.61250305175781
1781033188168125400,21.57012548828125,-28.368751525878906,-16.912500381469727,51.937503814697266
1781033188188122000,21.5901220703125,-28.162500381469727,-15.543750762939453,52.500003814697266
1781033188208126500,21.61012646484375,-29.868751525878906,-12.881250381469727,51.76875305175781
1781033188227894300,21.629894287109376,-32.025001525878906,-9.206250190734863,51.76875305175781
1781033188247891000,21.649890869140624,-32.73750305175781,-5.793750286102295,53.812503814697266
1781033188267895300,21.669895263671876,-31.70625114440918,-2.0250000953674316,53.17500305175781
1781033188287891700,21.6898916015625,-33.91875076293945,2.3812501430511475,52.42500305175781
1781033188308125000,21.710125,-36.9375,5.34375,52.98750305175781
1781033188328129000,21.73012890625,-37.70625305175781,8.21250057220459,52.875003814697266
1781033188348126000,21.7501259765625,-38.51250076293945,10.425000190734863,51.26250076293945
1781033188368122400,21.770122314453126,-38.868751525878906,14.40000057220459,50.66250228881836
1781033188388126700,21.790126708984374,-41.08125305175781,18.543750762939453,49.05000305175781
1781033188408123400,21.810123291015625,-41.71875,21.01875114440918,45.78750228881836
1781033188427891200,21.82989111328125,-39.35625076293945,22.89375114440918,42.84375
1781033188447895600,21.8498955078125,-38.587501525878906,26.83125114440918,41.8125
1781033188467899600,21.869899658203124,-34.66875076293945,32.28750228881836,40.89375305175781
1781033188487904000,21.889904052734376,-32.08125305175781,34.53750228881836,37.98750305175781
1781033188508137200,21.91013720703125,-34.78125,37.61250305175781,34.61250305175781
1781033188528019500,21.93001953125,-35.681251525878906,41.00625228881836,31.031251907348633
1781033188567594200,21.96959423828125,-33.75,44.70000076293945,23.71875
1781033188607709700,22.009709716796873,-32.025001525878906,44.32500076293945,13.46250057220459
1781033188627652400,22.02965234375,-30.843751907348633,46.53750228881836,9.731250762939453
1781033188647884800,22.049884765625,-30.731250762939453,47.66250228881836,6.525000095367432
1781033188667889200,22.06988916015625,-31.012500762939453,46.53750228881836,4.106250286102295
1781033188687885600,22.089885498046876,-31.087501525878906,45.5625,1.2937500476837158
1781033188708126200,22.110126220703126,-31.443750381469727,44.64375305175781,-3.7875001430511475
1781033188728130600,22.130130615234375,-33.88125228881836,43.89375305175781,-9.262500762939453
1781033188748127200,22.150127197265626,-35.13750076293945,42.431251525878906,-13.781250953674316
1781033188768131600,22.170131591796874,-30.600000381469727,40.48125076293945,-16.125
1781033188788128300,22.190128173828125,-29.681251525878906,38.83125305175781,-17.55000114440918
1781033188808125000,22.210125,-32.92500305175781,37.53750228881836,-20.15625
1781033188827893000,22.22989306640625,-34.98750305175781,35.71875,-22.012500762939453
1781033188847889400,22.249889404296876,-36.900001525878906,34.53750228881836,-25.462501525878906
1781033188867886000,22.269885986328124,-35.53125,32.868751525878906,-26.887500762939453
1781033188887890200,22.28989013671875,-34.76250076293945,29.775001525878906,-27.243751525878906
1781033188908123400,22.310123291015625,-34.78125,28.70625114440918,-28.593751907348633
1781033188928120000,22.3301201171875,-34.25625228881836,26.400001525878906,-28.443750381469727
1781033188948124200,22.350124267578124,-35.38125228881836,25.462501525878906,-28.537500381469727
1781033188968120800,22.370120849609375,-37.23750305175781,25.012500762939453,-29.812501907348633
1781033188988125200,22.390125244140624,-38.75625228881836,22.3125,-30.093751907348633
1781033189008129500,22.410129638671876,-38.70000076293945,22.462501525878906,-28.200000762939453
1781033189027897300,22.4298974609375,-36.65625,23.231250762939453,-27.731250762939453
1781033189047901400,22.4499013671875,-37.20000076293945,24.86250114440918,-29.212501525878906
1781033189067898000,22.469898193359374,-38.13750076293945,25.012500762939453,-29.793750762939453
1781033189087894800,22.489894775390624,-38.36250305175781,24.450000762939453,-29.868751525878906
1781033189108127700,22.510127685546873,-37.931251525878906,26.83125114440918,-28.575000762939453
1781033189128124400,22.53012451171875,-38.34375,27.937501907348633,-26.568750381469727
1781033189148121000,22.55012109375,-37.66875076293945,28.537500381469727,-26.100000381469727
1781033189168125400,22.57012548828125,-35.15625,29.137500762939453,-25.42500114440918
1781033189188122000,22.5901220703125,-34.01250076293945,30.750001907348633,-24.01875114440918
1781033189208126200,22.610126220703126,-32.26875305175781,35.025001525878906,-22.950000762939453
1781033189227894300,22.629894287109376,-30.67500114440918,37.85625076293945,-20.775001525878906
1781033189247891000,22.649890869140624,-30.168750762939453,38.79375076293945,-18.168750762939453
1781033189267895300,22.669895263671876,-32.17500305175781,40.556251525878906,-15.468750953674316
1781033189287892000,22.68989208984375,-31.875001907348633,42.73125076293945,-11.700000762939453
1781033189308094500,22.710094482421876,-29.08125114440918,45.056251525878906,-8.137500762939453
1781033189327961300,22.72996142578125,-29.64375114440918,46.40625,-2.981250047683716
1781033189367795000,22.769794921875,-30.168750762939453,46.06875228881836,8.625
1781033189387829800,22.789829833984374,-29.92500114440918,45.618751525878906,15.862500190734863
1781033189407963600,22.809963623046876,-32.79375076293945,46.51875305175781,19.743751525878906
1781033189427944700,22.82994482421875,-34.85625076293945,44.38125228881836,24.525001525878906
1781033189447895300,22.849895263671876,-32.8125,41.15625,28.33125114440918
1781033189467892000,22.86989208984375,-31.33125114440918,39.375,30.39375114440918
1781033189487896300,22.889896240234375,-34.80000305175781,38.587501525878906,34.931251525878906
1781033189508129300,22.91012939453125,-38.306251525878906,35.08125305175781,36.243751525878906
1781033189528126000,22.9301259765625,-36.07500076293945,30.993751525878906,38.681251525878906
1781033189548130300,22.95013037109375,-34.05000305175781,29.568750381469727,43.3125
1781033189568127000,22.970126953125,-34.087501525878906,26.943750381469727,46.76250076293945
1781033189588131300,22.99013134765625,-32.98125076293945,22.106250762939453,49.14375305175781
1781033189608135700,23.0101357421875,-32.36250305175781,17.325000762939453,49.66875076293945
1781033189627895800,23.029895751953124,-33.375,13.987500190734863,51.16875076293945
1781033189647892500,23.049892578125,-31.781251907348633,10.18125057220459,54.50625228881836
1781033189667889200,23.06988916015625,-30.993751525878906,5.887500286102295,53.812503814697266
1781033189687885600,23.089885498046876,-29.850000381469727,2.8125,51.187503814697266
1781033189708126200,23.110126220703126,-27.95625114440918,0.5062500238418579,51.54375076293945
1781033189728130600,23.130130615234375,-27.000001907348633,-2.0812501907348633,50.41875076293945
1781033189748127000,23.150126953125,-25.162500381469727,-4.106250286102295,49.35000228881836
1781033189768131600,23.170131591796874,-21.9375,-4.668750286102295,50.08125305175781
1781033189788128000,23.1901279296875,-19.350000381469727,-7.406250476837158,49.76250076293945
1781033189808124700,23.210124755859376,-20.475000381469727,-10.18125057220459,48.431251525878906
1781033189827892500,23.229892578125,-18.67500114440918,-10.893750190734863,46.875
1781033189847889000,23.249888916015625,-15.450000762939453,-12.093750953674316,46.72500228881836
1781033189867885800,23.2698857421875,-15.825000762939453,-13.725000381469727,48
1781033189887890200,23.28989013671875,-18.618751525878906,-13.631250381469727,45.95625305175781
1781033189908123100,23.310123046875,-17.756250381469727,-13.143750190734863,44.962501525878906
1781033189928119800,23.330119873046876,-15.000000953674316,-14.343750953674316,44.8125
1781033189948124200,23.350124267578124,-16.3125,-15.43125057220459,45.31875228881836
1781033189968120800,23.370120849609375,-19.481250762939453,-15.093750953674316,46.837501525878906
1781033189988125200,23.390125244140624,-18.20625114440918,-13.893750190734863,45.09375
1781033190008129500,23.410129638671876,-15.281250953674316,-13.46250057220459,43.66875076293945
1781033190027897300,23.4298974609375,-14.850000381469727,-15.112500190734863,42.01875305175781
1781033190047901700,23.449901611328126,-13.200000762939453,-17.118751525878906,41.15625
1781033190067898000,23.469898193359374,-11.137500762939453,-17.306251525878906,41.53125
1781033190087894800,23.489894775390624,-10.293750762939453,-16.462501525878906,40.16250228881836
1781033190108036400,23.510036376953124,-9.825000762939453,-17.25,39.86250305175781
1781033190127888600,23.529888671875,-10.237500190734863,-18.168750762939453,40.38750076293945
1781033190167653400,23.5696533203125,-10.950000762939453,-20.25,38.08125305175781
1781033190187741400,23.589741455078126,-9.075000762939453,-20.587501525878906,38.868751525878906
1781033190207890000,23.609889892578124,-9.75,-20.775001525878906,39.056251525878906
1781033190227894300,23.629894287109376,-10.5,-21.11250114440918,36.75
1781033190247891000,23.649890869140624,-9.075000762939453,-22.443750381469727,37.21875
1781033190267895000,23.66989501953125,-9.075000762939453,-22.200000762939453,37.85625076293945
1781033190287892000,23.68989208984375,-11.850000381469727,-21.450000762939453,37.125
1781033190308125000,23.710125,-10.93125057220459,-22.23750114440918,37.03125
1781033190328129300,23.73012939453125,-10.03125,-21.67500114440918,36.88125228881836
1781033190348125700,23.750125732421875,-9.787500381469727,-22.05000114440918,37.05000305175781
1781033190368122400,23.770122314453126,-9.506250381469727,-23.8125,36.86250305175781
1781033190388126700,23.790126708984374,-12.33750057220459,-22.51875114440918,35.56875228881836
1781033190408123400,23.810123291015625,-13.500000953674316,-21.95625114440918,35.212501525878906
1781033190427891200,23.82989111328125,-13.218750953674316,-23.45625114440918,35.681251525878906
1781033190447895600,23.8498955078125,-12.300000190734863,-23.475000381469727,35.66250228881836
1781033190467892200,23.869892333984374,-13.200000762939453,-23.212501525878906,36.337501525878906
1781033190487896300,23.889896240234375,-14.062500953674316,-23.100000381469727,37.80000305175781
1781033190508129500,23.910129638671876,-13.443750381469727,-23.025001525878906,36.35625076293945
1781033190528126200,23.930126220703126,-14.568750381469727,-23.83125114440918,35.64375305175781
1781033190548130300,23.95013037109375,-17.025001525878906,-23.83125114440918,37.743751525878906
1781033190568127000,23.970126953125,-16.368751525878906,-22.6875,37.875
1781033190588131000,23.990131103515626,-15.468750953674316,-23.36250114440918,36.54375076293945
1781033190608135400,24.010135498046875,-16.350000381469727,-24.506250381469727,36.63750076293945
1781033190627895800,24.029895751953124,-15.693750381469727,-22.556251525878906,37.25625228881836
1781033190647892500,24.049892578125,-17.15625,-19.650001525878906,37.16250228881836
1781033190667889200,24.06988916015625,-18.693750381469727,-20.118751525878906,38.38125228881836
1781033190687885800,24.0898857421875,-19.98750114440918,-22.162500381469727,39.20625305175781
1781033190708126200,24.110126220703126,-19.33125114440918,-22.23750114440918,38.15625
1781033190728130300,24.13013037109375,-17.493751525878906,-23.0625,37.837501525878906
1781033190748127000,24.150126953125,-20.90625,-22.762500762939453,38.53125
1781033190768131300,24.17013134765625,-21.76875114440918,-21.881250381469727,40.087501525878906
1781033190788128000,24.1901279296875,-18.993751525878906,-21.806251525878906,41.73750305175781
1781033190808124700,24.210124755859376,-20.193750381469727,-20.287500381469727,41.28750228881836
1781033190827892500,24.229892578125,-21.09375,-19.650001525878906,42
1781033190847889200,24.24988916015625,-21.506250381469727,-19.725000381469727,43.44375228881836
1781033190867893500,24.2698935546875,-21.95625114440918,-19.931251525878906,43.21875
1781033190887897900,24.28989794921875,-21.5625,-19.875,41.34375
1781033190908016400,24.310016357421876,-21.39375114440918,-19.78125,40.125
1781033190947606500,24.3496064453125,-17.475000381469727,-20.325000762939453,41.0625
1781033190987722000,24.389721923828127,-18.881250381469727,-20.193750381469727,40.05000305175781
1781033191007893200,24.409893310546874,-17.325000762939453,-19.743751525878906,38.41875076293945
1781033191027889400,24.429889404296876,-18.28125,-19.181251525878906,38.26875305175781
1781033191047893800,24.449893798828125,-16.61250114440918,-19.668750762939453,39.65625
1781033191067890400,24.469890380859376,-16.125,-19.181251525878906,41.17500305175781
1781033191087887000,24.48988720703125,-20.681251525878906,-18.693750381469727,41.88750076293945
1781033191108127700,24.510127685546873,-20.850000381469727,-19.575000762939453,43.05000305175781
1781033191128124400,24.53012451171875,-19.950000762939453,-18.84375,42.69375228881836
1781033191148121000,24.55012109375,-20.45625114440918,-18.318750381469727,41.92500305175781
1781033191168125400,24.57012548828125,-19.5,-19.21875,42.86250305175781
1781033191188122000,24.5901220703125,-17.193750381469727,-19.650001525878906,42.58125305175781
1781033191208126200,24.610126220703126,-17.700000762939453,-17.475000381469727,43.462501525878906
1781033191227894000,24.62989404296875,-18.600000381469727,-16.650001525878906,43.96875
1781033191247891000,24.649890869140624,-16.80000114440918,-18.525001525878906,42.30000305175781
1781033191267895000,24.66989501953125,-16.725000381469727,-20.231250762939453,42.73125076293945
1781033191287891700,24.6898916015625,-17.625,-19.368751525878906,43.650001525878906
1781033191308124700,24.710124755859376,-19.33125114440918,-17.756250381469727,41.775001525878906
1781033191328128800,24.730128662109376,-20.512500762939453,-17.400001525878906,41.19375228881836
1781033191348125400,24.75012548828125,-18.600000381469727,-17.868751525878906,43.21875
1781033191368122000,24.7701220703125,-17.90625,-18.262500762939453,43.16250228881836
1781033191388126500,24.79012646484375,-19.03125,-17.400001525878906,44.306251525878906
1781033191408123100,24.810123046875,-19.70625114440918,-16.33125114440918,45.67500305175781
1781033191427891000,24.829890869140623,-19.5,-16.387500762939453,45.03750228881836
1781033191447895300,24.849895263671876,-19.931251525878906,-17.73750114440918,44.681251525878906
1781033191467892200,24.869892333984374,-18.787500381469727,-18.150001525878906,44.4375
1781033191487896300,24.889896240234375,-19.03125,-17.36250114440918,44.71875
1781033191508129500,24.910129638671876,-21.731250762939453,-17.26875114440918,45.58125305175781
1781033191528126000,24.9301259765625,-21.900001525878906,-18.39375114440918,45.88125228881836
1781033191548130300,24.95013037109375,-22.162500381469727,-18.637500762939453,45.03750228881836
1781033191568127000,24.970126953125,-22.181251525878906,-18.30000114440918,44.45625305175781
1781033191588131000,24.990131103515626,-21.48750114440918,-18.48750114440918,44.83125305175781
1781033191608135400,25.010135498046875,-20.231250762939453,-17.26875114440918,43.087501525878906
1781033191627895600,25.0298955078125,-19.575000762939453,-17.34375,42.01875305175781
1781033191647900000,25.04989990234375,-21.600000381469727,-17.90625,41.98125076293945
1781033191667896600,25.069896484375,-20.92500114440918,-17.71875,42
1781033191687893200,25.089893310546874,-20.868751525878906,-18.825000762939453,42.712501525878906
1781033191708011800,25.11001171875,-22.443750381469727,-18.375,43.40625
1781033191747587300,25.14958740234375,-20.73750114440918,-17.418750762939453,40.98750305175781
1781033191787710200,25.189710205078125,-23.400001525878906,-18.28125,41.962501525878906
1781033191807889200,25.20988916015625,-24.787500381469727,-18.48750114440918,41.32500076293945
1781033191827892700,25.229892822265626,-26.381250381469727,-17.83125114440918,42.243751525878906
1781033191847889400,25.249889404296876,-24.731250762939453,-18.5625,43.20000076293945
1781033191867885800,25.2698857421875,-23.587501525878906,-18.168750762939453,43.42500305175781
1781033191887890200,25.28989013671875,-25.23750114440918,-15.768750190734863,44.32500076293945
1781033191908123100,25.310123046875,-27.431251525878906,-16.78125,45.900001525878906
1781033191928127500,25.33012744140625,-28.725000381469727,-18.225000381469727,47.212501525878906
1781033191948131800,25.3501318359375,-26.700000762939453,-16.481250762939453,47.60625076293945
1781033191968128500,25.37012841796875,-26.756250381469727,-13.74375057220459,48.31875228881836
1781033191988132600,25.390132568359373,-26.306251525878906,-12.356250762939453,49.087501525878906
1781033192008129300,25.41012939453125,-26.962501525878906,-11.456250190734863,50.85000228881836
1781033192027897000,25.42989697265625,-27.86250114440918,-10.200000762939453,52.25625228881836
1781033192047901400,25.4499013671875,-28.406251907348633,-7.162500381469727,51.750003814697266
1781033192067898000,25.469898193359374,-31.200000762939453,-3.9562501907348633,52.95000076293945
1781033192087894800,25.489894775390624,-30.843751907348633,-1.7062500715255737,52.368751525878906
1781033192108127700,25.510127685546873,-31.61250114440918,1.9875000715255737,52.781253814697266
1781033192128124400,25.53012451171875,-30.525001525878906,5.512500286102295,53.98125076293945
1781033192148121000,25.55012109375,-28.593751907348633,8.68125057220459,52.85625076293945
1781033192168125400,25.57012548828125,-34.181251525878906,11.793750762939453,52.406253814697266
1781033192188121900,25.590121826171874,-35.15625,14.887500762939453,52.53750228881836
1781033192208126200,25.610126220703126,-33.712501525878906,18.412500381469727,51.243751525878906
1781033192227894300,25.629894287109376,-34.38750076293945,21.825000762939453,47.681251525878906
1781033192247890700,25.649890625,-34.35000228881836,26.868751525878906,45.712501525878906
1781033192267895000,25.66989501953125,-34.96875,30.000001907348633,43.78125
1781033192287891700,25.6898916015625,-36.46875,31.33125114440918,40.61250305175781
1781033192308124700,25.710124755859376,-39.88125228881836,34.125,36.150001525878906
1781033192328129000,25.73012890625,-40.81875228881836,38.08125305175781,32.00625228881836
1781033192348125700,25.750125732421875,-39.84375,39.9375,28.668750762939453
1781033192368122400,25.770122314453126,-37.78125,40.01250076293945,21.993751525878906
1781033192388126700,25.790126708984374,-38.681251525878906,41.38125228881836,16.743751525878906
1781033192408123400,25.810123291015625,-40.44375228881836,41.23125076293945,11.53125
1781033192427891200,25.82989111328125,-40.10625076293945,40.931251525878906,7.331250190734863
1781033192447895600,25.8498955078125,-39.75,40.89375305175781,4.200000286102295
1781033192467900000,25.86989990234375,-39.20625305175781,40.57500076293945,-0.20625001192092896
1781033192487888600,25.889888671875,-40.42500305175781,40.20000076293945,-2.9437501430511475
1781033192507992000,25.909991943359376,-41.64375305175781,38.41875076293945,-6.656250476837158
1781033192547559400,25.949559326171876,-41.66250228881836,34.275001525878906,-10.856250762939453
1781033192587697700,25.98969775390625,-44.85000228881836,31.256250381469727,-13.46250057220459
1781033192607892000,26.00989208984375,-44.868751525878906,29.381250381469727,-15.52500057220459
1781033192627888000,26.02988818359375,-45.39375305175781,28.443750381469727,-18.11250114440918
1781033192647884800,26.049884765625,-44.71875,26.962501525878906,-19.743751525878906
1781033192667889200,26.06988916015625,-43.51875305175781,25.218751907348633,-19.950000762939453
1781033192687885800,26.0898857421875,-42.86250305175781,24.95625114440918,-20.8125
1781033192708126500,26.11012646484375,-42.431251525878906,25.293750762939453,-21.20625114440918
1781033192728130600,26.130130615234375,-40.85625076293945,25.42500114440918,-22.03125
1781033192748127200,26.150127197265626,-42.75,25.70625114440918,-23.868751525878906
1781033192768131600,26.170131591796874,-44.32500076293945,25.762500762939453,-23.212501525878906
1781033192788128000,26.1901279296875,-40.23750305175781,25.068750381469727,-23.943750381469727
1781033192808124700,26.210124755859376,-38.19375228881836,24.431251525878906,-24.656251907348633
1781033192827892500,26.229892578125,-40.125,25.61250114440918,-27.225000381469727
1781033192847889200,26.24988916015625,-40.125,25.61250114440918,-27.225000381469727
1781033192867885800,26.2698857421875,-38.47500228881836,23.887500762939453,-27.01875114440918
1781033192887890200,26.28989013671875,-39.39375305175781,24.693750381469727,-26.493751525878906
1781033192908123100,26.310123046875,-40.931251525878906,25.05000114440918,-24.375001907348633
1781033192928119800,26.330119873046876,-43.20000076293945,25.33125114440918,-23.681251525878906
1781033192948124200,26.350124267578124,-43.91250228881836,24.86250114440918,-24.975000381469727
1781033192968120800,26.370120849609375,-40.6875,23.45625114440918,-25.368751525878906
1781033192988125000,26.390125,-41.19375228881836,25.42500114440918,-24.731250762939453
1781033193008129300,26.41012939453125,-42.78750228881836,27.656251907348633,-23.231250762939453
1781033193027897000,26.42989697265625,-39.806251525878906,29.100000381469727,-21.225000381469727
1781033193047901400,26.4499013671875,-39.806251525878906,29.100000381469727,-21.225000381469727
1781033193067898000,26.469898193359374,-38.13750076293945,28.012500762939453,-19.912500381469727
1781033193087894800,26.489894775390624,-39.26250076293945,29.700000762939453,-18.037500381469727
1781033193108127700,26.510127685546873,-41.34375,32.71875,-16.650001525878906
1781033193128124400,26.53012451171875,-42.97500228881836,34.275001525878906,-16.462501525878906
1781033193148121000,26.55012109375,-42.900001525878906,35.681251525878906,-12.99375057220459
1781033193168125400,26.57012548828125,-41.681251525878906,35.681251525878906,-10.08750057220459
1781033193188122000,26.5901220703125,-40.275001525878906,36.97500228881836,-7.875000476837158
1781033193208126200,26.610126220703126,-40.70625305175781,40.5,-4.368750095367432
1781033193227894300,26.629894287109376,-38.53125,43.59375,1.9875000715255737
1781033193247890700,26.649890625,-38.53125,43.59375,1.9875000715255737
1781033193267895000,26.66989501953125,-34.10625076293945,44.56875228881836,5.587500095367432
1781033193287884000,26.689884033203125,-33.30000305175781,45.46875,10.256250381469727
1781033193307995100,26.7099951171875,-34.25625228881836,45.46875,15.675000190734863
1781033193347547000,26.749546875,-34.33125305175781,43.29375076293945,25.443750381469727
1781033193387677400,26.789677490234375,-35.34375,36.5625,30.76875114440918
1781033193407864300,26.8098642578125,-36.525001525878906,33.95625305175781,34.44375228881836
1781033193427891000,26.829890869140623,-35.13750076293945,30.412500381469727,38.83125305175781
1781033193447895600,26.8498955078125,-35.13750076293945,30.412500381469727,38.83125305175781
1781033193467892000,26.86989208984375,-36.09375,24.656251907348633,46.743751525878906
1781033193487896300,26.889896240234375,-36.1875,21.46875,47.868751525878906
1781033193508129500,26.910129638671876,-33.806251525878906,19.631250381469727,49.29375076293945
1781033193528126000,26.9301259765625,-30.918750762939453,15.637500762939453,50.51250076293945
1781033193548130300,26.95013037109375,-30.356250762939453,11.606250762939453,50.47500228881836
1781033193568126700,26.970126708984374,-33.01875305175781,7.912500381469727,49.275001525878906
1781033193588131000,26.990131103515626,-32.66250228881836,4.3125,50.118751525878906
1781033193608135400,27.010135498046875,-30.731250762939453,3.1125001907348633,52.462501525878906
1781033193627895600,27.0298955078125,-28.89375114440918,1.5,51.86250305175781
1781033193647892200,27.049892333984374,-26.381250381469727,-0.16875000298023224,50.41875076293945
1781033193667889000,27.069888916015625,-26.08125114440918,-2.2687501907348633,50.587501525878906
1781033193687885600,27.089885498046876,-24.48750114440918,-5.15625,47.962501525878906
1781033193708126000,27.1101259765625,-23.08125114440918,-7.987500190734863,46.40625
1781033193728130300,27.13013037109375,-23.90625,-9.1875,48.375003814697266
1781033193748127000,27.150126953125,-23.662500381469727,-9.768750190734863,48.30000305175781
1781033193768131300,27.17013134765625,-24.543750762939453,-11.925000190734863,47.45625305175781
1781033193788128000,27.1901279296875,-24.95625114440918,-12.843750953674316,47.775001525878906
1781033193808124700,27.210124755859376,-23.17500114440918,-13.55625057220459,46.21875
1781033193827892500,27.229892578125,-22.556251525878906,-13.518750190734863,44.13750076293945
1781033193847889200,27.24988916015625,-21.431251525878906,-15.562500953674316,42.45000076293945
1781033193867885800,27.2698857421875,-21.637500762939453,-16.96875,41.66250228881836
1781033193887890200,27.28989013671875,-20.73750114440918,-18.01875114440918,40.5
1781033193908123100,27.310123046875,-19.59375,-20.287500381469727,38.587501525878906
1781033193928119800,27.330119873046876,-19.631250381469727,-20.15625,37.76250076293945
1781033193948124200,27.350124267578124,-18.693750381469727,-21.337501525878906,37.42500305175781
1781033193968120600,27.37012060546875,-17.793750762939453,-22.40625,36.03750228881836
1781033193988125000,27.390125,-18.01875114440918,-24.450000762939453,34.368751525878906
1781033194008129300,27.41012939453125,-17.775001525878906,-25.23750114440918,34.06875228881836
1781033194027897000,27.42989697265625,-18.67500114440918,-25.61250114440918,34.03125
1781033194047901400,27.4499013671875,-20.25,-26.756250381469727,33.9375
1781033194067898000,27.469898193359374,-18.918750762939453,-26.83125114440918,33.07500076293945
1781033194087894500,27.48989453125,-17.287500381469727,-28.012500762939453,32.94375228881836
1781033194108005600,27.510005615234373,-17.981250762939453,-27.431251525878906,33
1781033194147892700,27.549892822265626,-17.100000381469727,-26.681251525878906,32.868751525878906
1781033194167897000,27.56989697265625,-18.28125,-25.950000762939453,32.118751525878906
1781033194188015600,27.590015625,-19.42500114440918,-26.36250114440918,31.462501525878906
1781033194208194800,27.61019482421875,-19.387500762939453,-26.868751525878906,32.45625305175781
1781033194227894000,27.62989404296875,-18.037500381469727,-25.725000381469727,32.56875228881836
1781033194247890700,27.649890625,-13.293750762939453,-25.668750762939453,31.481250762939453
