time,seconds_elapsed,z,y,x
1780527291216741400,-0.257258544921875,-33.23999786376953,-21.420000076293945,-1.4399999380111694
1780527291267309000,-0.20669091796875,-33.18000030517578,-22.260000228881836,-0.47999998927116394
1780527291277440800,-0.196559326171875,-32.70000076293945,-22.5,0
1780527291307775200,-0.166224853515625,-32.52000045776367,-23.69999885559082,-0.35999998450279236
1780527291317907200,-0.1560927734375,-32.040000915527344,-23.8799991607666,0.35999998450279236
1780527291348211200,-0.125788818359375,-30.599998474121094,-23.459999084472656,1.4399999380111694
1780527291358312400,-0.1156875,-30.299999237060547,-23.279998779296875,0.7799999713897705
1780527291388677400,-0.085322509765625,-29.760000228881836,-23.760000228881836,-0.9599999785423279
1780527291408941000,-0.065058837890625,-30.239999771118164,-21.959999084472656,-0.11999999731779099
1780527291419042300,-0.054957763671875,-29.459999084472656,-22.3799991607666,0.11999999731779099
1780527291449377000,-0.024623046875,-28.739999771118164,-22.739999771118164,0.17999999225139618
1780527291459508700,-0.0144912109375,-29.099998474121094,-22.85999870300293,0.11999999731779099
1780527291469610000,-0.00439013671875,-28.799999237060547,-23.219999313354492,0.29999998211860657
1780527291499944400,0.0259443359375,-28.260000228881836,-24.65999984741211,-0.35999998450279236
1780527291530309600,0.0563095703125,-28.439998626708984,-24.059999465942383,-0.47999998927116394
1780527291540441300,0.06644140625,-28.920000076293945,-22.799999237060547,0.17999999225139618
1780527291560705000,0.086705078125,-29.579999923706055,-23.03999900817871,-1.3199999332427979
1780527291580938200,0.106938232421875,-29.760000228881836,-23.81999969482422,-0.9599999785423279
1780527291591070000,0.117070068359375,-29.459999084472656,-23.939998626708984,-0.47999998927116394
1780527291601171500,0.12717138671875,-28.920000076293945,-24.239999771118164,0.41999998688697815
1780527291611303200,0.13730322265625,-28.619998931884766,-24.299999237060547,0.11999999731779099
1780527291621404400,0.147404296875,-29.51999855041504,-24.119998931884766,-0.8999999761581421
1780527291631506000,0.157505859375,-29.760000228881836,-23.81999969482422,-0.47999998927116394
1780527291661840400,0.18784033203125,-29.639999389648438,-23.639999389648438,-1.2599999904632568
1780527291671941600,0.197941650390625,-29.459999084472656,-24,-2.3999998569488525
1780527291682043000,0.20804296875,-29.939998626708984,-24,-2.2799999713897705
1780527291692144000,0.21814404296875,-30.299999237060547,-23.279998779296875,-1.9799998998641968
1780527291712347000,0.238346923828125,-30.53999900817871,-24.059999465942383,-0.9599999785423279
1780527291722478600,0.248478515625,-29.639999389648438,-23.8799991607666,0.11999999731779099
1780527291833623800,0.359623779296875,-30.35999870300293,-24.239999771118164,-0.8399999737739563
1780527291853826300,0.379826416015625,-30.84000015258789,-24.420000076293945,0.17999999225139618
1780527291863897000,0.38989697265625,-30.84000015258789,-24.420000076293945,0.17999999225139618
1780527291884099800,0.410099853515625,-30.53999900817871,-24.779998779296875,-1.0199999809265137
1780527291914403800,0.44040380859375,-29.399999618530273,-24.119998931884766,-1.7400000095367432
1780527291924474600,0.450474609375,-31.5,-23.03999900817871,-0.5399999618530273
1780527291944677000,0.470677001953125,-30.65999984741211,-22.739999771118164,-0.29999998211860657
1780527291954778600,0.480778564453125,-30.65999984741211,-22.920000076293945,-0.6599999666213989
1780527291964849400,0.490849365234375,-30.65999984741211,-23.100000381469727,-1.0799999237060547
1780527291985052000,0.511052001953125,-31.739999771118164,-23.459999084472656,-0.6599999666213989
1780527292005193500,0.531193359375,-31.739999771118164,-23.459999084472656,-0.47999998927116394
1780527292015295000,0.541294921875,-31.979999542236328,-23.760000228881836,-0.8999999761581421
1780527292025365800,0.55136572265625,-31.439998626708984,-24.53999900817871,-1.7400000095367432
1780527292035436500,0.5614365234375,-30.84000015258789,-24.899999618530273,-1.7400000095367432
1780527292045476900,0.571476806640625,-30.479999542236328,-25.619998931884766,-1.8600000143051147
1780527292055578000,0.581578125,-29.639999389648438,-26.03999900817871,-1.9799998998641968
1780527292065679400,0.591679443359375,-30.119998931884766,-25.139999389648438,-1.2599999904632568
1780527292105993200,0.6319931640625,-31.67999839782715,-25.31999969482422,-0.17999999225139618
1780527292116094500,0.642094482421875,-30.65999984741211,-24.959999084472656,-0.8999999761581421
1780527292126195700,0.65219580078125,-29.939998626708984,-25.3799991607666,-1.1999999284744263
1780527292136266500,0.6622666015625,-30.599998474121094,-24.959999084472656,-1.7400000095367432
1780527292146367700,0.67236767578125,-30.059999465942383,-23.8799991607666,-1.7999999523162842
1780527292156469200,0.68246923828125,-30.119998931884766,-24,-1.1999999284744263
1780527292166570500,0.692570556640625,-31.31999969482422,-22.979999542236328,-1.6200000047683716
1780527292206884400,0.73288427734375,-30.479999542236328,-24.35999870300293,-1.0199999809265137
1780527292216985600,0.742985595703125,-31.079999923706055,-24.18000030517578,-0.9599999785423279
1780527292237127200,0.763127197265625,-30.53999900817871,-23.399999618530273,-1.0799999237060547
1780527292247198000,0.773197998046875,-30.65999984741211,-22.979999542236328,-1.559999942779541
1780527292257268700,0.783268798828125,-30.959999084472656,-22.3799991607666,-1.7400000095367432
1780527292267370000,0.793369873046875,-31.31999969482422,-22.920000076293945,-2.3999998569488525
1780527292277471500,0.803471435546875,-31.799999237060547,-22.979999542236328,-1.5
1780527292327978000,0.85397802734375,-31.739999771118164,-23.219999313354492,0.41999998688697815
1780527292338079200,0.864079345703125,-31.799999237060547,-23.34000015258789,0.5999999642372131
1780527292348150000,0.87414990234375,-32.57999801635742,-23.219999313354492,-0.5399999618530273
1780527292358251500,0.88425146484375,-32.040000915527344,-23.51999855041504,-0.41999998688697815
1780527292368352800,0.894352783203125,-30.719999313354492,-23.81999969482422,-0.5399999618530273
1780527292378423600,0.904423583984375,-30.599998474121094,-24.420000076293945,-1.2599999904632568
1780527292388524800,0.91452490234375,-29.8799991607666,-24.84000015258789,-1.2599999904632568
1780527292408697000,0.934697021484375,-32.21999740600586,-24.600000381469727,-2.5799999237060547
1780527292438940000,0.96493994140625,-31.19999885559082,-23.34000015258789,-1.3199999332427979
1780527292449041200,0.975041259765625,-30.779998779296875,-24.119998931884766,-1.4399999380111694
1780527292459173000,0.985173095703125,-30.479999542236328,-24.35999870300293,-1.6200000047683716
1780527292479345200,1.00534521484375,-32.040000915527344,-22.619998931884766,-1.7999999523162842
1780527292489446400,1.0154462890625,-31.079999923706055,-21.53999900817871,-1.6799999475479126
1780527292529790700,1.055790771484375,-30.899999618530273,-21.53999900817871,-0.7199999690055847
1780527292539861500,1.065861572265625,-30.119998931884766,-22.31999969482422,-1.6200000047683716
1780527292549993500,1.075993408203125,-29.760000228881836,-21.719999313354492,-1.5
1780527292560125200,1.086125244140625,-29.8799991607666,-20.81999969482422,-1.6799999475479126
1780527292570196000,1.096196044921875,-29.03999900817871,-19.920000076293945,-1.8600000143051147
1780527292580297200,1.106297119140625,-30.779998779296875,-18.53999900817871,-2.759999990463257
1780527292590368000,1.116367919921875,-30.84000015258789,-18.719999313354492,-3.5399999618530273
1780527292600469500,1.126469482421875,-30.779998779296875,-17.8799991607666,-3.4800000190734863
1780527292650976000,1.17697607421875,-31.85999870300293,-14.09999942779541,-3.119999885559082
1780527292661046800,1.187046875,-30.719999313354492,-13.859999656677246,-4.199999809265137
1780527292671117600,1.19711767578125,-30.899999618530273,-13.4399995803833,-4.5
1780527292681188400,1.207188232421875,-29.81999969482422,-13.199999809265137,-4.799999713897705
1780527292691289900,1.217289794921875,-30.35999870300293,-11.880000114440918,-4.859999656677246
1780527292701391000,1.22739111328125,-30.719999313354492,-11.34000015258789,-4.319999694824219
1780527292741766000,1.267765869140625,-31.739999771118164,-6.899999618530273,-3.7200000286102295
1780527292751897600,1.277897705078125,-30.599998474121094,-6.960000038146973,-3.8999998569488525
1780527292761968400,1.287968505859375,-30.65999984741211,-5.579999923706055,-4.440000057220459
1780527292772039200,1.2980390625,-30.84000015258789,-4.559999942779541,-4.440000057220459
1780527292782140700,1.308140625,-29.8799991607666,-3.9599997997283936,-4.139999866485596
1780527292792242000,1.318241943359375,-30.299999237060547,-2.4600000381469727,-3.5999999046325684
1780527292802343200,1.32834326171875,-29.399999618530273,-1.6200000047683716,-3.059999942779541
1780527292812414000,1.3384140625,-28.619998931884766,-0.41999998688697815,-2.93999981880188
1780527292822515200,1.34851513671875,-29.399999618530273,0.7199999690055847,-3.119999885559082
1780527292832586200,1.358586181640625,-28.920000076293945,2.0399999618530273,-3.7200000286102295
1780527292852697000,1.378697021484375,-26.8799991607666,4.079999923706055,-4.079999923706055
1780527292862798600,1.388798583984375,-25.920000076293945,5.819999694824219,-4.319999694824219
1780527292893041400,1.41904150390625,-24.84000015258789,9.719999313354492,-3.8399999141693115
1780527292953619000,1.479618896484375,-23.03999900817871,16.979999542236328,-2.700000047683716
1780527292963689700,1.489689697265625,-21.899999618530273,17.100000381469727,-2.3999998569488525
1780527292973791000,1.499791015625,-21,17.520000457763672,-1.8600000143051147
1780527292993993500,1.519993408203125,-19.439998626708984,18.479999542236328,-1.2599999904632568
1780527293004033800,1.53003369140625,-18.479999542236328,18.600000381469727,-1.0799999237060547
1780527293014135300,1.54013525390625,-17.81999969482422,19.559999465942383,-0.7799999713897705
1780527293024267000,1.55026708984375,-16.260000228881836,20.219999313354492,-0.8399999737739563
1780527293034337800,1.560337890625,-15.359999656677246,20.760000228881836,-0.6599999666213989
1780527293044378000,1.570378173828125,-13.859999656677246,21.84000015258789,-0.6599999666213989
1780527293054479400,1.580479248046875,-12.300000190734863,22.079999923706055,-0.7799999713897705
1780527293074651600,1.600651611328125,-9.539999961853027,22.260000228881836,0.11999999731779099
1780527293084753000,1.6107529296875,-8.579999923706055,22.559999465942383,0.47999998927116394
1780527293094854100,1.620854248046875,-7.739999771118164,22.799999237060547,1.0199999809265137
1780527293104986000,1.630986083984375,-7.679999828338623,23.399999618530273,1.1999999284744263
1780527293115087400,1.64108740234375,-6.179999828338623,23.81999969482422,1.2599999904632568
1780527293125158100,1.651158203125,-4.679999828338623,24.18000030517578,1.1399999856948853
1780527293155462100,1.681462158203125,-0.41999998688697815,24.65999984741211,1.0799999237060547
1780527293165533000,1.691532958984375,1.1999999284744263,24.479999542236328,1.4399999380111694
1780527293175603700,1.701603759765625,1.9799998998641968,24.959999084472656,1.8600000143051147
1780527293185735400,1.7117353515625,3.5399999618530273,24.719999313354492,1.9799998998641968
1780527293195806500,1.721806396484375,4.679999828338623,23.939998626708984,1.8600000143051147
1780527293205877200,1.731877197265625,4.980000019073486,23.939998626708984,1.9199999570846558
1780527293215948000,1.741947998046875,5.940000057220459,23.459999084472656,1.6799999475479126
1780527293226079700,1.752079833984375,6.539999961853027,23.639999389648438,1.9799998998641968
1780527293256383700,1.7823837890625,11.039999961853027,23.399999618530273,2.93999981880188
1780527293266454500,1.79245458984375,12.420000076293945,22.619998931884766,3.059999942779541
1780527293276586500,1.80258642578125,13.319999694824219,22.260000228881836,3.059999942779541
1780527293286657300,1.8126572265625,14.519999504089355,22.19999885559082,3.8399999141693115
1780527293296728000,1.82272802734375,13.799999237060547,21.899999618530273,3.7799999713897705
1780527293306829300,1.832829345703125,13.920000076293945,21.84000015258789,3.8999998569488525
1780527293316930600,1.8429306640625,13.319999694824219,22.079999923706055,3.8399999141693115
1780527293327031800,1.85303173828125,12.84000015258789,21.35999870300293,3.059999942779541
1780527293337102800,1.863102783203125,13.679999351501465,21.239999771118164,3.119999885559082
1780527293387579000,1.913578857421875,18.65999984741211,19.799999237060547,2.1599998474121094
1780527293427862000,1.953862060546875,19.619998931884766,21.899999618530273,3.6599998474121094
1780527293437963300,1.96396337890625,19.439998626708984,21.059999465942383,3.179999828338623
1780527293448034000,1.974033935546875,20.69999885559082,21.18000030517578,3.059999942779541
1780527293458166000,1.984166015625,20.219999313354492,21.719999313354492,2.5199999809265137
1780527293468236800,1.99423681640625,21,21.600000381469727,1.9799998998641968
1780527293478338000,2.004338134765625,21.299999237060547,22.260000228881836,1.6200000047683716
1780527293528753200,2.054753173828125,19.559999465942383,23.579999923706055,0.9599999785423279
1780527293548955600,2.07495556640625,18.239999771118164,25.5,0.5999999642372131
1780527293559057200,2.08505712890625,18.420000076293945,24.899999618530273,0.11999999731779099
1780527293569128000,2.0951279296875,16.979999542236328,26.34000015258789,-0.35999998450279236
1780527293579229200,2.105229248046875,16.559999465942383,26.8799991607666,-0.29999998211860657
1780527293599432000,2.125431884765625,15.119999885559082,28.439998626708984,0.6599999666213989
1780527293629674800,2.1556748046875,12.300000190734863,29.760000228881836,-0.05999999865889549
1780527293639745500,2.16574560546875,11.579999923706055,30.599998474121094,-0.23999999463558197
1780527293649816300,2.17581640625,10.260000228881836,30.899999618530273,-0.6599999666213989
1780527293670019000,2.19601904296875,7.440000057220459,31.260000228881836,-0.9599999785423279
1780527293720403500,2.246403564453125,7.319999694824219,31.079999923706055,-2.3399999141693115
1780527293791051800,2.3170517578125,-0.5399999618530273,33.29999923706055,-0.9599999785423279
1780527293851598600,2.3775986328125,-2.3399999141693115,33.71999740600586,0.05999999865889549
1780527293861669400,2.38766943359375,-2.2200000286102295,33.47999954223633,-0.17999999225139618
1780527293871770600,2.3977705078125,-3.8399999141693115,33.36000061035156,-0.9599999785423279
1780527293881841400,2.40784130859375,-4.5,32.939998626708984,-2.0399999618530273
1780527293891943000,2.41794287109375,-6.239999771118164,32.880001068115234,-2.2200000286102295
1780527293902013700,2.428013671875,-7.319999694824219,33,-2.5799999237060547
1780527293912084500,2.43808447265625,-7.37999963760376,33.18000030517578,-2.5799999237060547
1780527293922155300,2.4481552734375,-8.460000038146973,33.65999984741211,-2.5199999809265137
1780527293952459300,2.478459228515625,-9.359999656677246,34.5,-1.7400000095367432
1780527293962499600,2.48849951171875,-8.9399995803833,34.31999969482422,-1.9799998998641968
1780527293972661800,2.498661865234375,-9.059999465942383,34.55999755859375,-2.5199999809265137
1780527293982763000,2.508762939453125,-8.519999504089355,34.79999923706055,-3
1780527293992864500,2.518864501953125,-8.760000228881836,34.20000076293945,-3.419999837875366
1780527294002935300,2.528935302734375,-8.09999942779541,34.31999969482422,-3.359999895095825
1780527294013036500,2.53903662109375,-7.199999809265137,34.2599983215332,-2.93999981880188
1780527294023107300,2.549107421875,-6.960000038146973,33.18000030517578,-3.419999837875366
1780527294033208600,2.55920849609375,-6.599999904632568,33.540000915527344,-3
1780527294043279400,2.569279296875,-7.079999923706055,33.29999923706055,-3.419999837875366
1780527294063512600,2.5895126953125,-7.980000019073486,35.040000915527344,-3.240000009536743
1780527294093755600,2.619755615234375,-6.480000019073486,35.21999740600586,-2.879999876022339
1780527294103826400,2.629826416015625,-6.299999713897705,34.73999786376953,-2.759999990463257
1780527294113958100,2.639958251953125,-6.420000076293945,34.86000061035156,-2.700000047683716
1780527294124029000,2.65002880859375,-6.420000076293945,34.2599983215332,-3.179999828338623
1780527294134099700,2.660099609375,-7.440000057220459,34.02000045776367,-3.6599998474121094
1780527294144231700,2.670231689453125,-8.639999389648438,33.779998779296875,-3.4800000190734863
1780527294164434200,2.69043408203125,-8.460000038146973,33.89999771118164,-2.2799999713897705
1780527294174505000,2.7005048828125,-8.819999694824219,34.02000045776367,-1.6799999475479126
1780527294184606500,2.7106064453125,-7.799999713897705,33.779998779296875,-1.6200000047683716
1780527294235143400,2.761143310546875,-5.87999963760376,35.040000915527344,-1.7400000095367432
1780527294245245000,2.771244873046875,-6,34.86000061035156,-1.4399999380111694
1780527294255376600,2.781376708984375,-6.839999675750732,34.79999923706055,-1.9199999570846558
1780527294336370400,2.862370361328125,-8.279999732971191,34.5,-1.2599999904632568
1780527294356573000,2.882572998046875,-10.380000114440918,34.439998626708984,-0.29999998211860657
1780527294366705000,2.892704833984375,-11.15999984741211,34.439998626708984,-0.41999998688697815
1780527294376806100,2.90280615234375,-11.639999389648438,34.2599983215332,-0.47999998927116394
1780527294386937900,2.912937744140625,-12.539999961853027,34.02000045776367,-0.5999999642372131
1780527294397039400,2.923039306640625,-13.139999389648438,33.779998779296875,-1.0199999809265137
1780527294407140600,2.933140625,-13.380000114440918,33.599998474121094,-1.6200000047683716
1780527294417272300,2.943272216796875,-13.679999351501465,33.779998779296875,-1.1999999284744263
1780527294427373800,2.953373779296875,-12.59999942779541,33.84000015258789,-1.4399999380111694
1780527294437505500,2.963505615234375,-11.699999809265137,34.97999954223633,-1.5
1780527294447606800,2.973606689453125,-11.15999984741211,35.34000015258789,-1.6200000047683716
1780527294478002400,3.00400244140625,-10.5,35.15999984741211,-2.0399999618530273
1780527294488103700,3.014103759765625,-9.420000076293945,35.040000915527344,-1.7400000095367432
1780527294498235600,3.024235595703125,-8.279999732971191,35.099998474121094,-1.9799998998641968
1780527294508337000,3.0343369140625,-8.399999618530273,35.040000915527344,-2.1599998474121094
1780527294518468600,3.044468505859375,-8.039999961853027,35.15999984741211,-2.2200000286102295
1780527294528570000,3.054570068359375,-8.699999809265137,34.79999923706055,-1.9799998998641968
1780527294538701800,3.064701904296875,-9.84000015258789,35.459999084472656,-1.8600000143051147
1780527294548803000,3.074802978515625,-9.899999618530273,35.52000045776367,-1.4399999380111694
1780527294558935000,3.08493505859375,-10.619999885559082,35.63999938964844,-1.1399999856948853
1780527294579137500,3.105137451171875,-11.09999942779541,36,-0.17999999225139618
1780527294589269500,3.11526953125,-10.139999389648438,35.39999771118164,0.05999999865889549
1780527294599370800,3.125370849609375,-9.420000076293945,36.05999755859375,0.29999998211860657
1780527294609502700,3.135502685546875,-8.699999809265137,35.39999771118164,0.41999998688697815
1780527294619604000,3.14560400390625,-8.399999618530273,34.439998626708984,-0.5399999618530273
1780527294629735700,3.155735595703125,-8.579999923706055,36.18000030517578,-0.23999999463558197
1780527294639837200,3.165837158203125,-8.220000267028809,35.099998474121094,-0.5999999642372131
1780527294649938400,3.1759384765625,-8.819999694824219,36.41999816894531,-0.7199999690055847
1780527294680303400,3.206303466796875,-9.84000015258789,37.20000076293945,-0.29999998211860657
1780527294730871000,3.25687109375,-5.039999961853027,36.779998779296875,0.17999999225139618
1780527294741002800,3.267002685546875,-5.099999904632568,36.540000915527344,1.0799999237060547
1780527294751104300,3.277104248046875,-5.639999866485596,36.540000915527344,1.4399999380111694
1780527294761205500,3.28720556640625,-5.519999980926514,35.57999801635742,0.8999999761581421
1780527294801610800,3.32761083984375,-4.079999923706055,36.540000915527344,0.8399999737739563
1780527294811681500,3.337681640625,-3.299999952316284,36.05999755859375,0.47999998927116394
1780527294821813500,3.3478134765625,-3.8399999141693115,36.29999923706055,0.41999998688697815
1780527294831914800,3.357914794921875,-4.5,36,0.17999999225139618
1780527294842016000,3.36801611328125,-4.920000076293945,36.47999954223633,0.5399999618530273
1780527294852148000,3.37814794921875,-5.279999732971191,36.71999740600586,0.5399999618530273
1780527294872411600,3.39841162109375,-4.440000057220459,36.779998779296875,0.7799999713897705
1780527294882482400,3.408482421875,-4.259999752044678,36.779998779296875,0.47999998927116394
1780527294892614100,3.4186142578125,-4.380000114440918,37.02000045776367,0.6599999666213989
1780527294902746000,3.42874609375,-4.380000114440918,37.79999923706055,0.7799999713897705
1780527294912847400,3.438847412109375,-3.8999998569488525,37.20000076293945,0.8999999761581421
1780527294922948600,3.448948486328125,-4.259999752044678,36.65999984741211,1.1999999284744263
1780527294933111000,3.459111083984375,-4.139999866485596,36.84000015258789,1.2599999904632568
1780527294943212300,3.46921240234375,-4.019999980926514,35.880001068115234,0.8399999737739563
1780527294953344300,3.47934423828125,-4.859999656677246,36.89999771118164,0.8999999761581421
1780527294963445500,3.489445556640625,-4.679999828338623,37.2599983215332,0.7199999690055847
1780527294983678700,3.5096787109375,-4.920000076293945,37.31999969482422,1.1999999284744263
1780527295013952000,3.539951904296875,-3.419999837875366,36.71999740600586,1.1399999856948853
1780527295024022800,3.550022705078125,-2.3399999141693115,36.119998931884766,0.8399999737739563
1780527295054265900,3.580265869140625,-2.5199999809265137,36.959999084472656,1.0199999809265137
1780527295084508700,3.6105087890625,-3,38.459999084472656,0.29999998211860657
1780527295104681000,3.630680908203125,-2.93999981880188,37.86000061035156,1.6799999475479126
1780527295114782200,3.6407822265625,-2.879999876022339,37.5,2.3399999141693115
1780527295124883500,3.650883544921875,-3.059999942779541,37.86000061035156,2.5199999809265137
1780527295165288700,3.691288818359375,-4.079999923706055,37.68000030517578,2.4600000381469727
1780527295175390200,3.70139013671875,-3.7799999713897705,37.68000030517578,2.700000047683716
1780527295185491500,3.711491455078125,-3.419999837875366,37.55999755859375,2.6399998664855957
1780527295195562200,3.721562255859375,-3.059999942779541,37.55999755859375,2.5199999809265137
1780527295205663500,3.73166357421875,-2.819999933242798,36.89999771118164,2.879999876022339
1780527295215734300,3.741734375,-3.059999942779541,36.89999771118164,3.299999952316284
1780527295235906600,3.761906494140625,-3.179999828338623,37.55999755859375,3.5399999618530273
1780527295245977300,3.771977294921875,-3.7799999713897705,38.099998474121094,3.419999837875366
1780527295256078600,3.78207861328125,-3.179999828338623,38.57999801635742,3.179999828338623
1780527295266179800,3.792179931640625,-2.700000047683716,38.63999938964844,3.359999895095825
1780527295276281000,3.802281005859375,-3,38.939998626708984,3.059999942779541
1780527295286352000,3.812351806640625,-2.5199999809265137,38.63999938964844,3.5399999618530273
1780527295296423000,3.8224228515625,-2.759999990463257,38.57999801635742,4.139999866485596
1780527295306524200,3.832524169921875,-1.9199999570846558,38.040000915527344,3.7200000286102295
1780527295316625400,3.84262548828125,-1.6799999475479126,38.57999801635742,4.5
1780527295326757400,3.85275732421875,-0.7199999690055847,38.81999969482422,4.799999713897705
1780527295336858600,3.862858642578125,-0.29999998211860657,38.81999969482422,4.799999713897705
1780527295346960000,3.8729599609375,-1.0799999237060547,39.36000061035156,6
1780527295357030700,3.88303076171875,0.17999999225139618,38.87999725341797,6.659999847412109
1780527295377233400,3.9032333984375,0.35999998450279236,37.619998931884766,6.539999961853027
1780527295387304200,3.91330419921875,0.8399999737739563,36.959999084472656,6.420000076293945
1780527295397405400,3.923405517578125,0.8399999737739563,36.599998474121094,6.239999771118164
1780527295407476200,3.933476318359375,0.5399999618530273,37.31999969482422,7.259999752044678
1780527295417577500,3.943577392578125,1.1999999284744263,36.959999084472656,7.619999885559082
1780527295427648500,3.9536484375,1.1999999284744263,37.31999969482422,8.15999984741211
1780527295437749800,3.963749755859375,0.23999999463558197,37.439998626708984,8.15999984741211
1780527295447820500,3.973820556640625,1.1999999284744263,37.380001068115234,7.799999713897705
1780527295457891300,3.983891357421875,0.29999998211860657,36.89999771118164,7.199999809265137
1780527295467992600,3.99399267578125,0.47999998927116394,37.07999801635742,6.960000038146973
1780527295538518800,4.064518798828125,0.5399999618530273,35.7599983215332,5.819999694824219
1780527295568761600,4.09476171875,1.9799998998641968,35.70000076293945,5.21999979019165
1780527295599035100,4.12503515625,0.8999999761581421,35.39999771118164,4.139999866485596
1780527295609136400,4.135136474609375,0.6599999666213989,34.5,3.359999895095825
1780527295629308400,4.155308349609375,-0.8399999737739563,33.599998474121094,2.4600000381469727
1780527295639410000,4.165409912109375,-1.1399999856948853,33.05999755859375,2.3399999141693115
1780527295689763800,4.215763916015625,-1.8600000143051147,31.139999389648438,1.1999999284744263
1780527295780553700,4.3065537109375,0.7799999713897705,29.15999984741211,0.8399999737739563
1780527295790624500,4.31662451171875,-0.11999999731779099,29.34000015258789,0.6599999666213989
1780527295800664800,4.326664794921875,-1.1999999284744263,30,0.6599999666213989
1780527295810766000,4.33676611328125,-1.6799999475479126,29.51999855041504,1.0199999809265137
1780527295820867300,4.346867431640625,-1.6200000047683716,29.219999313354492,1.0199999809265137
1780527295830968600,4.356968505859375,-1.4399999380111694,28.979999542236328,0.8999999761581421
1780527295841009000,4.3670087890625,-0.7799999713897705,29.03999900817871,1.6799999475479126
1780527295901556000,4.427555908203125,1.3199999332427979,30.119998931884766,4.019999980926514
1780527295972173600,4.498173583984375,0.9599999785423279,29.579999923706055,6
1780527296002416400,4.52841650390625,-0.7199999690055847,30.17999839782715,5.87999963760376
1780527296012487200,4.538487060546875,-1.3799999952316284,30.779998779296875,5.519999980926514
1780527296022558000,4.548557861328125,-0.47999998927116394,30.239999771118164,5.159999847412109
1780527296093053700,4.6190537109375,-4.559999942779541,33,5.21999979019165
1780527296103124500,4.62912451171875,-4.079999923706055,33.05999755859375,5.279999732971191
1780527296153600500,4.6796005859375,1.0799999237060547,33.23999786376953,6.839999675750732
1780527296183874000,4.7098740234375,6.299999713897705,31.979999542236328,5.819999694824219
1780527296204015600,4.730015625,7.079999923706055,31.979999542236328,4.739999771118164
1780527296214147300,4.740147216796875,7.139999866485596,31.5,4.259999752044678
1780527296244390400,4.770390380859375,9.300000190734863,30.479999542236328,2.5199999809265137
1780527296294866400,4.820866455078125,9.65999984741211,29.279998779296875,0.29999998211860657
1780527296385656300,4.91165625,6.71999979019165,32.279998779296875,-1.9199999570846558
1780527296466314200,4.992314208984375,7.079999923706055,31.559999465942383,-3.7200000286102295
1780527296536931800,5.062931884765625,9.179999351501465,32.34000015258789,-4.319999694824219
1780527296557103900,5.083103759765625,10.619999885559082,33.05999755859375,-5.339999675750732
1780527296567174700,5.093174560546875,11.15999984741211,32.939998626708984,-5.21999979019165
1780527296577245400,5.103245361328125,11.34000015258789,33.89999771118164,-4.559999942779541
1780527296587316500,5.11331640625,10.979999542236328,33.71999740600586,-4.739999771118164
1780527296597448200,5.1234482421875,11.819999694824219,33.29999923706055,-4.199999809265137
1780527296607549400,5.133549560546875,10.5,34.31999969482422,-3.9599997997283936
1780527296617620200,5.1436201171875,11.460000038146973,34.07999801635742,-3.8399999141693115
1780527296688299000,5.214299072265625,11.639999389648438,36.18000030517578,-1.1999999284744263
1780527296698339300,5.22433935546875,11.699999809265137,36.47999954223633,-1.3199999332427979
1780527296708440600,5.234440673828125,11.75999927520752,37.20000076293945,-1.7999999523162842
1780527296728643300,5.254643310546875,10.920000076293945,37.13999938964844,-1.6799999475479126
1780527296738683600,5.26468359375,10.739999771118164,36.71999740600586,-1.2599999904632568
1780527296758886100,5.28488623046875,12.359999656677246,36.65999984741211,-0.41999998688697815
1780527296779058200,5.30505810546875,12.119999885559082,37.86000061035156,-0.29999998211860657
1780527296789159700,5.31515966796875,11.460000038146973,38.099998474121094,-0.11999999731779099
1780527296799291400,5.32529150390625,10.859999656677246,38.34000015258789,0
1780527296809362200,5.335362060546875,11.219999313354492,38.63999938964844,0.5399999618530273
1780527296819433000,5.345432861328125,11.039999961853027,38.7599983215332,0.7199999690055847
1780527296829565000,5.35556494140625,11.34000015258789,38.57999801635742,1.0799999237060547
1780527296839605200,5.365605224609375,11.9399995803833,39.18000030517578,1.9199999570846558
1780527296849706500,5.37570654296875,11.639999389648438,38.939998626708984,1.8600000143051147
1780527296859807700,5.385807861328125,11.699999809265137,39.23999786376953,2.0999999046325684
1780527296869909200,5.3959091796875,11.279999732971191,39.29999923706055,2.1599998474121094
1780527296879949300,5.40594921875,10.920000076293945,38.7599983215332,1.8600000143051147
1780527296900152000,5.426152099609375,11.699999809265137,39.29999923706055,2.2200000286102295
1780527296910253300,5.43625341796875,11.819999694824219,39.36000061035156,2.2200000286102295
1780527296920263200,5.44626318359375,11.519999504089355,39.65999984741211,1.9199999570846558
1780527296930395000,5.456394775390625,10.979999542236328,39.540000915527344,2.3999998569488525
1780527296940496400,5.466496337890625,10.859999656677246,39.65999984741211,2.0399999618530273
1780527296950567200,5.476567138671875,11.15999984741211,40.07999801635742,1.7999999523162842
1780527296970769700,5.496769775390625,11.09999942779541,40.31999969482422,2.1599998474121094
1780527296980871200,5.50687109375,10.739999771118164,40.55999755859375,2.0999999046325684
1780527297021184800,5.547184814453125,11.039999961853027,40.13999938964844,2.2200000286102295
1780527297061590000,5.587590087890625,10.260000228881836,40.73999786376953,3.4800000190734863
1780527297122198000,5.648197998046875,9.779999732971191,41.459999084472656,1.8600000143051147
1780527297192907300,5.7189072265625,9.59999942779541,40.97999954223633,2.0399999618530273
1780527297203008500,5.729008544921875,9.779999732971191,41.279998779296875,2.0399999618530273
1780527297213140200,5.73914013671875,11.039999961853027,40.97999954223633,1.8600000143051147
1780527297253606700,5.779606689453125,9.359999656677246,40.97999954223633,-0.05999999865889549
1780527297304174300,5.83017431640625,7.079999923706055,42.540000915527344,1.3799999952316284
1780527297314275600,5.840275634765625,7.980000019073486,42.540000915527344,1.1399999856948853
1780527297324376800,5.850376953125,8.220000267028809,42.84000015258789,0.8399999737739563
1780527297334478300,5.860478271484375,9.059999465942383,42.18000030517578,0.17999999225139618
1780527297344610000,5.870610107421875,9.359999656677246,41.70000076293945,0.47999998927116394
1780527297354711300,5.880711181640625,8.279999732971191,42.41999816894531,0.47999998927116394
1780527297364812800,5.890812744140625,8.34000015258789,42.05999755859375,-0.05999999865889549
1780527297374944500,5.900944580078125,8.15999984741211,42.23999786376953,-0.05999999865889549
1780527297385045800,5.911045654296875,7.5,42.779998779296875,-0.9599999785423279
1780527297395147300,5.921147216796875,7.559999942779541,41.7599983215332,-1.1399999856948853
1780527297405248500,5.93124853515625,7.37999963760376,42.599998474121094,-0.47999998927116394
1780527297415411000,5.941410888671875,6,43.07999801635742,-0.17999999225139618
1780527297425512200,5.95151220703125,6.420000076293945,42.29999923706055,-0.17999999225139618
1780527297435613400,5.961613525390625,6.239999771118164,42.18000030517578,-0.8399999737739563
1780527297445714700,5.971714599609375,5.639999866485596,41.7599983215332,-1.0199999809265137
1780527297455846700,5.9818466796875,6.539999961853027,42.47999954223633,-0.9599999785423279
1780527297465948000,5.991947998046875,6.420000076293945,43.439998626708984,-0.7199999690055847
1780527297476049200,6.002049072265625,5.639999866485596,44.040000915527344,-0.35999998450279236
1780527297486150700,6.012150634765625,6.359999656677246,43.37999725341797,-0.35999998450279236
1780527297496282400,6.022282470703125,5.759999752044678,42.959999084472656,-0.7799999713897705
1780527297506414300,6.032414306640625,4.799999713897705,42.89999771118164,-0.6599999666213989
1780527297516515600,6.042515625,4.679999828338623,42.84000015258789,-0.29999998211860657
1780527297526616800,6.052616943359375,4.259999752044678,43.86000061035156,0.5399999618530273
1780527297536718300,6.06271826171875,4.619999885559082,43.79999923706055,0.8399999737739563
1780527297546850000,6.07285009765625,4.739999771118164,43.97999954223633,0.5399999618530273
1780527297556951300,6.082951416015625,6,43.91999816894531,0.23999999463558197
1780527297567052800,6.093052734375,5.579999923706055,43.97999954223633,-0.47999998927116394
1780527297577184500,6.1031845703125,5.400000095367432,43.439998626708984,-1.0199999809265137
1780527297587285800,6.11328564453125,5.159999847412109,43.619998931884766,-0.5399999618530273
1780527297597387300,6.12338720703125,4.019999980926514,43.86000061035156,-0.35999998450279236
1780527297607488500,6.133488525390625,3.8399999141693115,43.79999923706055,0.17999999225139618
1780527297617589800,6.14358984375,3.299999952316284,44.040000915527344,0.9599999785423279
1780527297627721700,6.1537216796875,3.5999999046325684,43.73999786376953,0.8399999737739563
1780527297637823000,6.163822998046875,3.7799999713897705,43.91999816894531,1.2599999904632568
1780527297647924200,6.17392431640625,4.079999923706055,43.86000061035156,0.7799999713897705
1780527297658056200,6.18405615234375,4.559999942779541,42.959999084472656,0.8399999737739563
1780527297668157400,6.194157470703125,4.859999656677246,42.84000015258789,0.8999999761581421
1780527297678228200,6.204228271484375,4.440000057220459,42.18000030517578,0.9599999785423279
1780527297688360000,6.21435986328125,4.319999694824219,41.939998626708984,1.6200000047683716
1780527297758886100,6.28488623046875,8.279999732971191,43.13999938964844,3.5399999618530273
1780527297819402500,6.345402587890625,8.880000114440918,42.540000915527344,4.619999885559082
1780527297829473300,6.355473388671875,7.859999656677246,42.36000061035156,4.559999942779541
1780527297839544000,6.3655439453125,8.09999942779541,42.41999816894531,5.279999732971191
1780527297910131200,6.436131103515625,10.319999694824219,41.39999771118164,6
1780527297950475500,6.4764755859375,8.460000038146973,39.119998931884766,4.980000019073486
1780527297960576800,6.48657666015625,8.819999694824219,39.47999954223633,4.199999809265137
1780527298000951600,6.52695166015625,8.639999389648438,38.21999740600586,1.5
1780527298041296000,6.5672958984375,6.839999675750732,36.89999771118164,0.7799999713897705
1780527298091711000,6.6177109375,5.039999961853027,35.57999801635742,-1.6200000047683716
1780527298101781800,6.62778173828125,4.5,35.459999084472656,-1.7999999523162842
1780527298131994000,6.657994140625,5.159999847412109,34.02000045776367,-4.139999866485596
1780527298142065000,6.66806494140625,5.519999980926514,33.47999954223633,-4.679999828338623
1780527298152135700,6.6781357421875,5.940000057220459,33.23999786376953,-4.380000114440918
1780527298172277200,6.69827734375,3.7799999713897705,33.47999954223633,-3.119999885559082
1780527298182348000,6.70834814453125,3.5399999618530273,33.47999954223633,-2.879999876022339
1780527298192418800,6.718418701171875,2.93999981880188,33.29999923706055,-3.119999885559082
1780527298202520300,6.728520263671875,2.819999933242798,33.119998931884766,-3.5999999046325684
1780527298252935200,6.77893505859375,2.819999933242798,31.5,-3.299999952316284
1780527298263006000,6.789005859375,3.8399999141693115,31.31999969482422,-3.5999999046325684
1780527298273107500,6.799107421875,5.21999979019165,31.559999465942383,-2.819999933242798
1780527298283208700,6.809208740234375,5.579999923706055,31.260000228881836,-2.6399998664855957
1780527298293279500,6.819279541015625,7.440000057220459,31.67999839782715,-1.6799999475479126
1780527298303380700,6.829380615234375,7.679999828338623,31.739999771118164,-1.0799999237060547
1780527298313451500,6.839451416015625,7.259999752044678,31.920000076293945,-1.1399999856948853
1780527298323522300,6.849522216796875,8.34000015258789,32.099998474121094,-0.05999999865889549
1780527298333623800,6.859623779296875,8.15999984741211,31.739999771118164,0.35999998450279236
1780527298343694600,6.869694580078125,8.15999984741211,31.739999771118164,1.0799999237060547
1780527298353765400,6.879765380859375,8.279999732971191,31.5,1.7400000095367432
1780527298363836200,6.889836181640625,7.919999599456787,31.619998931884766,1.8600000143051147
1780527298373937400,6.8999375,7.679999828338623,32.15999984741211,2.5199999809265137
1780527298384008200,6.91000830078125,7.37999963760376,32.15999984741211,2.6399998664855957
1780527298394079000,6.920078857421875,7.5,32.15999984741211,3.119999885559082
1780527298404149800,6.930149658203125,7.440000057220459,32.34000015258789,3.8399999141693115
1780527298414220500,6.940220458984375,8.399999618530273,32.63999938964844,4.319999694824219
1780527298424322000,6.950322021484375,9.65999984741211,32.63999938964844,5.279999732971191
1780527298434362400,6.9603623046875,9.59999942779541,33.119998931884766,6.239999771118164
1780527298444433200,6.97043310546875,9.300000190734863,33.71999740600586,6.119999885559082
1780527298464635600,6.9906357421875,7.259999752044678,33.23999786376953,5.759999752044678
1780527298474706400,7.00070654296875,7.019999980926514,32.70000076293945,4.619999885559082
1780527298484838400,7.01083837890625,5.819999694824219,32.63999938964844,4.139999866485596
1780527298505010400,7.031010498046875,3.7200000286102295,33.36000061035156,4.079999923706055
1780527298515111700,7.041111572265625,2.93999981880188,33.89999771118164,4.799999713897705
1780527298525182500,7.051182373046875,3.299999952316284,33.23999786376953,4.619999885559082
1780527298535253200,7.061253173828125,3.5399999618530273,32.880001068115234,4.559999942779541
1780527298545324300,7.07132421875,3.5399999618530273,33,3.6599998474121094
1780527298555425500,7.081425537109375,3,33.47999954223633,3.4800000190734863
1780527298565496300,7.091496337890625,2.3399999141693115,34.02000045776367,4.139999866485596
1780527298595708700,7.121708740234375,3.240000009536743,34.31999969482422,3.299999952316284
1780527298676366600,7.20236669921875,7.019999980926514,33.119998931884766,0.29999998211860657
1780527298726781700,7.25278173828125,7.440000057220459,31.67999839782715,-2.5199999809265137
1780527298767126000,7.2931259765625,6.599999904632568,32.39999771118164,-3.5399999618530273
1780527298817540900,7.343540771484375,5.579999923706055,32.939998626708984,-4.559999942779541
1780527298877935400,7.403935302734375,7.259999752044678,33.36000061035156,-4.619999885559082
1780527298888067000,7.414067138671875,7.079999923706055,33.05999755859375,-4.739999771118164
1780527298898137900,7.424137939453125,6.359999656677246,32.63999938964844,-5.039999961853027
1780527298948522500,7.4745224609375,6.539999961853027,34.20000076293945,-4.380000114440918
1780527298958562800,7.484562744140625,7.079999923706055,35.099998474121094,-4.319999694824219
1780527298968633600,7.494633544921875,7.5,35.099998474121094,-4.920000076293945
1780527298978734800,7.50473486328125,8.220000267028809,35.880001068115234,-4.799999713897705
1780527298988805600,7.5148056640625,7.739999771118164,35.63999938964844,-4.5
1780527298998745900,7.524745849609375,7.37999963760376,35.279998779296875,-4.319999694824219
1780527299008847000,7.53484716796875,7.440000057220459,35.63999938964844,-4.019999980926514
1780527299018948600,7.544948486328125,8.34000015258789,34.79999923706055,-4.619999885559082
1780527299029019400,7.555019287109375,10.380000114440918,34.86000061035156,-4.440000057220459
1780527299039059700,7.565059814453125,11.880000114440918,35.21999740600586,-4.079999923706055
1780527299049161000,7.575160888671875,13.319999694824219,34.439998626708984,-4.199999809265137
1780527299059231700,7.585231689453125,13.199999809265137,35.39999771118164,-3.8999998569488525
1780527299069302500,7.595302490234375,12.479999542236328,36.599998474121094,-3.6599998474121094
1780527299159909000,7.6859091796875,13.4399995803833,37.07999801635742,-0.29999998211860657
1780527299220425500,7.746425537109375,11.639999389648438,38.939998626708984,-0.17999999225139618
1780527299260800300,7.78680029296875,13.739999771118164,38.81999969482422,0.5399999618530273
1780527299331448600,7.857448486328125,12.420000076293945,41.21999740600586,2.700000047683716
1780527299341519400,7.867519287109375,12.59999942779541,40.619998931884766,2.3999998569488525
1780527299351590100,7.877590087890625,12.960000038146973,40.55999755859375,2.4600000381469727
1780527299361661000,7.887660888671875,11.880000114440918,40.55999755859375,2.5199999809265137
1780527299371762200,7.89776220703125,11.579999923706055,40.68000030517578,1.9199999570846558
1780527299381863700,7.90786376953125,11.09999942779541,41.52000045776367,2.0399999618530273
1780527299412106500,7.9381064453125,11.15999984741211,41.87999725341797,2.5799999237060547
1780527299442380000,7.968380126953125,10.319999694824219,42.05999755859375,2.3399999141693115
1780527299513028000,8.039028076171874,9.59999942779541,41.459999084472656,1.9799998998641968
1780527299533261300,8.05926123046875,9,42.540000915527344,1.9199999570846558
1780527299543332000,8.06933203125,9.239999771118164,42.65999984741211,1.8600000143051147
1780527299553403000,8.07940283203125,10.260000228881836,43.37999725341797,1.9199999570846558
1780527299563504000,8.089504150390624,10.559999465942383,43.2599983215332,2.0399999618530273
1780527299573605600,8.099605712890625,10.319999694824219,43.2599983215332,1.6799999475479126
1780527299583707000,8.109706787109374,10.5,42.47999954223633,1.3199999332427979
1780527299593808100,8.11980810546875,9.420000076293945,42.41999816894531,1.1399999856948853
1780527299603909400,8.129909423828124,8.819999694824219,43.37999725341797,1.1399999856948853
1780527299644375800,8.170375732421874,7.139999866485596,44.87999725341797,1.7400000095367432
1780527299674679800,8.2006796875,9.179999351501465,44.63999938964844,1.7999999523162842
1780527299694882300,8.22088232421875,9.300000190734863,43.31999969482422,1.2599999904632568
1780527299775754000,8.30175390625,6.420000076293945,44.279998779296875,-0.5399999618530273
1780527299816189700,8.342189697265624,8.460000038146973,44.34000015258789,-0.6599999666213989
1780527299826291000,8.352291015625,8.09999942779541,44.21999740600586,-1.1999999284744263
1780527299836392400,8.362392333984374,7.559999942779541,44.040000915527344,-1.7400000095367432
1780527299846493700,8.37249365234375,6.119999885559082,44.39999771118164,-1.5
1780527299856595000,8.382594970703124,5.400000095367432,44.63999938964844,-1.559999942779541
1780527299886899000,8.41289892578125,5.639999866485596,46.20000076293945,-1.6799999475479126
1780527299897031000,8.423031005859375,7.079999923706055,45.65999984741211,-1.6799999475479126
1780527299907132200,8.433132080078124,7.5,45.779998779296875,-1.8600000143051147
1780527299917172500,8.44317236328125,6.359999656677246,45.29999923706055,-1.9799998998641968
1780527299927304200,8.45330419921875,5.699999809265137,44.279998779296875,-2.0399999618530273
1780527299937405400,8.463405517578124,4.440000057220459,44.63999938964844,-1.6799999475479126
1780527299947537400,8.473537353515624,3.7799999713897705,44.39999771118164,-1.1999999284744263
1780527299957638700,8.483638671875,4.019999980926514,44.39999771118164,-1.3799999952316284
1780527299977841400,8.50384130859375,3.8399999141693115,45.119998931884766,-2.0999999046325684
1780527299987942700,8.513942626953124,3.5999999046325684,45.18000030517578,-2.3999998569488525
1780527299998044000,8.5240439453125,3.359999895095825,45.119998931884766,-2.2200000286102295
1780527300008145400,8.5341455078125,3.299999952316284,45.18000030517578,-2.2799999713897705
1780527300028409000,8.5544091796875,3.299999952316284,45.65999984741211,-1.8600000143051147
1780527300038480000,8.56447998046875,3.8399999141693115,45.65999984741211,-1.5
1780527300048611600,8.574611572265624,3.5399999618530273,45,-1.2599999904632568
1780527300058712800,8.584712890625,3.299999952316284,45,-1.1999999284744263
1780527300068814300,8.594814453125,3.419999837875366,44.81999969482422,-0.7199999690055847
1780527300078946000,8.604946044921874,3.299999952316284,44.87999725341797,-0.29999998211860657
1780527300089047300,8.61504736328125,4.139999866485596,45.119998931884766,0.35999998450279236
1780527300099148800,8.625148681640624,4.139999866485596,44.87999725341797,0.23999999463558197
1780527300109250000,8.63525,4.139999866485596,45,0.35999998450279236
1780527300119351300,8.645351318359374,4.319999694824219,44.70000076293945,0.23999999463558197
1780527300139554000,8.665553955078124,6.179999828338623,44.52000045776367,0.7199999690055847
1780527300210080000,8.736080078125,9.300000190734863,43.20000076293945,2.700000047683716
1780527300240323000,8.766322998046874,9,43.13999938964844,4.259999752044678
1780527300280667400,8.80666748046875,9.119999885559082,42.71999740600586,2.879999876022339
1780527300290768600,8.8167685546875,8.15999984741211,42.65999984741211,2.93999981880188
1780527300300900400,8.826900390625,6.899999618530273,42.599998474121094,2.2200000286102295
1780527300311001900,8.837001953125,7.37999963760376,42.36000061035156,2.819999933242798
1780527300341305600,8.8673056640625,8.639999389648438,42.36000061035156,2.819999933242798
1780527300361416700,8.887416748046874,8.220000267028809,41.81999969482422,1.3799999952316284
1780527300371487500,8.897487548828124,7.5,41.459999084472656,1.1399999856948853
1780527300381619500,8.907619384765624,6.71999979019165,41.70000076293945,0.41999998688697815
1780527300391690200,8.917690185546874,6.239999771118164,41.040000915527344,-0.11999999731779099
1780527300401791500,8.92779150390625,6.239999771118164,40.73999786376953,0.11999999731779099
1780527300421994200,8.947994140625,5.819999694824219,39.84000015258789,-0.23999999463558197
1780527300432065000,8.95806494140625,5.87999963760376,39.71999740600586,-0.41999998688697815
1780527300442105300,8.968105224609374,6,39.71999740600586,-0.9599999785423279
1780527300452237000,8.978237060546874,5.819999694824219,39.18000030517578,-1.6200000047683716
1780527300502621700,9.02862158203125,6.659999847412109,37.02000045776367,-3.8399999141693115
1780527300532864500,9.058864501953124,4.739999771118164,36,-4.980000019073486
1780527300553006000,9.079006103515624,4.5,36.05999755859375,-4.559999942779541
1780527300573178400,9.099178466796875,4.079999923706055,35.099998474121094,-4.619999885559082
1780527300593380900,9.119380859375,3.7200000286102295,34.68000030517578,-5.039999961853027
1780527300603482000,9.129482177734374,3.240000009536743,34.2599983215332,-4.799999713897705
1780527300623624000,9.1496240234375,3.119999885559082,34.55999755859375,-5.099999904632568
1780527300633755600,9.159755615234374,3.059999942779541,33.84000015258789,-5.579999923706055
1780527300643826400,9.169826416015624,2.5199999809265137,33.47999954223633,-6.599999904632568
1780527300653897200,9.179897216796874,2.0399999618530273,33.599998474121094,-6.71999979019165
1780527300663998500,9.18999853515625,1.3799999952316284,33.119998931884766,-6.539999961853027
1780527300674100000,9.200099853515624,1.0199999809265137,33.29999923706055,-6.299999713897705
1780527300684170800,9.210170654296874,1.3199999332427979,33.71999740600586,-5.279999732971191
1780527300694272000,9.22027197265625,1.8600000143051147,33.599998474121094,-4.859999656677246
1780527300704342800,9.2303427734375,2.1599998474121094,33.71999740600586,-5.099999904632568
1780527300724484400,9.250484375,3.059999942779541,34.20000076293945,-5.21999979019165
1780527300734555100,9.26055517578125,3.5999999046325684,33.779998779296875,-4.440000057220459
1780527300774960400,9.30096044921875,5.759999752044678,32.459999084472656,-1.5
1780527300825436700,9.351436767578125,6.839999675750732,33.23999786376953,1.7400000095367432
1780527300875851500,9.4018515625,9.960000038146973,31.439998626708984,4.199999809265137
1780527300885922300,9.41192236328125,10.859999656677246,31.079999923706055,4.380000114440918
1780527300895962600,9.421962646484374,10.319999694824219,31.979999542236328,4.619999885559082
1780527300906064100,9.432064208984375,10.679999351501465,31.85999870300293,5.579999923706055
1780527300916104200,9.442104248046874,10.739999771118164,32.34000015258789,6.299999713897705
1780527300926205700,9.452205810546875,9.779999732971191,32.52000045776367,6.659999847412109
1780527300946347300,9.47234716796875,9.059999465942383,32.57999801635742,8.039999961853027
1780527300956387600,9.4823876953125,8.760000228881836,32.279998779296875,8.279999732971191
1780527300966488800,9.49248876953125,9.479999542236328,32.39999771118164,8.760000228881836
1780527300986630400,9.51263037109375,11.639999389648438,31.920000076293945,8.579999923706055
1780527301046994200,9.572994140625,12.239999771118164,31.979999542236328,9
1780527301057065000,9.58306494140625,12.420000076293945,31.079999923706055,8.09999942779541
1780527301067197000,9.593197021484375,12.359999656677246,31.01999855041504,7.5
1780527301117489700,9.64348974609375,11.579999923706055,32.15999984741211,6.599999904632568
1780527301167966000,9.693966064453125,9.719999313354492,34.07999801635742,3.5399999618530273
1780527301178036700,9.70403662109375,10.199999809265137,33.779998779296875,2.5199999809265137
1780527301188138000,9.714137939453124,10.4399995803833,33.84000015258789,2.3999998569488525
1780527301198208800,9.724208740234374,9,34.02000045776367,1.7999999523162842
1780527301208279600,9.734279541015624,9.059999465942383,33.540000915527344,1.3199999332427979
1780527301218350300,9.744350341796874,8.09999942779541,33.36000061035156,0.6599999666213989
1780527301228451600,9.75445166015625,6.899999618530273,33,-0.35999998450279236
1780527301238522600,9.764522705078125,6.179999828338623,33.29999923706055,-0.8999999761581421
1780527301258725000,9.78472509765625,4.319999694824219,33.89999771118164,-1.9799998998641968
1780527301278866700,9.80486669921875,4.619999885559082,34.380001068115234,-3.240000009536743
1780527301288968000,9.814968017578124,4.5,34.619998931884766,-4.139999866485596
1780527301299100000,9.825099853515624,5.639999866485596,34.02000045776367,-4.679999828338623
1780527301309170700,9.835170654296874,4.980000019073486,34.07999801635742,-4.739999771118164
1780527301319241500,9.845241455078124,4.559999942779541,33.84000015258789,-4.199999809265137
1780527301329342700,9.8553427734375,4.319999694824219,34.07999801635742,-3.4800000190734863
1780527301379788300,9.905788330078124,4.079999923706055,36.05999755859375,-3.419999837875366
1780527301399960600,9.925960693359375,5.460000038146973,35.880001068115234,-2.819999933242798
1780527301410061800,9.936061767578124,6.480000019073486,35.880001068115234,-2.93999981880188
1780527301460415700,9.986415771484374,8.279999732971191,35.57999801635742,-3.119999885559082
1780527301470486500,9.996486572265624,7.259999752044678,36.23999786376953,-2.93999981880188
1780527301500760000,10.026760009765624,6.71999979019165,38.459999084472656,-2.5799999237060547
1780527301510861300,10.036861328125,6.960000038146973,38.52000045776367,-2.6399998664855957
1780527301520932000,10.04693212890625,7.980000019073486,37.68000030517578,-2.700000047683716
1780527301531003000,10.0570029296875,8.220000267028809,38.52000045776367,-2.5199999809265137
1780527301541104400,10.0671044921875,8.460000038146973,37.79999923706055,-3.059999942779541
1780527301551144400,10.07714453125,8.34000015258789,37.79999923706055,-2.700000047683716
1780527301561215500,10.087215576171875,7.37999963760376,39.05999755859375,-2.6399998664855957
1780527301571255600,10.097255615234374,6.960000038146973,38.34000015258789,-2.0999999046325684
1780527301581357000,10.107357177734375,6,39.779998779296875,-1.2599999904632568
1780527301591458300,10.117458251953124,6.239999771118164,39.84000015258789,-1.3799999952316284
1780527301601529000,10.127529052734374,6.71999979019165,40.02000045776367,-0.5999999642372131
1780527301611630300,10.13763037109375,7.739999771118164,39.84000015258789,-0.5399999618530273
1780527301672085800,10.198085693359374,9.359999656677246,39.65999984741211,0.9599999785423279
1780527301702328600,10.22832861328125,11.34000015258789,39.23999786376953,1.6799999475479126
1780527301712430000,10.23843017578125,12.300000190734863,39.71999740600586,2.0999999046325684
1780527301722531300,10.24853125,13.199999809265137,39.47999954223633,1.6799999475479126
1780527301732602000,10.25860205078125,12.899999618530273,38.70000076293945,2.3399999141693115
1780527301752743700,10.27874365234375,12.300000190734863,39.18000030517578,2.3399999141693115
1780527301762845000,10.288844970703124,12.059999465942383,39.23999786376953,2.5199999809265137
1780527301783047700,10.309047607421874,12.479999542236328,40.31999969482422,2.5199999809265137
1780527301793088000,10.319087890625,12.300000190734863,40.2599983215332,2.3399999141693115
1780527301803158800,10.32915869140625,12.539999961853027,41.040000915527344,2.0399999618530273
1780527301813260000,10.339260009765624,11.639999389648438,41.34000015258789,1.4399999380111694
1780527301823330800,10.349330810546874,11.9399995803833,40.97999954223633,1.2599999904632568
1780527301833432000,10.35943212890625,13.5,41.21999740600586,1.1999999284744263
1780527301843533600,10.369533447265624,13.559999465942383,40.5,1.7999999523162842
1780527301853634800,10.379634765625,13.920000076293945,40.20000076293945,1.7999999523162842
1780527301863766500,10.3897666015625,13.979999542236328,39.959999084472656,2.0399999618530273
1780527301873929000,10.399928955078124,12.59999942779541,40.07999801635742,2.4600000381469727
1780527301883999700,10.409999755859374,12.119999885559082,41.040000915527344,2.93999981880188
1780527301894101000,10.42010107421875,11.399999618530273,41.39999771118164,2.93999981880188
1780527301904172000,10.430172119140625,10.5,42.779998779296875,3.059999942779541
1780527301914273300,10.440273193359374,10.920000076293945,43.20000076293945,3.119999885559082
1780527301924344000,10.450343994140624,11.09999942779541,43.2599983215332,2.2799999713897705
1780527301934445300,10.4604453125,12.239999771118164,43.439998626708984,1.9199999570846558
1780527301944546600,10.470546630859374,12.539999961853027,43.2599983215332,1.3199999332427979
1780527301954648000,10.48064794921875,13.199999809265137,42.89999771118164,0.29999998211860657
1780527301964718800,10.49071875,13.319999694824219,43.79999923706055,0.6599999666213989
1780527301974820000,10.500820068359374,12.300000190734863,43.68000030517578,0.7799999713897705
1780527302055569700,10.581569580078124,9.899999618530273,43.91999816894531,0.8399999737739563
1780527302065671000,10.5916708984375,9.779999732971191,44.040000915527344,1.0799999237060547
1780527302075711200,10.601711181640624,9.059999465942383,44.099998474121094,0.8399999737739563
1780527302085812500,10.6118125,9.059999465942383,44.040000915527344,1.0199999809265137
1780527302095883300,10.62188330078125,9,44.040000915527344,1.1399999856948853
1780527302105954000,10.6319541015625,9.84000015258789,44.39999771118164,0.7799999713897705
1780527302115994400,10.641994384765624,11.09999942779541,44.21999740600586,0
1780527302126096000,10.652095947265625,11.460000038146973,44.7599983215332,-0.41999998688697815
1780527302136227600,10.6622275390625,11.219999313354492,44.87999725341797,-0.5999999642372131
1780527302146359300,10.672359375,11.15999984741211,44.099998474121094,-1.1999999284744263
1780527302156399600,10.682399658203124,9.719999313354492,44.63999938964844,-0.8399999737739563
1780527302217038000,10.7430380859375,8.279999732971191,44.34000015258789,-1.4399999380111694
1780527302237301800,10.7633017578125,9.420000076293945,44.87999725341797,-1.1999999284744263
1780527302247403000,10.773403076171874,9.179999351501465,44.81999969482422,-0.9599999785423279
1780527302257504500,10.78350439453125,8.579999923706055,44.57999801635742,-1.3799999952316284
1780527302267636200,10.79363623046875,9.239999771118164,44.52000045776367,-1.4399999380111694
1780527302297970700,10.823970703125,7.019999980926514,44.87999725341797,-2.0399999618530273
1780527302308072200,10.834072265625,7.139999866485596,45,-2.5199999809265137
1780527302318204000,10.844203857421874,6.779999732971191,45.36000061035156,-2.2799999713897705
1780527302328335600,10.854335693359374,6.179999828338623,45.41999816894531,-2.0999999046325684
1780527302338437000,10.86443701171875,5.819999694824219,45.53999710083008,-1.9199999570846558
1780527302348538400,10.874538330078124,5.039999961853027,45.41999816894531,-1.559999942779541
1780527302358609200,10.884609130859374,5.159999847412109,45.47999954223633,-1.559999942779541
1780527302368741000,10.8947412109375,5.759999752044678,45.71999740600586,-1.7400000095367432
1780527302378842400,10.90484228515625,6.059999942779541,45.779998779296875,-2.0999999046325684
1780527302388943600,10.914943603515624,6.059999942779541,45.71999740600586,-2.5799999237060547
1780527302399075600,10.92507568359375,6.179999828338623,45.84000015258789,-2.5799999237060547
1780527302409176800,10.9351767578125,5.699999809265137,44.81999969482422,-2.819999933242798
1780527302429440500,10.9554404296875,5.579999923706055,45.36000061035156,-2.2799999713897705
1780527302439541800,10.965541748046874,5.519999980926514,45.36000061035156,-2.4600000381469727
1780527302459805400,10.985805419921874,5.279999732971191,45.779998779296875,-2.2200000286102295
1780527302480008200,11.00600830078125,4.859999656677246,45.23999786376953,-1.9799998998641968
1780527302490140000,11.016139892578124,4.920000076293945,45.23999786376953,-1.9199999570846558
1780527302500241200,11.0262412109375,5.039999961853027,45.599998474121094,-2.0999999046325684
1780527302520444000,11.04644384765625,5.819999694824219,46.73999786376953,-1.6799999475479126
1780527302621518000,11.14751806640625,4.079999923706055,45.65999984741211,-2.1599998474121094
1780527302631619300,11.157619384765624,5.039999961853027,44.7599983215332,-2.5199999809265137
1780527302651883000,11.177883056640624,8.34000015258789,44.040000915527344,-1.0199999809265137
1780527302692319000,11.218319091796875,8.34000015258789,43.97999954223633,-0.05999999865889549
1780527302702450700,11.22845068359375,8.579999923706055,44.81999969482422,0.5999999642372131
1780527302712552000,11.238552001953124,9.779999732971191,44.34000015258789,0.8399999737739563
1780527302722653400,11.2486533203125,9.479999542236328,44.21999740600586,0.8399999737739563
1780527302732754700,11.258754638671874,10.619999885559082,44.52000045776367,1.1999999284744263
1780527302793393200,11.31939306640625,10.619999885559082,43.79999923706055,2.5199999809265137
1780527302843869200,11.369869140625,9.119999885559082,43.02000045776367,4.019999980926514
1780527302853970400,11.379970458984374,9.359999656677246,42.29999923706055,4.380000114440918
1780527302864072000,11.390072021484375,9.420000076293945,42.84000015258789,5.039999961853027
1780527302874173200,11.400173095703124,9,43.20000076293945,4.559999942779541
1780527302884274400,11.4102744140625,9.719999313354492,43.439998626708984,5.099999904632568
1780527302894375700,11.420375732421874,10.319999694824219,44.21999740600586,5.039999961853027
1780527302904446500,11.430446533203124,10.199999809265137,42.959999084472656,4.440000057220459
1780527302914548000,11.4405478515625,10.559999465942383,43.55999755859375,4.559999942779541
1780527302924618800,11.45061865234375,9.960000038146973,43.439998626708984,3.419999837875366
1780527302934689500,11.460689453125,9.239999771118164,42.89999771118164,2.5799999237060547
1780527302944760300,11.47076025390625,8.9399995803833,42.84000015258789,2.3999998569488525
1780527302954800600,11.480800537109374,7.859999656677246,41.939998626708984,1.6799999475479126
1780527302964902000,11.49090185546875,7.739999771118164,41.34000015258789,1.3799999952316284
1780527302975003100,11.501003173828124,7.619999885559082,41.39999771118164,0.9599999785423279
1780527302985074000,11.511073974609374,7.079999923706055,40.68000030517578,-0.17999999225139618
1780527302995144700,11.521144775390624,7.139999866485596,40.02000045776367,-0.41999998688697815
1780527303005215700,11.5312158203125,7.139999866485596,39.47999954223633,-0.7799999713897705
1780527303015317000,11.54131689453125,6.599999904632568,38.939998626708984,-1.3199999332427979
1780527303055630600,11.581630615234374,5.87999963760376,38.099998474121094,-3.5999999046325684
1780527303116055600,11.6420556640625,6.480000019073486,35.63999938964844,-4.619999885559082
1780527303176572000,11.702572021484375,4.559999942779541,34.5,-5.159999847412109
1780527303186642700,11.712642578125,4.920000076293945,34.31999969482422,-5.460000038146973
1780527303227017500,11.753017578125,2.3399999141693115,33.119998931884766,-4.380000114440918
1780527303237088300,11.763088134765624,3,33.71999740600586,-4.559999942779541
1780527303247128600,11.773128662109375,3.7799999713897705,33.71999740600586,-3.7200000286102295
1780527303257229800,11.783229736328124,3.6599998474121094,34.2599983215332,-3.7799999713897705
1780527303267300600,11.793300537109374,3.419999837875366,34.619998931884766,-2.93999981880188
1780527303277401900,11.80340185546875,4.259999752044678,34.07999801635742,-1.9799998998641968
1780527303287472600,11.81347265625,4.199999809265137,34.02000045776367,-2.0399999618530273
1780527303317715700,11.8437158203125,5.940000057220459,33.47999954223633,-0.29999998211860657
1780527303388272400,11.9142724609375,10.319999694824219,33.89999771118164,4.380000114440918
1780527303418545700,11.944545654296874,12.65999984741211,32.81999969482422,6.480000019073486
1780527303458920400,11.98492041015625,14.279999732971191,32.34000015258789,8.399999618530273
1780527303479092500,12.005092529296874,14.460000038146973,31.5,9.359999656677246
1780527303489163300,12.015163330078124,13.979999542236328,30.779998779296875,9.059999465942383
1780527303499264800,12.0252646484375,13.199999809265137,31.439998626708984,9.059999465942383
1780527303529507600,12.055507568359374,13.559999465942383,32.040000915527344,9.119999885559082
1780527303539608800,12.06560888671875,13.859999656677246,31.67999839782715,9
1780527303549679600,12.0756796875,14.579999923706055,31.139999389648438,8.279999732971191
1780527303559720000,12.085719970703124,14.880000114440918,32.099998474121094,8.519999504089355
1780527303579892200,12.105892333984375,15.479999542236328,31.559999465942383,8.699999809265137
1780527303589932500,12.1159326171875,14.15999984741211,32.459999084472656,8.579999923706055
1780527303600003300,12.12600341796875,13.739999771118164,31.139999389648438,7.980000019073486
1780527303630246100,12.15624609375,13.319999694824219,31.979999542236328,6
1780527303640317000,12.16631689453125,14.34000015258789,32.52000045776367,5.279999732971191
1780527303650418200,12.176418212890624,14.519999504089355,33.23999786376953,5.460000038146973
1780527303660519700,12.186519775390625,15.539999961853027,33.119998931884766,5.400000095367432
1780527303670621000,12.196620849609374,15.839999198913574,33.47999954223633,4.980000019073486
1780527303680691700,12.206691650390624,14.639999389648438,33.36000061035156,4.859999656677246
1780527303690793000,12.21679296875,14.34000015258789,32.7599983215332,3.5399999618530273
1780527303700863700,12.22686376953125,12.539999961853027,32.939998626708984,3.179999828338623
1780527303710965200,12.23696533203125,11.34000015258789,33,2.4600000381469727
1780527303721036000,12.2470361328125,11.09999942779541,33.36000061035156,1.9799998998641968
1780527303731137300,12.25713720703125,10.739999771118164,33.119998931884766,1.4399999380111694
1780527303741238500,12.267238525390624,10.5,32.7599983215332,0.6599999666213989
1780527303751309300,12.277309326171874,10.5,32.52000045776367,0.05999999865889549
1780527303761380000,12.287380126953124,10.199999809265137,32.57999801635742,-1.0799999237060547
1780527303771481600,12.297481689453125,9.899999618530273,32.81999969482422,-1.7999999523162842
1780527303781552400,12.307552490234375,9.779999732971191,33.540000915527344,-2.4600000381469727
1780527303791623200,12.317623046875,9.59999942779541,33,-3.179999828338623
1780527303801663500,12.32766357421875,9.539999961853027,33.29999923706055,-3.240000009536743
1780527303811764700,12.3377646484375,9.420000076293945,33.779998779296875,-3.359999895095825
1780527303821835500,12.34783544921875,9.119999885559082,33.779998779296875,-3
1780527303892453000,12.418453125,6.899999618530273,33.959999084472656,-3.179999828338623
1780527303922665500,12.44866552734375,7.919999599456787,34.380001068115234,-3.359999895095825
1780527303952908500,12.478908447265624,7.079999923706055,35.39999771118164,-4.199999809265137
1780527303993222100,12.51922216796875,6.71999979019165,36.119998931884766,-4.380000114440918
1780527304003323600,12.52932373046875,6.659999847412109,36.36000061035156,-3.9599997997283936
1780527304013394400,12.53939453125,6.899999618530273,36.540000915527344,-3.4800000190734863
1780527304083981600,12.609981689453125,8.880000114440918,39.540000915527344,-1.6200000047683716
1780527304094052400,12.62005224609375,8.760000228881836,39.29999923706055,-1.7400000095367432
1780527304104153600,12.630153564453124,9,38.939998626708984,-1.7400000095367432
1780527304114224400,12.640224365234374,8.880000114440918,39.18000030517578,-1.2599999904632568
1780527304124325600,12.65032568359375,8.639999389648438,38.81999969482422,-1.1999999284744263
1780527304134396400,12.660396484375,8.880000114440918,38.39999771118164,-1.559999942779541
1780527304144498000,12.670497802734374,8.519999504089355,38.63999938964844,-1.559999942779541
1780527304164609000,12.690609130859375,8.880000114440918,40.20000076293945,-1.6200000047683716
1780527304174679800,12.7006796875,8.519999504089355,40.73999786376953,-1.1399999856948853
1780527304184781000,12.710781005859374,8.880000114440918,41.57999801635742,-0.6599999666213989
1780527304194821400,12.7208212890625,8.279999732971191,41.099998474121094,0.11999999731779099
1780527304204922600,12.730922607421874,7.859999656677246,41.459999084472656,0.35999998450279236
1780527304215023900,12.74102392578125,8.15999984741211,41.70000076293945,1.0799999237060547
1780527304225064200,12.751064208984374,8.519999504089355,41.34000015258789,1.1399999856948853
1780527304235135000,12.761135009765624,8.880000114440918,42,1.0199999809265137
1780527304245205800,12.771205810546874,9.960000038146973,42.119998931884766,1.1999999284744263
1780527304305722000,12.83172216796875,9.65999984741211,42.47999954223633,1.3199999332427979
1780527304335965200,12.861965087890624,9.960000038146973,42.779998779296875,1.7400000095367432
1780527304346066400,12.87206640625,9.779999732971191,42.959999084472656,2.0399999618530273
1780527304356137200,12.88213720703125,9.359999656677246,43.02000045776367,2.0999999046325684
1780527304376309200,12.902309326171874,10.019999504089355,44.040000915527344,2.1599998474121094
1780527304386349600,12.912349609375,10.079999923706055,44.21999740600586,2.2799999713897705
1780527304396420400,12.92242041015625,10.619999885559082,44.459999084472656,2.5199999809265137
1780527304406521900,12.93252197265625,10.380000114440918,44.34000015258789,1.9799998998641968
1780527304416592600,12.942592529296874,11.09999942779541,43.86000061035156,2.0399999618530273
1780527304426694000,12.95269384765625,11.460000038146973,44.099998474121094,2.0999999046325684
1780527304436764700,12.9627646484375,10.920000076293945,44.57999801635742,1.6799999475479126
1780527304446866000,12.972865966796874,11.279999732971191,43.73999786376953,1.9199999570846558
1780527304456967400,12.982967529296875,10.920000076293945,43.97999954223633,1.5
1780527304467038200,12.9930380859375,10.260000228881836,44.57999801635742,1.4399999380111694
1780527304527585000,13.0535849609375,8.639999389648438,44.15999984741211,2.3399999141693115
1780527304537686300,13.063686279296874,9.779999732971191,43.79999923706055,1.6200000047683716
1780527304547787500,13.07378759765625,10.139999389648438,44.52000045776367,0.6599999666213989
1780527304557889000,13.083888916015624,10.380000114440918,44.81999969482422,1.1999999284744263
1780527304567990300,13.093990234375,10.380000114440918,45.71999740600586,1.0199999809265137
1780527304658780200,13.1847802734375,7.440000057220459,46.02000045776367,-0.5999999642372131
1780527304668911900,13.194911865234374,8.220000267028809,45.599998474121094,-0.5399999618530273
1780527304678982700,13.204982666015624,8.460000038146973,46.13999938964844,-0.17999999225139618
1780527304689084000,13.215083984375,9.059999465942383,45.84000015258789,0
1780527304699155000,13.225155029296875,9.719999313354492,45.599998474121094,0.11999999731779099
1780527304709225700,13.235225830078125,9.119999885559082,46.73999786376953,0.17999999225139618
1780527304719327000,13.245326904296874,8.760000228881836,45.53999710083008,0.11999999731779099
1780527304739590700,13.265590576171874,6.059999942779541,46.07999801635742,-0.29999998211860657
1780527304749661400,13.275661376953124,5.579999923706055,46.13999938964844,-0.05999999865889549
1780527304769833500,13.29583349609375,4.920000076293945,45.89999771118164,-0.5999999642372131
1780527304779935000,13.30593505859375,5.819999694824219,45.53999710083008,-0.5399999618530273
1780527304790036200,13.3160361328125,6.059999942779541,44.459999084472656,-0.8999999761581421
1780527304800137500,13.326137451171874,5.639999866485596,45.65999984741211,-1.3199999332427979
1780527304810238700,13.33623876953125,6,45.65999984741211,-1.1999999284744263
1780527304820340200,13.34634033203125,6.059999942779541,45.599998474121094,-1.0199999809265137
1780527304830472000,13.356471923828124,6,46.02000045776367,-1.2599999904632568
1780527304840573200,13.3665732421875,6.539999961853027,45,-1.2599999904632568
1780527304850674700,13.3766748046875,6.71999979019165,44.279998779296875,-1.6200000047683716
1780527304860806400,13.386806396484374,6.539999961853027,45.18000030517578,-2.1599998474121094
1780527304901211600,13.427211669921874,4.019999980926514,45.89999771118164,-2.0399999618530273
1780527304921444900,13.44744482421875,2.5799999237060547,45.959999084472656,-2.0999999046325684
1780527304982144300,13.508144287109374,4.920000076293945,44.70000076293945,-2.2799999713897705
1780527305042813200,13.568813232421874,3.8999998569488525,46.07999801635742,-1.6799999475479126
1780527305052914700,13.578914794921875,4.139999866485596,45.89999771118164,-1.9199999570846558
1780527305063016000,13.589015869140624,4.259999752044678,45.89999771118164,-1.4399999380111694
1780527305073117200,13.5991171875,4.619999885559082,45.65999984741211,-1.5
1780527305083218400,13.609218505859374,3.5399999618530273,46.02000045776367,-1.3799999952316284
1780527305093350400,13.619350341796874,3.119999885559082,45.84000015258789,-1.1999999284744263
1780527305103482000,13.629482177734374,3.179999828338623,46.07999801635742,-1.3199999332427979
1780527305133755600,13.659755615234374,2.6399998664855957,46.91999816894531,-0.5399999618530273
1780527305184262100,13.71026220703125,6.599999904632568,44.70000076293945,0.23999999463558197
1780527305244931000,13.77093115234375,5.159999847412109,45.18000030517578,2.819999933242798
1780527305255032600,13.781032470703124,5.639999866485596,45.599998474121094,3.4800000190734863
1780527305265133800,13.7911337890625,5.940000057220459,45.599998474121094,3.8399999141693115
1780527305275235000,13.801235107421874,6.239999771118164,45.47999954223633,4.319999694824219
1780527305305508600,13.831508544921874,6.599999904632568,44.34000015258789,5.279999732971191
1780527305315579400,13.841579345703124,6.71999979019165,44.7599983215332,5.21999979019165
1780527305325711000,13.851711181640624,6.899999618530273,44.87999725341797,5.099999904632568
1780527305345974800,13.871974853515624,6.179999828338623,44.099998474121094,4.440000057220459
1780527305356045800,13.8820458984375,5.639999866485596,44.040000915527344,4.139999866485596
1780527305366147000,13.89214697265625,5.579999923706055,43.79999923706055,3.240000009536743
1780527305376278800,13.90227880859375,7.139999866485596,43.79999923706055,3
1780527305386380300,13.91238037109375,7.919999599456787,43.55999755859375,2.2200000286102295
1780527305396481500,13.9224814453125,8.639999389648438,43.619998931884766,2.2200000286102295
1780527305416684000,13.94268408203125,9.179999351501465,43.31999969482422,1.5
1780527305426785500,13.95278564453125,8.220000267028809,43.31999969482422,1.559999942779541
1780527305497372700,14.02337255859375,5.639999866485596,39.23999786376953,-1.6200000047683716
1780527305507443500,14.033443359375,4.980000019073486,39.18000030517578,-1.9199999570846558
1780527305517544700,14.043544677734374,4.440000057220459,39.29999923706055,-1.9199999570846558
1780527305527615500,14.053615478515624,5.759999752044678,38.63999938964844,-2.5199999809265137
1780527305537686300,14.063686279296874,5.940000057220459,37.91999816894531,-2.93999981880188
1780527305547818200,14.073818359375,6.059999942779541,37.20000076293945,-3
1780527305557889000,14.083888916015624,6.420000076293945,36.47999954223633,-3.8399999141693115
1780527305578091500,14.104091552734374,4.859999656677246,36.05999755859375,-4.440000057220459
1780527305588193000,14.114193115234375,5.159999847412109,35.279998779296875,-4.679999828338623
1780527305598233000,14.124233154296874,4.440000057220459,35.39999771118164,-4.259999752044678
1780527305608303900,14.134303955078124,3.6599998474121094,35.57999801635742,-4.559999942779541
1780527305618405400,14.1444052734375,2.6399998664855957,35.34000015258789,-4.739999771118164
1780527305628476200,14.15447607421875,1.3799999952316284,35.81999969482422,-5.279999732971191
1780527305638577400,14.164577392578124,0.47999998927116394,34.97999954223633,-6.179999828338623
1780527305648709400,14.17470947265625,0.41999998688697815,35.880001068115234,-5.87999963760376
1780527305699185400,14.225185302734374,2.1599998474121094,34.439998626708984,-4.739999771118164
1780527305709256200,14.235256103515624,2.6399998664855957,34.2599983215332,-4.440000057220459
1780527305729428200,14.25542822265625,3.8399999141693115,34.13999938964844,-3.119999885559082
1780527305779782100,14.3057822265625,5.460000038146973,34.02000045776367,-1.7400000095367432
1780527305789883600,14.315883544921874,4.559999942779541,35.040000915527344,-1.3799999952316284
1780527305799985000,14.32598486328125,5.279999732971191,34.2599983215332,-0.29999998211860657
1780527305810055700,14.3360556640625,4.5,34.55999755859375,0.5999999642372131
1780527305830227700,14.356227783203124,6.480000019073486,33.23999786376953,2.5199999809265137
1780527305840329200,14.3663291015625,6.059999942779541,33.599998474121094,3.240000009536743
1780527305850430500,14.376430419921874,6.839999675750732,34.07999801635742,3.7200000286102295
1780527305860501200,14.386501220703124,6.420000076293945,34.20000076293945,3.6599998474121094
1780527305880642800,14.406642822265624,6.239999771118164,33.599998474121094,4.259999752044678
1780527305890713600,14.416713623046874,6.71999979019165,33.540000915527344,5.460000038146973
1780527305900815000,14.426815185546875,6.599999904632568,33.36000061035156,6.599999904632568
1780527305910886000,14.436885986328125,6.659999847412109,33.47999954223633,7.619999885559082
1780527305920956700,14.446956787109375,6.960000038146973,33.599998474121094,8.039999961853027
1780527305931027500,14.45702734375,6.899999618530273,32.880001068115234,7.619999885559082
1780527305941098200,14.46709814453125,7.079999923706055,33.18000030517578,7.859999656677246
1780527305961300700,14.48730078125,8.460000038146973,32.939998626708984,9.179999351501465
1780527305971371500,14.49737158203125,8.399999618530273,33.89999771118164,10.139999389648438
1780527306001614600,14.527614501953124,9,32.70000076293945,11.399999618530273
1780527306011715800,14.5377158203125,9.300000190734863,32.34000015258789,11.460000038146973
1780527306021817000,14.547817138671874,8.519999504089355,33.29999923706055,10.859999656677246
1780527306031857400,14.557857421875,8.34000015258789,33.18000030517578,10.559999465942383
1780527306041928200,14.56792822265625,7.739999771118164,34.07999801635742,10.4399995803833
1780527306052060200,14.57806005859375,7.619999885559082,34.2599983215332,10.679999351501465
1780527306062131000,14.588130859375,7.919999599456787,33.84000015258789,11.399999618530273
1780527306072232200,14.598232177734374,8.639999389648438,34.68000030517578,11.460000038146973
1780527306142728000,14.66872802734375,7.619999885559082,34.2599983215332,7.739999771118164
1780527306152768000,14.67876806640625,7.559999942779541,34.5,7.019999980926514
1780527306193020700,14.719020751953124,6.299999713897705,34.619998931884766,3.8999998569488525
1780527306203122200,14.7291220703125,6.119999885559082,34.2599983215332,3.119999885559082
1780527306213193000,14.73919287109375,5.819999694824219,34.55999755859375,2.1599998474121094
1780527306223263700,14.749263671875,5.460000038146973,34.79999923706055,1.4399999380111694
1780527306233365000,14.759364990234374,4.559999942779541,34.91999816894531,-0.11999999731779099
1780527306243466200,14.76946630859375,3.419999837875366,35.099998474121094,-0.47999998927116394
1780527306253598200,14.77959814453125,2.879999876022339,35.040000915527344,-1.0199999809265137
1780527306263638500,14.789638427734374,2.3999998569488525,35.15999984741211,-1.0199999809265137
1780527306273709300,14.799709228515624,2.6399998664855957,35.39999771118164,-0.41999998688697815
1780527306283810600,14.809810546875,2.0999999046325684,34.86000061035156,-0.9599999785423279
1780527306293911800,14.819911865234374,2.0399999618530273,35.15999984741211,-1.3799999952316284
1780527306314023000,14.84002294921875,1.6200000047683716,34.86000061035156,-2.879999876022339
1780527306334225700,14.8602255859375,1.9199999570846558,35.040000915527344,-3.359999895095825
1780527306354397700,14.880397705078124,2.5199999809265137,35.39999771118164,-3
1780527306364499000,14.8904990234375,3,35.880001068115234,-2.5799999237060547
1780527306374570000,14.900570068359375,4.079999923706055,35.7599983215332,-3.179999828338623
1780527306425015600,14.951015625,5.039999961853027,35.81999969482422,-3.5399999618530273
1780527306475491600,15.00149169921875,5.87999963760376,36.41999816894531,-3.119999885559082
1780527306495663600,15.02166357421875,5.460000038146973,37.2599983215332,-2.819999933242798
1780527306515805200,15.04180517578125,5.819999694824219,37.619998931884766,-3.059999942779541
1780527306525876000,15.0518759765625,6.539999961853027,36.89999771118164,-2.5799999237060547
1780527306535946800,15.06194677734375,6.059999942779541,36.89999771118164,-2.6399998664855957
1780527306546048300,15.07204833984375,6.899999618530273,36.47999954223633,-3.119999885559082
1780527306556119000,15.082119140625,6.839999675750732,37.13999938964844,-2.879999876022339
1780527306566189800,15.09218994140625,5.639999866485596,37.97999954223633,-3.4800000190734863
1780527306576260600,15.102260498046874,6.659999847412109,37.73999786376953,-3.419999837875366
1780527306586331400,15.112331298828124,6.059999942779541,39.29999923706055,-2.0399999618530273
1780527306596432600,15.1224326171875,5.699999809265137,39.36000061035156,-2.3999998569488525
1780527306636746500,15.16274658203125,7.5,40.55999755859375,-0.9599999785423279
1780527306646817300,15.1728173828125,7.859999656677246,40.2599983215332,-1.1999999284744263
1780527306656918500,15.18291845703125,7.799999713897705,41.099998474121094,-0.5999999642372131
1780527306666989300,15.1929892578125,8.09999942779541,41.099998474121094,0.05999999865889549
1780527306677090600,15.203090576171874,8.399999618530273,41.099998474121094,0.05999999865889549
1780527306687222500,15.213222412109374,6.899999618530273,41.52000045776367,0.23999999463558197
1780527306697293300,15.223293212890624,6.899999618530273,42,0.29999998211860657
1780527306717465300,15.24346533203125,4.920000076293945,42.84000015258789,-0.29999998211860657
1780527306727536000,15.2535361328125,5.819999694824219,43.20000076293945,0.41999998688697815
1780527306798062300,15.324062255859374,8.09999942779541,43.31999969482422,1.559999942779541
1780527306808133000,15.334133056640624,8.880000114440918,44.099998474121094,1.8600000143051147
1780527306818204000,15.344203857421874,9.420000076293945,44.34000015258789,2.0999999046325684
1780527306828305200,15.35430517578125,10.079999923706055,44.39999771118164,2.5799999237060547
1780527306868619000,15.394618896484374,10.559999465942383,42.47999954223633,1.3799999952316284
1780527306878689800,15.404689697265624,11.699999809265137,42.47999954223633,1.9799998998641968
1780527306888760600,15.414760498046874,11.15999984741211,43.31999969482422,2.5799999237060547
1780527306898861800,15.42486181640625,10.4399995803833,44.459999084472656,3
1780527306908932600,15.4349326171875,10.380000114440918,44.459999084472656,2.879999876022339
1780527306919033900,15.445033935546874,9.359999656677246,44.87999725341797,2.5199999809265137
1780527306929105000,15.45510498046875,9.059999465942383,44.57999801635742,1.9799998998641968
1780527306939175700,15.46517578125,8.819999694824219,44.39999771118164,1.8600000143051147
1780527306949246500,15.47524658203125,8.519999504089355,44.70000076293945,2.0999999046325684
1780527306989560000,15.51556005859375,7.980000019073486,44.15999984741211,1.9799998998641968
1780527307009732000,15.535732177734374,7.679999828338623,45.23999786376953,2.759999990463257
1780527307019803100,15.54580322265625,7.679999828338623,45.36000061035156,3
1780527307040005600,15.566005615234374,8.639999389648438,45.05999755859375,2.5799999237060547
1780527307050107000,15.57610693359375,8.460000038146973,45.18000030517578,2.0399999618530273
1780527307060238800,15.58623876953125,8.579999923706055,45.47999954223633,1.6799999475479126
1780527307070340000,15.596340087890624,7.619999885559082,45.71999740600586,1.7999999523162842
1780527307080411000,15.606410888671874,7.139999866485596,45.959999084472656,1.8600000143051147
1780527307090481700,15.616481689453124,7.679999828338623,45.779998779296875,2.1599998474121094
1780527307110623200,15.636623291015624,8.09999942779541,45.71999740600586,1.3799999952316284
1780527307130826000,15.656825927734374,8.880000114440918,44.7599983215332,0.7799999713897705
1780527307140927200,15.66692724609375,9,45.959999084472656,1.0799999237060547
1780527307151028700,15.67702880859375,9.719999313354492,45.29999923706055,0.8999999761581421
1780527307161130000,15.6871298828125,8.760000228881836,45.47999954223633,0.41999998688697815
1780527307171200800,15.69720068359375,7.559999942779541,45.65999984741211,0.05999999865889549
1780527307191372800,15.717372802734374,4.440000057220459,45.84000015258789,-0.6599999666213989
1780527307201474000,15.72747412109375,4.079999923706055,46.55999755859375,-0.47999998927116394
1780527307221676800,15.7476767578125,3.9599997997283936,47.34000015258789,0.29999998211860657
1780527307231778000,15.757778076171874,4.739999771118164,47.52000045776367,0.5399999618530273
1780527307241788000,15.767787841796874,4.679999828338623,47.459999084472656,0.29999998211860657
1780527307251889200,15.77788916015625,4.559999942779541,47.459999084472656,0.11999999731779099
1780527307282132200,15.80813232421875,3.8399999141693115,46.31999969482422,-0.8999999761581421
1780527307362881500,15.888881591796874,5.579999923706055,44.279998779296875,-2.0399999618530273
1780527307372983000,15.898983154296875,4.199999809265137,44.939998626708984,-2.0399999618530273
1780527307393155000,15.919155029296874,4.920000076293945,46.619998931884766,-1.3799999952316284
1780527307403256300,15.92925634765625,3.240000009536743,47.39999771118164,-1.1999999284744263
1780527307413327000,15.9393271484375,4.5,46.91999816894531,-1.5
1780527307423428600,15.9494287109375,4.440000057220459,46.73999786376953,-1.8600000143051147
1780527307433529900,15.95952978515625,3.7200000286102295,46.20000076293945,-2.0999999046325684
1780527307443661600,15.96966162109375,4.319999694824219,46.37999725341797,-2.3999998569488525
1780527307463894800,15.989894775390624,3.299999952316284,46.13999938964844,-2.5799999237060547
1780527307473996000,15.99999609375,3.119999885559082,45.65999984741211,-2.759999990463257
1780527307484158500,16.010158447265624,3.7799999713897705,45.53999710083008,-2.6399998664855957
1780527307494229200,16.020229248046874,2.4600000381469727,46.20000076293945,-2.759999990463257
1780527307504330500,16.03033056640625,2.93999981880188,46.619998931884766,-3.119999885559082
1780527307514432000,16.040431884765624,3,46.68000030517578,-2.759999990463257
1780527307524533200,16.050533203125,1.6799999475479126,46.5,-2.879999876022339
1780527307534634500,16.060634521484374,1.7400000095367432,46.619998931884766,-2.93999981880188
1780527307544736000,16.070736083984375,1.9199999570846558,46.31999969482422,-2.879999876022339
1780527307575101000,16.101100830078124,3.4800000190734863,46.02000045776367,-1.4399999380111694
1780527307585202200,16.1112021484375,2.5799999237060547,46.13999938964844,-0.8999999761581421
1780527307595303400,16.121303466796874,3.299999952316284,45.23999786376953,-1.3199999332427979
1780527307605405000,16.131405029296875,3.119999885559082,45.53999710083008,-1.6799999475479126
1780527307615506200,16.141506103515624,2.5199999809265137,46.02000045776367,-2.2200000286102295
1780527307625607400,16.151607421875,3.119999885559082,46.2599983215332,-2.1599998474121094
1780527307635739400,16.161739501953125,3.5999999046325684,46.37999725341797,-1.7999999523162842
1780527307645840600,16.171840576171874,3.419999837875366,47.099998474121094,-0.7799999713897705
1780527307655972400,16.181972412109374,4.440000057220459,45.89999771118164,-0.11999999731779099
1780527307666073900,16.192073974609375,4.199999809265137,45.959999084472656,0.29999998211860657
1780527307676175000,16.202175048828124,3.119999885559082,46.79999923706055,0.6599999666213989
1780527307686276400,16.2122763671875,4.679999828338623,46.20000076293945,0.47999998927116394
1780527307706509600,16.232509521484374,4.619999885559082,47.459999084472656,0.8999999761581421
1780527307716610800,16.24261083984375,5.039999961853027,47.279998779296875,0.7199999690055847
1780527307726712300,16.25271240234375,3.8399999141693115,47.279998779296875,1.0799999237060547
1780527307756985600,16.282985595703124,3.419999837875366,46.68000030517578,2.700000047683716
1780527307817685000,16.34368505859375,5.039999961853027,46.73999786376953,4.139999866485596
1780527307837918200,16.363918212890624,4.920000076293945,45.23999786376953,3.6599998474121094
1780527307848019500,16.37401953125,4.079999923706055,45.29999923706055,3.5399999618530273
1780527307858151400,16.3841513671875,3.5399999618530273,44.57999801635742,3.179999828338623
1780527307868252700,16.394252685546874,3.4800000190734863,44.279998779296875,3.119999885559082
1780527307878354000,16.40435400390625,2.819999933242798,44.15999984741211,2.6399998664855957
1780527307898587100,16.424587158203124,5.279999732971191,44.63999938964844,2.759999990463257
1780527307908688600,16.434688720703125,5.639999866485596,44.939998626708984,2.4600000381469727
1780527307918820400,16.4448203125,6.480000019073486,44.81999969482422,2.6399998664855957
1780527307928921600,16.454921630859374,6.179999828338623,44.70000076293945,2.1599998474121094
1780527307939023000,16.465023193359375,5.699999809265137,44.39999771118164,2.1599998474121094
1780527307949154800,16.47515478515625,5.400000095367432,43.55999755859375,2.0399999618530273
1780527307959256000,16.485256103515624,4.739999771118164,43.20000076293945,1.6200000047683716
1780527307969357600,16.495357666015625,4.259999752044678,42.41999816894531,1.4399999380111694
1780527307979489300,16.5054892578125,4.019999980926514,42.23999786376953,0.6599999666213989
1780527307999722500,16.525722412109374,3.299999952316284,42.29999923706055,-0.5399999618530273
1780527308009823700,16.53582373046875,3.240000009536743,41.52000045776367,-1.1399999856948853
1780527308038926800,16.5649267578125,4.440000057220459,40.68000030517578,-1.6799999475479126
1780527308059160000,16.58516015625,3.059999942779541,39.05999755859375,-2.4600000381469727
1780527308069200100,16.5952001953125,1.9799998998641968,38.39999771118164,-3.419999837875366
1780527308079332000,16.60533203125,0.9599999785423279,37.91999816894531,-3.8399999141693115
1780527308089433300,16.615433349609376,0.9599999785423279,37.79999923706055,-4.199999809265137
1780527308160203800,16.686203857421877,1.8600000143051147,35.279998779296875,-4.980000019073486
1780527308210771200,16.736771240234376,1.4399999380111694,33.41999816894531,-6
1780527308220933600,16.74693359375,2.4600000381469727,33.599998474121094,-5.579999923706055
1780527308231035000,16.757034912109376,2.0399999618530273,33.36000061035156,-5.039999961853027
1780527308241136400,16.767136474609377,2.93999981880188,33.119998931884766,-5.339999675750732
1780527308251237600,16.777237548828126,2.819999933242798,33.29999923706055,-5.400000095367432
1780527308261369300,16.787369384765626,3.240000009536743,32.81999969482422,-5.519999980926514
1780527308271440100,16.797440185546876,3.359999895095825,33.23999786376953,-5.039999961853027
1780527308332139800,16.858139892578127,4.799999713897705,33.71999740600586,-0.5399999618530273
1780527308342241000,16.868240966796876,5.339999675750732,33.36000061035156,0.6599999666213989
1780527308352342300,16.87834228515625,6.420000076293945,33.05999755859375,1.0799999237060547
1780527308362504700,16.888504638671876,6.71999979019165,33.47999954223633,2.2200000286102295
1780527308423173600,16.949173583984376,9.84000015258789,34.380001068115234,6.960000038146973
1780527308433244400,16.959244384765626,10.559999465942383,34.2599983215332,7.619999885559082
1780527308443376400,16.96937646484375,10.920000076293945,34.02000045776367,8.639999389648438
1780527308463579000,16.989578857421876,10.859999656677246,32.279998779296875,9.779999732971191
1780527308473680100,16.99968017578125,10.739999771118164,32.040000915527344,10.800000190734863
1780527308483812000,17.00981201171875,9.779999732971191,32.21999740600586,10.800000190734863
1780527308493913300,17.019913330078126,10.5,32.939998626708984,11.460000038146973
1780527308504014600,17.0300146484375,10.319999694824219,32.81999969482422,11.279999732971191
1780527308544481000,17.07048095703125,11.34000015258789,33.18000030517578,12.359999656677246
1780527308554582300,17.080582275390626,10.979999542236328,33.18000030517578,12.239999771118164
1780527308564683500,17.09068359375,11.519999504089355,31.979999542236328,11.75999927520752
1780527308574846000,17.100845947265626,11.039999961853027,32.63999938964844,11.15999984741211
1780527308584947200,17.110947265625,12.239999771118164,32.21999740600586,10.920000076293945
1780527308595048700,17.121048583984376,12.300000190734863,33,10.619999885559082
1780527308605150000,17.13114990234375,12.239999771118164,33.23999786376953,10.619999885559082
1780527308625413600,17.15141357421875,10.139999389648438,34.20000076293945,10.260000228881836
1780527308655748000,17.181748046875,9.179999351501465,33.36000061035156,8.9399995803833
1780527308665849300,17.191849365234376,9.960000038146973,33.41999816894531,8.09999942779541
1780527308675950800,17.201950927734377,10.859999656677246,33.959999084472656,6.71999979019165
1780527308686052000,17.212052001953126,10.260000228881836,33.89999771118164,6.179999828338623
1780527308696153300,17.2221533203125,10.619999885559082,33.36000061035156,5.21999979019165
1780527308756852700,17.282852783203126,7.079999923706055,34.439998626708984,1.2599999904632568
1780527308787126300,17.313126220703126,7.799999713897705,34.5,-0.7199999690055847
1780527308797197000,17.323197021484376,7.559999942779541,33.84000015258789,-1.1399999856948853
1780527308807298300,17.33329833984375,6.119999885559082,34.20000076293945,-1.6200000047683716
1780527308817399800,17.34339990234375,5.819999694824219,34.86000061035156,-1.9199999570846558
1780527308827470600,17.353470703125,4.319999694824219,34.97999954223633,-1.9199999570846558
1780527308837541400,17.363541259765626,3.5999999046325684,35.57999801635742,-2.3999998569488525
1780527308867814700,17.393814697265626,2.3399999141693115,35.57999801635742,-3
1780527308908128500,17.43412841796875,4.559999942779541,36.18000030517578,-3.5399999618530273
1780527308918229800,17.444229736328126,5.039999961853027,35.939998626708984,-3.359999895095825
1780527308928331000,17.4543310546875,4.859999656677246,35.39999771118164,-3.359999895095825
1780527308958543600,17.484543701171877,2.3399999141693115,36.65999984741211,-2.93999981880188
1780527308968614400,17.494614501953127,1.3199999332427979,37.07999801635742,-2.5799999237060547
1780527308978746000,17.50474609375,1.7400000095367432,37.55999755859375,-2.6399998664855957
1780527308988786400,17.514786376953126,2.0399999618530273,38.040000915527344,-2.5199999809265137
1780527309008958500,17.53495849609375,3.7200000286102295,38.040000915527344,-2.4600000381469727
1780527309019029200,17.545029296875,4.380000114440918,37.31999969482422,-2.759999990463257
1780527309049302800,17.575302734375,4.5,38.57999801635742,-1.7999999523162842
1780527309059404000,17.585404052734376,4.440000057220459,39.119998931884766,-1.3199999332427979
1780527309069444400,17.5954443359375,4.980000019073486,39.23999786376953,-0.8999999761581421
1780527309079545600,17.605545654296876,4.799999713897705,38.7599983215332,-0.9599999785423279
1780527309099718000,17.6257177734375,6.779999732971191,38.7599983215332,-0.6599999666213989
1780527309109788700,17.63578857421875,6.899999618530273,38.459999084472656,-0.5999999642372131
1780527309160203800,17.686203857421877,5.699999809265137,40.86000061035156,0.41999998688697815
1780527309180375800,17.706375732421876,6.119999885559082,41.7599983215332,0.7799999713897705
1780527309190446600,17.716446533203126,6.899999618530273,41.63999938964844,0.23999999463558197
1780527309200517400,17.726517333984376,7.739999771118164,40.73999786376953,-0.29999998211860657
1780527309210588200,17.736588134765626,7.980000019073486,41.279998779296875,-0.17999999225139618
1780527309220659000,17.746658935546876,8.819999694824219,40.73999786376953,-0.5399999618530273
1780527309230729700,17.756729736328126,8.579999923706055,40.5,-0.11999999731779099
1780527309250871300,17.776871337890626,7.319999694824219,41.57999801635742,0.7799999713897705
1780527309260972800,17.786972900390627,6.480000019073486,42.65999984741211,1.5
1780527309271074000,17.797073974609376,7.259999752044678,43.20000076293945,1.9799998998641968
1780527309281175300,17.80717529296875,7.739999771118164,43.55999755859375,2.4600000381469727
1780527309291276500,17.817276611328126,7.559999942779541,43.91999816894531,2.3999998569488525
1780527309301347300,17.827347412109376,8.819999694824219,43.97999954223633,2.879999876022339
1780527309351762400,17.877762451171876,7.619999885559082,43.86000061035156,3.5399999618530273
1780527309371965200,17.897965087890626,7.019999980926514,44.81999969482422,3.119999885559082
1780527309392137200,17.91813720703125,6.599999904632568,45.36000061035156,3.4800000190734863
1780527309402238500,17.928238525390626,6.599999904632568,45.05999755859375,3.359999895095825
1780527309412309200,17.938309326171876,6.71999979019165,44.81999969482422,3.5399999618530273
1780527309422380300,17.94838037109375,6.960000038146973,44.7599983215332,3.299999952316284
1780527309432481500,17.9584814453125,6.599999904632568,44.52000045776367,3.5399999618530273
1780527309442552300,17.96855224609375,6.420000076293945,44.34000015258789,3.7200000286102295
1780527309462724400,17.988724365234376,6.839999675750732,45.23999786376953,3.240000009536743
1780527309492967400,18.018967529296877,8.819999694824219,45.23999786376953,2.3999998569488525
1780527309513109000,18.03910888671875,7.679999828338623,46.02000045776367,2.819999933242798
1780527309523210200,18.049210205078126,6.599999904632568,46.68000030517578,2.3999998569488525
1780527309533281000,18.059281005859376,6.119999885559082,46.439998626708984,1.8600000143051147
1780527309543351800,18.069351806640626,5.819999694824219,46.439998626708984,1.6200000047683716
1780527309563493400,18.089493408203126,5.699999809265137,46.439998626708984,1.5
1780527309573564200,18.099564208984376,5.339999675750732,46.20000076293945,1.7999999523162842
1780527309583665700,18.109665771484377,4.920000076293945,45.89999771118164,1.7400000095367432
1780527309593736400,18.119736328125,5.159999847412109,46.31999969482422,2.0399999618530273
1780527309603807200,18.12980712890625,4.799999713897705,45.959999084472656,1.8600000143051147
1780527309613908500,18.139908447265626,5.039999961853027,46.07999801635742,1.4399999380111694
1780527309624009700,18.150009765625,5.579999923706055,46.619998931884766,1.6200000047683716
1780527309634080500,18.16008056640625,4.920000076293945,46.91999816894531,1.7999999523162842
1780527309644182000,18.17018212890625,4.799999713897705,46.73999786376953,1.4399999380111694
1780527309654283300,18.180283203125,4.199999809265137,46.79999923706055,1.4399999380111694
1780527309664415000,18.1904150390625,3.5999999046325684,46.37999725341797,0.8399999737739563
1780527309674485800,18.20048583984375,3.6599998474121094,46.07999801635742,0.05999999865889549
1780527309694688500,18.2206884765625,3.059999942779541,46.02000045776367,0.5999999642372131
1780527309704820500,18.230820556640627,3,46.37999725341797,0.5999999642372131
1780527309714891300,18.240891357421877,3.179999828338623,46.20000076293945,0.5999999642372131
1780527309724962000,18.250962158203127,3.179999828338623,46.37999725341797,0.23999999463558197
1780527309735032800,18.26103271484375,3.119999885559082,46.619998931884766,-0.5399999618530273
1780527309745103600,18.271103515625,2.819999933242798,46.619998931884766,-0.9599999785423279
1780527309755174400,18.28117431640625,2.5799999237060547,47.099998474121094,-0.8399999737739563
1780527309765306000,18.29130615234375,2.2200000286102295,47.63999938964844,-0.8399999737739563
1780527309785478400,18.311478515625,2.0399999618530273,47.63999938964844,-0.29999998211860657
1780527309795579600,18.32157958984375,1.4399999380111694,47.459999084472656,-0.8399999737739563
1780527309805711400,18.33171142578125,1.5,47.279998779296875,-1.4399999380111694
1780527309815782100,18.3417822265625,1.7999999523162842,47.03999710083008,-1.7999999523162842
1780527309835954400,18.361954345703126,2.2200000286102295,45.779998779296875,-2.0399999618530273
1780527309876329200,18.4023291015625,1.0799999237060547,47.099998474121094,-1.9799998998641968
1780527309946916400,18.472916259765626,2.5799999237060547,46.91999816894531,-1.9199999570846558
1780527309997362000,18.52336181640625,2.759999990463257,46.91999816894531,-1.6200000047683716
1780527310007493600,18.53349365234375,3.9599997997283936,46.31999969482422,-2.5199999809265137
1780527310017564400,18.543564453125,3.7200000286102295,47.52000045776367,-3.059999942779541
1780527310027635200,18.55363525390625,4.5,47.15999984741211,-3.299999952316284
1780527310037736700,18.56373681640625,3.4800000190734863,47.39999771118164,-3.299999952316284
1780527310047807500,18.573807373046876,1.9199999570846558,47.87999725341797,-3
1780527310057908700,18.58390869140625,1.4399999380111694,47.52000045776367,-2.759999990463257
1780527310067949000,18.593948974609376,1.2599999904632568,47.03999710083008,-1.9799998998641968
1780527310078050300,18.60405029296875,1.7400000095367432,47.70000076293945,-1.6799999475479126
1780527310088151600,18.614151611328126,2.93999981880188,46.55999755859375,-1.0799999237060547
1780527310108293400,18.63429345703125,3.7799999713897705,46.86000061035156,-0.5399999618530273
1780527310118394600,18.64439453125,4.559999942779541,45.89999771118164,-0.5399999618530273
1780527310128495900,18.654495849609376,4.319999694824219,47.15999984741211,-0.17999999225139618
1780527310138566700,18.664566650390626,5.339999675750732,47.15999984741211,-0.47999998927116394
1780527310148637400,18.674637451171876,5.519999980926514,46.5,-0.17999999225139618
1780527310158738700,18.68473876953125,5.639999866485596,46.5,0.23999999463558197
1780527310168809700,18.694809814453127,5.699999809265137,46.68000030517578,0.47999998927116394
1780527310178911000,18.704910888671876,4.559999942779541,47.52000045776367,0.47999998927116394
1780527310188981800,18.714981689453126,4.5,47.52000045776367,1.1399999856948853
1780527310199083000,18.7250830078125,3.6599998474121094,47.70000076293945,1.3199999332427979
1780527310209153800,18.73515380859375,4.380000114440918,46.68000030517578,1.559999942779541
1780527310219224600,18.745224609375,4.859999656677246,46.20000076293945,2.6399998664855957
1780527310239366100,18.7653662109375,5.400000095367432,45.89999771118164,3.299999952316284
1780527310249467600,18.775467529296876,4.679999828338623,46.07999801635742,3.179999828338623
1780527310259569000,18.78556884765625,5.279999732971191,46.91999816894531,3
1780527310279710500,18.80571044921875,7.259999752044678,45.89999771118164,4.139999866485596
1780527310320024300,18.8460244140625,7.559999942779541,46.439998626708984,5.460000038146973
1780527310370500400,18.896500244140626,5.519999980926514,45.05999755859375,5.099999904632568
1780527310380601600,18.9066015625,5.460000038146973,44.87999725341797,5.039999961853027
1780527310451250000,18.97725,7.619999885559082,42.41999816894531,3.059999942779541
1780527310521867500,19.047867431640626,4.199999809265137,41.21999740600586,-1.0199999809265137
1780527310552140800,19.078140869140626,2.4600000381469727,41.040000915527344,-3.240000009536743
1780527310622789000,19.1487890625,2.2799999713897705,35.39999771118164,-6
1780527310673204200,19.199204345703127,0.41999998688697815,33.84000015258789,-7.019999980926514
1780527310683305500,19.209305419921876,1.0799999237060547,33.29999923706055,-7.259999752044678
1780527310713579000,19.2395791015625,2.5799999237060547,33.599998474121094,-5.940000057220459
1780527310774248000,19.300248046875,1.1999999284744263,33.540000915527344,-3.419999837875366
1780527310784318700,19.310318603515626,2.700000047683716,33.18000030517578,-2.6399998664855957
1780527310794389500,19.320389404296876,2.6399998664855957,33.84000015258789,-1.6200000047683716
1780527310804490800,19.33049072265625,3.6599998474121094,33.599998474121094,-0.35999998450279236
1780527310834794800,19.360794677734376,4.619999885559082,33.540000915527344,1.9799998998641968
1780527310844896000,19.37089599609375,4.619999885559082,33.29999923706055,3
1780527310854997200,19.380997314453126,5.519999980926514,33.23999786376953,4.139999866485596
1780527310865098800,19.3910986328125,6.299999713897705,33.540000915527344,5.279999732971191
1780527310875200000,19.401199951171876,6.960000038146973,33.29999923706055,6
1780527310885270800,19.411270751953126,7.559999942779541,33.959999084472656,6.480000019073486
1780527310895372000,19.4213720703125,7.139999866485596,34.02000045776367,6.899999618530273
1780527310905473500,19.4314736328125,6.839999675750732,33.36000061035156,7.319999694824219
1780527310915605200,19.441605224609376,6.179999828338623,33.779998779296875,7.739999771118164
1780527310935777300,19.46177734375,5.639999866485596,33.540000915527344,8.819999694824219
1780527310945848000,19.47184814453125,5.639999866485596,33.599998474121094,9
1780527310955949600,19.481949462890626,4.559999942779541,33.23999786376953,9.119999885559082
1780527310966050800,19.49205078125,4.679999828338623,32.7599983215332,9.119999885559082
1780527310976152000,19.502152099609376,3.419999837875366,33.23999786376953,8.15999984741211
1780527310986253600,19.512253662109377,3.419999837875366,33.36000061035156,8.519999504089355
1780527311036790500,19.56279052734375,-0.6599999666213989,35.34000015258789,8.279999732971191
1780527311087297300,19.61329736328125,-2.819999933242798,36,6.179999828338623
1780527311117601000,19.64360107421875,-1.0799999237060547,35.57999801635742,5.039999961853027
1780527311137803800,19.6638037109375,0.35999998450279236,35.34000015258789,4.619999885559082
1780527311147844000,19.673843994140626,0,35.34000015258789,4.440000057220459
1780527311208513000,19.734512939453126,5.579999923706055,34.439998626708984,0.17999999225139618
1780527311218614300,19.7446142578125,5.279999732971191,35.099998474121094,-0.41999998688697815
1780527311228746200,19.754746337890627,4.559999942779541,34.86000061035156,-0.7799999713897705
1780527311319810600,19.845810546875,6.239999771118164,33.29999923706055,-3.299999952316284
1780527311329911800,19.855911865234376,4.799999713897705,33.779998779296875,-3.299999952316284
1780527311340013300,19.866013427734377,4.559999942779541,33.84000015258789,-3.6599998474121094
1780527311350084000,19.876083984375,4.199999809265137,33.779998779296875,-3.8399999141693115
1780527311360215800,19.8862158203125,4.440000057220459,34.31999969482422,-3.6599998474121094
1780527311370317000,19.896317138671876,4.739999771118164,34.380001068115234,-4.440000057220459
1780527311420915200,19.946915283203126,5.759999752044678,35.63999938964844,-2.819999933242798
1780527311431016700,19.9570166015625,6.179999828338623,35.040000915527344,-2.819999933242798
1780527311451280400,19.9772802734375,7.259999752044678,35.39999771118164,-4.079999923706055
1780527311491716000,20.017716064453126,9.899999618530273,36.599998474121094,-3.119999885559082
1780527311501817300,20.0278173828125,11.279999732971191,36.65999984741211,-2.5199999809265137
1780527311511949300,20.03794921875,11.279999732971191,36.71999740600586,-2.2200000286102295
1780527311522050600,20.048050537109376,11.09999942779541,36.41999816894531,-1.4399999380111694
1780527311532151800,20.05815185546875,10.859999656677246,36.71999740600586,-1.559999942779541
1780527311542253300,20.06825341796875,9.899999618530273,37.31999969482422,-1.6200000047683716
1780527311552354600,20.0783544921875,10.679999351501465,38.040000915527344,-1.3799999952316284
1780527311562455800,20.088455810546876,11.09999942779541,38.81999969482422,-1.2599999904632568
1780527311572557000,20.09855712890625,11.34000015258789,39.36000061035156,-0.8999999761581421
1780527311663530000,20.189530029296876,12.65999984741211,39.599998474121094,1.0799999237060547
1780527311683763200,20.20976318359375,12.059999465942383,39.959999084472656,1.559999942779541
1780527311693895200,20.219895263671877,11.460000038146973,40.02000045776367,1.4399999380111694
1780527311703996400,20.229996337890626,10.920000076293945,40.2599983215332,1.4399999380111694
1780527311714097700,20.24009765625,10.199999809265137,40.97999954223633,1.3199999332427979
1780527311724229600,20.250229736328127,9.779999732971191,40.86000061035156,1.7999999523162842
1780527311734300400,20.260300537109377,9.960000038146973,41.459999084472656,1.8600000143051147
1780527311744371200,20.27037109375,10.139999389648438,42.119998931884766,2.5199999809265137
1780527311754442000,20.28044189453125,10.319999694824219,41.939998626708984,2.700000047683716
1780527311814988800,20.34098876953125,10.5,42.779998779296875,2.879999876022339
1780527311825029000,20.351029052734376,10.019999504089355,42.65999984741211,3.4800000190734863
1780527311835130400,20.36113037109375,9.65999984741211,42.65999984741211,3.4800000190734863
1780527311845201200,20.371201171875,9.420000076293945,42.540000915527344,3.5399999618530273
1780527311855272000,20.38127197265625,9.59999942779541,42.119998931884766,3.119999885559082
1780527311895677200,20.42167724609375,10.380000114440918,42.540000915527344,3.5399999618530273
1780527311925920300,20.451920166015626,11.039999961853027,43.439998626708984,3.179999828338623
1780527311936021500,20.462021484375,10.559999465942383,44.099998474121094,3.359999895095825
1780527311946092300,20.47209228515625,9.479999542236328,44.099998474121094,3.240000009536743
1780527311956193500,20.482193603515626,8.09999942779541,44.15999984741211,3.059999942779541
1780527311966264300,20.492264404296876,7.559999942779541,44.52000045776367,2.0999999046325684
1780527311986375400,20.51237548828125,7.919999599456787,44.939998626708984,1.4399999380111694
1780527311996477000,20.522476806640626,8.039999961853027,45,1.2599999904632568
1780527312006547700,20.532547607421876,8.399999618530273,44.7599983215332,1.3199999332427979
1780527312016649000,20.54264892578125,8.699999809265137,44.34000015258789,1.0199999809265137
1780527312036760000,20.562760009765626,9.59999942779541,45.119998931884766,1.0799999237060547
1780527312046861300,20.572861328125,10.139999389648438,45.119998931884766,0.7799999713897705
1780527312056932000,20.58293212890625,9.479999542236328,45.05999755859375,1.1999999284744263
1780527312067003000,20.5930029296875,9.059999465942383,44.70000076293945,0.9599999785423279
1780527312087205600,20.61320556640625,8.039999961853027,44.70000076293945,0.11999999731779099
1780527312097276400,20.6232763671875,8.09999942779541,45,0.23999999463558197
1780527312107347200,20.63334716796875,6.839999675750732,45.599998474121094,0.05999999865889549
1780527312117418000,20.64341796875,7.799999713897705,45.779998779296875,0.7199999690055847
1780527312127519200,20.653519287109376,7.799999713897705,46.37999725341797,1.6200000047683716
1780527312137620700,20.663620849609377,8.220000267028809,46.619998931884766,0.6599999666213989
1780527312147661000,20.6736611328125,8.279999732971191,46.68000030517578,0.41999998688697815
1780527312157762300,20.68376220703125,7.559999942779541,45.41999816894531,-0.17999999225139618
1780527312208146700,20.734146728515626,7.440000057220459,46.02000045776367,-1.0799999237060547
1780527312288774100,20.814774169921876,5.159999847412109,46.13999938964844,-1.1399999856948853
1780527312298875600,20.824875732421877,5.21999979019165,46.2599983215332,-1.3799999952316284
1780527312308915700,20.834915771484376,5.039999961853027,45.959999084472656,-1.6799999475479126
1780527312319017200,20.845017333984377,4.5,45.29999923706055,-2.2200000286102295
1780527312329088000,20.855087890625,4.440000057220459,45.36000061035156,-2.1599998474121094
1780527312339189200,20.865189208984376,4.319999694824219,45.84000015258789,-2.0999999046325684
1780527312349260000,20.875260009765626,4.019999980926514,46.07999801635742,-2.2799999713897705
1780527312359330800,20.885330810546876,4.019999980926514,45.959999084472656,-1.9199999570846558
1780527312369401600,20.895401611328126,4.859999656677246,46.02000045776367,-1.7400000095367432
1780527312379472400,20.905472412109376,4.679999828338623,45.53999710083008,-1.8600000143051147
1780527312439988700,20.96598876953125,7.259999752044678,44.81999969482422,-1.1999999284744263
1780527312470170600,20.996170654296876,6.779999732971191,45.05999755859375,0
1780527312480272100,21.006272216796877,6.480000019073486,45.65999984741211,0.7199999690055847
1780527312530748200,21.056748046875,9.899999618530273,43.439998626708984,0.9599999785423279
1780527312550920200,21.076920166015626,10.380000114440918,44.099998474121094,2.3999998569488525
1780527312560991000,21.086990966796876,10.079999923706055,44.040000915527344,2.93999981880188
1780527312571061800,21.097061767578126,9.719999313354492,44.57999801635742,3.059999942779541
1780527312581132500,21.107132568359376,9.84000015258789,44.39999771118164,3.059999942779541
1780527312591203300,21.117203369140626,10.019999504089355,43.97999954223633,3.5999999046325684
1780527312611375600,21.137375732421877,10.859999656677246,43.97999954223633,4.259999752044678
1780527312621476900,21.147476806640626,10.019999504089355,43.20000076293945,3.4800000190734863
1780527312631517200,21.15751708984375,9.539999961853027,43.439998626708984,3.419999837875366
1780527312641618400,21.167618408203126,10.260000228881836,42.71999740600586,3.5999999046325684
1780527312651719700,21.1777197265625,9.84000015258789,42.779998779296875,3.8399999141693115
1780527312661821200,21.1878212890625,9.179999351501465,43.13999938964844,4.139999866485596
1780527312671892000,21.19789208984375,8.519999504089355,43.13999938964844,4.440000057220459
1780527312681962800,21.207962646484376,7.259999752044678,43.55999755859375,4.139999866485596
1780527312692064000,21.21806396484375,7.139999866485596,43.13999938964844,4.139999866485596
1780527312702134800,21.228134765625,7.319999694824219,43.31999969482422,4.559999942779541
1780527312732377900,21.2583779296875,5.87999963760376,43.55999755859375,3.6599998474121094
1780527312742479000,21.26847900390625,5.940000057220459,43.02000045776367,2.879999876022339
1780527312752610800,21.27861083984375,7.199999809265137,41.040000915527344,1.9799998998641968
1780527312762681600,21.288681640625,8.220000267028809,40.2599983215332,1.7400000095367432
1780527312772752400,21.29875244140625,7.799999713897705,39.47999954223633,1.2599999904632568
1780527312782854000,21.30885400390625,7.799999713897705,39.36000061035156,1.2599999904632568
1780527312792924700,21.318924560546876,6.960000038146973,40.79999923706055,1.7999999523162842
1780527312803026000,21.32902587890625,6,40.79999923706055,1.0199999809265137
1780527312813127200,21.339127197265626,6.899999618530273,40.2599983215332,0.5399999618530273
1780527312823228700,21.349228759765627,6.420000076293945,39.05999755859375,-0.23999999463558197
1780527312833299500,21.359299560546877,5.87999963760376,38.63999938964844,-0.8399999737739563
1780527312893785000,21.41978515625,5.279999732971191,37.31999969482422,-2.2200000286102295
1780527312934099000,21.460098876953126,5.639999866485596,34.97999954223633,-5.039999961853027
1780527312964372500,21.49037255859375,3.8399999141693115,34.2599983215332,-4.559999942779541
1780527312974473700,21.5004736328125,3.8399999141693115,33.599998474121094,-4.920000076293945
1780527312984575000,21.510574951171876,3.5999999046325684,33.959999084472656,-4.920000076293945
1780527312994615300,21.520615234375,3.419999837875366,34.13999938964844,-4.980000019073486
1780527313004716500,21.530716552734376,2.3999998569488525,33.599998474121094,-5.460000038146973
1780527313014787300,21.540787353515626,2.6399998664855957,33.119998931884766,-5.579999923706055
1780527313024858000,21.550858154296876,2.700000047683716,33.05999755859375,-5.819999694824219
1780527313034959600,21.560959716796877,2.2200000286102295,33.29999923706055,-5.639999866485596
1780527313045030400,21.571030517578127,2.0399999618530273,33.47999954223633,-5.400000095367432
1780527313055131600,21.581131591796876,2.3999998569488525,33.540000915527344,-4.980000019073486
1780527313065233000,21.59123291015625,2.93999981880188,33.71999740600586,-4.079999923706055
1780527313075303700,21.6013037109375,3.359999895095825,33.29999923706055,-3.5399999618530273
1780527313085435600,21.611435546875,5.039999961853027,33.36000061035156,-2.879999876022339
1780527313095506400,21.62150634765625,4.859999656677246,33.84000015258789,-2.819999933242798
1780527313105546800,21.631546630859376,5.400000095367432,33.65999984741211,-2.5199999809265137
1780527313115648000,21.64164794921875,6.179999828338623,33.540000915527344,-2.2799999713897705
1780527313125688300,21.651688232421876,5.21999979019165,33.84000015258789,-2.0399999618530273
1780527313135789600,21.66178955078125,5.339999675750732,34.20000076293945,-1.0199999809265137
1780527313145830000,21.671829833984376,6,33.36000061035156,-1.1399999856948853
1780527313155931100,21.68193115234375,7.319999694824219,33.36000061035156,-0.41999998688697815
1780527313166032600,21.69203271484375,8.15999984741211,33.05999755859375,-0.11999999731779099
1780527313176103400,21.702103515625,9.899999618530273,32.57999801635742,-0.23999999463558197
1780527313186143500,21.7121435546875,10.380000114440918,33.36000061035156,1.2599999904632568
1780527313246659800,21.772659912109376,10.380000114440918,33.779998779296875,5.159999847412109
1780527313286943200,21.812943115234376,12,34.55999755859375,7.440000057220459
1780527313297014000,21.823013916015626,12.059999465942383,34.97999954223633,7.859999656677246
1780527313307054300,21.833054443359377,13.799999237060547,34.13999938964844,8.220000267028809
1780527313327226400,21.853226318359376,13.319999694824219,32.52000045776367,8.460000038146973
1780527313337297200,21.863297119140626,13.380000114440918,31.619998931884766,8.519999504089355
1780527313347368000,21.873367919921876,12.84000015258789,32.099998474121094,9.179999351501465
1780527313377611000,21.903611083984377,12.899999618530273,32.459999084472656,8.880000114440918
1780527313407853800,21.933853759765626,10.800000190734863,33.18000030517578,8.639999389648438
1780527313488572700,22.01457275390625,11.15999984741211,32.57999801635742,6.659999847412109
1780527313528947500,22.054947509765626,9.539999961853027,33.41999816894531,3.6599998474121094
1780527313539049000,22.065049072265627,9.179999351501465,33.89999771118164,3.4800000190734863
1780527313549150200,22.075150146484376,8.880000114440918,34.07999801635742,2.819999933242798
1780527313559221000,22.085220947265626,8.399999618530273,34.73999786376953,2.3999998569488525
1780527313569322200,22.095322265625,8.039999961853027,34.68000030517578,1.7400000095367432
1780527313619829000,22.1458291015625,6.119999885559082,34.02000045776367,-1.6200000047683716
1780527313629930200,22.15593017578125,5.759999752044678,34.31999969482422,-1.0199999809265137
1780527313640031500,22.166031494140626,5.699999809265137,34.68000030517578,-1.0199999809265137
1780527313650102300,22.176102294921876,5.639999866485596,34.68000030517578,-1.3799999952316284
1780527313660203800,22.186203857421877,5.039999961853027,35.279998779296875,-1.1399999856948853
1780527313670274600,22.196274658203127,4.440000057220459,35.63999938964844,-2.1599998474121094
1780527313700517400,22.226517333984376,4.019999980926514,35.939998626708984,-3.059999942779541
1780527313710618600,22.23661865234375,4.259999752044678,36.119998931884766,-3.419999837875366
1780527313720720100,22.24672021484375,4.440000057220459,36.23999786376953,-3.7200000286102295
1780527313740922600,22.266922607421876,4.139999866485596,36.29999923706055,-3.299999952316284
1780527313761155800,22.28715576171875,4.679999828338623,37.20000076293945,-2.3999998569488525
1780527313771257000,22.297257080078126,4.619999885559082,37.79999923706055,-2.759999990463257
1780527313801561000,22.32756103515625,4.440000057220459,37.31999969482422,-3.119999885559082
1780527313811662300,22.337662353515626,4.859999656677246,36.89999771118164,-2.759999990463257
1780527313821763800,22.347763916015627,4.920000076293945,37.439998626708984,-2.4600000381469727
1780527313831895600,22.3578955078125,4.859999656677246,37.31999969482422,-2.2799999713897705
1780527313841996800,22.367996826171876,5.159999847412109,37.79999923706055,-2.0399999618530273
1780527313852098300,22.378098388671877,5.400000095367432,38.21999740600586,-1.9799998998641968
1780527313862199600,22.388199462890626,5.21999979019165,38.63999938964844,-2.3399999141693115
1780527313902665700,22.428665771484376,7.259999752044678,38.70000076293945,-1.5
1780527313922868500,22.448868408203126,6.659999847412109,39.47999954223633,-1.2599999904632568
1780527313933000200,22.459000244140626,7.37999963760376,39.540000915527344,-0.8399999737739563
1780527313983537400,22.509537353515626,10.199999809265137,40.07999801635742,1.1999999284744263
