time,seconds_elapsed,z,y,x
1781033626376940800,0.37494091796875,-36.056251525878906,11.30625057220459,-19.856250762939453
1781033626396807200,0.39480712890625,-37.40625,11.793750762939453,-18.5625
1781033626416734700,0.414734619140625,-40.48125076293945,9.637500762939453,-16.89375114440918
1781033626436642000,0.43464208984375,-42.88125228881836,6.675000190734863,-15.937500953674316
1781033626456478500,0.454478515625,-40.40625,6.768750190734863,-16.98750114440918
1781033626476262100,0.47426220703125,-38.64375305175781,7.800000190734863,-18.150001525878906
1781033626496304600,0.4943046875,-39.11250305175781,8.606250762939453,-17.625
1781033626516339500,0.51433935546875,-39.16875076293945,9.731250762939453,-18.131250381469727
1781033626536466000,0.5344658203125,-42.31875228881836,10.856250762939453,-16.3125
1781033626556675600,0.554675537109375,-43.42500305175781,10.96875,-15.037500381469727
1781033626576634000,0.574634033203125,-40.5,10.668750762939453,-16.14375114440918
1781033626596630800,0.594630859375,-39.58125305175781,10.612500190734863,-16.575000762939453
1781033626616627200,0.614627197265625,-41.17500305175781,11.287500381469727,-15.656250953674316
1781033626636631600,0.634631591796875,-39.60000228881836,12.412500381469727,-15.543750762939453
1781033626656628000,0.6546279296875,-37.38750076293945,11.4375,-18.168750762939453
1781033626676632300,0.67463232421875,-39.45000076293945,10.83750057220459,-18.84375
1781033626696636700,0.69463671875,-38.08125305175781,12.637500762939453,-17.625
1781033626716633300,0.71463330078125,-36.45000076293945,12.281250953674316,-16.837501525878906
1781033626736637700,0.7346376953125,-38.90625,11.850000381469727,-15.206250190734863
1781033626756634400,0.75463427734375,-41.4375,13.237500190734863,-15.018750190734863
1781033626776631000,0.774631103515625,-38.94375228881836,12.768750190734863,-15.71250057220459
1781033626796635100,0.79463525390625,-37.57500076293945,11.737500190734863,-16.6875
1781033626816631800,0.8146318359375,-40.29375076293945,10.162500381469727,-17.662500381469727
1781033626836628500,0.83462841796875,-38.94375228881836,10.950000762939453,-17.17500114440918
1781033626856632600,0.854632568359375,-39.26250076293945,13.36875057220459,-18.150001525878906
1781033626876629200,0.874629150390625,-39.22500228881836,12.656250953674316,-17.400001525878906
1781033626896626000,0.8946259765625,-38.681251525878906,12.43125057220459,-15.356250762939453
1781033626916630000,0.914630126953125,-38.32500076293945,13.031250953674316,-17.36250114440918
1781033626936626700,0.934626708984375,-37.63125228881836,12.24375057220459,-17.681251525878906
1781033626956631000,0.954631103515625,-38.08125305175781,12.862500190734863,-17.17500114440918
1781033626976635400,0.974635498046875,-37.23750305175781,15.52500057220459,-17.325000762939453
1781033626996631800,0.9946318359375,-36.78750228881836,16.51875114440918,-16.80000114440918
1781033627016636200,1.01463623046875,-34.95000076293945,16.350000381469727,-16.21875
1781033627036632800,1.0346328125,-37.05000305175781,18.11250114440918,-15.99375057220459
1781033627056629500,1.05462939453125,-39.375,19.256250381469727,-16.6875
1781033627076633900,1.0746337890625,-35.28750228881836,19.762500762939453,-16.875
1781033627096630300,1.09463037109375,-34.78125,19.631250381469727,-15.637500762939453
1781033627116627000,1.114626953125,-38.53125,16.725000381469727,-14.043750762939453
1781033627136631300,1.13463134765625,-39.84375,15.05625057220459,-13.593750953674316
1781033627156628000,1.1546279296875,-37.368751525878906,14.756250381469727,-14.68125057220459
1781033627176632300,1.17463232421875,-38.08125305175781,15.093750953674316,-15.468750953674316
1781033627196636400,1.194636474609375,-38.775001525878906,15.71250057220459,-15.000000953674316
1781033627216633000,1.214633056640625,-39.01875305175781,16.668750762939453,-14.887500762939453
1781033627236599300,1.234599365234375,-39.50625228881836,17.006250381469727,-15.675000190734863
1781033627256458500,1.25445849609375,-37.650001525878906,16.650001525878906,-14.906250953674316
1781033627276234500,1.274234375,-39.712501525878906,17.700000762939453,-14.343750953674316
1781033627296262000,1.294261962890625,-38.08125305175781,17.943750381469727,-13.08750057220459
1781033627316296700,1.314296630859375,-36.48750305175781,19.575000762939453,-11.475000381469727
1781033627336430600,1.3344306640625,-39.20625305175781,18.20625114440918,-12.206250190734863
1781033627356655400,1.3546552734375,-41.681251525878906,15.881250381469727,-13.068750381469727
1781033627376629200,1.374629150390625,-42.375,16.856250762939453,-12.956250190734863
1781033627396633300,1.39463330078125,-39.65625,17.212501525878906,-12.956250190734863
1781033627416637700,1.4146376953125,-38.75625228881836,19.012500762939453,-11.71875
1781033627436634400,1.43463427734375,-39.22500228881836,21.056251525878906,-10.237500190734863
1781033627456638700,1.454638671875,-38.34375,22.80000114440918,-9.637500762939453
1781033627476635400,1.474635498046875,-38.36250305175781,22.556251525878906,-10.5
1781033627496632000,1.494632080078125,-38.41875076293945,22.012500762939453,-12.637500762939453
1781033627516636400,1.514636474609375,-38.15625,22.89375114440918,-11.100000381469727
1781033627536633000,1.534633056640625,-38.56875228881836,22.59375,-9.862500190734863
1781033627556629800,1.554629638671875,-38.868751525878906,24.075000762939453,-10.74375057220459
1781033627576633900,1.5746337890625,-37.95000076293945,25.70625114440918,-9.33750057220459
1781033627596630500,1.594630615234375,-36.337501525878906,25.537500381469727,-8.737500190734863
1781033627616627200,1.614627197265625,-36.11250305175781,26.531251907348633,-8.21250057220459
1781033627636631300,1.63463134765625,-37.44375228881836,27.20625114440918,-6.881250381469727
1781033627656628000,1.6546279296875,-37.70625305175781,26.943750381469727,-7.950000286102295
1781033627676632300,1.67463232421875,-36.35625076293945,25.912500381469727,-8.90625
1781033627696636700,1.69463671875,-36.35625076293945,25.912500381469727,-8.90625
1781033627716633300,1.71463330078125,-36.35625076293945,25.912500381469727,-8.90625
1781033627736637400,1.734637451171875,-34.462501525878906,24.562501907348633,-8.4375
1781033627756634000,1.754634033203125,-34.44375228881836,24.20625114440918,-8.0625
1781033627776630800,1.774630859375,-36.50625228881836,25.650001525878906,-7.050000190734863
1781033627796635100,1.79463525390625,-38.04375076293945,24.787500381469727,-6.093750476837158
1781033627816631800,1.8146318359375,-37.368751525878906,23.943750381469727,-6.825000286102295
1781033627836636000,1.834635986328125,-34.23750305175781,25.80000114440918,-7.275000095367432
1781033627856640300,1.85464013671875,-34.42500305175781,25.70625114440918,-6.037500381469727
1781033627876637000,1.874636962890625,-36.03750228881836,26.062501907348633,-6.600000381469727
1781033627896633600,1.894633544921875,-36.91875076293945,26.156251907348633,-5.325000286102295
1781033627916630300,1.91463037109375,-35.51250076293945,25.818750381469727,-4.556250095367432
1781033627936626700,1.934626708984375,-35.08125305175781,25.931251525878906,-5.381250381469727
1781033627956631000,1.954631103515625,-35.98125076293945,24.168750762939453,-6.187500476837158
1781033627976635400,1.974635498046875,-35.26875305175781,22.78125,-6.543750286102295
1781033627996639500,1.994639404296875,-33.900001525878906,23.793750762939453,-5.625
1781033628016643800,2.014643798828125,-32.73750305175781,24.01875114440918,-4.987500190734863
1781033628036632800,2.0346328125,-32.75625228881836,24.20625114440918,-5.175000190734863
1781033628056500000,2.0545,-34.16250228881836,24.95625114440918,-5.493750095367432
1781033628076298800,2.074298828125,-34.181251525878906,24.506250381469727,-6.375000476837158
1781033628096059600,2.0940595703125,-33.26250076293945,23.25,-7.968750476837158
1781033628116063700,2.114063720703125,-33.31875228881836,23.55000114440918,-8.981250762939453
1781033628136197600,2.13419775390625,-32.4375,23.0625,-10.293750762939453
1781033628156392200,2.15439208984375,-32.38125228881836,22.350000381469727,-9.543750762939453
1781033628176632300,2.17463232421875,-34.21875,21.76875114440918,-9.99375057220459
1781033628196636700,2.19463671875,-36.5625,20.625,-13.012500762939453
1781033628216633300,2.21463330078125,-35.71875,20.868751525878906,-14.86875057220459
1781033628236637400,2.234637451171875,-33.22500228881836,20.36250114440918,-15.99375057220459
1781033628256634000,2.254634033203125,-33.91875076293945,19.14375114440918,-17.15625
1781033628276630800,2.274630859375,-33.712501525878906,18.693750381469727,-18.037500381469727
1781033628296635100,2.29463525390625,-33.243751525878906,18.693750381469727,-17.850000381469727
1781033628316631800,2.3146318359375,-35.75625228881836,17.325000762939453,-18.806251525878906
1781033628336628500,2.33462841796875,-35.26875305175781,15.71250057220459,-19.818750381469727
1781033628356632600,2.354632568359375,-32.493751525878906,14.325000762939453,-19.78125
1781033628376629200,2.374629150390625,-29.062501907348633,13.893750190734863,-19.856250762939453
1781033628396626000,2.3946259765625,-29.137500762939453,13.518750190734863,-22.387500762939453
1781033628416630000,2.414630126953125,-31.481250762939453,13.218750953674316,-24.48750114440918
1781033628436634000,2.434634033203125,-30.825000762939453,14.137500762939453,-24.806251525878906
1781033628456638500,2.454638427734375,-31.500001907348633,14.381250381469727,-24.356250762939453
1781033628476642800,2.474642822265625,-31.462501525878906,13.068750381469727,-23.868751525878906
1781033628496639500,2.494639404296875,-30.525001525878906,12.075000762939453,-24.20625114440918
1781033628516636200,2.51463623046875,-31.500001907348633,13.162500381469727,-25.33125114440918
1781033628536632800,2.5346328125,-31.312501907348633,13.46250057220459,-26.343751907348633
1781033628556629500,2.55462939453125,-31.781251907348633,14.475000381469727,-25.593751907348633
1781033628576633900,2.5746337890625,-29.73750114440918,14.643750190734863,-25.80000114440918
1781033628596630500,2.594630615234375,-28.125001907348633,14.437500953674316,-25.42500114440918
1781033628616627200,2.614627197265625,-28.368751525878906,15.637500762939453,-25.087501525878906
1781033628636631300,2.63463134765625,-25.031251907348633,16.42500114440918,-26.700000762939453
1781033628656628000,2.6546279296875,-25.275001525878906,19.21875,-25.14375114440918
1781033628676632300,2.67463232421875,-25.98750114440918,20.418750762939453,-24.806251525878906
1781033628696636400,2.694636474609375,-25.312501907348633,18.337501525878906,-26.906251907348633
1781033628716633000,2.714633056640625,-27.825000762939453,17.981250762939453,-26.92500114440918
1781033628736637200,2.73463720703125,-29.868751525878906,18.450000762939453,-26.231250762939453
1781033628756633900,2.7546337890625,-28.837501525878906,17.45625114440918,-23.850000381469727
1781033628776630500,2.774630615234375,-27.881250381469727,16.3125,-23.55000114440918
1781033628796634600,2.794634521484375,-28.668750762939453,16.725000381469727,-26.006250381469727
1781033628816631300,2.81463134765625,-27.787500381469727,18.46875,-25.61250114440918
1781033628836636000,2.834635986328125,-28.89375114440918,19.98750114440918,-23.36250114440918
1781033628856556300,2.854556396484375,-30.037500381469727,19.80000114440918,-23.36250114440918
1781033628876416300,2.874416259765625,-29.793750762939453,19.387500762939453,-23.625
1781033628896176600,2.8941767578125,-30.412500381469727,17.34375,-22.80000114440918
1781033628916180700,2.9141806640625,-29.493751525878906,17.287500381469727,-23.4375
1781033628936261600,2.93426171875,-27.30000114440918,18.731250762939453,-24.337501525878906
1781033628956402400,2.95440234375,-27.225000381469727,18.900001525878906,-22.03125
1781033628976643000,2.97464306640625,-29.718751907348633,19.98750114440918,-20.64375114440918
1781033628996632000,2.994632080078125,-30.187501907348633,19.14375114440918,-21.76875114440918
1781033629016636200,3.01463623046875,-31.293750762939453,18.637500762939453,-20.981250762939453
1781033629036632800,3.0346328125,-32.45625305175781,20.231250762939453,-20.587501525878906
1781033629056629500,3.05462939453125,-31.743751525878906,19.462501525878906,-20.26875114440918
1781033629076633900,3.0746337890625,-30.58125114440918,18.900001525878906,-19.931251525878906
1781033629096630500,3.094630615234375,-32.625,19.556251525878906,-19.200000762939453
1781033629116627200,3.114627197265625,-32.34375,17.64375114440918,-19.012500762939453
1781033629136631300,3.13463134765625,-30.01875114440918,16.856250762939453,-18.900001525878906
1781033629156628000,3.1546279296875,-28.443750381469727,16.631250381469727,-19.162500381469727
1781033629176632300,3.17463232421875,-30.037500381469727,16.40625,-19.78125
1781033629196636400,3.194636474609375,-31.875001907348633,17.868751525878906,-18.5625
1781033629216633300,3.21463330078125,-30.075000762939453,18.600000381469727,-18.712501525878906
1781033629236637400,3.234637451171875,-31.387500762939453,18.525001525878906,-17.25
1781033629256634000,3.254634033203125,-30.037500381469727,19.481250762939453,-16.950000762939453
1781033629276630800,3.274630859375,-30.600000381469727,20.887500762939453,-18.86250114440918
1781033629296635100,3.29463525390625,-32.47500228881836,21.84375,-19.387500762939453
1781033629316631800,3.3146318359375,-32.00625228881836,22.668750762939453,-18.46875
1781033629336628200,3.334628173828125,-31.481250762939453,22.012500762939453,-16.875
1781033629356632600,3.354632568359375,-31.42500114440918,21.525001525878906,-15.675000190734863
1781033629376629200,3.374629150390625,-31.856250762939453,21.993751525878906,-14.58750057220459
1781033629396633300,3.39463330078125,-31.387500762939453,20.775001525878906,-15.33750057220459
1781033629416637700,3.4146376953125,-32.53125,20.793750762939453,-15.33750057220459
1781033629436634400,3.43463427734375,-33.431251525878906,22.068750381469727,-13.725000381469727
1781033629456638700,3.454638671875,-31.556251525878906,21.356250762939453,-12.581250190734863
1781033629476635100,3.47463525390625,-30.150001525878906,20.793750762939453,-12.225000381469727
1781033629496631800,3.4946318359375,-31.818750381469727,22.293750762939453,-12.881250381469727
1781033629516636200,3.51463623046875,-33.1875,22.3125,-12.862500190734863
1781033629536632800,3.5346328125,-32.90625,21.787500381469727,-12.093750953674316
1781033629556629500,3.55462939453125,-32.400001525878906,21.28125,-11.11875057220459
1781033629576633600,3.574633544921875,-35.4375,22.200000762939453,-12.24375057220459
1781033629596630300,3.59463037109375,-36.806251525878906,22.837501525878906,-11.53125
1781033629616627000,3.614626953125,-36.46875,21.637500762939453,-9.375
1781033629636631300,3.63463134765625,-35.60625076293945,21.506250381469727,-11.0625
1781033629656582100,3.65458203125,-34.70625305175781,21.262500762939453,-11.925000190734863
1781033629676449000,3.674448974609375,-36.28125,20.118751525878906,-11.831250190734863
1781033629696217300,3.69421728515625,-37.66875076293945,20.53125,-11.77500057220459
1781033629716252400,3.71425244140625,-37.85625076293945,21.412500381469727,-10.21875
1781033629736302300,3.73430224609375,-37.59375,20.26875114440918,-10.125
1781033629756436500,3.7544365234375,-38.75625228881836,20.418750762939453,-10.725000381469727
1781033629776669000,3.7746689453125,-37.81875228881836,19.668750762939453,-10.40625
1781033629796635100,3.79463525390625,-37.556251525878906,18.918750762939453,-10.068750381469727
1781033629816631600,3.814631591796875,-41.28750228881836,19.181251525878906,-12.506250381469727
1781033629836628500,3.83462841796875,-40.38750076293945,18.95625114440918,-12.750000953674316
1781033629856632600,3.854632568359375,-36.65625,19.89375114440918,-9.768750190734863
1781033629876629200,3.874629150390625,-38.962501525878906,19.668750762939453,-10.612500190734863
1781033629896626000,3.8946259765625,-39.618751525878906,17.512500762939453,-11.456250190734863
1781033629916630300,3.91463037109375,-39.30000305175781,17.08125114440918,-9.206250190734863
1781033629936627000,3.934626953125,-39.30000305175781,18.712501525878906,-7.987500190734863
1781033629956631000,3.954631103515625,-38.92500305175781,18.5625,-10.106250762939453
1781033629976635400,3.974635498046875,-38.04375076293945,19.462501525878906,-10.631250381469727
1781033629996632000,3.994632080078125,-36.41250228881836,19.537500381469727,-9.393750190734863
1781033630016636200,4.01463623046875,-37.72500228881836,17.025001525878906,-9.862500190734863
1781033630036632800,4.0346328125,-39.50625228881836,16.537500381469727,-8.86875057220459
1781033630056629500,4.05462939453125,-39.5625,18.243751525878906,-9.300000190734863
1781033630076633900,4.0746337890625,-39.900001525878906,19.012500762939453,-11.90625
1781033630096630500,4.094630615234375,-39.63750076293945,17.868751525878906,-11.831250190734863
1781033630116627000,4.114626953125,-40.98750305175781,17.90625,-11.606250762939453
1781033630136631300,4.13463134765625,-40.81875228881836,19.631250381469727,-11.643750190734863
1781033630156628000,4.1546279296875,-38.53125,19.837501525878906,-11.006250381469727
1781033630176632300,4.17463232421875,-39.63750076293945,18.65625,-11.325000762939453
1781033630196636700,4.19463671875,-41.025001525878906,18.46875,-11.756250381469727
1781033630216633300,4.21463330078125,-39.41250228881836,18.900001525878906,-10.893750190734863
1781033630236637400,4.234637451171875,-38.92500305175781,18.318750381469727,-10.537500381469727
1781033630256633900,4.2546337890625,-38.681251525878906,17.943750381469727,-10.59375
1781033630276630500,4.274630615234375,-39.13125228881836,18.58125114440918,-9.675000190734863
1781033630296635000,4.294634765625,-39.39375305175781,18.918750762939453,-10.481250762939453
1781033630316631600,4.314631591796875,-37.10625076293945,17.45625114440918,-11.700000762939453
1781033630336628200,4.334628173828125,-35.962501525878906,16.837501525878906,-12.187500953674316
1781033630356632300,4.35463232421875,-36.65625,17.25,-11.71875
1781033630376629000,4.37462890625,-37.743751525878906,16.96875,-10.481250762939453
1781033630396633300,4.39463330078125,-37.48125076293945,15.843750953674316,-10.200000762939453
1781033630416637700,4.4146376953125,-40.85625076293945,14.137500762939453,-10.55625057220459
1781033630436641800,4.434641845703125,-43.63125228881836,14.49375057220459,-11.325000762939453
1781033630456638500,4.454638427734375,-39.525001525878906,15.037500381469727,-11.100000381469727
1781033630476505600,4.474505615234375,-38.38125228881836,15.450000762939453,-10.443750381469727
1781033630496319500,4.494319580078125,-40.48125076293945,16.59375,-10.93125057220459
1781033630516384800,4.514384765625,-42.11250305175781,16.33125114440918,-12.187500953674316
1781033630536157000,4.534156982421875,-42.09375,16.80000114440918,-11.081250190734863
1781033630556283400,4.554283447265625,-42.712501525878906,16.725000381469727,-9.43125057220459
1781033630596398300,4.5943984375,-41.625,17.8125,-10.143750190734863
1781033630616627200,4.614627197265625,-38.47500228881836,17.71875,-11.02500057220459
1781033630636631300,4.63463134765625,-38.10000228881836,19.725000381469727,-12.262500762939453
1781033630656628000,4.6546279296875,-39.07500076293945,22.087501525878906,-11.58750057220459
1781033630676632300,4.67463232421875,-38.8125,22.33125114440918,-10.93125057220459
1781033630696636400,4.694636474609375,-35.64375305175781,22.256250381469727,-11.606250762939453
1781033630716633000,4.714633056640625,-35.47500228881836,22.537500381469727,-13.031250953674316
1781033630736637400,4.734637451171875,-38.41875076293945,22.61250114440918,-12.375000953674316
1781033630756634000,4.754634033203125,-39.1875,21.11250114440918,-9.412500381469727
1781033630776630800,4.774630859375,-38.53125,20.850000381469727,-10.068750381469727
1781033630796635100,4.79463525390625,-40.35000228881836,21.075000762939453,-10.012500762939453
1781033630816631800,4.8146318359375,-40.25625228881836,19.462501525878906,-8.325000762939453
1781033630836636000,4.834635986328125,-36.150001525878906,18.39375114440918,-9.09375
1781033630856640300,4.85464013671875,-35.56875228881836,20.606250762939453,-10.331250190734863
1781033630876637000,4.874636962890625,-35.625,22.931251525878906,-10.068750381469727
1781033630896633600,4.894633544921875,-36.48750305175781,22.443750381469727,-9.075000762939453
1781033630916630300,4.91463037109375,-37.650001525878906,23.606250762939453,-8.943750381469727
1781033630936626700,4.934626708984375,-34.96875,25.51875114440918,-8.756250381469727
1781033630956631000,4.954631103515625,-35.587501525878906,24.037500381469727,-7.875000476837158
1781033630976635400,4.974635498046875,-37.837501525878906,21.86250114440918,-9.131250381469727
1781033630996632000,4.994632080078125,-37.72500228881836,23.0625,-11.287500381469727
1781033631016636200,5.01463623046875,-35.0625,24.037500381469727,-13.293750762939453
1781033631036632800,5.0346328125,-32.32500076293945,23.606250762939453,-13.36875057220459
1781033631056629500,5.05462939453125,-31.89375114440918,25.98750114440918,-12.262500762939453
1781033631076633900,5.0746337890625,-32.15625,26.493751525878906,-13.256250381469727
1781033631096630300,5.09463037109375,-32.41875076293945,26.26875114440918,-13.893750190734863
1781033631116627200,5.114627197265625,-29.73750114440918,27.318750381469727,-14.850000381469727
1781033631136631300,5.13463134765625,-30.262500762939453,27.975000381469727,-16.443750381469727
1781033631156628000,5.1546279296875,-32.25,26.493751525878906,-15.956250190734863
1781033631176632000,5.174632080078125,-32.025001525878906,25.481250762939453,-16.6875
1781033631196636400,5.194636474609375,-30.731250762939453,25.89375114440918,-18.95625114440918
1781033631216633000,5.214633056640625,-30.525001525878906,25.668750762939453,-19.181251525878906
1781033631236637400,5.234637451171875,-29.812501907348633,23.681251525878906,-20.025001525878906
1781033631256634000,5.254634033203125,-28.631250381469727,21.506250381469727,-20.90625
1781033631276546800,5.274546875,-31.350000381469727,20.92500114440918,-21.150001525878906
1781033631296399000,5.294399169921875,-31.368751525878906,21.30000114440918,-21.318750381469727
1781033631316159200,5.3141591796875,-28.837501525878906,19.5,-21.95625114440918
1781033631336156000,5.334156005859375,-32.04375076293945,17.90625,-23.55000114440918
1781033631356244000,5.354243896484375,-32.00625228881836,17.34375,-23.212501525878906
1781033631376392700,5.374392822265625,-28.762500762939453,16.181251525878906,-22.725000381469727
1781033631396633300,5.39463330078125,-31.931251525878906,14.86875057220459,-23.0625
1781033631416637700,5.4146376953125,-33.31875228881836,14.643750190734863,-23.681251525878906
1781033631436634400,5.43463427734375,-30.825000762939453,15.187500953674316,-23.64375114440918
1781033631456638700,5.454638671875,-30.337501525878906,14.456250190734863,-23.118751525878906
1781033631476635400,5.474635498046875,-31.912500381469727,14.287500381469727,-22.912500381469727
1781033631496632000,5.494632080078125,-32.19375228881836,16.443750381469727,-22.462501525878906
1781033631516636200,5.51463623046875,-31.068750381469727,17.400001525878906,-22.162500381469727
1781033631536632800,5.5346328125,-30.150001525878906,17.17500114440918,-22.61250114440918
1781033631556629500,5.55462939453125,-28.61250114440918,18.262500762939453,-23.34375
1781033631576633600,5.574633544921875,-27.506250381469727,17.962501525878906,-24.412500381469727
1781033631596630500,5.594630615234375,-28.162500381469727,18.01875114440918,-23.793750762939453
1781033631616627200,5.614627197265625,-28.593751907348633,17.0625,-23.887500762939453
1781033631636631600,5.634631591796875,-27.450000762939453,15.637500762939453,-24.881250381469727
1781033631656628000,5.6546279296875,-27.900001525878906,14.643750190734863,-25.406251907348633
1781033631676632300,5.67463232421875,-28.80000114440918,15.075000762939453,-24.937501907348633
1781033631696636700,5.69463671875,-27.000001907348633,15.43125057220459,-24.918750762939453
1781033631716633300,5.71463330078125,-28.33125114440918,14.49375057220459,-24.787500381469727
1781033631736637400,5.734637451171875,-29.662500381469727,14.175000190734863,-23.981250762939453
1781033631756634000,5.754634033203125,-30.150001525878906,14.718750953674316,-24.750001907348633
1781033631776630800,5.774630859375,-31.14375114440918,16.012500762939453,-25.650001525878906
1781033631796635000,5.794634765625,-30.656251907348633,16.068750381469727,-24.600000381469727
1781033631816631800,5.8146318359375,-30.86250114440918,17.118751525878906,-23.4375
1781033631836636000,5.834635986328125,-29.025001525878906,16.537500381469727,-23.325000762939453
1781033631856640300,5.85464013671875,-28.968751907348633,15.862500190734863,-21.9375
1781033631876637000,5.874636962890625,-29.868751525878906,16.6875,-21.20625114440918
1781033631896633600,5.894633544921875,-30.11250114440918,16.875,-21.39375114440918
1781033631916630000,5.914630126953125,-29.662500381469727,18.09375,-20.4375
1781033631936626700,5.934626708984375,-27.618751525878906,19.05000114440918,-19.931251525878906
1781033631956631000,5.954631103515625,-29.400001525878906,18.337501525878906,-19.575000762939453
1781033631976635100,5.97463525390625,-30.712501525878906,17.662500381469727,-18.39375114440918
1781033631996639500,5.994639404296875,-32.08125305175781,17.100000381469727,-18.431251525878906
1781033632016643800,6.014643798828125,-33.88125228881836,17.587501525878906,-17.325000762939453
1781033632036640500,6.034640625,-33.41250228881836,18.806251525878906,-16.368751525878906
1781033632056637200,6.05463720703125,-34.78125,17.625,-17.118751525878906
1781033632076557300,6.074557373046875,-33.993751525878906,16.40625,-15.168750762939453
1781033632096425000,6.094425048828125,-34.21875,17.887500762939453,-13.331250190734863
1781033632116185300,6.114185302734375,-34.70625305175781,18.787500381469727,-14.062500953674316
1781033632136189700,6.134189697265625,-32.38125228881836,18.693750381469727,-12.43125057220459
1781033632156262700,6.1542626953125,-30.262500762939453,17.568750381469727,-11.53125
1781033632176396000,6.17439599609375,-30.58125114440918,18.600000381469727,-13.500000953674316
1781033632196636700,6.19463671875,-32.25,20.493751525878906,-13.893750190734863
1781033632216633300,6.21463330078125,-34.89375305175781,19.743751525878906,-11.475000381469727
1781033632236637400,6.234637451171875,-35.962501525878906,19.3125,-9.637500762939453
1781033632256634000,6.254634033203125,-32.79375076293945,19.012500762939453,-10.518750190734863
1781033632276630800,6.274630859375,-32.10000228881836,19.631250381469727,-10.050000190734863
1781033632296635000,6.294634765625,-33.01875305175781,18.825000762939453,-10.762500762939453
1781033632316631600,6.314631591796875,-33.9375,20.006250381469727,-10.200000762939453
1781033632336628200,6.334628173828125,-34.80000305175781,19.350000381469727,-9
1781033632356632600,6.354632568359375,-35.66250228881836,18.037500381469727,-8.737500190734863
1781033632376629200,6.374629150390625,-35.493751525878906,19.33125114440918,-9.43125057220459
1781033632396625700,6.394625732421875,-33.712501525878906,19.59375,-10.668750762939453
1781033632416630000,6.414630126953125,-32.47500228881836,18.76875114440918,-8.68125057220459
1781033632436626700,6.434626708984375,-33.806251525878906,17.887500762939453,-7.725000381469727
1781033632456631000,6.454631103515625,-36.525001525878906,18.543750762939453,-6.993750095367432
1781033632476635100,6.47463525390625,-37.40625,17.4375,-6.693750381469727
1781033632496631800,6.4946318359375,-36.26250076293945,16.78125,-7.406250476837158
1781033632516636200,6.51463623046875,-35.8125,18.01875114440918,-6.225000381469727
1781033632536632800,6.5346328125,-35.17500305175781,19.556251525878906,-6.281250476837158
1781033632556629500,6.55462939453125,-34.76250076293945,20.45625114440918,-7.012500286102295
1781033632576633600,6.574633544921875,-36.1875,21.993751525878906,-7.050000190734863
1781033632596630300,6.59463037109375,-36.88125228881836,21.150001525878906,-8.381250381469727
1781033632616627000,6.614626953125,-37.3125,20.381250381469727,-8.456250190734863
1781033632636631300,6.63463134765625,-37.80000305175781,21.5625,-8.11875057220459
1781033632656628000,6.6546279296875,-37.98750305175781,20.4375,-7.818750381469727
1781033632676632300,6.67463232421875,-35.88750076293945,20.08125114440918,-6.843750476837158
1781033632696636700,6.69463671875,-37.01250076293945,19.743751525878906,-6.450000286102295
1781033632716633300,6.71463330078125,-39.50625228881836,20.400001525878906,-5.71875
1781033632736637700,6.7346376953125,-37.48125076293945,20.73750114440918,-6.131250381469727
1781033632756634400,6.75463427734375,-35.400001525878906,19.350000381469727,-6.300000190734863
1781033632776631000,6.774631103515625,-36.993751525878906,20.193750381469727,-5.568750381469727
1781033632796635100,6.79463525390625,-38.17500305175781,20.100000381469727,-7.031250476837158
1781033632816631800,6.8146318359375,-39.03750228881836,18.787500381469727,-6.731250286102295
1781033632836636000,6.834635986328125,-39.69375228881836,18.65625,-5.90625
1781033632856640300,6.85464013671875,-38.587501525878906,18.787500381469727,-6.750000476837158
1781033632876575700,6.87457568359375,-39.95625305175781,19.631250381469727,-6.018750190734863
1781033632896451000,6.894451171875,-40.16250228881836,20.287500381469727,-4.893750190734863
1781033632916212200,6.914212158203125,-38.79375076293945,19.856250762939453,-5.175000190734863
1781033632936232000,6.93423193359375,-39.01875305175781,19.05000114440918,-5.662500381469727
1781033632956312600,6.9543125,-39.28125,18.5625,-7.181250095367432
1781033632976438300,6.974438232421875,-39.95625305175781,18.76875114440918,-7.143750190734863
1781033632996670200,6.994670166015625,-39.45000076293945,18.30000114440918,-5.737500190734863
1781033633016651500,7.014651611328125,-41.51250076293945,18.30000114440918,-6.150000095367432
1781033633036633000,7.034633056640625,-42.900001525878906,18.46875,-6.731250286102295
1781033633056629500,7.05462939453125,-41.306251525878906,17.043750762939453,-7.537500381469727
1781033633076633900,7.0746337890625,-40.368751525878906,17.26875114440918,-6.900000095367432
1781033633096630300,7.09463037109375,-39.91875076293945,17.475000381469727,-6.675000190734863
1781033633116627000,7.114626953125,-39.95625305175781,16.96875,-8.175000190734863
1781033633136631000,7.134631103515625,-38.8125,17.36250114440918,-7.931250095367432
1781033633156627700,7.154627685546875,-37.875,18,-6.825000286102295
1781033633176632000,7.174632080078125,-38.13750076293945,17.73750114440918,-7.893750190734863
1781033633196636200,7.19463623046875,-37.66875076293945,16.725000381469727,-8.4375
1781033633216632800,7.2146328125,-36.07500076293945,16.931251525878906,-8.21250057220459
1781033633236637200,7.23463720703125,-37.5,17.4375,-9.1875
1781033633256633900,7.2546337890625,-39.50625228881836,16.70625114440918,-9.037500381469727
1781033633276630500,7.274630615234375,-40.91250228881836,16.875,-9.84375
1781033633296635000,7.294634765625,-41.19375228881836,17.568750381469727,-10.818750381469727
1781033633316631600,7.314631591796875,-39.13125228881836,18,-9.9375
1781033633336628200,7.334628173828125,-35.4375,17.64375114440918,-8.77500057220459
1781033633356632600,7.354632568359375,-35.66250228881836,17.83125114440918,-8.96250057220459
1781033633376629200,7.374629150390625,-38.47500228881836,18.30000114440918,-10.762500762939453
1781033633396633300,7.39463330078125,-37.98750305175781,17.73750114440918,-10.612500190734863
1781033633416637400,7.414637451171875,-38.23125076293945,18.150001525878906,-10.350000381469727
1781033633436634000,7.434634033203125,-40.29375076293945,17.92500114440918,-11.193750381469727
1781033633456638500,7.454638427734375,-40.275001525878906,16.762500762939453,-11.325000762939453
1781033633476635100,7.47463525390625,-39.13125228881836,16.537500381469727,-11.362500190734863
1781033633496631800,7.4946318359375,-38.681251525878906,17.943750381469727,-10.59375
1781033633516636200,7.51463623046875,-38.681251525878906,19.556251525878906,-9.375
1781033633536632800,7.5346328125,-39.84375,18.95625114440918,-10.050000190734863
1781033633556629200,7.554629150390625,-40.59375,19.200000762939453,-12.093750953674316
1781033633576633600,7.574633544921875,-41.55000305175781,19.950000762939453,-12.637500762939453
1781033633596630300,7.59463037109375,-41.66250228881836,18.356250762939453,-10.518750190734863
1781033633616626700,7.614626708984375,-38.868751525878906,17.4375,-9.600000381469727
1781033633636631000,7.634631103515625,-36.806251525878906,17.418750762939453,-9.412500381469727
1781033633656627700,7.654627685546875,-39.07500076293945,17.0625,-9.43125057220459
1781033633676563500,7.6745634765625,-40.06875228881836,17.943750381469727,-10.78125
1781033633696438500,7.6944384765625,-39.86250305175781,18.48750114440918,-11.137500762939453
1781033633716199000,7.714198974609375,-40.462501525878906,16.443750381469727,-10.3125
1781033633736218600,7.734218505859375,-40.875,15.318750381469727,-10.012500762939453
1781033633756284000,7.754283935546875,-42.67500305175781,14.175000190734863,-10.331250190734863
1781033633776409600,7.77440966796875,-40.837501525878906,12.543750762939453,-11.15625
1781033633796650200,7.794650146484375,-39.03750228881836,12.881250381469727,-11.550000190734863
1781033633816631600,7.814631591796875,-37.462501525878906,16.087501525878906,-9.33750057220459
1781033633836628200,7.834628173828125,-39.375,18.337501525878906,-10.537500381469727
1781033633856632600,7.854632568359375,-40.63125228881836,21.150001525878906,-11.662500381469727
1781033633876629000,7.87462890625,-40.368751525878906,22.23750114440918,-9.90000057220459
1781033633896625700,7.894625732421875,-40.98750305175781,19.368751525878906,-9.99375057220459
1781033633916630000,7.914630126953125,-39.41250228881836,18.67500114440918,-11.11875057220459
1781033633936626700,7.934626708984375,-39.41250228881836,18.67500114440918,-11.11875057220459
1781033633956631000,7.954631103515625,-39.69375228881836,16.837501525878906,-7.368750095367432
1781033633976635400,7.974635498046875,-39.48750305175781,17.17500114440918,-7.950000286102295
1781033633996632000,7.994632080078125,-38.88750076293945,18.243751525878906,-9.09375
1781033634016636200,8.01463623046875,-38.92500305175781,22.012500762939453,-7.425000190734863
1781033634036632800,8.0346328125,-38.04375076293945,23.55000114440918,-7.068750381469727
1781033634056629800,8.054629638671875,-36,23.100000381469727,-7.762500286102295
1781033634076633900,8.0746337890625,-35.0625,23.53125,-6.881250381469727
1781033634096630500,8.094630615234376,-36.86250305175781,22.61250114440918,-6.543750286102295
1781033634116627000,8.114626953125,-37.35000228881836,22.33125114440918,-8.043750762939453
1781033634136631300,8.13463134765625,-36.91875076293945,21.693750381469727,-8.737500190734863
1781033634156628000,8.1546279296875,-37.95000076293945,19.875,-7.668750286102295
1781033634176632000,8.174632080078124,-39.337501525878906,18.412500381469727,-9.487500190734863
1781033634196636400,8.194636474609375,-39.13125228881836,18.1875,-9.918750762939453
1781033634216633000,8.214633056640626,-37.3125,18.731250762939453,-10.08750057220459
1781033634236637200,8.23463720703125,-37.06875228881836,18.76875114440918,-9.46875
1781033634256633900,8.2546337890625,-36.09375,18.30000114440918,-7.650000095367432
1781033634276630500,8.274630615234376,-37.51875305175781,18.39375114440918,-9.300000190734863
1781033634296635000,8.294634765625,-38.26875305175781,18.881250381469727,-10.706250190734863
1781033634316631600,8.314631591796875,-35.53125,18.637500762939453,-10.950000762939453
1781033634336628200,8.334628173828126,-32.75625228881836,18.075000762939453,-10.425000190734863
1781033634356632300,8.35463232421875,-33.28125,17.306251525878906,-13.200000762939453
1781033634376629000,8.37462890625,-34.66875076293945,15.637500762939453,-15.24375057220459
1781033634396633300,8.39463330078125,-32.38125228881836,15.43125057220459,-15.075000762939453
1781033634416637700,8.4146376953125,-35.83125305175781,15.825000762939453,-15.637500762939453
1781033634436641800,8.434641845703124,-36.54375076293945,15.375000953674316,-16.70625114440918
1781033634456646100,8.454646240234375,-33.13125228881836,14.437500953674316,-18.30000114440918
1781033634476558800,8.474558837890624,-34.6875,13.74375057220459,-17.53125
1781033634496411100,8.4944111328125,-34.875,11.006250381469727,-18.450000762939453
1781033634516171500,8.514171630859375,-33.73125076293945,8.512500762939453,-20.8125
1781033634536168200,8.534168212890625,-32.83125305175781,7.706250190734863,-21.318750381469727
1781033634556248600,8.55424853515625,-34.91250228881836,7.856250286102295,-22.125
1781033634576397300,8.574397216796875,-36.69375228881836,8.568750381469727,-20.568750381469727
1781033634596630300,8.59463037109375,-35.32500076293945,7.912500381469727,-21.28125
1781033634616627000,8.614626953125,-34.3125,9.506250381469727,-23.193750381469727
1781033634636631300,8.63463134765625,-33.84375,12.356250762939453,-20.606250762939453
1781033634656627700,8.654627685546876,-33.806251525878906,12.037500381469727,-19.80000114440918
1781033634676632000,8.674632080078124,-32.70000076293945,11.71875,-21.30000114440918
1781033634696636400,8.694636474609375,-31.387500762939453,13.406250953674316,-21.75
1781033634716633000,8.714633056640626,-29.400001525878906,14.850000381469727,-22.668750762939453
1781033634736637200,8.73463720703125,-28.293750762939453,14.58750057220459,-23.325000762939453
1781033634756633900,8.7546337890625,-31.012500762939453,14.475000381469727,-22.89375114440918
1781033634776630500,8.774630615234376,-32.17500305175781,13.781250953674316,-24.637500762939453
1781033634796635000,8.794634765625,-31.218751907348633,11.850000381469727,-24.637500762939453
1781033634816631600,8.814631591796875,-31.42500114440918,10.893750190734863,-24.750001907348633
1781033634836636000,8.834635986328125,-30.712501525878906,10.537500381469727,-24.150001525878906
1781033634856640000,8.854639892578126,-28.406251907348633,11.381250381469727,-22.631250381469727
1781033634876446500,8.874446533203125,-29.36250114440918,13.537500381469727,-22.387500762939453
1781033634896443100,8.894443115234376,-34.16250228881836,13.968750953674316,-22.293750762939453
1781033634916439800,8.914439697265625,-34.125,13.050000190734863,-21.76875114440918
1781033634936436500,8.9344365234375,-31.575000762939453,12.90000057220459,-20.775001525878906
1781033634956630800,8.954630859375,-30.506250381469727,13.762500762939453,-21.9375
1781033634976635100,8.97463525390625,-31.462501525878906,14.268750190734863,-23.118751525878906
1781033634996632000,8.994632080078125,-32.775001525878906,12.581250190734863,-22.668750762939453
1781033635016636200,9.01463623046875,-33.65625,12.281250953674316,-21.86250114440918
1781033635036632800,9.0346328125,-34.80000305175781,13.481250762939453,-21.30000114440918
1781033635056629500,9.05462939453125,-33.60000228881836,14.043750762939453,-18.543750762939453
1781033635076633900,9.0746337890625,-32.64375305175781,13.912500381469727,-17.73750114440918
1781033635096630500,9.094630615234376,-32.45625305175781,13.612500190734863,-19.03125
1781033635116627200,9.114627197265625,-32.25,13.36875057220459,-19.875
1781033635136631300,9.13463134765625,-31.98750114440918,15.05625057220459,-17.418750762939453
1781033635156628000,9.1546279296875,-35.36250305175781,17.043750762939453,-14.456250190734863
1781033635176632300,9.17463232421875,-35.4375,16.89375114440918,-16.556251525878906
1781033635196636400,9.194636474609375,-33.150001525878906,16.256250381469727,-17.0625
1781033635216633000,9.214633056640626,-34.48125076293945,17.193750381469727,-15.075000762939453
1781033635236637400,9.234637451171874,-35.15625,18.243751525878906,-13.706250190734863
1781033635256634000,9.254634033203125,-34.89375305175781,17.100000381469727,-13.631250381469727
1781033635276577500,9.27457763671875,-33.46875,14.96250057220459,-13.668750762939453
1781033635296444400,9.2944443359375,-32.26875305175781,14.02500057220459,-13.162500381469727
1781033635316205000,9.314205078125,-32.73750305175781,13.612500190734863,-13.612500190734863
1781033635336232200,9.334232177734375,-34.3125,14.287500381469727,-12.693750381469727
1781033635356289800,9.354289794921876,-35.53125,16.80000114440918,-12.393750190734863
1781033635376423700,9.374423583984376,-34.20000076293945,16.912500381469727,-13.443750381469727
1781033635396663800,9.394663818359374,-33.30000305175781,17.25,-14.043750762939453
1781033635416637700,9.4146376953125,-32.83125305175781,17.887500762939453,-12.937500953674316
1781033635436634400,9.43463427734375,-32.53125,18.01875114440918,-11.043750762939453
1781033635456638700,9.454638671875,-32.60625076293945,18.712501525878906,-12.225000381469727
1781033635476635400,9.474635498046876,-32.83125305175781,18.318750381469727,-12.262500762939453
1781033635496631800,9.4946318359375,-33.1875,19.14375114440918,-8.831250190734863
1781033635516636200,9.51463623046875,-32.55000305175781,20.4375,-9.33750057220459
1781033635536632800,9.5346328125,-34.66875076293945,21.75,-10.200000762939453
1781033635556629500,9.55462939453125,-35.587501525878906,22.387500762939453,-9.506250381469727
1781033635576633900,9.5746337890625,-34.20000076293945,21.76875114440918,-9.787500381469727
1781033635596630500,9.594630615234376,-36.243751525878906,23.0625,-8.175000190734863
1781033635616627200,9.614627197265625,-34.81875228881836,22.181251525878906,-7.031250476837158
1781033635636631300,9.63463134765625,-34.78125,20.8125,-7.406250476837158
1781033635656628000,9.6546279296875,-36.84375,20.212501525878906,-8.0625
1781033635676632000,9.674632080078124,-35.90625,19.21875,-8.40000057220459
1781033635696636400,9.694636474609375,-35.66250228881836,19.89375114440918,-6.862500190734863
1781033635716633000,9.714633056640626,-36.806251525878906,19.912500381469727,-6.843750476837158
1781033635736637400,9.734637451171874,-36.13125228881836,19.462501525878906,-7.725000381469727
1781033635756634000,9.754634033203125,-34.29375076293945,19.875,-6.881250381469727
1781033635776630500,9.774630615234376,-35.45625305175781,21.056251525878906,-6.525000095367432
1781033635796635000,9.794634765625,-34.556251525878906,21.825000762939453,-6.450000286102295
1781033635816631600,9.814631591796875,-36.16875076293945,22.42500114440918,-6.375000476837158
1781033635836635600,9.8346357421875,-38.4375,23.08125114440918,-5.662500381469727
1781033635856640000,9.854639892578126,-35.90625,22.293750762939453,-5.550000190734863
1781033635876636700,9.87463671875,-34.78125,21.618751525878906,-6.675000190734863
1781033635896633300,9.89463330078125,-35.92500305175781,21.431251525878906,-6.900000095367432
1781033635916630300,9.91463037109375,-37.087501525878906,20.587501525878906,-8.02500057220459
1781033635936626700,9.934626708984375,-36.84375,19.818750381469727,-8.100000381469727
1781033635956631000,9.954631103515625,-36.525001525878906,19.80000114440918,-5.606250286102295
1781033635976635100,9.97463525390625,-40.10625076293945,19.98750114440918,-3.6937501430511475
1781033635996639500,9.994639404296874,-42.63750076293945,18.95625114440918,-5.025000095367432
1781033636016643600,10.0146435546875,-41.28750228881836,18.056251525878906,-6.600000381469727
1781033636036640500,10.034640625,-38.587501525878906,18.5625,-7.181250095367432
1781033636056637200,10.05463720703125,-39.50625228881836,18.1875,-7.425000190734863
1781033636076580400,10.074580322265625,-43.10625076293945,16.6875,-7.350000381469727
1781033636096439800,10.094439697265624,-40.35000228881836,16.70625114440918,-6.543750286102295
1781033636116208000,10.1142080078125,-39.22500228881836,18.075000762939453,-6.187500476837158
1781033636136235300,10.1342353515625,-39.69375228881836,18.46875,-5.943750381469727
1781033636156285400,10.154285400390625,-39.46875,17.625,-7.068750381469727
1781033636176427000,10.174427001953125,-39.01875305175781,18.431251525878906,-6.356250286102295
1781033636196659200,10.1946591796875,-38.306251525878906,18.075000762939453,-5.775000095367432
1781033636216633300,10.21463330078125,-38.55000305175781,17.45625114440918,-6.693750381469727
1781033636236637400,10.234637451171874,-40.125,17.493751525878906,-6.243750095367432
1781033636256634000,10.254634033203125,-41.25,17.137500762939453,-6.056250095367432
1781033636276630800,10.274630859375,-39.9375,19.23750114440918,-6.056250095367432
1781033636296635000,10.294634765625,-38.400001525878906,20.325000762939453,-6.581250190734863
1781033636316631600,10.314631591796875,-38.83125305175781,18.5625,-7.181250095367432
1781033636336628200,10.334628173828126,-39.26250076293945,18.375,-7.200000286102295
1781033636356632300,10.35463232421875,-39.28125,17.962501525878906,-7.668750286102295
1781033636376629000,10.37462890625,-40.38750076293945,17.231250762939453,-7.312500476837158
1781033636396633300,10.39463330078125,-40.14375305175781,17.475000381469727,-6.675000190734863
1781033636416637400,10.414637451171876,-38.55000305175781,17.231250762939453,-6.918750286102295
1781033636436634000,10.434634033203125,-37.01250076293945,18.11250114440918,-7.875000476837158
1781033636456638500,10.454638427734375,-38.868751525878906,19.087501525878906,-7.950000286102295
1781033636476635100,10.47463525390625,-39.95625305175781,18.787500381469727,-6.937500476837158
1781033636496631800,10.4946318359375,-40.42500305175781,18.993751525878906,-6.918750286102295
1781033636516636000,10.514635986328125,-40.89375305175781,18.731250762939453,-7.968750476837158
1781033636536632600,10.534632568359376,-38.41875076293945,18.450000762939453,-8.662500381469727
1781033636556629200,10.554629150390625,-38.41875076293945,17.83125114440918,-9.356250762939453
1781033636576633600,10.574633544921875,-38.41875076293945,17.850000381469727,-9.131250381469727
1781033636596630500,10.594630615234376,-35.66250228881836,19.275001525878906,-7.556250095367432
1781033636616627200,10.614627197265625,-37.03125,18.46875,-8.25
1781033636636631300,10.63463134765625,-40.3125,18.712501525878906,-10.893750190734863
1781033636656628000,10.6546279296875,-39.67500305175781,20.64375114440918,-10.6875
1781033636676632000,10.674632080078124,-35.55000305175781,19.631250381469727,-10.65000057220459
1781033636696636400,10.694636474609375,-34.21875,19.106250762939453,-12.375000953674316
1781033636716633000,10.714633056640626,-36.75,20.493751525878906,-12.206250190734863
1781033636736637200,10.73463720703125,-38.118751525878906,19.70625114440918,-12.693750381469727
1781033636756633900,10.7546337890625,-38.10000228881836,19.3125,-12.731250762939453
1781033636776630500,10.774630615234376,-39.20625305175781,18.806251525878906,-11.943750381469727
1781033636796634600,10.794634521484374,-38.98125076293945,19.650001525878906,-11.02500057220459
1781033636816631300,10.81463134765625,-36.28125,19.950000762939453,-11.643750190734863
1781033636836635600,10.8346357421875,-38.10000228881836,18.506250381469727,-13.237500190734863
1781033636856640000,10.854639892578126,-40.85625076293945,19.350000381469727,-12.71250057220459
1781033636876598500,10.8745986328125,-39.01875305175781,19.350000381469727,-12.300000190734863
1781033636896473000,10.89447314453125,-39.22500228881836,18.375,-12.825000762939453
1781033636916241400,10.914241455078125,-39.69375228881836,19.762500762939453,-12.037500381469727
1781033636936276200,10.934276123046875,-37.44375228881836,21.11250114440918,-11.700000762939453
1781033636956318700,10.954318603515626,-36.54375076293945,21.900001525878906,-11.21250057220459
1781033636976445200,10.974445068359374,-36.11250305175781,23.4375,-11.0625
1781033636996670000,10.994669921875,-37.743751525878906,25.650001525878906,-9.975000381469727
1781033637016636200,11.01463623046875,-38.212501525878906,26.64375114440918,-9.637500762939453
1781033637036632600,11.034632568359376,-36.86250305175781,26.381250381469727,-10.3125
1781033637056629200,11.054629150390625,-37.29375076293945,25.818750381469727,-10.143750190734863
1781033637076633600,11.074633544921875,-37.78125,24.975000381469727,-11.49375057220459
1781033637096630300,11.09463037109375,-38.88750076293945,24.86250114440918,-10.668750762939453
1781033637116627000,11.114626953125,-39.03750228881836,23.400001525878906,-9.356250762939453
1781033637136631000,11.134631103515625,-38.75625228881836,22.293750762939453,-8.86875057220459
1781033637156627700,11.154627685546876,-36.9375,22.837501525878906,-8.8125
1781033637176632000,11.174632080078124,-36.07500076293945,24.750001907348633,-8.831250190734863
1781033637196636200,11.19463623046875,-36.31875228881836,26.36250114440918,-7.818750381469727
1781033637216632800,11.2146328125,-34.95000076293945,26.55000114440918,-7.593750476837158
1781033637236637200,11.23463720703125,-32.66250228881836,26.718751907348633,-7.612500190734863
1781033637256633900,11.2546337890625,-31.950000762939453,24.543750762939453,-8.25
1781033637276630500,11.274630615234376,-33.09375,24.337501525878906,-8.700000762939453
1781033637296635000,11.294634765625,-34.72500228881836,26.512500762939453,-8.02500057220459
1781033637316631600,11.314631591796875,-35.38125228881836,25.98750114440918,-7.443750381469727
1781033637336628000,11.3346279296875,-37.40625,25.687501907348633,-6.843750476837158
1781033637356632300,11.35463232421875,-38.53125,25.537500381469727,-6.225000381469727
1781033637376629000,11.37462890625,-35.98125076293945,24.356250762939453,-6.150000095367432
1781033637396633300,11.39463330078125,-36.056251525878906,24.187501907348633,-8.68125057220459
1781033637416637700,11.4146376953125,-33.84375,24.431251525878906,-10.331250190734863
1781033637436634400,11.43463427734375,-34.462501525878906,23.137500762939453,-9.637500762939453
1781033637456638500,11.454638427734375,-37.44375228881836,20.493751525878906,-12.412500381469727
1781033637476635100,11.47463525390625,-37.42500305175781,15.843750953674316,-15.61875057220459
1781033637496631800,11.4946318359375,-36.900001525878906,14.550000190734863,-14.718750953674316
1781033637516636200,11.51463623046875,-38.32500076293945,15.675000190734863,-15.412500381469727
1781033637536632800,11.5346328125,-37.66875076293945,14.981250762939453,-16.950000762939453
1781033637556629200,11.554629150390625,-33.78750228881836,14.343750953674316,-17.0625
1781033637576633600,11.574633544921875,-31.256250381469727,12.90000057220459,-18.075000762939453
1781033637596630300,11.59463037109375,-31.743751525878906,11.4375,-19.89375114440918
1781033637616627000,11.614626953125,-33.337501525878906,11.456250190734863,-19.875
1781033637636631000,11.634631103515625,-33.16875076293945,11.943750381469727,-21.075000762939453
1781033637656627700,11.654627685546876,-32.23125076293945,10.74375057220459,-21.637500762939453
1781033637676594000,11.674593994140626,-33.50625228881836,9.15000057220459,-19.912500381469727
1781033637696468500,11.694468505859374,-34.91250228881836,9.506250381469727,-20.700000762939453
1781033637716252200,11.714252197265624,-34.23750305175781,9.65625,-20.90625
1781033637736294400,11.73429443359375,-34.650001525878906,8.11875057220459,-21.056251525878906
1781033637756344800,11.7543447265625,-34.61250305175781,6.768750190734863,-21.20625114440918
1781033637776471000,11.774470947265625,-36.16875076293945,6.487500190734863,-19.96875
1781033637796688400,11.7946884765625,-35.66250228881836,6.581250190734863,-18.712501525878906
1781033637816647200,11.814647216796875,-35.19375228881836,5.362500190734863,-19.481250762939453
1781033637836628200,11.834628173828126,-34.57500076293945,6.450000286102295,-20.193750381469727
1781033637856632600,11.854632568359374,-33.22500228881836,8.8125,-19.125
1781033637876629200,11.874629150390625,-32.15625,9.90000057220459,-20.043750762939453
1781033637896626000,11.8946259765625,-30.168750762939453,10.143750190734863,-21.506250381469727
1781033637916630000,11.914630126953124,-32.025001525878906,11.49375057220459,-21.76875114440918
1781033637936626700,11.934626708984375,-31.856250762939453,13.406250953674316,-21.75
1781033637956630800,11.954630859375,-29.156251907348633,14.925000190734863,-21.618751525878906
1781033637976635100,11.97463525390625,-29.887500762939453,15.862500190734863,-22.14375114440918
1781033637996631800,11.9946318359375,-30.993751525878906,15.956250190734863,-20.868751525878906
1781033638016636200,12.01463623046875,-32.306251525878906,15.05625057220459,-20.325000762939453
1781033638036632800,12.0346328125,-31.875001907348633,14.381250381469727,-21.65625
1781033638056629500,12.05462939453125,-31.218751907348633,13.875000953674316,-23.17500114440918
1781033638076633900,12.0746337890625,-33.20625305175781,13.46250057220459,-21.318750381469727
1781033638096630500,12.094630615234376,-35.212501525878906,13.200000762939453,-19.875
1781033638116627200,12.114627197265625,-33.431251525878906,14.700000762939453,-20.15625
1781033638136631600,12.134631591796875,-32.10000228881836,16.443750381469727,-19.762500762939453
1781033638156628200,12.154628173828126,-32.56875228881836,16.03125,-20.212501525878906
1781033638176632300,12.17463232421875,-29.587501525878906,17.043750762939453,-18.881250381469727
1781033638196636700,12.19463671875,-31.387500762939453,18.731250762939453,-17.231250762939453
1781033638216633000,12.214633056640626,-32.32500076293945,18.09375,-18.11250114440918
1781033638236637200,12.23463720703125,-30.918750762939453,16.950000762939453,-17.850000381469727
1781033638256633900,12.2546337890625,-30.187501907348633,18.262500762939453,-15.206250190734863
1781033638276630500,12.274630615234376,-31.556251525878906,18.881250381469727,-14.925000190734863
1781033638296635000,12.294634765625,-34.53750228881836,17.681251525878906,-16.275001525878906
1781033638316631600,12.314631591796875,-34.275001525878906,18.76875114440918,-14.287500381469727
1781033638336628200,12.334628173828126,-32.400001525878906,19.05000114440918,-12.825000762939453
1781033638356632300,12.35463232421875,-31.481250762939453,18.637500762939453,-13.068750381469727
1781033638376629000,12.37462890625,-32.85000228881836,19.70625114440918,-11.700000762939453
1781033638396633000,12.394633056640625,-34.40625,20.418750762939453,-9.9375
1781033638416637400,12.414637451171876,-34.81875228881836,18.262500762939453,-10.59375
1781033638436634000,12.434634033203125,-32.98125076293945,17.043750762939453,-11.362500190734863
1781033638456638500,12.454638427734375,-32.56875228881836,18.975000381469727,-11.15625
1781033638476635100,12.47463525390625,-33.26250076293945,19.96875,-10.631250381469727
1781033638496563200,12.494563232421875,-35.94375228881836,19.350000381469727,-9.206250190734863
1781033638516438300,12.514438232421876,-35.53125,20.662500381469727,-9.487500190734863
1781033638536199400,12.534199462890625,-33.056251525878906,22.818750381469727,-8.4375
1781033638556219100,12.55421923828125,-35.26875305175781,23.17500114440918,-6.506250381469727
1781033638576292000,12.5742919921875,-34.837501525878906,22.931251525878906,-7.162500381469727
1781033638596417800,12.594417724609375,-33.22500228881836,22.293750762939453,-7.668750286102295
1781033638616650000,12.61464990234375,-33.91875076293945,20.08125114440918,-9.356250762939453
1781033638636631300,12.63463134765625,-35.04375076293945,18.900001525878906,-9.881250381469727
1781033638656628000,12.6546279296875,-37.25625228881836,19.668750762939453,-7.500000476837158
1781033638676632300,12.67463232421875,-38.36250305175781,18.975000381469727,-6.731250286102295
1781033638696636400,12.694636474609375,-34.70625305175781,18.525001525878906,-7.012500286102295
1781033638716633000,12.714633056640626,-33.056251525878906,18.01875114440918,-5.831250190734863
1781033638736637400,12.734637451171874,-36.03750228881836,17.231250762939453,-6.525000095367432
1781033638756633900,12.7546337890625,-36.75,18.412500381469727,-6.393750190734863
1781033638776630500,12.774630615234376,-39.16875076293945,18.1875,-4.518750190734863
1781033638796634600,12.794634521484374,-41.92500305175781,17.381250381469727,-5.418750286102295
1781033638816631300,12.81463134765625,-40.76250076293945,16.59375,-5.71875
1781033638836628000,12.8346279296875,-40.087501525878906,17.15625,-5.662500381469727
1781033638856632300,12.85463232421875,-39.22500228881836,16.650001525878906,-7.181250095367432
1781033638876629000,12.87462890625,-39.1875,15.90000057220459,-6.843750476837158
1781033638896625700,12.894625732421876,-39.618751525878906,15.99375057220459,-5.587500095367432
1781033638916629800,12.914629638671874,-37.76250076293945,15.80625057220459,-5.418750286102295
1781033638936626400,12.93462646484375,-38.70000076293945,16.80000114440918,-5.081250190734863
1781033638956630800,12.954630859375,-39.22500228881836,16.462501525878906,-7.200000286102295
1781033638976635100,12.97463525390625,-39.69375228881836,16.21875,-7.856250286102295
1781033638996631800,12.9946318359375,-40.53750228881836,15.768750190734863,-6.431250095367432
1781033639016636200,13.01463623046875,-39.84375,14.343750953674316,-7.425000190734863
1781033639036632600,13.034632568359376,-40.3125,14.943750381469727,-7.143750190734863
1781033639056629200,13.054629150390625,-40.14375305175781,17.475000381469727,-6.675000190734863
1781033639076633600,13.074633544921875,-40.10625076293945,16.51875114440918,-6.562500476837158
1781033639096630300,13.09463037109375,-40.98750305175781,14.812500953674316,-6.525000095367432
1781033639116627000,13.114626953125,-41.493751525878906,15.90000057220459,-7.443750381469727
1781033639136631000,13.134631103515625,-41.25,16.125,-7.012500286102295
1781033639156627700,13.154627685546876,-40.98750305175781,15.600000381469727,-6.018750190734863
1781033639176632000,13.174632080078124,-41.64375305175781,13.818750381469727,-6.843750476837158
1781033639196636200,13.19463623046875,-40.72500228881836,13.406250953674316,-7.106250286102295
1781033639216632800,13.2146328125,-40.29375076293945,13.575000762939453,-7.500000476837158
1781033639236637200,13.23463720703125,-40.72500228881836,13.218750953674316,-7.125000476837158
1781033639256633900,13.2546337890625,-41.19375228881836,13.406250953674316,-7.312500476837158
1781033639276638200,13.27463818359375,-41.75625228881836,13.800000190734863,-9.975000381469727
1781033639296642300,13.294642333984376,-40.14375305175781,13.968750953674316,-9.956250190734863
1781033639316524500,13.314524658203124,-39.1875,13.668750762939453,-8.550000190734863
1781033639336346400,13.334346435546875,-37.368751525878906,12.843750953674316,-9.075000762939453
1781033639356411600,13.35441162109375,-36.26250076293945,12.52500057220459,-10.78125
1781033639376408300,13.374408203125,-37.66875076293945,13.050000190734863,-11.756250381469727
1781033639396519400,13.39451953125,-38.79375076293945,12.937500953674316,-10.706250190734863
1781033639416698600,13.41469873046875,-39.48750305175781,13.893750190734863,-11.02500057220459
1781033639436626700,13.434626708984375,-41.400001525878906,14.981250762939453,-12.33750057220459
1781033639456631000,13.454631103515625,-42.58125305175781,15.093750953674316,-13.55625057220459
1781033639476635400,13.474635498046876,-39.84375,14.250000953674316,-14.100000381469727
1781033639496632000,13.494632080078125,-40.087501525878906,15.037500381469727,-13.800000190734863
1781033639516636200,13.51463623046875,-40.53750228881836,15.675000190734863,-13.106250762939453
1781033639536632800,13.5346328125,-39.54375076293945,13.36875057220459,-12.956250190734863
1781033639556629500,13.55462939453125,-39.31875228881836,13.18125057220459,-12.975000381469727
1781033639576633900,13.5746337890625,-39.337501525878906,14.362500190734863,-12.412500381469727
1781033639596630300,13.59463037109375,-40.72500228881836,15.375000953674316,-12.093750953674316
1781033639616627000,13.614626953125,-41.306251525878906,19.162500381469727,-12.918750762939453
1781033639636631300,13.63463134765625,-40.462501525878906,21.225000381469727,-13.331250190734863
1781033639656628000,13.6546279296875,-38.13750076293945,21.318750381469727,-11.68125057220459
1781033639676632000,13.674632080078124,-38.962501525878906,20.493751525878906,-9.881250381469727
1781033639696636400,13.694636474609375,-40.462501525878906,18.09375,-8.887500762939453
1781033639716633000,13.714633056640626,-39.31875228881836,16.856250762939453,-9.862500190734863
1781033639736637200,13.73463720703125,-40.743751525878906,16.725000381469727,-11.943750381469727
1781033639756633900,13.7546337890625,-41.681251525878906,18.28125,-11.568750381469727
1781033639776630500,13.774630615234376,-40.743751525878906,19.575000762939453,-9.5625
1781033639796634600,13.794634521484374,-38.45625305175781,21.01875114440918,-7.743750095367432
1781033639816631300,13.81463134765625,-35.962501525878906,23.15625,-6.918750286102295
1781033639836635600,13.8346357421875,-34.25625228881836,24.131250381469727,-9.131250381469727
1781033639856640000,13.854639892578126,-34.25625228881836,24.525001525878906,-9.075000762939453
1781033639876636700,13.87463671875,-35.15625,24.150001525878906,-9.112500190734863
1781033639896641000,13.89464111328125,-36.78750228881836,22.875,-11.100000381469727
1781033639916637400,13.914637451171876,-39.69375228881836,20.587501525878906,-11.325000762939453
1781033639936634000,13.934634033203125,-38.775001525878906,20.17500114440918,-11.58750057220459
1781033639956638500,13.954638427734375,-37.462501525878906,21.075000762939453,-12.131250381469727
1781033639976635100,13.97463525390625,-36.13125228881836,21.975000381469727,-12.656250953674316
1781033639996639200,13.99463916015625,-33.86250305175781,22.725000381469727,-12.600000381469727
1781033640016643600,14.0146435546875,-31.387500762939453,22.80000114440918,-13.875000953674316
1781033640036640300,14.03464013671875,-30.750001907348633,24.11250114440918,-14.156250953674316
1781033640056637000,14.054636962890624,-30.750001907348633,24.11250114440918,-14.156250953674316
1781033640076633600,14.074633544921875,-30.750001907348633,24.11250114440918,-14.156250953674316
1781033640096630300,14.09463037109375,-35.53125,19.537500381469727,-17.306251525878906
1781033640116581000,14.1145810546875,-35.53125,19.537500381469727,-17.306251525878906
1781033640136455700,14.13445556640625,-35.53125,19.537500381469727,-17.306251525878906
1781033640156224000,14.15422412109375,-32.34375,19.481250762939453,-17.55000114440918
1781033640176251100,14.174251220703125,-31.200000762939453,16.61250114440918,-19.743751525878906
1781033640196301300,14.19430126953125,-33.54375076293945,17.118751525878906,-21.337501525878906
1781033640216427500,14.214427490234375,-32.85000228881836,15.881250381469727,-22.3125
1781033640236660000,14.234659912109375,-30.281251907348633,14.58750057220459,-21.225000381469727
1781033640256633600,14.254633544921875,-31.162500381469727,13.425000190734863,-21.356250762939453
1781033640276630300,14.27463037109375,-33,12.99375057220459,-22.42500114440918
1781033640296398800,14.29439892578125,-33,12.99375057220459,-22.42500114440918
1781033640356396800,14.354396728515624,-31.200000762939453,12.918750762939453,-23.26875114440918
1781033640376629000,14.37462890625,-30.750001907348633,13.312500953674316,-23.025001525878906
1781033640396625700,14.394625732421876,-32.36250305175781,14.100000381469727,-22.931251525878906
1781033640416629800,14.414629638671874,-32.8125,14.737500190734863,-22.23750114440918
1781033640436626400,14.43462646484375,-31.89375114440918,14.325000762939453,-22.5
1781033640456630800,14.454630859375,-33.48750305175781,13.575000762939453,-22.556251525878906
1781033640476635000,14.474634765625,-35.0625,13.237500190734863,-22.162500381469727
1781033640496631600,14.494631591796875,-34.59375,12.862500190734863,-21.993751525878906
1781033640516636000,14.514635986328125,-33.1875,12.90000057220459,-21.168750762939453
1781033640536632300,14.53463232421875,-31.631250381469727,13.818750381469727,-21.506250381469727
1781033640556629000,14.55462890625,-32.10000228881836,14.21250057220459,-21.46875
1781033640576633300,14.57463330078125,-33.22500228881836,14.456250190734863,-20.793750762939453
1781033640596630300,14.59463037109375,-33.01875305175781,14.831250190734863,-20.962501525878906
1781033640616626700,14.614626708984375,-31.406251907348633,16.837501525878906,-19.51875114440918
1781033640636631000,14.634631103515625,-31.200000762939453,18.243751525878906,-18.525001525878906
1781033640656628000,14.6546279296875,-32.79375076293945,18.262500762939453,-18.506250381469727
1781033640676632300,14.67463232421875,-31.875001907348633,18.67500114440918,-17.850000381469727
1781033640696636400,14.694636474609375,-33.22500228881836,19.14375114440918,-17.15625
1781033640716633000,14.714633056640626,-35.04375076293945,19.40625,-16.293750762939453
1781033640736637200,14.73463720703125,-32.55000305175781,18.918750762939453,-17.193750381469727
1781033640756634000,14.754634033203125,-32.53125,19.556251525878906,-16.5
1781033640776630800,14.774630859375,-30.468751907348633,20.981250762939453,-15.112500190734863
1781033640796635000,14.794634765625,-29.100000381469727,21.787500381469727,-14.006250381469727
1781033640816631600,14.814631591796875,-31.125001907348633,21.693750381469727,-13.162500381469727
1781033640836635600,14.8346357421875,-33.13125228881836,21.1875,-12.581250190734863
1781033640856640000,14.854639892578126,-34.98750305175781,21.76875114440918,-12.693750381469727
1781033640876636400,14.874636474609375,-35.4375,21.1875,-12.975000381469727
1781033640896640800,14.894640869140625,-35.38125228881836,20.08125114440918,-12.262500762939453
1781033640916637400,14.914637451171876,-34.42500305175781,20.15625,-11.006250381469727
1781033640936565500,14.9345654296875,-33.26250076293945,19.59375,-10.668750762939453
1781033640956440800,14.95444091796875,-33.9375,18.600000381469727,-11.175000190734863
1781033640976202000,14.974201904296875,-34.368751525878906,18.46875,-10.575000762939453
1781033640996221700,14.9942216796875,-33.712501525878906,19.181251525878906,-11.11875057220459
1781033641016294700,15.014294677734375,-34.6875,20.71875,-11.362500190734863
1781033641036420400,15.03442041015625,-36.26250076293945,19.762500762939453,-11.456250190734863
1781033641056652300,15.05465234375,-34.16250228881836,19.03125,-10.5
1781033641076633600,15.074633544921875,-33.65625,20.15625,-8.100000381469727
1781033641096630300,15.09463037109375,-35.73750305175781,21.95625114440918,-7.462500095367432
1781033641116627000,15.114626953125,-35.38125228881836,22.931251525878906,-9.862500190734863
1781033641136631000,15.134631103515625,-32.587501525878906,22.181251525878906,-9.131250381469727
1781033641156627700,15.154627685546876,-31.575000762939453,20.587501525878906,-7.031250476837158
1781033641176632000,15.174632080078124,-33.900001525878906,20.71875,-8.456250190734863
1781033641196636200,15.19463623046875,-35.70000076293945,20.006250381469727,-8.100000381469727
1781033641216632800,15.2146328125,-39.07500076293945,19.96875,-6.618750095367432
1781033641236637200,15.23463720703125,-39.09375,20.53125,-6.543750286102295
1781033641256633900,15.2546337890625,-37.70625305175781,18.918750762939453,-7.368750095367432
1781033641276630500,15.274630615234376,-38.118751525878906,18.20625114440918,-6.806250095367432
1781033641296635000,15.294634765625,-37.63125228881836,17.662500381469727,-6.243750095367432
1781033641316631600,15.314631591796875,-36.9375,17.64375114440918,-6.262500286102295
1781033641336628200,15.334628173828126,-35.13750076293945,18.806251525878906,-5.943750381469727
1781033641356632300,15.35463232421875,-37.21875,20.193750381469727,-5.568750381469727
1781033641376629000,15.37462890625,-37.48125076293945,20.325000762939453,-6.375000476837158
1781033641396625700,15.394625732421876,-37.931251525878906,19.087501525878906,-7.762500286102295
1781033641416630000,15.414630126953124,-40.650001525878906,18.787500381469727,-7.143750190734863
1781033641436626700,15.434626708984375,-40.01250076293945,20.512500762939453,-6.956250190734863
1781033641456630800,15.454630859375,-40.48125076293945,20.90625,-7.125000476837158
1781033641476635100,15.47463525390625,-37.98750305175781,21.243751525878906,-7.106250286102295
1781033641496631800,15.4946318359375,-34.98750305175781,20.25,-7.031250476837158
1781033641516636000,15.514635986328125,-37.95000076293945,20.100000381469727,-7.031250476837158
1781033641536632600,15.534632568359376,-38.66250228881836,20.662500381469727,-7.368750095367432
1781033641556629200,15.554629150390625,-38.60625076293945,18.731250762939453,-7.593750476837158
1781033641576633600,15.574633544921875,-41.962501525878906,16.875,-7.125000476837158
1781033641596630300,15.59463037109375,-41.25,17.15625,-5.850000381469727
1781033641616627000,15.614626953125,-39.07500076293945,18.731250762939453,-7.575000286102295
1781033641636631000,15.634631103515625,-38.88750076293945,18.431251525878906,-9.075000762939453
1781033641656627700,15.654627685546876,-40.85625076293945,17.793750762939453,-7.668750286102295
1781033641676632000,15.674632080078124,-40.63125228881836,17.8125,-7.462500095367432
1781033641696636200,15.69463623046875,-38.8125,17.587501525878906,-7.500000476837158
1781033641716632800,15.7146328125,-39.48750305175781,17.193750381469727,-7.743750095367432
1781033641736637200,15.73463720703125,-39.69375228881836,16.61250114440918,-7.800000190734863
1781033641756542200,15.754542236328126,-38.8125,16.96875,-8.193750381469727
1781033641776394800,15.774394775390626,-39.712501525878906,16.387500762939453,-8.456250190734863
1781033641796162600,15.79416259765625,-40.85625076293945,16.387500762939453,-8.4375
1781033641816220200,15.81422021484375,-39.97500228881836,17.137500762939453,-8.58750057220459
1781033641836308500,15.83430859375,-39.48750305175781,16.575000762939453,-8.4375
1781033641856457000,15.85445703125,-40.16250228881836,15.975000381469727,-8.700000762939453
1781033641876690000,15.87468994140625,-39.67500305175781,15.862500190734863,-7.687500476837158
1781033641896625700,15.894625732421876,-38.08125305175781,15.825000762939453,-7.912500381469727
1781033641916629800,15.914629638671874,-39.03750228881836,15.937500953674316,-9.131250381469727
1781033641936626400,15.93462646484375,-39.95625305175781,16.96875,-8.381250381469727
1781033641956630800,15.954630859375,-40.59375,16.837501525878906,-7.350000381469727
1781033641976635100,15.97463525390625,-40.38750076293945,16.61250114440918,-8.006250381469727
1781033641996631800,15.9946318359375,-39.30000305175781,16.875,-9.450000762939453
1781033642016636000,16.014635986328123,-39.525001525878906,16.256250381469727,-10.125
1781033642036632600,16.034632568359374,-37.48125076293945,16.23750114440918,-10.162500381469727
1781033642056629200,16.054629150390625,-37.20000076293945,15.71250057220459,-9.168750762939453
1781033642076633300,16.07463330078125,-40.6875,16.668750762939453,-9.881250381469727
1781033642096630000,16.094630126953124,-40.95000076293945,16.96875,-11.081250190734863
1781033642116626700,16.114626708984375,-39.993751525878906,14.625000953674316,-11.550000190734863
1781033642136631000,16.134631103515623,-38.17500305175781,15.43125057220459,-10.65000057220459
1781033642156627700,16.154627685546874,-38.493751525878906,17.868751525878906,-11.643750190734863
1781033642176632000,16.174632080078126,-39,18.76875114440918,-12.581250190734863
1781033642196636400,16.194636474609375,-38.0625,18.39375114440918,-12.206250190734863
1781033642216633000,16.214633056640626,-39.9375,18.95625114440918,-12.750000953674316
1781033642236637400,16.234637451171874,-39.28125,20.306251525878906,-12.61875057220459
1781033642256634000,16.254634033203125,-35.85000228881836,21.075000762939453,-11.925000190734863
1781033642276630800,16.274630859375,-35.681251525878906,23.212501525878906,-11.49375057220459
1781033642296635000,16.294634765625,-38.025001525878906,24.712501525878906,-12.562500953674316
1781033642316631600,16.314631591796875,-37.51875305175781,23.587501525878906,-12.075000762939453
1781033642336628200,16.334628173828126,-37.91250228881836,22.125,-10.96875
1781033642356632300,16.35463232421875,-39.26250076293945,21.95625114440918,-10.96875
1781033642376629000,16.37462890625,-38.32500076293945,20.381250381469727,-11.362500190734863
1781033642396633300,16.39463330078125,-37.85625076293945,19.80000114440918,-11.231250762939453
1781033642416637400,16.414637451171874,-37.21875,22.350000381469727,-10.537500381469727
1781033642436634000,16.434634033203125,-37.06875228881836,23.568750381469727,-12.075000762939453
1781033642456638500,16.454638427734373,-35.47500228881836,24.543750762939453,-11.550000190734863
1781033642476635100,16.47463525390625,-34.76250076293945,25.200000762939453,-10.237500190734863
1781033642496631800,16.4946318359375,-34.96875,23.64375114440918,-10.612500190734863
1781033642516636000,16.514635986328123,-34.743751525878906,23.418750762939453,-11.0625
1781033642536632600,16.534632568359374,-36.375,25.218751907348633,-10.443750381469727
1781033642556629200,16.554629150390625,-39.30000305175781,25.537500381469727,-9.131250381469727
1781033642576534500,16.574534423828126,-37.20000076293945,24.600000381469727,-8.418750762939453
1781033642596379100,16.594379150390626,-32.88750076293945,24.281251907348633,-9.318750381469727
1781033642616139500,16.614139404296875,-31.61250114440918,26.306251525878906,-10.575000762939453
1781033642636143600,16.6341435546875,-32.10000228881836,27.243751525878906,-10.893750190734863
1781033642656239600,16.654239501953125,-32.32500076293945,26.043750762939453,-11.643750190734863
1781033642676395800,16.674395751953124,-32.98125076293945,23.887500762939453,-12.281250953674316
1781033642696636400,16.694636474609375,-32.53125,22.837501525878906,-13.443750381469727
1781033642716633000,16.714633056640626,-31.42500114440918,22.33125114440918,-14.96250057220459
1781033642736637200,16.73463720703125,-31.837501525878906,21.1875,-14.86875057220459
1781033642756633900,16.7546337890625,-32.962501525878906,20.887500762939453,-14.062500953674316
1781033642776630500,16.774630615234376,-34.10625076293945,20.25,-15.168750762939453
1781033642796635000,16.794634765625,-30.95625114440918,18.450000762939453,-18.09375
1781033642816631600,16.814631591796875,-29.137500762939453,18.412500381469727,-18.318750381469727
1781033642836635600,16.8346357421875,-31.631250381469727,18.918750762939453,-17.193750381469727
1781033642856640000,16.854639892578124,-30.187501907348633,17.212501525878906,-16.575000762939453
1781033642876636700,16.87463671875,-30.468751907348633,16.293750762939453,-18.75
1781033642896633300,16.89463330078125,-32.32500076293945,14.418750762939453,-21.225000381469727
1781033642916629800,16.914629638671876,-30.468751907348633,12.206250190734863,-22.106250762939453
1781033642936626700,16.934626708984375,-28.89375114440918,12.750000953674316,-22.481250762939453
1781033642956630800,16.954630859375,-29.400001525878906,14.475000381469727,-22.5
1781033642976635100,16.97463525390625,-30.525001525878906,13.912500381469727,-22.556251525878906
1781033642996631600,16.994631591796875,-31.162500381469727,13.83750057220459,-21.09375
1781033643016636000,17.014635986328123,-32.15625,15.675000190734863,-22.350000381469727
1781033643036632600,17.034632568359374,-33.16875076293945,16.725000381469727,-24.093751907348633
1781033643056629200,17.054629150390625,-31.312501907348633,16.556251525878906,-23.306251525878906
1781033643076633600,17.074633544921873,-26.718751907348633,16.125,-23.17500114440918
1781033643096630300,17.09463037109375,-26.475000381469727,15.768750190734863,-22.80000114440918
1781033643116634400,17.11463427734375,-29.45625114440918,15.131250381469727,-24.093751907348633
1781033643136638700,17.134638671875,-29.512500762939453,15.656250953674316,-24.86250114440918
1781033643156635400,17.154635498046876,-29.718751907348633,16.293750762939453,-23.962501525878906
1781033643176639500,17.174639404296876,-31.106250762939453,16.106250762939453,-24.187501907348633
1781033643196636200,17.19463623046875,-31.818750381469727,15.843750953674316,-25.23750114440918
1781033643216632800,17.2146328125,-31.593751907348633,16.42500114440918,-25.181251525878906
1781033643236637200,17.23463720703125,-31.575000762939453,17.681251525878906,-23.793750762939453
1781033643256633900,17.2546337890625,-32.47500228881836,18.150001525878906,-22.6875
1781033643276630500,17.274630615234376,-32.23125076293945,18.1875,-22.275001525878906
1781033643296635000,17.294634765625,-32.51250076293945,18.86250114440918,-23.4375
1781033643316631600,17.314631591796875,-32.28750228881836,18.67500114440918,-23.475000381469727
1781033643336636000,17.334635986328124,-30.39375114440918,19.42500114440918,-20.700000762939453
1781033643356640000,17.354639892578124,-27.693750381469727,21.5625,-19.856250762939453
1781033643376636700,17.37463671875,-30.67500114440918,22.14375114440918,-20.193750381469727
1781033643396519000,17.394518798828123,-31.950000762939453,20.55000114440918,-18.48750114440918
1781033643416340700,17.4143408203125,-31.89375114440918,20.043750762939453,-17.493751525878906
1781033643436101400,17.434101318359374,-32.79375076293945,20.306251525878906,-16.837501525878906
1781033643456105700,17.454105712890627,-30.075000762939453,21.881250381469727,-15.862500190734863
1781033643476224500,17.474224609375,-30.693750381469727,23.231250762939453,-12.99375057220459
1781033643496395800,17.494395751953125,-32.64375305175781,21.243751525878906,-11.737500190734863
1781033643516636000,17.514635986328123,-32.47500228881836,21.543750762939453,-12.750000953674316
1781033643536632600,17.534632568359374,-31.312501907348633,22.59375,-11.40000057220459
1781033643556629200,17.554629150390625,-29.475000381469727,23.231250762939453,-10.08750057220459
1781033643576633600,17.574633544921873,-27.637500762939453,23.606250762939453,-9.862500190734863
1781033643596630300,17.59463037109375,-28.762500762939453,23.287500381469727,-9.262500762939453
1781033643616626700,17.614626708984375,-31.068750381469727,23.231250762939453,-10.5
1781033643636631000,17.634631103515623,-32.88750076293945,23.287500381469727,-10.068750381469727
1781033643656627700,17.654627685546874,-32.775001525878906,22.537500381469727,-7.012500286102295
1781033643676632000,17.674632080078126,-31.443750381469727,22.21875,-8.512500762939453
1781033643696636200,17.69463623046875,-31.068750381469727,23.25,-10.08750057220459
1781033643716632800,17.7146328125,-29.868751525878906,22.3125,-9.5625
1781033643736637200,17.73463720703125,-32.10000228881836,20.868751525878906,-8.662500381469727
1781033643756633600,17.754633544921877,-34.125,20.55000114440918,-8.043750762939453
1781033643776630300,17.77463037109375,-32.118751525878906,22.443750381469727,-8.081250190734863
1781033643796634600,17.794634521484376,-33.48750305175781,23.681251525878906,-7.087500095367432
1781033643816631300,17.81463134765625,-35.28750228881836,22.3125,-7.856250286102295
1781033643836628000,17.8346279296875,-35.94375228881836,20.943750381469727,-8.193750381469727
1781033643856632300,17.85463232421875,-35.08125305175781,22.481250762939453,-8.25
1781033643876629000,17.87462890625,-31.931251525878906,24.168750762939453,-8.30625057220459
1781033643896625700,17.894625732421876,-33.243751525878906,23.287500381469727,-7.350000381469727
1781033643916630000,17.914630126953124,-35.26875305175781,22.368751525878906,-7.012500286102295
1781033643936626400,17.93462646484375,-35.23125076293945,21.65625,-6.468750476837158
1781033643956630800,17.954630859375,-33.150001525878906,20.850000381469727,-6.375000476837158
1781033643976635000,17.974634765625,-33.375,20.0625,-6.862500190734863
1781033643996639200,17.99463916015625,-35.23125076293945,20.025001525878906,-7.687500476837158
1781033644016643600,18.0146435546875,-34.556251525878906,21.1875,-7.350000381469727
1781033644036640500,18.034640625,-37.29375076293945,21.46875,-6.675000190734863
1781033644056637200,18.05463720703125,-37.743751525878906,21.30000114440918,-6.468750476837158
1781033644076633900,18.0746337890625,-36.375,21.262500762939453,-6.712500095367432
1781033644096630500,18.094630615234376,-36.618751525878906,22.650001525878906,-6.131250381469727
1781033644116627000,18.114626953125,-37.98750305175781,22.650001525878906,-6.318750381469727
1781033644136631000,18.134631103515623,-38.212501525878906,21.693750381469727,-6.431250095367432
1781033644156627700,18.154627685546874,-35.0625,24.187501907348633,-5.775000095367432
1781033644176631800,18.1746318359375,-37.181251525878906,27.731250762939453,-4.743750095367432
1781033644196605700,18.194605712890624,-38.55000305175781,28.125001907348633,-4.893750190734863
1781033644216472800,18.214472900390625,-35.13750076293945,26.64375114440918,-6.337500095367432
1781033644236264200,18.23426416015625,-32.15625,28.481250762939453,-4.293750286102295
1781033644256329500,18.25432958984375,-31.05000114440918,30.225000381469727,-3.6937501430511475
1781033644276356400,18.2743564453125,-34.03125,28.368751525878906,-6.168750286102295
1781033644296490200,18.294490234375,-34.66875076293945,27.056251525878906,-5.887500286102295
1781033644316700000,18.314699951171875,-36.46875,26.756250381469727,-4.856250286102295
1781033644336628000,18.3346279296875,-38.00625228881836,26.306251525878906,-3.4312500953674316
1781033644356632300,18.35463232421875,-35.92500305175781,25.106250762939453,-3.7875001430511475
1781033644376629000,18.37462890625,-36.375,23.90625,-4.537500381469727
1781033644396625700,18.394625732421876,-37.743751525878906,23.306251525878906,-5.212500095367432
1781033644416630000,18.414630126953124,-38.04375076293945,23.36250114440918,-7.087500095367432
1781033644436626700,18.434626708984375,-39.375,23.4375,-6.225000381469727
1781033644456630800,18.454630859375,-40.556251525878906,23.17500114440918,-7.500000476837158
1781033644476635000,18.474634765625,-37.181251525878906,22.818750381469727,-9.24375057220459
1781033644496631600,18.494631591796875,-34.125,21.58125114440918,-7.312500476837158
1781033644516636000,18.514635986328123,-34.556251525878906,21,-7.162500381469727
1781033644536632600,18.534632568359374,-34.59375,21.731250762939453,-7.912500381469727
1781033644556629200,18.554629150390625,-35.70000076293945,20.381250381469727,-8.0625
1781033644576633600,18.574633544921873,-37.743751525878906,19.443750381469727,-8.137500762939453
1781033644596630300,18.59463037109375,-39.5625,19.05000114440918,-8.58750057220459
1781033644616627000,18.614626953125,-40.48125076293945,17.662500381469727,-9.5625
1781033644636631300,18.63463134765625,-40.03125,18.225000381469727,-9.506250381469727
1781033644656627700,18.654627685546874,-37.743751525878906,17.775001525878906,-9.975000381469727
1781033644676632000,18.674632080078126,-37.23750305175781,14.831250190734863,-10.725000381469727
1781033644696636400,18.694636474609375,-38.83125305175781,14.662500381469727,-10.725000381469727
1781033644716633000,18.714633056640626,-38.47500228881836,16.668750762939453,-12.168750762939453
1781033644736637200,18.73463720703125,-36.431251525878906,16.42500114440918,-12.637500762939453
1781033644756633900,18.7546337890625,-38.47500228881836,15.862500190734863,-12.693750381469727
1781033644776630500,18.774630615234376,-39.86250305175781,15.825000762939453,-13.500000953674316
1781033644796634600,18.794634521484376,-37.087501525878906,15.71250057220459,-12.093750953674316
1781033644816631600,18.814631591796875,-36.41250228881836,16.856250762939453,-11.77500057220459
1781033644836635600,18.8346357421875,-37.81875228881836,18.01875114440918,-12.037500381469727
1781033644856640000,18.854639892578124,-38.962501525878906,18.46875,-11.362500190734863
1781033644876636700,18.87463671875,-39.20625305175781,17.587501525878906,-12.918750762939453
1781033644896633300,18.89463330078125,-39.63750076293945,17.64375114440918,-12.281250953674316
1781033644916630000,18.914630126953124,-38.92500305175781,17.92500114440918,-10.800000190734863
1781033644936626700,18.934626708984375,-38.08125305175781,19.200000762939453,-11.700000762939453
1781033644956494300,18.954494384765624,-37.96875,22.818750381469727,-12.15000057220459
1781033644976498400,18.97449853515625,-37.05000305175781,24.225000381469727,-10.950000762939453
1781033644996502800,18.994502685546873,-37.462501525878906,22.89375114440918,-10.893750190734863
1781033645016446000,19.014446044921876,-39.243751525878906,21.618751525878906,-10.18125057220459
1781033645036441900,19.03444189453125,-38.71875,21.543750762939453,-8.53125
1781033645056210200,19.054210205078125,-38.94375228881836,19.725000381469727,-9.975000381469727
1781033645076230000,19.07422998046875,-37.556251525878906,18.318750381469727,-10.350000381469727
1781033645096287500,19.09428759765625,-34.35000228881836,19.950000762939453,-8.53125
1781033645116421600,19.114421630859376,-36.48750305175781,21.600000381469727,-9.99375057220459
1781033645136654000,19.134654052734376,-37.42500305175781,23.36250114440918,-9.581250190734863
1781033645156627700,19.154627685546874,-36.26250076293945,24.075000762939453,-7.650000095367432
1781033645176632000,19.174632080078126,-35.587501525878906,24.243751525878906,-7.856250286102295
1781033645196636200,19.19463623046875,-35.34375,24.262500762939453,-7.425000190734863
1781033645216632800,19.2146328125,-38.10000228881836,23.4375,-8.737500190734863
1781033645236637200,19.23463720703125,-36.525001525878906,24.375001907348633,-8.86875057220459
1781033645256633900,19.2546337890625,-34.51875305175781,25.068750381469727,-9.43125057220459
1781033645276630500,19.274630615234376,-36.16875076293945,24.337501525878906,-12
1781033645296635000,19.294634765625,-34.57500076293945,23.493751525878906,-12.731250762939453
1781033645316631600,19.314631591796875,-33.01875305175781,24,-13.518750190734863
1781033645336628200,19.334628173828126,-31.837501525878906,25.687501907348633,-11.0625
1781033645356632300,19.35463232421875,-32.70000076293945,25.818750381469727,-9.356250762939453
1781033645376629000,19.37462890625,-34.368751525878906,24.262500762939453,-12.843750953674316
1781033645396625700,19.394625732421876,-33.78750228881836,23.212501525878906,-16.725000381469727
1781033645416630000,19.414630126953124,-33.54375076293945,21.168750762939453,-18.1875
1781033645436634400,19.43463427734375,-33.48750305175781,18.86250114440918,-18.225000381469727
1781033645456638500,19.454638427734373,-34.16250228881836,17.45625114440918,-19.21875
1781033645476642800,19.474642822265626,-33.01875305175781,16.875,-19.293750762939453
1781033645496639500,19.494639404296876,-32.98125076293945,16.33125114440918,-18.731250762939453
1781033645516636000,19.514635986328123,-32.98125076293945,15.918750762939453,-18.975000381469727
1781033645536632600,19.534632568359374,-32.0625,14.081250190734863,-20.4375
1781033645556629200,19.554629150390625,-30.281251907348633,13.36875057220459,-22.200000762939453
1781033645576633600,19.574633544921873,-30.356250762939453,15.018750190734863,-23.26875114440918
1781033645596638000,19.594637939453126,-30.825000762939453,14.175000190734863,-24.39375114440918
1781033645616634400,19.61463427734375,-28.762500762939453,13.74375057220459,-24.67500114440918
1781033645636638700,19.634638671875,-27.918750762939453,16.23750114440918,-24.600000381469727
1781033645656635400,19.654635498046876,-27.993751525878906,17.493751525878906,-25.725000381469727
1781033645676632000,19.674632080078126,-27.337501525878906,17.83125114440918,-26.325000762939453
1781033645696636200,19.69463623046875,-27.562501907348633,18.225000381469727,-26.26875114440918
1781033645716632800,19.7146328125,-28.481250762939453,18.225000381469727,-26.26875114440918
1781033645736637200,19.73463720703125,-28.23750114440918,18.693750381469727,-25.181251525878906
1781033645756633900,19.7546337890625,-26.850000381469727,17.887500762939453,-25.275001525878906
1781033645776630300,19.77463037109375,-28.012500762939453,18.48750114440918,-25.406251907348633
1781033645796634600,19.794634521484376,-27.318750381469727,19.087501525878906,-24.712501525878906
1781033645816639000,19.814638916015625,-24.150001525878906,18.431251525878906,-25.443750381469727
1781033645836559400,19.834559326171874,-25.068750381469727,19.40625,-25.33125114440918
1781033645856419300,19.85441943359375,-25.743751525878906,20.25,-24.39375114440918
1781033645876179700,19.8741796875,-27.58125114440918,20.625,-24.76875114440918
1781033645896176400,19.89417626953125,-27.600000381469727,20.981250762939453,-25.125001907348633
1781033645916256800,19.9142568359375,-25.368751525878906,21.693750381469727,-25.70625114440918
1781033645936397800,19.934397705078126,-24.30000114440918,24,-25.256250381469727
1781033645956638500,19.954638427734373,-23.8125,25.068750381469727,-23.887500762939453
1781033645976635100,19.97463525390625,-23.850000381469727,24.600000381469727,-24.993751525878906
1781033645996631800,19.9946318359375,-24.937501907348633,23.45625114440918,-25.106250762939453
1781033646016636000,20.014635986328123,-26.718751907348633,24.01875114440918,-22.931251525878906
1781033646036632600,20.034632568359374,-27.618751525878906,26.493751525878906,-20.587501525878906
1781033646056629200,20.054629150390625,-26.45625114440918,25.912500381469727,-20.4375
1781033646076633600,20.074633544921873,-26.45625114440918,25.912500381469727,-20.4375
1781033646096630300,20.09463037109375,-26.887500762939453,25.781251907348633,-19.837501525878906
1781033646116627000,20.114626953125,-27.093751907348633,25.443750381469727,-19.256250381469727
1781033646136631000,20.134631103515623,-28.668750762939453,25.087501525878906,-19.068750381469727
1781033646156627700,20.154627685546874,-26.868751525878906,25.42500114440918,-19.443750381469727
1781033646176632000,20.174632080078126,-27.11250114440918,26.793750762939453,-19.106250762939453
1781033646196636400,20.194636474609375,-27.11250114440918,27.000001907348633,-18.86250114440918
1781033646216633000,20.214633056640626,-26.418750762939453,27.225000381469727,-18.225000381469727
1781033646236637200,20.23463720703125,-30.037500381469727,26.73750114440918,-17.625
1781033646256633900,20.2546337890625,-31.575000762939453,25.856250762939453,-16.650001525878906
1781033646276630500,20.274630615234376,-29.756250381469727,26.043750762939453,-16.650001525878906
1781033646296634600,20.294634521484376,-26.756250381469727,25.031251907348633,-16.575000762939453
1781033646316631300,20.31463134765625,-29.681251525878906,24.787500381469727,-15.131250381469727
1781033646336628000,20.3346279296875,-32.08125305175781,24.01875114440918,-13.106250762939453
1781033646356632300,20.35463232421875,-30.48750114440918,23.606250762939453,-13.162500381469727
1781033646376629000,20.37462890625,-30.056251525878906,23.512500762939453,-14.437500953674316
1781033646396633000,20.394633056640625,-30.993751525878906,24.337501525878906,-13.706250190734863
1781033646416637400,20.414637451171874,-31.631250381469727,23.83125114440918,-12.918750762939453
1781033646436641800,20.434641845703126,-29.325000762939453,24.037500381469727,-12.093750953674316
1781033646456646100,20.454646240234375,-30.000001907348633,24.693750381469727,-11.175000190734863
1781033646476642600,20.474642578125,-32.868751525878906,23.512500762939453,-9.412500381469727
1781033646496639200,20.49463916015625,-32.13750076293945,23.006250381469727,-8.418750762939453
1781033646516636000,20.514635986328123,-29.868751525878906,23.17500114440918,-8.4375
1781033646536632600,20.534632568359374,-30.825000762939453,23.887500762939453,-9.1875
1781033646556629200,20.554629150390625,-32.64375305175781,22.6875,-10.331250190734863
1781033646576633600,20.574633544921873,-32.625,22.33125114440918,-9.956250190734863
1781033646596630300,20.59463037109375,-32.400001525878906,23.36250114440918,-8.8125
1781033646616634400,20.61463427734375,-33.712501525878906,23.306251525878906,-7.143750190734863
1781033646636631000,20.634631103515623,-34.42500305175781,23.83125114440918,-7.893750190734863
1781033646656498000,20.654497802734376,-33.97500228881836,23.8125,-8.11875057220459
1781033646676312000,20.67431201171875,-33.22500228881836,22.51875114440918,-7.425000190734863
1781033646696073000,20.694072998046874,-31.031251907348633,23.943750381469727,-8.550000190734863
1781033646716077300,20.714077392578126,-32.212501525878906,23.850000381469727,-10.012500762939453
1781033646736211200,20.734211181640624,-34.44375228881836,23.587501525878906,-8.550000190734863
1781033646756398000,20.754398193359375,-35.10000228881836,24.093751907348633,-7.031250476837158
1781033646776630500,20.774630615234376,-36.63750076293945,23.418750762939453,-6.056250095367432
1781033646796634600,20.794634521484376,-36.86250305175781,24.468751907348633,-4.893750190734863
1781033646816631600,20.814631591796875,-34.81875228881836,23.8125,-5.606250286102295
1781033646836628000,20.8346279296875,-35.90625,23.118751525878906,-4.837500095367432
1781033646856632300,20.85463232421875,-36.58125305175781,22.51875114440918,-5.118750095367432
1781033646876629000,20.87462890625,-35.212501525878906,21.46875,-6.281250476837158
1781033646896625700,20.894625732421876,-34.78125,22.837501525878906,-5.71875
1781033646916630000,20.914630126953124,-33.45000076293945,24.187501907348633,-5.362500190734863
1781033646936626700,20.934626708984375,-35.00625228881836,23.700000762939453,-4.575000286102295
1781033646956631000,20.954631103515624,-37.96875,23.55000114440918,-4.575000286102295
1781033646976635400,20.974635498046876,-35.53125,23.34375,-6.900000095367432
1781033646996632000,20.994632080078127,-36.67500305175781,23.53125,-7.293750286102295
1781033647016636200,21.01463623046875,-38.681251525878906,23.868751525878906,-5.362500190734863
1781033647036632600,21.034632568359374,-36.16875076293945,24.075000762939453,-4.743750095367432
1781033647056629200,21.054629150390625,-35.88750076293945,23.325000762939453,-4.40625
1781033647076633300,21.07463330078125,-36.58125305175781,22.931251525878906,-4.650000095367432
1781033647096630000,21.094630126953124,-36.618751525878906,23.475000381469727,-5.212500095367432
1781033647116626700,21.114626708984375,-35.47500228881836,22.650001525878906,-5.943750381469727
1781033647136631000,21.134631103515623,-37.98750305175781,21.65625,-6.862500190734863
1781033647156627500,21.15462744140625,-40.53750228881836,22.837501525878906,-6.918750286102295
1781033647176631800,21.1746318359375,-37.76250076293945,22.856250762939453,-6.112500190734863
1781033647196636200,21.19463623046875,-37.087501525878906,22.23750114440918,-6.600000381469727
1781033647216632800,21.2146328125,-39.58125305175781,22.087501525878906,-6.375000476837158
1781033647236637000,21.234636962890626,-41.400001525878906,21.731250762939453,-6.393750190734863
1781033647256633600,21.254633544921877,-38.70000076293945,21.375,-8.137500762939453
1781033647276630300,21.27463037109375,-37.837501525878906,21.881250381469727,-8.90625
1781033647296634600,21.294634521484376,-38.025001525878906,21.75,-8.100000381469727
1781033647316631300,21.31463134765625,-35.90625,20.25,-7.237500190734863
1781033647336628000,21.3346279296875,-37.087501525878906,20.568750381469727,-8.4375
1781033647356632300,21.35463232421875,-38.025001525878906,20.943750381469727,-8.8125
1781033647376629000,21.37462890625,-39.150001525878906,21.825000762939453,-7.443750381469727
1781033647396633300,21.39463330078125,-39.150001525878906,21.825000762939453,-7.237500190734863
1781033647416637400,21.414637451171874,-37.96875,21.075000762939453,-6.918750286102295
1781033647436641800,21.434641845703126,-38.681251525878906,20.212501525878906,-8.25
1781033647456615700,21.45461572265625,-40.48125076293945,18.431251525878906,-9.262500762939453
1781033647476475000,21.474474853515623,-42.03750228881836,19.162500381469727,-7.500000476837158
1781033647496274000,21.49427392578125,-41.32500076293945,20.043750762939453,-5.962500095367432
1781033647516034600,21.51403466796875,-40.21875,19.743751525878906,-7.050000190734863
1781033647536061700,21.534061767578127,-39.13125228881836,19.387500762939453,-9.168750762939453
1781033647556195800,21.55419580078125,-38.47500228881836,19.725000381469727,-9.768750190734863
1781033647576397800,21.574397705078123,-39.13125228881836,18.20625114440918,-9.731250762939453
1781033647596630300,21.59463037109375,-39.54375076293945,16.443750381469727,-10.331250190734863
1781033647616627000,21.614626953125,-39.150001525878906,17.92500114440918,-10.987500190734863
1781033647636631300,21.63463134765625,-39.39375305175781,18.712501525878906,-10.5
1781033647656627700,21.654627685546874,-39.20625305175781,18.84375,-11.53125
1781033647676632000,21.674632080078126,-39.01875305175781,19.78125,-11.831250190734863
1781033647696636400,21.694636474609375,-39.243751525878906,20.981250762939453,-11.287500381469727
1781033647716632800,21.7146328125,-38.625,22.6875,-11.325000762939453
1781033647736637200,21.73463720703125,-36.337501525878906,23.45625114440918,-10.83750057220459
1781033647756633900,21.7546337890625,-35.681251525878906,25.218751907348633,-10.237500190734863
1781033647776630500,21.774630615234376,-37.368751525878906,27.281251907348633,-11.25
1781033647796634600,21.794634521484376,-36.01875305175781,27.843751907348633,-11.40000057220459
1781033647816631300,21.81463134765625,-33.54375076293945,28.556251525878906,-11.568750381469727
1781033647836635600,21.8346357421875,-34.5,27.225000381469727,-14.193750381469727
1781033647856639700,21.8546396484375,-37.06875228881836,28.556251525878906,-14.86875057220459
1781033647876636400,21.874636474609375,-35.88750076293945,28.856250762939453,-13.162500381469727
1781033647896633000,21.894633056640625,-34.66875076293945,26.36250114440918,-13.050000190734863
1781033647916629800,21.914629638671876,-35.775001525878906,24.225000381469727,-13.46250057220459
1781033647936626700,21.934626708984375,-38.88750076293945,22.818750381469727,-12.356250762939453
1781033647956630800,21.954630859375,-39.11250305175781,24.881250381469727,-10.443750381469727
1781033647976635000,21.974634765625,-36.41250228881836,26.962501525878906,-10.03125
1781033647996631600,21.994631591796875,-35.71875,27.618751525878906,-8.925000190734863
1781033648016636000,22.014635986328123,-35.45625305175781,27.468751907348633,-8.325000762939453
1781033648036632300,22.03463232421875,-33.900001525878906,27.131250381469727,-10.050000190734863
1781033648056629000,22.05462890625,-32.34375,27.881250381469727,-10.18125057220459
1781033648076633300,22.07463330078125,-32.775001525878906,26.662500381469727,-10.950000762939453
1781033648096630000,22.094630126953124,-32.306251525878906,26.512500762939453,-10.537500381469727
1781033648116626700,22.114626708984375,-33.16875076293945,27.037500381469727,-8.40000057220459
1781033648136631000,22.134631103515623,-34.3125,25.443750381469727,-9.600000381469727
1781033648156627700,22.154627685546874,-32.73750305175781,25.125001907348633,-10.893750190734863
1781033648176631800,22.1746318359375,-30.712501525878906,28.106250762939453,-9.131250381469727
1781033648196636200,22.19463623046875,-28.743751525878906,31.762500762939453,-8.96250057220459
1781033648216632800,22.2146328125,-29.006250381469727,30.262500762939453,-11.006250381469727
1781033648236637200,22.23463720703125,-31.481250762939453,26.868751525878906,-13.218750953674316
1781033648256633900,22.2546337890625,-31.05000114440918,24.58125114440918,-15.768750190734863
1781033648276622600,22.27462255859375,-32.66250228881836,22.14375114440918,-17.887500762939453
1781033648296497400,22.294497314453125,-35.79375076293945,20.475000381469727,-17.625
1781033648316304000,22.314303955078124,-34.89375305175781,19.80000114440918,-18.95625114440918
1781033648336064800,22.334064697265624,-33.58125305175781,18.637500762939453,-21.375
1781033648356114700,22.35411474609375,-32.13750076293945,16.743751525878906,-20.981250762939453
1781033648376241200,22.3742412109375,-31.443750381469727,17.15625,-20.306251525878906
1781033648396427800,22.394427734375,-29.45625114440918,17.83125114440918,-21.30000114440918
1781033648416668000,22.41466796875,-28.61250114440918,19.087501525878906,-22.42500114440918
1781033648436626400,22.43462646484375,-28.181251525878906,19.80000114440918,-22.96875
1781033648456630800,22.454630859375,-28.631250381469727,18.01875114440918,-24
1781033648476635000,22.474634765625,-28.14375114440918,17.043750762939453,-23.887500762939453
1781033648496631800,22.4946318359375,-26.343751907348633,18.1875,-23.793750762939453
1781033648516636200,22.51463623046875,-26.231250762939453,20.568750381469727,-25.406251907348633
1781033648536632600,22.534632568359374,-26.531251907348633,22.068750381469727,-25.856250762939453
1781033648556629200,22.554629150390625,-26.100000381469727,23.64375114440918,-25.481250762939453
1781033648576633600,22.574633544921873,-24.750001907348633,22.59375,-26.45625114440918
1781033648596630000,22.594630126953124,-24.918750762939453,20.45625114440918,-26.681251525878906
1781033648616626700,22.614626708984375,-24.937501907348633,21.01875114440918,-27.037500381469727
1781033648636631000,22.634631103515623,-24.056251525878906,22.181251525878906,-26.700000762939453
1781033648656627500,22.65462744140625,-25.856250762939453,21,-27.431251525878906
1781033648676631800,22.6746318359375,-27.468751907348633,20.793750762939453,-27.86250114440918
1781033648696636200,22.69463623046875,-25.443750381469727,22.125,-27.525001525878906
1781033648716632800,22.7146328125,-25.61250114440918,20.212501525878906,-27.731250762939453
1781033648736637200,22.73463720703125,-24.225000381469727,19.03125,-27.67500114440918
1781033648756633900,22.7546337890625,-23.137500762939453,20.73750114440918,-27.918750762939453
1781033648776630500,22.774630615234376,-24.281251907348633,23.231250762939453,-25.556251525878906
1781033648796634600,22.794634521484376,-22.931251525878906,24.58125114440918,-25.200000762939453
1781033648816631300,22.81463134765625,-23.71875,24.787500381469727,-27.67500114440918
1781033648836635600,22.8346357421875,-25.443750381469727,24.168750762939453,-26.062501907348633
1781033648856640000,22.854639892578124,-24.431251525878906,22.762500762939453,-23.92500114440918
1781033648876636700,22.87463671875,-23.775001525878906,23.943750381469727,-23.400001525878906
1781033648896633300,22.89463330078125,-24.48750114440918,25.725000381469727,-22.78125
1781033648916630000,22.914630126953124,-23.34375,26.118751525878906,-22.537500381469727
1781033648936626400,22.93462646484375,-24.243751525878906,25.931251525878906,-22.350000381469727
1781033648956630800,22.954630859375,-26.475000381469727,25.462501525878906,-21.337501525878906
1781033648976635100,22.97463525390625,-27.187501907348633,26.662500381469727,-20.981250762939453
1781033648996639200,22.99463916015625,-28.556251525878906,27.48750114440918,-20.25
1781033649016643600,23.0146435546875,-27.375001907348633,26.118751525878906,-20.418750762939453
1781033649036640300,23.03464013671875,-26.400001525878906,24.412500381469727,-19.98750114440918
1781033649056636700,23.05463671875,-27.750001907348633,26.325000762939453,-17.681251525878906
1781033649076633600,23.074633544921873,-26.400001525878906,26.45625114440918,-18.30000114440918
1781033649096630300,23.09463037109375,-26.137500762939453,24.881250381469727,-18.693750381469727
1781033649116512300,23.11451220703125,-28.125001907348633,25.668750762939453,-16.087501525878906
1781033649136334000,23.134333984375,-27.150001525878906,24.993751525878906,-14.718750953674316
1781033649156095000,23.154094970703124,-27.168750762939453,24.937501907348633,-15.33750057220459
1781033649176099300,23.174099365234376,-26.981250762939453,26.493751525878906,-14.96250057220459
1781033649196218000,23.194218017578127,-28.106250762939453,26.343751907348633,-14.77500057220459
1781033649216397000,23.21439697265625,-31.743751525878906,26.250001907348633,-14.11875057220459
1781033649236637200,23.23463720703125,-31.23750114440918,25.912500381469727,-13.331250190734863
1781033649256633900,23.2546337890625,-30.131250381469727,26.812501907348633,-13.856250762939453
1781033649276630500,23.274630615234376,-28.743751525878906,28.275001525878906,-11.850000381469727
1781033649296634600,23.294634521484376,-28.912500381469727,27.806251525878906,-10.425000190734863
1781033649316631300,23.31463134765625,-28.256250381469727,28.181251525878906,-10.612500190734863
1781033649336628000,23.3346279296875,-27.975000381469727,26.437501907348633,-10.59375
1781033649356632300,23.35463232421875,-29.325000762939453,25.481250762939453,-10.893750190734863
1781033649376629000,23.37462890625,-29.325000762939453,27.693750381469727,-9.393750190734863
1781033649396625700,23.394625732421876,-30.20625114440918,26.775001525878906,-8.86875057220459
1781033649416629800,23.414629638671876,-29.718751907348633,25.200000762939453,-9.46875
1781033649436634000,23.434634033203125,-29.531251907348633,25.950000762939453,-9.581250190734863
1781033649456638500,23.454638427734373,-31.575000762939453,26.418750762939453,-8.90625
1781033649476642800,23.474642822265626,-30.168750762939453,26.887500762939453,-7.406250476837158
1781033649496639500,23.494639404296876,-28.556251525878906,27.075000762939453,-7.181250095367432
1781033649516636000,23.514635986328123,-30.11250114440918,25.762500762939453,-6.900000095367432
1781033649536632600,23.534632568359374,-30.30000114440918,24.86250114440918,-6.150000095367432
1781033649556629200,23.554629150390625,-32.306251525878906,25.406251907348633,-4.200000286102295
1781033649576633600,23.574633544921873,-34.3125,24.11250114440918,-4.125
1781033649596630000,23.594630126953124,-33.41250228881836,22.443750381469727,-5.568750381469727
1781033649616626700,23.614626708984375,-32.025001525878906,23.90625,-3.750000238418579
1781033649636631000,23.634631103515623,-34.10625076293945,26.306251525878906,-2.8500001430511475
1781033649656627500,23.65462744140625,-33.9375,26.775001525878906,-4.256250381469727
1781033649676632000,23.674632080078126,-32.0625,26.887500762939453,-2.3812501430511475
1781033649696636200,23.69463623046875,-32.45625305175781,27.431251525878906,-0.24375000596046448
1781033649716632800,23.7146328125,-32.88750076293945,26.475000381469727,-0.13125000894069672
1781033649736637200,23.73463720703125,-33.056251525878906,24.525001525878906,-0.5437500476837158
1781033649756633600,23.754633544921877,-34.70625305175781,25.068750381469727,-1.3125
1781033649776630300,23.77463037109375,-36.78750228881836,25.068750381469727,-1.912500023841858
1781033649796634400,23.79463427734375,-36.30000305175781,24.075000762939453,-2.231250047683716
1781033649816631000,23.814631103515627,-37.181251525878906,22.950000762939453,-1.9312500953674316
1781033649836635400,23.834635498046875,-36.243751525878906,22.350000381469727,-2.0062501430511475
1781033649856639700,23.8546396484375,-33.31875228881836,22.650001525878906,-2.8312501907348633
1781033649876636400,23.874636474609375,-36.01875305175781,21.9375,-2.4750001430511475
1781033649896640500,23.894640625,-37.59375,21.618751525878906,-1.8750001192092896
1781033649916637400,23.914637451171874,-37.16250228881836,21.337501525878906,-2.9437501430511475
1781033649936550100,23.934550048828125,-37.20000076293945,22.275001525878906,-3.262500047683716
1781033649956410000,23.95441015625,-38.118751525878906,23.306251525878906,-2.512500047683716
1781033649976170500,23.97417041015625,-37.368751525878906,21.618751525878906,-1.8750001192092896
1781033649996174600,23.994174560546874,-37.837501525878906,20.775001525878906,-3
1781033650016263000,24.014262939453126,-38.775001525878906,21.150001525878906,-3.375000238418579
1781033650036403700,24.03440380859375,-36.91875076293945,20.55000114440918,-3.2437500953674316
1781033650056636700,24.05463671875,-40.61250305175781,20.71875,-4.237500190734863
1781033650076633300,24.07463330078125,-41.51250076293945,20.943750381469727,-3.7687501907348633
1781033650096630000,24.094630126953124,-40.35000228881836,21.412500381469727,-2.4937500953674316
1781033650116626700,24.114626708984375,-39.65625,22.012500762939453,-2.0062501430511475
1781033650136630800,24.134630859375,-39,20.943750381469727,-3.3937501907348633
1781033650156627500,24.15462744140625,-38.775001525878906,19.5,-4.78125
1781033650176631800,24.1746318359375,-38.26875305175781,18.58125114440918,-4.275000095367432
1781033650196636200,24.19463623046875,-39.82500076293945,18.67500114440918,-3.2062501907348633
1781033650216632800,24.2146328125,-38.70000076293945,18.881250381469727,-2.7750000953674316
1781033650236637000,24.234636962890626,-40.35000228881836,19.950000762939453,-4.106250286102295
1781033650256633900,24.2546337890625,-40.38750076293945,20.287500381469727,-4.893750190734863
1781033650276630500,24.274630615234376,-38.10000228881836,19.6875,-4.78125
1781033650296634600,24.294634521484376,-39.88125228881836,19.78125,-3.918750047683716
1781033650316631300,24.31463134765625,-40.06875228881836,20.306251525878906,-1.9875000715255737
1781033650336628000,24.3346279296875,-37.80000305175781,19.818750381469727,-2.887500047683716
1781033650356632300,24.35463232421875,-39.01875305175781,18.450000762939453,-6.150000095367432
1781033650376628700,24.374628662109377,-40.38750076293945,17.4375,-7.087500095367432
1781033650396625400,24.39462548828125,-38.08125305175781,16.668750762939453,-6.768750190734863
1781033650416629800,24.414629638671876,-38.8125,16.556251525878906,-8.4375
1781033650436626400,24.43462646484375,-40.63125228881836,18.225000381469727,-6.993750095367432
1781033650456630800,24.454630859375,-38.32500076293945,19.05000114440918,-5.681250095367432
1781033650476635000,24.474634765625,-37.42500305175781,17.8125,-6.862500190734863
1781033650496631800,24.4946318359375,-39.69375228881836,17.868751525878906,-6.412500381469727
1781033650516636000,24.514635986328123,-38.400001525878906,18.48750114440918,-8.231250762939453
1781033650536632600,24.534632568359374,-38.681251525878906,19.181251525878906,-9.412500381469727
1781033650556629200,24.554629150390625,-41.17500305175781,18.84375,-9.206250190734863
1781033650576633300,24.57463330078125,-41.64375305175781,19.23750114440918,-9.168750762939453
1781033650596630000,24.594630126953124,-40.72500228881836,19.42500114440918,-9.15000057220459
1781033650616626700,24.614626708984375,-37.72500228881836,16.818750381469727,-9.881250381469727
1781033650636631000,24.634631103515623,-37.931251525878906,16.668750762939453,-9.487500190734863
1781033650656627500,24.65462744140625,-40.72500228881836,18,-10.143750190734863
1781033650676631800,24.6746318359375,-42.63750076293945,19.481250762939453,-11.21250057220459
1781033650696636200,24.69463623046875,-42.375,19.14375114440918,-10.631250381469727
1781033650716632800,24.7146328125,-40.51875305175781,19.387500762939453,-9.581250190734863
1781033650736583700,24.734583740234374,-38.493751525878906,21.918750762939453,-8.475000381469727
1781033650756450600,24.754450439453127,-37.21875,25.162500381469727,-8.568750381469727
1781033650776219100,24.77421923828125,-35.55000305175781,29.08125114440918,-10.03125
1781033650796238600,24.794238525390625,-34.6875,30.375001907348633,-10.518750190734863
1781033650816288800,24.814288818359376,-35.118751525878906,29.850000381469727,-9.9375
1781033650836415000,24.8344150390625,-35.28750228881836,27.95625114440918,-9.52500057220459
1781033650856647400,24.8546474609375,-36.09375,25.312501907348633,-8.981250762939453
1781033650876629000,24.87462890625,-37.63125228881836,23.45625114440918,-8.53125
1781033650896633000,24.894633056640625,-38.08125305175781,22.856250762939453,-8.8125
1781033650916637400,24.914637451171874,-37.48125076293945,24.67500114440918,-10.068750381469727
1781033650936634000,24.934634033203125,-38.26875305175781,26.73750114440918,-11.081250190734863
1781033650956638500,24.954638427734373,-37.556251525878906,27.806251525878906,-9.318750381469727
1781033650976635100,24.97463525390625,-34.53750228881836,27.056251525878906,-8.381250381469727
1781033650996631600,24.994631591796875,-33.41250228881836,26.381250381469727,-9.71250057220459
1781033651016636000,25.014635986328123,-33.35625076293945,25.912500381469727,-8.30625057220459
1781033651036632600,25.034632568359374,-32.60625076293945,25.031251907348633,-6.956250190734863
1781033651056629200,25.054629150390625,-33.03750228881836,24.67500114440918,-6.787500381469727
1781033651076633600,25.074633544921873,-34.44375228881836,25.631250381469727,-6.881250381469727
1781033651096630300,25.09463037109375,-33.806251525878906,25.51875114440918,-8.34375
1781033651116627000,25.114626953125,-32.493751525878906,25.181251525878906,-10.27500057220459
1781033651136631000,25.134631103515623,-32.60625076293945,26.756250381469727,-12.393750190734863
1781033651156627700,25.154627685546874,-32.38125228881836,27.562501907348633,-11.887500762939453
1781033651176631800,25.1746318359375,-32.306251525878906,26.306251525878906,-10.575000762939453
1781033651196636000,25.194635986328127,-31.406251907348633,24.637500762939453,-12.412500381469727
1781033651216632600,25.214632568359374,-31.668750762939453,22.912500381469727,-14.887500762939453
1781033651236637000,25.234636962890626,-33.9375,19.087501525878906,-18
1781033651256633600,25.254633544921877,-35.0625,17.118751525878906,-18.825000762939453
1781033651276630300,25.27463037109375,-34.59375,16.912500381469727,-18.86250114440918
1781033651296634600,25.294634521484376,-34.35000228881836,15.918750762939453,-19.181251525878906
1781033651316631300,25.31463134765625,-34.59375,16.912500381469727,-18.86250114440918
1781033651336628000,25.3346279296875,-35.04375076293945,17.55000114440918,-18.150001525878906
1781033651356632000,25.354632080078126,-33.45000076293945,16.275001525878906,-19.556251525878906
1781033651376628700,25.374628662109377,-29.343751907348633,14.58750057220459,-21.037500381469727
1781033651396633000,25.394633056640625,-29.587501525878906,14.156250953674316,-21.693750381469727
1781033651416637400,25.414637451171874,-31.668750762939453,13.537500381469727,-22.78125
1781033651436634000,25.434634033203125,-31.218751907348633,14.081250190734863,-22.931251525878906
1781033651456638200,25.45463818359375,-31.725000381469727,14.625000953674316,-23.512500762939453
1781033651476635000,25.474634765625,-32.83125305175781,14.268750190734863,-23.325000762939453
1781033651496631600,25.494631591796875,-32.83125305175781,14.100000381469727,-23.137500762939453
1781033651516635600,25.5146357421875,-30.843751907348633,15.131250381469727,-24.506250381469727
1781033651536579000,25.5345791015625,-29.568750381469727,16.931251525878906,-25.762500762939453
1781033651556446000,25.554446044921875,-28.275001525878906,18.168750762939453,-27.11250114440918
1781033651576214500,25.574214599609373,-28.51875114440918,17.756250381469727,-27.562501907348633
1781033651595982800,25.59398291015625,-30.562501907348633,16.162500381469727,-28.762500762939453
1781033651616033000,25.614032958984374,-28.481250762939453,14.568750381469727,-29.156251907348633
1781033651636167000,25.6341669921875,-27.881250381469727,12.018750190734863,-27.150001525878906
1781033651656399400,25.6543994140625,-29.45625114440918,12.093750953674316,-26.287500381469727
1781033651676631800,25.6746318359375,-27.918750762939453,14.606250762939453,-25.818750381469727
1781033651696636200,25.69463623046875,-27.712501525878906,15.787500381469727,-25.500001907348633
1781033651716632800,25.7146328125,-29.100000381469727,16.162500381469727,-25.856250762939453
1781033651736637200,25.73463720703125,-27.825000762939453,18.375,-26.868751525878906
1781033651756633900,25.7546337890625,-27.618751525878906,19.14375114440918,-26.793750762939453
1781033651776630300,25.77463037109375,-28.012500762939453,19.668750762939453,-24.86250114440918
1781033651796634600,25.794634521484376,-30.975000381469727,21.5625,-23.17500114440918
1781033651816631000,25.814631103515627,-28.218751907348633,20.775001525878906,-22.875
1781033651836627700,25.834627685546874,-25.200000762939453,20.625,-21.65625
1781033651856632000,25.854632080078126,-27.281251907348633,21.412500381469727,-21.76875114440918
1781033651876628700,25.874628662109377,-26.793750762939453,20.0625,-21.918750762939453
1781033651896625400,25.89462548828125,-27.20625114440918,18.525001525878906,-21.86250114440918
1781033651916629800,25.914629638671876,-29.212501525878906,18.262500762939453,-20.418750762939453
1781033651936626400,25.93462646484375,-31.05000114440918,20.118751525878906,-19.162500381469727
1781033651956630500,25.954630615234375,-31.556251525878906,22.443750381469727,-18.900001525878906
1781033651976635000,25.974634765625,-31.781251907348633,22.23750114440918,-19.125
1781033651996631600,25.994631591796875,-31.087501525878906,22.462501525878906,-18.693750381469727
1781033652016635600,26.0146357421875,-30.150001525878906,23.118751525878906,-17.17500114440918
1781033652036632600,26.034632568359374,-31.068750381469727,23.943750381469727,-16.668750762939453
1781033652056629200,26.054629150390625,-29.250001907348633,25.931251525878906,-15.412500381469727
1781033652076633600,26.074633544921873,-28.593751907348633,27.48750114440918,-15.05625057220459
1781033652096630000,26.094630126953124,-31.031251907348633,25.068750381469727,-14.250000953674316
1781033652116626700,26.114626708984375,-29.981250762939453,22.89375114440918,-12.206250190734863
1781033652136631000,26.134631103515623,-31.200000762939453,24.187501907348633,-13.312500953674316
1781033652156627700,26.154627685546874,-31.912500381469727,23.681251525878906,-15.018750190734863
1781033652176631800,26.1746318359375,-31.387500762939453,23.006250381469727,-13.631250381469727
1781033652196636200,26.19463623046875,-34.837501525878906,24.01875114440918,-13.500000953674316
1781033652216632800,26.2146328125,-35.08125305175781,25.443750381469727,-12.506250381469727
1781033652236637000,26.234636962890626,-31.181251525878906,24.412500381469727,-12.656250953674316
1781033652256633600,26.254633544921877,-29.325000762939453,23.193750381469727,-13.218750953674316
1781033652276630300,26.27463037109375,-30.468751907348633,24.056251525878906,-12.281250953674316
1781033652296634600,26.294634521484376,-31.368751525878906,24.48750114440918,-11.606250762939453
1781033652316638700,26.314638671875,-31.368751525878906,24.48750114440918,-11.606250762939453
1781033652336612600,26.334612548828126,-31.368751525878906,24.48750114440918,-11.606250762939453
1781033652356479500,26.3544794921875,-31.368751525878906,24.48750114440918,-11.606250762939453
1781033652376278500,26.374278564453125,-31.70625114440918,23.34375,-9.018750190734863
1781033652396039200,26.3940390625,-31.275001525878906,24.318750381469727,-8.71875
1781033652416066300,26.41406640625,-32.15625,25.443750381469727,-6.506250381469727
1781033652436200400,26.434200439453125,-31.200000762939453,23.25,-7.575000286102295
1781033652456402400,26.45440234375,-30.48750114440918,22.5,-7.050000190734863
1781033652476635000,26.474634765625,-29.850000381469727,24.20625114440918,-7.275000095367432
1781033652496631600,26.494631591796875,-31.23750114440918,23.193750381469727,-8.418750762939453
1781033652516636000,26.514635986328123,-32.10000228881836,22.481250762939453,-7.650000095367432
1781033652536632300,26.53463232421875,-32.10000228881836,23.512500762939453,-6.506250381469727
1781033652556629000,26.55462890625,-31.181251525878906,23.493751525878906,-6.712500095367432
1781033652576633300,26.57463330078125,-32.15625,24.20625114440918,-7.668750286102295
1781033652596630000,26.594630126953124,-35.10000228881836,24.093751907348633,-7.031250476837158
1781033652616626700,26.614626708984375,-34.81875228881836,23.17500114440918,-6.506250381469727
1781033652636630800,26.634630859375,-33.45000076293945,21.9375,-7.293750286102295
1781033652656627500,26.65462744140625,-32.75625228881836,21.731250762939453,-7.518750190734863
1781033652676631800,26.6746318359375,-34.837501525878906,22.931251525878906,-7.368750095367432
1781033652696636200,26.69463623046875,-34.63125228881836,23.662500381469727,-7.500000476837158
1781033652716632600,26.714632568359374,-34.181251525878906,23.475000381469727,-7.518750190734863
1781033652736637000,26.734636962890626,-34.650001525878906,24.037500381469727,-7.668750286102295
1781033652756633600,26.754633544921877,-34.20000076293945,24.67500114440918,-6.975000381469727
1781033652776630300,26.77463037109375,-35.28750228881836,24.168750762939453,-5.981250286102295
