time,seconds_elapsed,z,y,x
1781033626455185200,0.45318505859375,7.410000324249268,2.9170501232147217,-1.6690500974655151
1781033626464943900,0.46294384765625,7.357950210571289,2.91195011138916,-1.702950119972229
1781033626484455400,0.482455322265625,7.360050201416016,2.8810501098632812,-1.714050054550171
1781033626503962600,0.501962646484375,7.449000358581543,2.8219501972198486,-1.696950078010559
1781033626523476000,0.52147607421875,7.942950248718262,2.6740500926971436,-1.7340000867843628
1781033626542992400,0.540992431640625,9.54900074005127,2.302950143814087,-1.7260501384735107
1781033626562507300,0.56050732421875,9.9660005569458,1.8030000925064087,-1.6470000743865967
1781033626582017500,0.580017578125,10.543050765991211,1.3270500898361206,-1.6000500917434692
1781033626601529900,0.59952978515625,10.82295036315918,1.0669500827789307,-1.527000069618225
1781033626621043000,0.61904296875,10.825950622558594,1.1350500583648682,-1.5430500507354736
1781033626640553200,0.63855322265625,10.309050559997559,1.3120501041412354,-1.5919500589370728
1781033626660065000,0.65806494140625,9.748950004577637,1.429050087928772,-1.5019500255584717
1781033626679575800,0.677575927734375,9.427950859069824,1.3320000171661377,-1.437000036239624
1781033626699089200,0.697089111328125,9.36405086517334,1.1020500659942627,-1.3369500637054443
1781033626718601500,0.7166015625,9.54900074005127,0.8959500193595886,-1.1869500875473022
1781033626738108000,0.73610791015625,9.442049980163574,0.7990500330924988,-1.075950026512146
1781033626757614300,0.7556142578125,9.298050880432129,0.9640500545501709,-1.0320000648498535
1781033626777125000,0.775125,9.19005012512207,1.27305006980896,-1.0969500541687012
1781033626796639500,0.794639404296875,9.220050811767578,1.5630000829696655,-1.152000069618225
1781033626816151800,0.81415185546875,9.22095012664795,1.746000051498413,-1.1820000410079956
1781033626835664400,0.833664306640625,9.111000061035156,1.7670000791549683,-1.1010000705718994
1781033626855176200,0.85317626953125,9.046050071716309,1.6609500646591187,-1.0049999952316284
1781033626874691000,0.872691162109375,9.172050476074219,1.6699501276016235,-1.1389501094818115
1781033626894201900,0.892201904296875,9.301050186157227,1.7790000438690186,-1.3780500888824463
1781033626913710600,0.911710693359375,9.190950393676758,2.0380501747131348,-1.6009501218795776
1781033626933223700,0.9312236328125,8.6850004196167,2.401050090789795,-1.8469500541687012
1781033626952734000,0.95073388671875,7.099050521850586,2.505000114440918,-1.9530000686645508
1781033626972245000,0.970244873046875,7.030950546264648,2.4000000953674316,-2.038950204849243
1781033626991755800,0.989755859375,7.390050411224365,1.9900500774383545,-2.115000009536743
1781033627011264500,1.009264404296875,9.097050666809082,0.2760000228881836,-2.149049997329712
1781033627030773000,1.02877294921875,10.800000190734863,-0.037950001657009125,-2.206050157546997
1781033627050281500,1.048281494140625,11.020950317382812,-0.36705002188682556,-2.233950138092041
1781033627069789400,1.06778955078125,11.218050956726074,-0.41805002093315125,-2.227950096130371
1781033627089298400,1.08729833984375,11.247000694274902,-0.1680000126361847,-2.212050199508667
1781033627108806000,1.106805908203125,10.849950790405273,1.4440500736236572,-2.247000217437744
1781033627128314400,1.126314453125,9.247050285339355,1.6960500478744507,-2.3050501346588135
1781033627147825700,1.14582568359375,7.258050441741943,2.0490000247955322,-2.439000129699707
1781033627167340300,1.16534033203125,6.916050434112549,2.3710501194000244,-2.593050241470337
1781033627186857700,1.184857666015625,6.682950496673584,2.5950000286102295,-2.7679500579833984
1781033627206375200,1.204375244140625,6.783000469207764,2.622000217437744,-2.955000162124634
1781033627225889300,1.22388916015625,7.119000434875488,2.419950008392334,-3.177000045776367
1781033627245399000,1.24339892578125,7.443000316619873,2.0149500370025635,-3.309000253677368
1781033627264909600,1.26290966796875,7.789050579071045,1.5310500860214233,-3.312000274658203
1781033627284419300,1.28241943359375,8.254950523376465,0.9949500560760498,-3.1650002002716064
1781033627303928300,1.30192822265625,9.763050079345703,0.492000013589859,-2.7430500984191895
1781033627323438000,1.32143798828125,11.527950286865234,0.09195000678300858,-2.1949501037597656
1781033627342948400,1.3409482421875,11.623050689697266,-0.21000000834465027,-1.6560001373291016
1781033627362460400,1.36046044921875,11.482950210571289,-0.21495001018047333,-1.3960500955581665
1781033627381970700,1.379970703125,9.727950096130371,-0.08700000494718552,-1.380000114440918
1781033627401481500,1.3994814453125,8.005949974060059,0.0799500048160553,-1.5570000410079956
1781033627420994800,1.418994873046875,7.8600006103515625,0.2370000183582306,-1.807050108909607
1781033627440509000,1.438509033203125,7.735050201416016,0.2740500271320343,-1.8480000495910645
1781033627460025000,1.458025146484375,7.743000507354736,0.3850500285625458,-1.8090001344680786
1781033627479535600,1.47753564453125,7.852050304412842,0.6810000538825989,-1.821000099182129
1781033627499043600,1.497043701171875,7.8760504722595215,1.0980000495910645,-1.9780501127243042
1781033627518553600,1.5165537109375,8.032050132751465,1.453950047492981,-2.308950185775757
1781033627538067200,1.536067138671875,9.556950569152832,1.588050127029419,-2.728950023651123
1781033627557582000,1.55558203125,11.163000106811523,1.5139501094818115,-3.072000026702881
1781033627577093000,1.575093017578125,11.67300033569336,1.2829500436782837,-3.2820000648498535
1781033627596609300,1.594609375,13.129050254821777,0.9540000557899475,-3.504000186920166
1781033627616127200,1.614127197265625,13.179000854492188,0.49695003032684326,-3.6949501037597656
1781033627635643100,1.63364306640625,12.825000762939453,-1.294950008392334,-3.655050277709961
1781033627655155000,1.653155029296875,11.257050514221191,-1.5430500507354736,-3.466050148010254
1781033627674664700,1.672664794921875,9.675000190734863,-1.8360000848770142,-3.2569501399993896
1781033627694176800,1.6921767578125,7.756950378417969,-1.8960001468658447,-3.0349502563476562
1781033627713692400,1.7116923828125,7.555950164794922,-1.7010000944137573,-2.955000162124634
1781033627733209300,1.731209228515625,7.285050392150879,-1.3210500478744507,-2.950050115585327
1781033627752727600,1.7507275390625,6.979950428009033,-0.8050500154495239,-2.8380000591278076
1781033627772245200,1.770245361328125,6.862950325012207,-0.3160500228404999,-2.7139501571655273
1781033627791765800,1.789765869140625,6.94005012512207,0.040950000286102295,-2.662950038909912
1781033627811285500,1.809285400390625,7.024050235748291,0.2959500253200531,-2.725050210952759
1781033627830803000,1.828802978515625,8.617950439453125,0.42795002460479736,-2.848050117492676
1781033627850323200,1.8483232421875,8.613000869750977,0.3940500319004059,-2.992950201034546
1781033627869845000,1.867844970703125,8.57295036315918,0.3430500030517578,-3.0709500312805176
1781033627889366300,1.8873662109375,8.698050498962402,0.2779500186443329,-3.0289502143859863
1781033627908885000,1.906885009765625,8.353050231933594,0.16200000047683716,-3.106950044631958
1781033627928402700,1.926402587890625,7.966050148010254,0.14400000870227814,-3.106950044631958
1781033627947922000,1.945921875,7.603950500488281,0.1660500019788742,-2.8090500831604004
1781033627967445000,1.965445068359375,7.365000247955322,0.19995000958442688,-2.3269500732421875
1781033627986961700,1.984961669921875,7.471950531005859,0.23400001227855682,-1.8060001134872437
1781033628006474000,2.004473876953125,7.82295036315918,0.19905000925064087,-1.7479500770568848
1781033628025992000,2.023991943359375,8.410050392150879,0.14595000445842743,-2.2129499912261963
1781033628045508600,2.043508544921875,9.96405029296875,0.027000000700354576,-3.664950132369995
1781033628065023200,2.063023193359375,10.519050598144531,-0.06105000153183937,-3.6940500736236572
1781033628084542700,2.082542724609375,11.07300090789795,-0.07500000298023224,-3.4170000553131104
1781033628104065000,2.10206494140625,11.239950180053711,-0.05205000191926956,-2.9659502506256104
1781033628123583700,2.121583740234375,10.854000091552734,0.08505000174045563,-2.3970000743865967
1781033628143100400,2.141100341796875,8.962950706481934,0.16905000805854797,-1.8889501094818115
1781033628162619000,2.160618896484375,8.455050468444824,0.10200000554323196,-1.4080500602722168
1781033628182139600,2.1801396484375,8.200050354003906,0.06795000284910202,-1.0230000019073486
1781033628201659400,2.199659423828125,8.33595085144043,0.04305000230669975,-0.7020000219345093
1781033628221174000,2.219174072265625,8.701950073242188,0.015000000596046448,-0.2770500183105469
1781033628240685600,2.238685546875,9.019950866699219,0.07200000435113907,-0.0070500001311302185
1781033628260199200,2.25819921875,9.340950012207031,0.1680000126361847,0.043950002640485764
1781033628279717400,2.27771728515625,9.690000534057617,0.2989500164985657,0.024000000208616257
1781033628299235300,2.2972353515625,11.392951011657715,0.5209500193595886,-0.1380000114440918
1781033628318752500,2.31675244140625,11.721000671386719,0.8119500279426575,-0.208950012922287
1781033628338269200,2.336269287109375,11.904000282287598,1.0980000495910645,-0.036000002175569534
1781033628357783300,2.355783203125,11.785950660705566,1.2790501117706299,0.26295000314712524
1781033628377296400,2.37529638671875,11.329950332641602,1.2690000534057617,0.6760500073432922
1781033628396814000,2.39481396484375,10.774950981140137,1.0290000438690186,1.0939500331878662
1781033628416332800,2.414332763671875,10.425000190734863,0.6390000581741333,1.503000020980835
1781033628435852500,2.4338525390625,10.2610502243042,0.3379500210285187,1.8510000705718994
1781033628455376100,2.453376220703125,10.177050590515137,0.21705001592636108,2.184000015258789
1781033628474901000,2.47290087890625,9.991950035095215,0.07500000298023224,2.6890501976013184
1781033628494420700,2.492420654296875,9.723000526428223,-0.040950000286102295,3.214050054550171
1781033628513936400,2.511936279296875,9.421050071716309,0.10305000841617584,3.5680501461029053
1781033628533447700,2.53144775390625,9.121950149536133,0.5920500159263611,3.7200002670288086
1781033628552961500,2.55096142578125,8.745000839233398,2.083050012588501,3.7510502338409424
1781033628572480300,2.570480224609375,8.203949928283691,2.2039501667022705,3.8490002155303955
1781033628591998700,2.589998779296875,7.6210503578186035,1.9069501161575317,4.219050407409668
1781033628611517700,2.609517578125,7.1670002937316895,0.23595000803470612,4.771050453186035
1781033628631034600,2.62903466796875,6.930000305175781,0.010050000622868538,6.5400004386901855
1781033628650551300,2.64855126953125,6.954000473022461,-0.3469500243663788,7.002000331878662
1781033628670066000,2.66806591796875,8.964000701904297,-0.4420500099658966,8.46405029296875
1781033628689576400,2.687576416015625,10.570050239562988,-0.09300000220537186,8.449049949645996
1781033628709086500,2.70708642578125,10.629000663757324,1.807050108909607,7.932000160217285
1781033628728599000,2.72659912109375,9.094050407409668,2.0899500846862793,6.084000110626221
1781033628748115500,2.746115478515625,6.241950511932373,2.1780002117156982,5.502000331878662
1781033628767635000,2.765635009765625,4.3090500831604,1.8030000925064087,4.975050449371338
1781033628787151600,2.785151611328125,4.441050052642822,1.1560500860214233,4.674000263214111
1781033628806668500,2.80466845703125,6.721950531005859,0.6030000448226929,4.35105037689209
1781033628826188300,2.824188232421875,8.518950462341309,0.13305000960826874,3.9210002422332764
1781033628845709300,2.843709228515625,8.896950721740723,-0.3550500273704529,3.5779502391815186
1781033628865227800,2.863227783203125,9.285000801086426,-0.7609500288963318,3.3630001544952393
1781033628884740000,2.882739990234375,9.567000389099121,-1.055999994277954,3.1999502182006836
1781033628904257000,2.902257080078125,9.66195011138916,-1.1749500036239624,3.069000244140625
1781033628923773400,2.9217734375,9.496950149536133,-1.224000096321106,2.959050178527832
1781033628943285800,2.94128564453125,9.259950637817383,-1.3339500427246094,2.9800500869750977
1781033628962798800,2.960798828125,9.115050315856934,-1.3489500284194946,2.9670002460479736
1781033628982310100,2.98031005859375,9.103050231933594,-1.1820000410079956,2.8150501251220703
1781033629001822000,2.999822021484375,9.115950584411621,-0.9580500721931458,2.599950075149536
1781033629021334500,3.01933447265625,9.007950782775879,-0.9430500268936157,2.4190502166748047
1781033629040844300,3.03884423828125,8.905050277709961,-1.2250500917434692,2.449050188064575
1781033629060360400,3.0583603515625,8.962950706481934,-1.453950047492981,2.49495005607605
1781033629079882800,3.0778828125,9.315000534057617,-1.281000018119812,2.319000005722046
1781033629099401500,3.0974013671875,9.772050857543945,-0.775950014591217,1.9200000762939453
1781033629118918000,3.11691796875,9.928950309753418,-0.3679500222206116,1.593000054359436
1781033629138436000,3.13643603515625,9.735000610351562,-0.25005000829696655,1.4989501237869263
1781033629157953800,3.155953857421875,9.27405071258545,-0.2989500164985657,1.5259500741958618
1781033629177467600,3.175467529296875,8.839950561523438,-0.25995001196861267,1.519950032234192
1781033629196981800,3.194981689453125,8.81505012512207,-0.018000001087784767,1.2499500513076782
1781033629216495000,3.2144951171875,9.019950866699219,0.15600000321865082,0.8479500412940979
1781033629236008700,3.2340087890625,9.255000114440918,-0.006000000052154064,0.5250000357627869
1781033629255521800,3.253521728515625,9.40095043182373,-0.4140000343322754,0.31095001101493835
1781033629275033300,3.273033447265625,9.414000511169434,-0.7480500340461731,0.10005000233650208
1781033629294544600,3.292544677734375,9.478950500488281,-0.9649500250816345,-0.10305000841617584
1781033629314059500,3.3120595703125,9.655050277709961,-1.1530500650405884,-0.24705001711845398
1781033629333575200,3.3315751953125,9.831000328063965,-1.3450500965118408,-0.39195001125335693
1781033629353091600,3.351091552734375,9.853050231933594,-1.5169501304626465,-0.6199500560760498
1781033629372610300,3.3706103515625,9.69105052947998,-1.5919500589370728,-0.9370500445365906
1781033629392128000,3.3901279296875,9.339000701904297,-1.5780000686645508,-1.2550500631332397
1781033629411644200,3.40964404296875,8.950050354003906,-1.5120000839233398,-1.533000111579895
1781033629431163000,3.429162841796875,8.670000076293945,-1.495050072669983,-1.7400001287460327
1781033629450683000,3.448682861328125,8.64900016784668,-1.5079500675201416,-1.9500000476837158
1781033629470201300,3.468201416015625,8.902050018310547,-1.5600000619888306,-2.203050136566162
1781033629489718500,3.487718505859375,9.288000106811523,-1.683000087738037,-2.448000192642212
1781033629509230600,3.507230712890625,9.646950721740723,-1.771950125694275,-2.6299500465393066
1781033629528742400,3.526742431640625,9.742050170898438,-1.7479500770568848,-2.7529501914978027
1781033629548258300,3.54625830078125,9.661050796508789,-1.6050000190734863,-2.8150501251220703
1781033629567773200,3.565773193359375,9.498000144958496,-1.4329500198364258,-2.8180501461029053
1781033629587287600,3.58528759765625,9.373050689697266,-1.2880500555038452,-2.826000213623047
1781033629606804700,3.6048046875,9.394950866699219,-1.225950002670288,-2.9040000438690186
1781033629626321200,3.624321044921875,9.507000923156738,-1.1820000410079956,-3.031050205230713
1781033629645836800,3.6438369140625,9.607050895690918,-1.0459500551223755,-3.177000045776367
1781033629665351000,3.663350830078125,9.579000473022461,-0.8520000576972961,-3.2760002613067627
1781033629684861700,3.68286181640625,9.394050598144531,-0.6480000019073486,-3.2719502449035645
1781033629704375800,3.702375732421875,9.145950317382812,-0.44805002212524414,-3.220050096511841
1781033629723890200,3.72189013671875,8.9839506149292,-0.24495001137256622,-3.177000045776367
1781033629743402500,3.741402587890625,8.934000015258789,-0.10305000841617584,-3.139050245285034
1781033629762915000,3.7609150390625,8.95995044708252,-0.022950001060962677,-3.1110000610351562
1781033629782427000,3.780427001953125,9.034049987792969,0.0019500000635161996,-3.106950044631958
1781033629801939200,3.799939208984375,9.112950325012207,0.004950000438839197,-3.1090500354766846
1781033629821456600,3.81945654296875,9.247950553894043,0.06105000153183937,-3.1399500370025635
1781033629840977700,3.838977783203125,9.420000076293945,0.19305001199245453,-3.1459500789642334
1781033629860494800,3.858494873046875,9.53895092010498,0.32100000977516174,-3.1120500564575195
1781033629880011000,3.878010986328125,9.499950408935547,0.39195001125335693,-3.025050163269043
1781033629899529000,3.897529052734375,9.361950874328613,0.4020000100135803,-2.9059500694274902
1781033629919045000,3.917045166015625,9.244050025939941,0.40005001425743103,-2.845050096511841
1781033629938560000,3.93656005859375,9.210000038146973,0.4210500121116638,-2.8570501804351807
1781033629958073900,3.956073974609375,9.32805061340332,0.43695002794265747,-2.947050094604492
1781033629977586400,3.97558642578125,9.460050582885742,0.48000001907348633,-3.0700502395629883
1781033629997099500,3.995099609375,9.460050582885742,0.5410500168800354,-3.129000186920166
1781033630016614400,4.014614501953125,9.363000869750977,0.5800500512123108,-3.1680002212524414
1781033630036129800,4.0341298828125,9.241950035095215,0.625950038433075,-3.20205020904541
1781033630055643400,4.053643310546875,9.189000129699707,0.6379500031471252,-3.2880001068115234
1781033630075156500,4.073156494140625,9.271050453186035,0.5770500302314758,-3.4399502277374268
1781033630094667800,4.092667724609375,9.420000076293945,0.5119500160217285,-3.6259500980377197
1781033630114188500,4.1121884765625,9.48900032043457,0.48795002698898315,-3.8580002784729004
1781033630133713000,4.131712890625,9.451950073242188,0.4440000355243683,-4.113000392913818
1781033630153231400,4.1512314453125,9.360000610351562,0.40095001459121704,-4.378050327301025
1781033630172749000,4.1707490234375,9.250950813293457,0.3349500298500061,-4.627950191497803
1781033630192268500,4.1902685546875,9.217950820922852,0.2560500204563141,-4.873050212860107
1781033630211789000,4.2097890625,9.21405029296875,0.25905001163482666,-5.116950035095215
1781033630231308500,4.22930859375,9.164999961853027,0.322050005197525,-5.413950443267822
1781033630250828300,4.248828369140625,8.98905086517334,0.4050000309944153,-5.776050090789795
1781033630270346000,4.268345947265625,8.67300033569336,0.4600500166416168,-6.187950134277344
1781033630289864400,4.287864501953125,8.304000854492188,0.45600003004074097,-6.624000549316406
1781033630309386000,4.307385986328125,7.99500036239624,0.41700002551078796,-7.0600504875183105
1781033630328901400,4.3269013671875,7.915050506591797,0.4300500154495239,-7.507950305938721
1781033630348415700,4.346415771484375,8.059950828552246,0.547950029373169,-7.827000141143799
1781033630367937000,4.36593701171875,8.319000244140625,0.8080500364303589,-7.990050315856934
1781033630387455700,4.385455810546875,8.431950569152832,1.0950000286102295,-7.978950500488281
1781033630406967800,4.4049677734375,8.26395034790039,1.2090001106262207,-7.891050338745117
1781033630426485500,4.424485595703125,7.831050395965576,1.2340500354766846,-7.858050346374512
1781033630446007300,4.44400732421875,7.243950366973877,1.240950107574463,-7.954050540924072
1781033630465524500,4.4635244140625,6.7159504890441895,1.2750000953674316,-8.220000267028809
1781033630485040000,4.4830400390625,6.214950084686279,1.4070000648498535,-8.491950035095215
1781033630504558800,4.502558837890625,5.599050045013428,1.6090500354766846,-8.551050186157227
1781033630524078600,4.52207861328125,5.5570502281188965,1.8270001411437988,-8.136000633239746
1781033630543591000,4.5415908203125,11.56605052947998,1.8379501104354858,-4.624950408935547
1781033630582616600,4.580616455078125,16.143001556396484,2.3779501914978027,-2.3430001735687256
1781033630602134500,4.600134521484375,16.312049865722656,2.196000099182129,-2.364000082015991
1781033630621650000,4.61964990234375,11.932950973510742,2.013000011444092,-2.6710500717163086
1781033630641167000,4.6391669921875,11.485050201416016,1.7359501123428345,-3.0990002155303955
1781033630660683500,4.65868359375,8.235000610351562,-0.0690000057220459,-2.908950090408325
1781033630680200400,4.678200439453125,5.895000457763672,-0.4620000123977661,-1.081950068473816
1781033630699715600,4.697715576171875,5.436000347137451,-1.0390501022338867,-0.9360000491142273
1781033630719231000,4.71723095703125,5.296950340270996,-1.5019500255584717,-0.9160500168800354
1781033630738749700,4.736749755859375,5.668950080871582,-1.4389500617980957,-1.1220000982284546
1781033630758269000,4.75626904296875,7.660050392150879,0.9259500503540039,-1.5799500942230225
1781033630777783800,4.77578369140625,8.0149507522583,1.4680501222610474,-2.1480000019073486
1781033630797296600,4.795296630859375,8.268000602722168,1.9999500513076782,-2.6100001335144043
1781033630816810000,4.81481005859375,8.467050552368164,2.1730501651763916,-2.868000030517578
1781033630836323800,4.83432373046875,9.025050163269043,2.059950113296509,-2.9539501667022705
1781033630855837200,4.853837158203125,10.494000434875488,1.6170001029968262,-2.986950159072876
1781033630875354400,4.873354248046875,11.016000747680664,-0.07200000435113907,-2.9800500869750977
1781033630894866700,4.89286669921875,11.52405071258545,-0.19395001232624054,-2.9670002460479736
1781033630914374400,4.91237451171875,11.530950546264648,-0.37905001640319824,-2.946000099182129
1781033630933887500,4.931887451171875,11.058000564575195,-0.5179499983787537,-2.8429501056671143
1781033630953406000,4.951406005859375,9.48900032043457,-0.4210500121116638,-2.6389501094818115
1781033630972924400,4.97092431640625,8.931000709533691,-0.22905001044273376,-2.514000177383423
1781033630992440000,4.990440185546875,8.302950859069824,0.025950001552700996,-2.448000192642212
1781033631011955200,5.009955078125,7.759050369262695,0.37005001306533813,-2.2729501724243164
1781033631031472400,5.029472412109375,7.213050365447998,0.6630000472068787,-1.8820500373840332
1781033631050993700,5.04899365234375,6.928050518035889,0.7170000076293945,-1.3060500621795654
1781033631070515200,5.06851513671875,7.011000156402588,0.44505003094673157,-0.7030500173568726
1781033631090029600,5.088029541015625,7.3399505615234375,-0.13395000994205475,-0.2070000171661377
1781033631109542400,5.10754248046875,7.800000190734863,-1.5679501295089722,-0.06599999964237213
1781033631129060400,5.127060302734375,8.277000427246094,-1.7149500846862793,-0.2770500183105469
1781033631148580900,5.146580810546875,8.508000373840332,-1.746000051498413,-0.6510000228881836
1781033631168102700,5.1661025390625,8.565000534057617,-1.7070001363754272,-0.970050036907196
1781033631187620000,5.1856201171875,8.571000099182129,-1.6639500856399536,-1.1059499979019165
1781033631207137500,5.205137451171875,8.508000373840332,-1.5250500440597534,-0.9979500770568848
1781033631226654700,5.22465478515625,8.586000442504883,-1.3429501056671143,-0.5989500284194946
1781033631246167300,5.244167236328125,8.773950576782227,-1.1440500020980835,-0.06795000284910202
1781033631265681400,5.263681396484375,9.063000679016113,-0.9120000600814819,0.4120500087738037
1781033631285198800,5.28319873046875,9.570000648498535,-0.6760500073432922,0.9019500613212585
1781033631304716300,5.30271630859375,9.96405029296875,-0.46605002880096436,1.311000108718872
1781033631324233500,5.3222333984375,10.31505012512207,-0.21495001018047333,1.5460500717163086
1781033631343751400,5.34175146484375,10.681050300598145,0.19305001199245453,1.7590501308441162
1781033631363270700,5.361270751953125,10.921950340270996,0.6190500259399414,1.9780501127243042
1781033631382791400,5.38079150390625,11.239950180053711,1.057050108909607,2.1600000858306885
1781033631402312400,5.4003125,11.500950813293457,1.3990501165390015,2.364000082015991
1781033631421831000,5.419830810546875,11.488950729370117,1.5090000629425049,2.671950101852417
1781033631441350100,5.43935009765625,11.248050689697266,1.4410500526428223,3.0259501934051514
1781033631460873000,5.458873046875,10.81605052947998,1.1959500312805176,3.390000104904175
1781033631480394200,5.478394287109375,10.243950843811035,0.8710500597953796,3.7540502548217773
1781033631499911000,5.497910888671875,9.660000801086426,0.527999997138977,4.093050003051758
1781033631519422500,5.51742236328125,9.148950576782227,0.17205001413822174,4.543050289154053
1781033631538932000,5.536931884765625,8.723999977111816,-0.12495000660419464,6.199050426483154
1781033631558443500,5.556443603515625,8.515049934387207,-0.34200000762939453,6.454950332641602
1781033631577961200,5.575961181640625,8.52405071258545,-0.4159500300884247,6.829950332641602
1781033631597480400,5.59548046875,8.613000869750977,-0.30195000767707825,7.0410003662109375
1781033631616991700,5.61499169921875,8.68695068359375,-0.0070500001311302185,7.008000373840332
1781033631636502500,5.63450244140625,8.676000595092773,0.4740000367164612,6.739950180053711
1781033631656021200,5.654021240234375,8.479050636291504,1.0950000286102295,6.273000240325928
1781033631675542500,5.67354248046875,8.11500072479248,2.490000009536743,5.719950199127197
1781033631695060700,5.693060791015625,7.593000411987305,2.5789501667022705,5.26200008392334
1781033631714574800,5.712574951171875,7.071000099182129,2.512050151824951,4.956000328063965
1781033631734086700,5.732086669921875,6.822000503540039,2.322000026702881,4.633050441741943
1781033631753597400,5.751597412109375,6.9370503425598145,1.981950044631958,4.282050132751465
1781033631773107000,5.77110693359375,7.306950569152832,1.5829501152038574,3.9370501041412354
1781033631792620300,5.790620361328125,7.767000198364258,1.15500009059906,3.670950174331665
1781033631812134100,5.810134033203125,8.179950714111328,0.6990000605583191,3.6540002822875977
1781033631831648300,5.829648193359375,8.488950729370117,0.3540000021457672,3.727950096130371
1781033631851157000,5.849156982421875,8.674050331115723,0.16500000655651093,3.7639501094818115
1781033631870662000,5.868661865234375,8.75100040435791,0.04605000093579292,3.7129502296447754
1781033631890171400,5.88817138671875,8.800050735473633,-0.09300000220537186,3.5400002002716064
1781033631909683500,5.907683349609375,8.94795036315918,-0.17505000531673431,3.283950090408325
1781033631929191000,5.92719091796875,9.187950134277344,-0.12000000476837158,2.845950126647949
1781033631948697900,5.94669775390625,9.337050437927246,0.034950003027915955,2.3490002155303955
1781033631968207600,5.96620751953125,9.349950790405273,0.05205000191926956,1.9120501279830933
1781033631987718000,5.9857177734375,9.342000007629395,-0.17805001139640808,1.6110000610351562
1781033632007230200,6.005230224609375,9.475950241088867,-0.3469500243663788,1.3210500478744507
1781033632026739700,6.02473974609375,9.769950866699219,-0.2959500253200531,0.8989500403404236
1781033632046248200,6.044248291015625,10.017000198364258,-0.1579500138759613,0.45795002579689026
1781033632065753900,6.06375390625,10.003050804138184,-0.1680000126361847,0.09000000357627869
1781033632085262300,6.083262451171875,9.78600025177002,-0.5040000081062317,-0.1189500093460083
1781033632104779000,6.102779052734375,9.61500072479248,-0.9709500670433044,-0.32895001769065857
1781033632124289000,6.1222890625,9.643050193786621,-1.2829500436782837,-0.687000036239624
1781033632143796200,6.141796142578125,9.895050048828125,-1.3380000591278076,-1.111050009727478
1781033632163309800,6.161309814453125,10.159950256347656,-1.3350000381469727,-1.4310001134872437
1781033632182824200,6.18082421875,10.272000312805176,-1.4560500383377075,-1.5520501136779785
1781033632202344200,6.20034423828125,10.177950859069824,-1.6120500564575195,-1.6249500513076782
1781033632221867300,6.2198671875,9.955950736999512,-1.6750500202178955,-1.7530500888824463
1781033632241385500,6.239385498046875,9.757950782775879,-1.662000060081482,-1.9410001039505005
1781033632260900900,6.25890087890625,9.514050483703613,-1.5570000410079956,-2.182950019836426
1781033632280413200,6.2784130859375,9.23805046081543,-1.4869500398635864,-2.344050168991089
1781033632299926300,6.29792626953125,8.95995044708252,-1.4719500541687012,-2.4210000038146973
1781033632319446800,6.31744677734375,8.740950584411621,-1.3270500898361206,-2.511000156402588
1781033632338966500,6.336966552734375,8.632950782775879,-1.1430000066757202,-2.593950033187866
1781033632358484500,6.356484375,8.575050354003906,-0.973050057888031,-2.674950122833252
1781033632378002200,6.376002197265625,8.51205062866211,-0.7980000376701355,-2.797950029373169
1781033632397514500,6.395514404296875,8.533950805664062,-0.6799500584602356,-2.955000162124634
1781033632417025300,6.415025390625,8.722050666809082,-0.531000018119812,-3.115950107574463
1781033632436541700,6.434541748046875,8.967000007629395,-0.3330000042915344,-3.2410502433776855
1781033632456053200,6.45405322265625,9.069000244140625,-0.1579500138759613,-3.3169500827789307
1781033632475558100,6.47355810546875,8.988000869750977,-0.04905000329017639,-3.366000175476074
1781033632495063300,6.493063232421875,8.836950302124023,-0.025950001552700996,-3.385050058364868
1781033632514573600,6.512573486328125,8.809050559997559,-0.08700000494718552,-3.472050189971924
1781033632534087000,6.5320869140625,8.968950271606445,-0.21495001018047333,-3.5590500831604004
1781033632553599200,6.55159912109375,9.184050559997559,-0.322050005197525,-3.6439502239227295
1781033632573110300,6.5711103515625,9.279000282287598,-0.44805002212524414,-3.721050262451172
1781033632592624000,6.5906240234375,9.271950721740723,-0.534000039100647,-3.744000196456909
1781033632612139300,6.61013916015625,9.247050285339355,-0.5100000500679016,-3.751950263977051
1781033632631656200,6.62965625,9.22095012664795,-0.49695003032684326,-3.7639501094818115
1781033632651175400,6.649175537109375,9.157050132751465,-0.5110500454902649,-3.763050079345703
1781033632670688000,6.66868798828125,9.106950759887695,-0.47505003213882446,-3.796950101852417
1781033632690194200,6.688194091796875,9.133049964904785,-0.44895002245903015,-3.8839502334594727
1781033632709703000,6.707702880859375,9.193050384521484,-0.3730500042438507,-3.9559502601623535
1781033632729213000,6.727212890625,9.312000274658203,-0.2530499994754791,-3.9870002269744873
1781033632748723000,6.746722900390625,9.369000434875488,-0.1680000126361847,-3.9630002975463867
1781033632768234000,6.76623388671875,9.340950012207031,-0.05895000323653221,-3.9079501628875732
1781033632787742500,6.785742431640625,9.310050010681152,0.027000000700354576,-3.8359501361846924
1781033632807250400,6.80525048828125,9.32295036315918,0.13005000352859497,-3.7960500717163086
1781033632826764500,6.8247646484375,9.385050773620605,0.19500000774860382,-3.7669501304626465
1781033632846280200,6.8442802734375,9.412050247192383,0.14205001294612885,-3.7170002460479736
1781033632865793000,6.86379296875,9.385950088500977,0.08295000344514847,-3.6450002193450928
1781033632885305600,6.8833056640625,9.376049995422363,0.013050000183284283,-3.58305025100708
1781033632904823000,6.902822998046875,9.354000091552734,-0.030000001192092896,-3.5400002002716064
1781033632924341800,6.922341796875,9.369000434875488,0,-3.52305006980896
1781033632943856600,6.941856689453125,9.45300006866455,0.07095000147819519,-3.5250000953674316
1781033632963372000,6.9613720703125,9.529950141906738,0.1579500138759613,-3.532050132751465
1781033632982881000,6.980881103515625,9.643050193786621,0.2740500271320343,-3.504000186920166
1781033633002390800,7.000390869140625,9.73905086517334,0.41895002126693726,-3.409050226211548
1781033633021907500,7.019907470703125,9.75195026397705,0.5590500235557556,-3.2749502658843994
1781033633041422000,7.039422119140625,9.661050796508789,0.703950047492981,-3.117000102996826
1781033633060939300,7.058939208984375,9.471000671386719,0.7840500473976135,-2.995950222015381
1781033633080457700,7.078457763671875,9.232050895690918,0.7900500297546387,-2.9389500617980957
1781033633099975700,7.0979755859375,9.051000595092773,0.8070000410079956,-2.968950033187866
1781033633119491300,7.1174912109375,8.976000785827637,0.7720500230789185,-3.028050184249878
1781033633139004400,7.13700439453125,9.051000595092773,0.7200000286102295,-3.1210501194000244
1781033633158515000,7.156514892578125,9.175050735473633,0.6880500316619873,-3.2440502643585205
1781033633178023200,7.176023193359375,9.241050720214844,0.6520500183105469,-3.355950117111206
1781033633197534200,7.1955341796875,9.276000022888184,0.661050021648407,-3.5250000953674316
1781033633217042700,7.215042724609375,9.288000106811523,0.7630500197410583,-3.721050262451172
1781033633236552700,7.234552734375,9.255000114440918,0.8929500579833984,-3.913950204849243
1781033633256065800,7.254065673828125,9.205050468444824,0.9490500688552856,-4.1579999923706055
1781033633275578400,7.273578369140625,9.199050903320312,0.9360000491142273,-4.384950160980225
1781033633295088600,7.293088623046875,9.169950485229492,0.8770500421524048,-4.543950080871582
1781033633314598400,7.312598388671875,9.156000137329102,0.7990500330924988,-4.681950092315674
1781033633334108200,7.332108154296875,9.142950057983398,0.7020000219345093,-4.752000331878662
1781033633353619500,7.351619384765625,9.117000579833984,0.6360000371932983,-4.82295036315918
1781033633373131500,7.371131591796875,9.072000503540039,0.598050057888031,-4.945050239562988
1781033633392642300,7.390642333984375,9.016050338745117,0.583050012588501,-5.086950302124023
1781033633412152300,7.41015234375,8.923050880432129,0.6310500502586365,-5.27400016784668
1781033633431663900,7.429663818359375,8.764050483703613,0.6889500617980957,-5.53695011138916
1781033633451170600,7.449170654296875,8.611950874328613,0.7020000219345093,-5.92995023727417
1781033633470676000,7.468676025390625,8.530950546264648,0.6660000085830688,-6.474000453948975
1781033633490188300,7.488188232421875,8.57805061340332,0.6439500451087952,-7.0849504470825195
1781033633509696500,7.507696533203125,8.593950271606445,0.6649500131607056,-7.690950393676758
1781033633529202700,7.52720263671875,8.440950393676758,0.778950035572052,-8.143950462341309
1781033633548711000,7.5467109375,8.163000106811523,0.9450000524520874,-8.350950241088867
1781033633568216000,7.566216064453125,7.807950496673584,1.0800000429153442,-8.350950241088867
1781033633587721000,7.585720947265625,7.642950534820557,1.1839500665664673,-8.25
1781033633607230700,7.605230712890625,7.710000514984131,1.201050043106079,-8.110050201416016
1781033633626742500,7.624742431640625,7.801050186157227,1.117050051689148,-8.002950668334961
1781033633646259000,7.644259033203125,7.771050453186035,1.0339500904083252,-7.935000419616699
1781033633665772800,7.663772705078125,7.528950214385986,1.0320000648498535,-7.9009504318237305
1781033633685281800,7.68328173828125,7.108950138092041,1.2390000820159912,-7.932000160217285
1781033633704795000,7.702794921875,7.207950115203857,1.6540501117706299,-7.7989501953125
1781033633724312300,7.722312255859375,12.868950843811035,2.0530500411987305,-5.811000347137451
1781033633743833000,7.7418330078125,13.039051055908203,2.347050189971924,-3.7600502967834473
1781033633763350500,7.7613505859375,12.92595100402832,2.3580000400543213,-3.372000217437744
1781033633782865700,7.78086572265625,12.594000816345215,1.8580501079559326,-3.0019500255584717
1781033633802378000,7.8003779296875,6.508050441741943,0.30300000309944153,-2.820000171661377
1781033633821889800,7.819889892578125,6.172050476074219,-0.14295001327991486,-2.656050205230713
1781033633841401900,7.83940185546875,6.075000286102295,-0.5910000205039978,-2.111999988555908
1781033633860911600,7.85891162109375,5.920950412750244,-0.5869500041007996,-0.44505003094673157
1781033633880420400,7.87842041015625,6.168000221252441,-0.10905000567436218,-0.42600002884864807
1781033633899926000,7.897926025390625,7.9830002784729,1.4239500761032104,-0.8020500540733337
1781033633919435800,7.917435791015625,8.23905086517334,3.204000234603882,-2.416950225830078
1781033633938947600,7.936947509765625,8.599950790405273,3.5209500789642334,-2.8909502029418945
1781033633958456000,7.9564560546875,8.875950813293457,3.7819502353668213,-3.3630001544952393
1781033633977970700,7.975970703125,9.10200023651123,3.718050241470337,-3.643050193786621
1781033633997486000,7.995486083984375,9.457950592041016,2.0149500370025635,-3.7759501934051514
1781033634016997400,8.014997314453124,9.915000915527344,0.4650000333786011,-3.7170002460479736
1781033634036510200,8.03451025390625,10.231950759887695,0.08205000311136246,-3.4399502277374268
1781033634056023000,8.05402294921875,10.285050392150879,-0.527999997138977,-3.1600501537323
1781033634075531800,8.07353173828125,10.02495002746582,-0.999000072479248,-2.842050075531006
1781033634095035400,8.093035400390624,8.116950035095215,-1.1539500951766968,-2.616000175476074
1781033634114541300,8.112541259765624,7.723950386047363,-0.9169500470161438,-2.4100501537323
1781033634134052400,8.13205224609375,7.231950283050537,0.8689500689506531,-2.2009501457214355
1781033634153563000,8.15156298828125,6.9810004234313965,1.2450000047683716,-1.8990000486373901
1781033634173068000,8.171068115234375,7.027950286865234,1.8520500659942627,-1.4550000429153442
1781033634192570400,8.1905703125,7.43595027923584,2.5000500679016113,-1.2720000743865967
1781033634212076800,8.210076904296875,7.9360504150390625,2.9740500450134277,-1.3440001010894775
1781033634231585800,8.229585693359375,8.317049980163574,3.114000082015991,-1.477950096130371
1781033634251095000,8.249094970703124,8.657999992370605,2.824050188064575,-1.7320500612258911
1781033634270606300,8.2686064453125,8.854949951171875,0.8680500388145447,-1.831950068473816
1781033634290114800,8.28811474609375,9.00195026397705,0.5890500545501709,-1.7590501308441162
1781033634309622800,8.307622802734375,9.166050910949707,0.17505000531673431,-1.64805006980896
1781033634329136400,8.327136474609375,9.23805046081543,-0.09000000357627869,-1.5109500885009766
1781033634348653300,8.3466533203125,9.391050338745117,-0.036000002175569534,-1.377000093460083
1781033634368170200,8.366170166015625,9.51300048828125,0.1380000114440918,-1.1320500373840332
1781033634387681300,8.385681396484374,9.400050163269043,0.28200000524520874,-0.8620500564575195
1781033634407191300,8.40519140625,9.256950378417969,0.39705002307891846,-0.4900500178337097
1781033634426698800,8.42469873046875,9.190950393676758,0.5140500068664551,-0.040950000286102295
1781033634446203100,8.444203125,9.195000648498535,0.7800000309944153,0.31095001101493835
1781033634465711600,8.463711669921874,9.43005084991455,1.234950065612793,0.4459500312805176
1781033634485223200,8.48322314453125,9.681000709533691,1.735050082206726,0.453000009059906
1781033634504739800,8.50273974609375,9.679950714111328,2.142000198364258,0.4320000112056732
1781033634524255000,8.5222548828125,9.457050323486328,2.313000202178955,0.4900500178337097
1781033634543766500,8.5417666015625,9.156000137329102,2.305950164794922,0.8179500102996826
1781033634563281000,8.561281005859374,9.034049987792969,2.3110501766204834,1.2340500354766846
1781033634582798600,8.580798583984375,9.127050399780273,2.3809502124786377,1.5829501152038574
1781033634602317000,8.600317138671874,9.361050605773926,2.3140501976013184,1.9620001316070557
1781033634621840400,8.61984033203125,9.742950439453125,2.0299501419067383,2.3680500984191895
1781033634641362700,8.63936279296875,10.255050659179688,1.6519501209259033,2.697000026702881
1781033634660879600,8.658879638671875,10.72800064086914,1.1980500221252441,3.1249501705169678
1781033634680395500,8.6783955078125,11.083050727844238,0.7849500179290771,3.67995023727417
1781033634699910100,8.69791015625,11.212050437927246,0.5610000491142273,4.288050174713135
1781033634719428000,8.717427978515625,10.800000190734863,0.38895002007484436,5.782050132751465
1781033634738948000,8.736947998046874,9.25200080871582,0.4030500054359436,6.354000091552734
1781033634758463200,8.756463134765625,8.886000633239746,0.9390000700950623,7.773000240325928
1781033634777977600,8.7759775390625,7.006050109863281,2.725950241088867,7.891050338745117
1781033634797493500,8.795493408203125,6.637950420379639,4.354050159454346,7.864950180053711
1781033634817008000,8.815008056640625,4.864950180053711,4.426050186157227,7.4569501876831055
1781033634836527600,8.834527587890625,4.776000022888184,4.182000160217285,5.85105037689209
1781033634856046000,8.854046142578126,5.050050258636475,3.670950174331665,5.269050121307373
1781033634875557600,8.8735576171875,6.664050102233887,2.032050132751465,3.6940500736236572
1781033634895068000,8.89306787109375,8.506050109863281,1.5259500741958618,3.262050151824951
1781033634914583800,8.912583740234375,10.171050071716309,0.9330000281333923,2.8150501251220703
1781033634934100500,8.9321005859375,10.300950050354004,0.3910500109195709,2.470050096511841
1781033634953615400,8.951615478515626,10.31100082397461,0.08895000070333481,2.26200008392334
1781033634973128400,8.97112841796875,10.099950790405273,0.04005000367760658,2.1780002117156982
1781033634992641300,8.990641357421875,9.688050270080566,0.1969500035047531,2.1700501441955566
1781033635012157400,9.010157470703126,9.168000221252441,0.3910500109195709,2.2210500240325928
1781033635031669800,9.029669677734375,8.7610502243042,0.6109500527381897,2.287950038909912
1781033635051179500,9.049179443359375,8.583000183105469,0.8299500346183777,2.2960500717163086
1781033635070692000,9.068692138671874,8.644950866699219,0.973050057888031,2.244000196456909
1781033635090205400,9.088205322265624,8.902950286865234,1.0060499906539917,2.1090002059936523
1781033635109720600,9.107720458984375,9.144000053405762,0.8359500169754028,1.954050064086914
1781033635129233200,9.127233154296874,9.22800064086914,0.5260500311851501,1.8610501289367676
1781033635148747800,9.146747802734374,9.3589506149292,0.23895001411437988,1.7310000658035278
1781033635168263200,9.16626318359375,9.664050102233887,0.06195000186562538,1.5480000972747803
1781033635187776300,9.1857763671875,10.13700008392334,-0.05895000323653221,1.2930001020431519
1781033635207289900,9.205289794921875,10.621950149536133,-0.16995000839233398,0.9930000305175781
1781033635226802000,9.224802001953124,10.837050437927246,-0.2689500153064728,0.7440000176429749
1781033635246313500,9.2443134765625,10.719000816345215,-0.3550500273704529,0.547950029373169
1781033635265827000,9.2638271484375,10.35105037689209,-0.3660000264644623,0.4159500300884247
1781033635285345500,9.283345458984375,9.972000122070312,-0.1960500031709671,0.23100000619888306
1781033635304862500,9.302862548828125,9.658950805664062,0.15300001204013824,-0.08700000494718552
1781033635324376300,9.322376220703125,9.43005084991455,0.47700002789497375,-0.4039500057697296
1781033635343887000,9.34188720703125,9.20895004272461,0.5539500117301941,-0.6109500527381897
1781033635363391700,9.361391845703125,8.896050453186035,0.3720000088214874,-0.7540500164031982
1781033635382901200,9.3809013671875,8.565000534057617,0.018000001087784767,-0.8490000367164612
1781033635402417000,9.4004169921875,8.437950134277344,-0.3079500198364258,-1.0260000228881836
1781033635421933300,9.419933349609375,8.592000007629395,-0.4620000123977661,-1.3039500713348389
1781033635441449200,9.43944921875,8.89905071258545,-0.5620500445365906,-1.582050085067749
1781033635460965000,9.458965087890626,9.177000045776367,-0.8130000233650208,-1.7779500484466553
1781033635480480800,9.478480712890626,9.288000106811523,-1.1920500993728638,-1.902000069618225
1781033635499989000,9.497989013671875,9.217050552368164,-1.519950032234192,-2.0380501747131348
1781033635519500000,9.5175,9.082050323486328,-1.7539501190185547,-2.275050163269043
1781033635539016400,9.537016357421875,9.019950866699219,-1.9099501371383667,-2.614950180053711
1781033635558531800,9.55653173828125,9.075000762939453,-1.9480501413345337,-3.0550501346588135
1781033635578042000,9.5760419921875,9.357000350952148,-1.852950096130371,-3.5460002422332764
1781033635597547000,9.595547119140624,9.769950866699219,-1.7230501174926758,-3.9310503005981445
1781033635617054700,9.6150546875,10.105050086975098,-1.492050051689148,-4.165950298309326
1781033635636567600,9.634567626953125,10.13895034790039,-1.218000054359436,-4.252950191497803
1781033635656081200,9.6540810546875,9.874950408935547,-0.9930000305175781,-4.198950290679932
1781033635675592400,9.673592529296876,9.52500057220459,-0.7279500365257263,-4.108950138092041
1781033635695103500,9.693103515625,9.2160005569458,-0.5010000467300415,-3.973050117492676
1781033635714616300,9.7126162109375,9.007050514221191,-0.36000001430511475,-3.7920002937316895
1781033635734130000,9.7321298828125,8.833050727844238,-0.30195000767707825,-3.6600000858306885
1781033635753648400,9.7516484375,8.667000770568848,-0.2880000174045563,-3.532050132751465
1781033635773166300,9.771166259765625,8.593050003051758,-0.2650500237941742,-3.4489500522613525
1781033635792678700,9.7906787109375,8.595000267028809,-0.27000001072883606,-3.400050163269043
1781033635812192800,9.81019287109375,8.677950859069824,-0.3439500033855438,-3.3490500450134277
1781033635831708700,9.829708740234375,8.800950050354004,-0.4129500091075897,-3.3730502128601074
1781033635851221200,9.84922119140625,8.91195011138916,-0.4630500078201294,-3.4519500732421875
1781033635870735600,9.868735595703125,9.001049995422363,-0.46695002913475037,-3.498000144958496
1781033635890249200,9.888249267578125,9.076950073242188,-0.3829500079154968,-3.4930500984191895
1781033635909762300,9.90776220703125,9.130949974060059,-0.2970000207424164,-3.43500018119812
1781033635929270000,9.92727001953125,9.249000549316406,-0.19995000958442688,-3.394050121307373
1781033635948773400,9.9467734375,9.402000427246094,-0.08700000494718552,-3.4200000762939453
1781033635968279600,9.966279541015625,9.529950141906738,0.06495000422000885,-3.487950086593628
1781033635987787500,9.98578759765625,9.628950119018555,0.21000000834465027,-3.582000255584717
1781033636007296300,10.005296142578125,9.619950294494629,0.34200000762939453,-3.6220502853393555
1781033636026805500,10.024805419921876,9.469950675964355,0.4600500166416168,-3.6060001850128174
1781033636046315000,10.04431494140625,9.288000106811523,0.5370000004768372,-3.5460002422332764
1781033636065826300,10.063826416015624,9.157050132751465,0.5620500445365906,-3.4620001316070557
1781033636085340700,10.083340576171874,9.127950668334961,0.5140500068664551,-3.3790502548217773
1781033636104854300,10.102854248046874,9.283050537109375,0.43695002794265747,-3.3379502296447754
1781033636124365300,10.122365234375,9.466050148010254,0.3850500285625458,-3.3490500450134277
1781033636143879200,10.141879150390626,9.547950744628906,0.3840000033378601,-3.3630001544952393
1781033636163397400,10.1613974609375,9.481050491333008,0.4650000333786011,-3.3520500659942627
1781033636182913500,10.18091357421875,9.352950096130371,0.5940000414848328,-3.318000078201294
1781033636202423600,10.200423583984374,9.265950202941895,0.7300500273704529,-3.3030002117156982
1781033636221932300,10.219932373046875,9.267000198364258,0.831000030040741,-3.3190500736236572
1781033636241444400,10.2394443359375,9.369000434875488,0.8190000653266907,-3.3319501876831055
1781033636260960000,10.2589599609375,9.436050415039062,0.7860000133514404,-3.3439502716064453
1781033636280481800,10.278481689453125,9.361050605773926,0.7669500112533569,-3.2940001487731934
1781033636299998700,10.297998779296876,9.181950569152832,0.7470000386238098,-3.217050075531006
1781033636319507500,10.317507568359375,9.02595043182373,0.7680000066757202,-3.1660501956939697
1781033636339015400,10.337015380859375,8.940000534057617,0.7669500112533569,-3.151050090789795
1781033636358524400,10.3565244140625,8.982000350952148,0.7110000252723694,-3.1900501251220703
1781033636378033700,10.37603369140625,9.02400016784668,0.6330000162124634,-3.2719502449035645
1781033636397546800,10.395546630859375,9.015000343322754,0.5749500393867493,-3.4020001888275146
1781033636417061000,10.41506103515625,8.968950271606445,0.5400000214576721,-3.5220000743865967
1781033636436571000,10.43457080078125,8.926950454711914,0.5520000457763672,-3.633000135421753
1781033636456078300,10.454078369140625,9.022050857543945,0.6379500031471252,-3.7260000705718994
1781033636475586600,10.473586669921875,9.16200065612793,0.7120500206947327,-3.7549502849578857
1781033636495094300,10.49309423828125,9.223050117492676,0.7399500608444214,-3.7770001888275146
1781033636514608000,10.512608154296874,9.241950035095215,0.736050009727478,-3.799950122833252
1781033636534124000,10.5321240234375,9.17400074005127,0.7219500541687012,-3.8389501571655273
1781033636553640200,10.55164013671875,9.065999984741211,0.7270500063896179,-3.967050075531006
1781033636573158100,10.571158203125,8.96505069732666,0.7740000486373901,-4.228950023651123
1781033636592677600,10.590677734375,8.88900089263916,0.7879500389099121,-4.62600040435791
1781033636612198400,10.610198486328125,8.926050186157227,0.7549500465393066,-5.16795015335083
1781033636631714800,10.62971484375,9.073050498962402,0.6660000085830688,-5.794050216674805
1781033636651231500,10.6492314453125,9.297000885009766,0.527999997138977,-6.348000526428223
1781033636670745600,10.66874560546875,9.481950759887695,0.4050000309944153,-6.808050155639648
1781033636690259500,10.688259521484374,9.451050758361816,0.3520500063896179,-7.183950424194336
1781033636709778400,10.7077783203125,9.159000396728516,0.35295000672340393,-7.504950523376465
1781033636729295000,10.727295166015624,8.721000671386719,0.42705002427101135,-7.864050388336182
1781033636748808000,10.746807861328126,8.293050765991211,0.5550000071525574,-8.23799991607666
1781033636768323800,10.76632373046875,7.948050498962402,0.6160500049591064,-8.518050193786621
1781033636787839000,10.7858388671875,7.833000183105469,0.625950038433075,-8.692049980163574
1781033636807347000,10.805346923828125,7.825050354003906,0.6220500469207764,-8.81100082397461
1781033636826858200,10.824858154296875,7.6620001792907715,0.6510000228881836,-8.938950538635254
1781033636846370300,10.844370361328124,7.225950241088867,0.7999500632286072,-9.259950637817383
1781033636865879000,10.863879150390625,3.907050132751465,1.1040000915527344,-9.874950408935547
1781033636885389800,10.883389892578125,1.7820000648498535,1.2919501066207886,-10.00005054473877
1781033636904899800,10.90289990234375,8.158050537109375,1.5090000629425049,-6.4800004959106445
1781033636924409600,10.92240966796875,8.266050338745117,1.7740501165390015,-1.446000099182129
1781033636943917000,10.9419169921875,12.313950538635254,-0.5110500454902649,0.5419500470161438
1781033636963428900,10.961428955078125,14.83905029296875,-0.8700000643730164,1.6309500932693481
1781033636982942700,10.980942626953125,8.998950004577637,-1.1569499969482422,-2.8620002269744873
1781033637002455600,11.00045556640625,9.265950202941895,-1.4080500602722168,-6.211950302124023
1781033637021972000,11.019971923828125,9.519000053405762,-1.0170000791549683,-6.073050498962402
1781033637041487400,11.0394873046875,9.37695026397705,-0.4600500166416168,-3.052950143814087
1781033637061000200,11.059000244140625,9.748950004577637,-0.16305001080036163,-1.2310500144958496
1781033637080514000,11.07851416015625,10.207050323486328,0.13305000960826874,-1.4730000495910645
1781033637100023800,11.09802392578125,10.350000381469727,0.5940000414848328,-3.492000102996826
1781033637119532500,11.117532470703125,10.255050659179688,0.9910500645637512,-3.9499502182006836
1781033637139042300,11.137042236328124,9.97605037689209,0.9199500679969788,-4.2370500564575195
1781033637158551800,11.1565517578125,9.943950653076172,0.39795002341270447,-3.895050287246704
1781033637178064600,11.176064697265625,9.880950927734375,-1.0770000219345093,-3.403050184249878
1781033637197572600,11.195572509765626,9.814050674438477,-1.221000075340271,-3.151050090789795
1781033637217083000,11.215082763671875,9.544950485229492,-1.1890500783920288,-2.9659502506256104
1781033637236601900,11.234601806640624,7.755000591278076,-0.9979500770568848,-2.8530001640319824
1781033637256114400,11.254114501953126,7.477050304412842,-0.6709500551223755,-2.7930002212524414
1781033637275621000,11.27362109375,7.171050548553467,-0.2989500164985657,-2.6010000705718994
1781033637295134000,11.293134033203126,6.925950527191162,0.06495000422000885,-2.3329501152038574
1781033637314651100,11.312651123046875,6.904050350189209,0.4420500099658966,-2.1760501861572266
1781033637334163200,11.3321630859375,7.141050338745117,0.8350500464439392,-1.9549500942230225
1781033637353676300,11.35167626953125,7.371000289916992,1.141950011253357,-1.725000023841858
1781033637373188000,11.37118798828125,7.585050582885742,1.128000020980835,-1.4940000772476196
1781033637392694300,11.3906943359375,7.7470502853393555,0.8419500589370728,-1.1299500465393066
1781033637412204800,11.410204833984375,8.158950805664062,0.5860500335693359,-0.6460500359535217
1781033637431716600,11.429716552734375,8.75100040435791,0.5100000500679016,-0.26205000281333923
1781033637451228200,11.449228271484374,10.29900074005127,0.5509500503540039,-0.09000000357627869
1781033637470742500,11.468742431640624,10.596000671386719,0.7459500432014465,-0.19905000925064087
1781033637490256100,11.488256103515624,10.534950256347656,0.9919500350952148,-1.76895010471344
1781033637509774600,11.507774658203125,10.380000114440918,1.171950101852417,-1.968000054359436
1781033637529298700,11.527298583984376,10.158000946044922,1.3759500980377197,-1.9650001525878906
1781033637548824000,11.546823974609374,10.32300090789795,1.440000057220459,-1.546950101852417
1781033637568342300,11.56634228515625,12.10200023651123,1.4140501022338867,0.2779500186443329
1781033637587852500,11.5858525390625,12.178950309753418,1.2660000324249268,0.5620500445365906
1781033637607363000,11.605363037109376,12.243000984191895,1.1509500741958618,0.9049500226974487
1781033637626875400,11.62487548828125,12.018000602722168,1.1890500783920288,1.1539500951766968
1781033637646387000,11.644386962890625,10.132050514221191,1.2820500135421753,1.4329500198364258
1781033637665900500,11.663900634765625,9.678000450134277,1.4020500183105469,1.8229501247406006
1781033637685422000,11.683422119140625,9.02400016784668,1.377000093460083,2.3620500564575195
1781033637704943400,11.702943359375,7.531050205230713,1.1820000410079956,2.8590002059936523
1781033637724466700,11.722466796875,7.41795015335083,1.0000500679016113,3.088050127029419
1781033637743988700,11.74198876953125,7.384050369262695,1.1020500659942627,3.0769500732421875
1781033637763510300,11.76151025390625,7.228950500488281,1.6260000467300415,3.075000047683716
1781033637783033600,11.78103369140625,6.9970502853393555,3.4009501934051514,3.403050184249878
1781033637802546200,11.800546142578124,6.844950199127197,5.233050346374512,3.9280502796173096
1781033637822052900,11.820052978515625,6.751950263977051,5.629950046539307,4.368000030517578
1781033637841569500,11.839569580078125,6.918000221252441,6.22605037689209,4.7029500007629395
1781033637861092600,11.859092529296875,7.384050369262695,6.748050212860107,4.99500036239624
1781033637880613600,11.878613525390625,7.708950519561768,6.600000381469727,5.521050453186035
1781033637900133600,11.898133544921874,8.041950225830078,4.7659502029418945,7.192050457000732
1781033637919651800,11.91765185546875,8.346000671386719,2.887050151824951,7.080000400543213
1781033637939172600,11.937172607421875,8.460000038146973,1.327950119972229,6.556950092315674
1781033637958698500,11.956698486328126,8.670000076293945,1.0039499998092651,4.801950454711914
1781033637978222600,11.97622265625,9.067950248718262,0.7540500164031982,4.2109503746032715
1781033637997742600,11.99574267578125,9.502050399780273,0.6349500417709351,2.7169501781463623
1781033638017265200,12.01526513671875,9.760050773620605,0.6490500569343567,2.53695011138916
1781033638036786400,12.034786376953125,9.684000015258789,0.8190000653266907,2.4060001373291016
1781033638056303000,12.05430322265625,9.45300006866455,1.1089500188827515,2.3809502124786377
1781033638075823400,12.0738232421875,9.178950309753418,1.2769500017166138,2.455050230026245
1781033638095349000,12.093348876953126,9.178950309753418,1.228950023651123,2.611950159072876
1781033638114872000,12.1128720703125,9.418950080871582,1.0440000295639038,2.7090001106262207
1781033638134394000,12.13239404296875,9.490050315856934,0.7590000629425049,2.7499501705169678
1781033638153915000,12.151914794921876,9.42495059967041,0.364950031042099,2.8129501342773438
1781033638173434400,12.171434326171875,9.339000701904297,-0.06495000422000885,2.854950189590454
1781033638192958000,12.1909580078125,9.370950698852539,-0.37605002522468567,2.7990000247955322
1781033638212478700,12.210478759765625,9.540000915527344,-0.39705002307891846,2.625000238418579
1781033638231993900,12.229993896484375,9.706950187683105,-0.13095000386238098,2.3419501781463623
1781033638251508000,12.249508056640625,9.633000373840332,0.046950001269578934,1.9969501495361328
1781033638271019500,12.26901953125,9.295050621032715,-0.09795000404119492,1.6879501342773438
1781033638290528800,12.28852880859375,8.940000534057617,-0.37605002522468567,1.3230000734329224
1781033638310044700,12.308044677734374,8.800950050354004,-0.6079500317573547,0.9280500411987305
1781033638329565400,12.3275654296875,9.010950088500977,-0.6949500441551208,0.559950053691864
1781033638349083100,12.347083251953125,9.469950675964355,-0.742050051689148,0.26805001497268677
1781033638368600300,12.366600341796875,9.93600082397461,-0.8560500144958496,0
1781033638388124000,12.3861240234375,10.1850004196167,-0.8929500579833984,-0.42600002884864807
1781033638407649000,12.40564892578125,10.18005084991455,-0.753000020980835,-1.0060499906539917
1781033638427176200,12.42517626953125,10.015050888061523,-0.48600003123283386,-1.6240500211715698
1781033638446702800,12.444702880859374,9.754050254821777,-0.35100001096725464,-2.0689501762390137
1781033638466226400,12.464226318359374,9.532050132751465,-0.4939500093460083,-2.26200008392334
1781033638485754000,12.483754150390626,9.424050331115723,-0.7729500532150269,-2.353950023651123
1781033638505280000,12.503280029296874,9.5110502243042,-0.9690000414848328,-2.496000051498413
1781033638524802600,12.522802490234374,9.700950622558594,-0.9949500560760498,-2.6920502185821533
1781033638544320800,12.54232080078125,9.831000328063965,-0.9439500570297241,-2.854950189590454
1781033638563838700,12.561838623046874,9.766050338745117,-0.89205002784729,-2.908050060272217
1781033638583362300,12.5813623046875,9.52500057220459,-0.8610000610351562,-2.82705020904541
1781033638602884900,12.600884765625,9.237000465393066,-0.8020500540733337,-2.7079501152038574
1781033638622405400,12.6204052734375,8.9239501953125,-0.7410000562667847,-2.6680500507354736
1781033638641929000,12.639928955078124,8.653050422668457,-0.6739500164985657,-2.776050090789795
1781033638661453000,12.659453125,8.5420503616333,-0.6199500560760498,-3.037950038909912
1781033638680976100,12.67897607421875,8.716050148010254,-0.6040500402450562,-3.424950122833252
1781033638700500500,12.69850048828125,9.118050575256348,-0.5869500041007996,-3.8650500774383545
1781033638720030000,12.718030029296875,9.56505012512207,-0.5419500470161438,-4.242000102996826
1781033638739558400,12.737558349609374,9.807000160217285,-0.4330500066280365,-4.5360002517700195
1781033638759083300,12.757083251953125,9.787050247192383,-0.25995001196861267,-4.654050350189209
1781033638778609700,12.776609619140626,9.631950378417969,-0.05205000191926956,-4.597949981689453
1781033638798136800,12.79613671875,9.409049987792969,0.11100000888109207,-4.429050445556641
1781033638817664000,12.8156640625,9.237000465393066,0.25005000829696655,-4.213050365447998
1781033638837191700,12.835191650390625,9.19005012512207,0.35805001854896545,-4.018050193786621
1781033638856714800,12.85471484375,9.20895004272461,0.46905001997947693,-3.885000228881836
1781033638876231400,12.8742314453125,9.172950744628906,0.5440500378608704,-3.81000018119812
1781033638895742700,12.89374267578125,9.034950256347656,0.5610000491142273,-3.7450501918792725
1781033638915250400,12.91325048828125,8.866950035095215,0.5580000281333923,-3.6880502700805664
1781033638934764300,12.932764404296876,8.81505012512207,0.49500003457069397,-3.6180002689361572
1781033638954285000,12.95228515625,9.025050163269043,0.527999997138977,-3.541950225830078
1781033638973807400,12.971807373046875,9.418950080871582,0.6280500292778015,-3.5190000534057617
1781033638993326000,12.991326171875,9.676950454711914,0.7939500212669373,-3.550950050354004
1781033639012842500,13.010842529296875,9.604050636291504,1.045050024986267,-3.592050075531006
1781033639032359700,13.030359619140626,9.17805004119873,1.2510000467300415,-3.5869500637054443
1781033639051876400,13.04987646484375,8.680950164794922,1.377000093460083,-3.633000135421753
1781033639071393300,13.069393310546875,8.433000564575195,1.4010000228881836,-3.8080501556396484
1781033639090912800,13.088912841796875,8.506050109863281,1.3420500755310059,-4.135950088500977
1781033639110430200,13.10843017578125,8.797050476074219,1.2550500631332397,-4.623000144958496
1781033639129945000,13.127945068359375,9.091950416564941,1.1340000629425049,-5.0400004386901855
1781033639149463000,13.147463134765625,9.313050270080566,1.0800000429153442,-5.356950283050537
1781033639168979700,13.166979736328125,9.468000411987305,1.1500500440597534,-5.671050071716309
1781033639188494000,13.186494140625,9.580950736999512,1.350000023841858,-5.989950180053711
1781033639208010500,13.206010498046876,9.562050819396973,1.6350001096725464,-6.331050395965576
1781033639227527700,13.225527587890625,9.367050170898438,1.9009500741958618,-6.61305046081543
1781033639247038200,13.2450380859375,9.013050079345703,2.095950126647949,-6.829050540924072
1781033639266546400,13.26454638671875,8.626049995422363,2.1640501022338867,-6.993000507354736
1781033639286056700,13.284056640625,8.40000057220459,2.134050130844116,-7.246950149536133
1781033639305571600,13.303571533203124,8.371050834655762,2.061000108718872,-7.684050559997559
1781033639325091000,13.323091064453125,8.380949974060059,1.9530000686645508,-8.158950805664062
1781033639344608800,13.34260888671875,8.325000762939453,1.8600001335144043,-8.68695068359375
1781033639364128800,13.362128662109376,8.0910005569458,1.8349500894546509,-9.205050468444824
1781033639383649800,13.38164990234375,7.612050533294678,1.894950032234192,-9.679950714111328
1781033639403169000,13.4011689453125,7.231050491333008,1.9620001316070557,-10.164000511169434
1781033639422686200,13.420686279296875,7.039950370788574,2.0089499950408936,-10.557000160217285
1781033639442201900,13.440201904296876,7.07295036315918,2.073000192642212,-10.747950553894043
1781033639461715700,13.4597158203125,7.246950149536133,2.2950000762939453,-10.77405071258545
1781033639481232400,13.479232421875,7.014000415802002,2.8350000381469727,-10.854000091552734
1781033639500750000,13.49875,3.61995005607605,3.3919501304626465,-10.797000885009766
1781033639520266800,13.518266845703126,3.6700501441955566,3.453000068664551,-10.39995002746582
1781033639539781000,13.537781005859374,5.725050449371338,0.6390000581741333,-7.1509504318237305
1781033639559291600,13.557291748046875,5.943000316619873,-1.0459500551223755,-1.5799500942230225
1781033639578804500,13.576804443359375,10.666950225830078,-3.586050271987915,0.5989500284194946
1781033639598321200,13.596321044921876,10.927950859069824,-4.857000350952148,1.0639500617980957
1781033639617837000,13.615837158203124,10.600950241088867,-2.370000123977661,-0.7939500212669373
1781033639637352400,13.6353525390625,10.81605052947998,-0.5100000500679016,-4.527000427246094
1781033639656870100,13.6548701171875,10.783050537109375,1.842000126838684,-4.882050037384033
1781033639676390100,13.67439013671875,10.617000579833984,4.14300012588501,-4.930950164794922
1781033639695908000,13.693908203125,10.599000930786133,5.944950103759766,-4.617000102996826
1781033639715423700,13.713423828125,10.761000633239746,6.229950428009033,-4.516050338745117
1781033639734941200,13.732941162109375,10.660950660705566,6.156000137329102,-4.630950450897217
1781033639754458000,13.7524580078125,10.273950576782227,2.379000186920166,-4.522950172424316
1781033639773974500,13.771974609375,8.539950370788574,-1.8130500316619873,-2.6700000762939453
1781033639793494800,13.791494873046876,8.511000633239746,-3.555000066757202,-2.241000175476074
1781033639813018000,13.81101806640625,8.631000518798828,-3.9210002422332764,-1.8760501146316528
1781033639832539100,13.8305390625,8.974050521850586,-2.290950059890747,-1.7370001077651978
1781033639852059000,13.850058837890625,9.307050704956055,-0.6390000581741333,-1.8460501432418823
1781033639871577900,13.869577880859374,9.205950736999512,1.603950023651123,-2.2920000553131104
1781033639891097000,13.88909716796875,8.731950759887695,3.277050256729126,-2.7109501361846924
1781033639910619100,13.908619140625,7.140000343322754,3.489000082015991,-3.019050121307373
1781033639930144300,13.928144287109374,6.744000434875488,3.3259501457214355,-3.040950059890747
1781033639949673200,13.947673095703125,6.355050086975098,2.800950050354004,-2.5380001068115234
1781033639969199900,13.967199951171875,5.9599504470825195,1.0009500980377197,-1.8889501094818115
1781033639988719000,13.986718994140626,5.367000102996826,-0.7960500121116638,-0.2160000056028366
1781033640008235800,14.00623583984375,4.945050239562988,-1.15500009059906,0.034950003027915955
1781033640027757000,14.025757080078124,5.208000183105469,-1.4500501155853271,0.15600000321865082
1781033640047282000,14.045281982421875,8.155050277709961,-1.201050043106079,0.003000000026077032
1781033640066804200,14.06480419921875,10.533000946044922,0.43095001578330994,-0.3750000298023224
1781033640086328300,14.084328369140625,10.866000175476074,1.9170000553131104,-0.7680000066757202
1781033640105851100,14.10385107421875,11.242950439453125,2.0500500202178955,-0.7300500273704529
1781033640125368300,14.123368408203126,11.548050880432129,1.8030000925064087,-0.28905001282691956
1781033640144883500,14.142883544921874,13.192950248718262,1.2510000467300415,0.3079500198364258
1781033640164394500,14.16239453125,13.53795051574707,-0.38700002431869507,2.0789999961853027
1781033640183906800,14.18190673828125,13.86405086517334,-0.6799500584602356,2.356950044631958
1781033640203426300,14.20142626953125,13.899001121520996,-0.9220500588417053,2.7739500999450684
1781033640222946600,14.220946533203126,11.950950622558594,-1.1440500020980835,3.1680002212524414
1781033640242467300,14.24046728515625,11.481000900268555,-0.8790000677108765,3.220050096511841
1781033640261990700,14.25999072265625,9.799050331115723,0.7909500598907471,2.860950231552124
1781033640281511400,14.279511474609375,7.930050373077393,0.9889500737190247,2.7090001106262207
1781033640301031700,14.29903173828125,7.7470502853393555,1.377000093460083,2.9629502296447754
1781033640320553500,14.318553466796875,7.735050201416016,1.8349500894546509,4.590000152587891
1781033640340073700,14.33807373046875,7.82205057144165,2.2099502086639404,5.014950275421143
1781033640359597600,14.35759765625,7.8160505294799805,2.5159502029418945,6.580050468444824
1781033640379120600,14.37712060546875,7.6870503425598145,2.7810001373291016,7.119000434875488
1781033640398644500,14.39664453125,7.4920501708984375,2.8950002193450928,8.56095027923584
1781033640418166300,14.416166259765625,7.440000534057617,2.9610002040863037,8.839950561523438
1781033640437685800,14.435685791015626,7.747950553894043,3.412950277328491,8.794950485229492
1781033640457209900,14.4552099609375,7.972050189971924,4.894050121307373,8.383049964904785
1781033640476733400,14.4747333984375,7.609950542449951,5.119950294494629,7.809000492095947
1781033640496255000,14.4942548828125,7.038000106811523,5.176050186157227,6.12000036239624
1781033640515781600,14.51378173828125,6.6160502433776855,4.855050086975098,5.7870001792907715
1781033640535311000,14.53331103515625,6.628050327301025,3.20205020904541,5.19795036315918
1781033640554835700,14.552835693359375,7.177950382232666,2.91795015335083,3.582000255584717
1781033640574355700,14.572355712890625,8.79104995727539,2.3580000400543213,3.136050224304199
1781033640593878500,14.59187841796875,9.115050315856934,0.7750500440597534,2.6770501136779785
1781033640613401900,14.61140185546875,9.466950416564941,0.3430500030517578,2.281949996948242
1781033640632924000,14.630923828125,9.726000785827637,-0.19305001199245453,1.990950107574463
1781033640652445200,14.650445068359375,9.726000785827637,-0.673050045967102,1.741050124168396
1781033640671967200,14.66996728515625,9.592050552368164,-1.1020500659942627,1.4380500316619873
1781033640691493600,14.68949365234375,9.534000396728516,-1.5750000476837158,1.1059499979019165
1781033640711021600,14.709021484375,9.658050537109375,-1.8739501237869263,0.7540500164031982
1781033640730547500,14.72854736328125,9.822000503540039,-1.9489500522613525,0.3820500075817108
1781033640750068700,14.74806884765625,9.690000534057617,-2.0179500579833984,0.20805001258850098
1781033640769590300,14.76759033203125,9.357000350952148,-2.1010501384735107,0.18405000865459442
1781033640789106700,14.787106689453125,9.148950576782227,-2.205000162124634,0.13395000994205475
1781033640808620000,14.8066201171875,9.330000877380371,-2.202000141143799,-0.09105000644922256
1781033640828135200,14.82613525390625,9.820950508117676,-1.8850500583648682,-0.544950008392334
1781033640847652600,14.845652587890624,10.13700008392334,-1.426050066947937,-1.0300500392913818
1781033640867177700,14.865177734375,10.020000457763672,-1.2690000534057617,-1.2820500135421753
1781033640886707200,14.884707275390625,9.55305004119873,-1.453950047492981,-1.2469500303268433
1781033640906236700,14.904236572265624,9.171000480651855,-1.6579500436782837,-1.1779500246047974
1781033640925765400,14.923765380859376,9.199050903320312,-1.6320000886917114,-1.228950023651123
1781033640945293000,14.94329296875,9.586050033569336,-1.3810501098632812,-1.4419500827789307
1781033640964816000,14.96281591796875,9.942000389099121,-1.201050043106079,-1.6309500932693481
1781033640984338200,14.982338134765625,9.996000289916992,-1.258950114250183,-1.6980000734329224
1781033641003861800,15.00186181640625,9.757050514221191,-1.4149500131607056,-1.6909500360488892
1781033641023384600,15.021384521484375,9.445050239562988,-1.432050108909607,-1.7299500703811646
1781033641042905900,15.04090576171875,9.313950538635254,-1.2709500789642334,-1.9210500717163086
1781033641062428400,15.060428466796875,9.417000770568848,-1.0300500392913818,-2.1739501953125
1781033641081952300,15.0799521484375,9.664950370788574,-0.9150000214576721,-2.376000165939331
1781033641101473300,15.099473388671875,9.81195068359375,-0.9559500217437744,-2.442000150680542
1781033641120996900,15.118996826171875,9.847050666809082,-1.024049997329712,-2.4030001163482666
1781033641140520400,15.1385205078125,9.792000770568848,-1.1100000143051147,-2.3740501403808594
1781033641160041500,15.15804150390625,9.687000274658203,-1.1220000982284546,-2.436000108718872
1781033641179563500,15.1775634765625,9.682950019836426,-0.9910500645637512,-2.6200501918792725
1781033641199089400,15.19708935546875,9.894000053405762,-0.7480500340461731,-2.893050193786621
1781033641218617900,15.216617919921875,10.138050079345703,-0.5329500436782837,-3.0709500312805176
1781033641238144300,15.236144287109376,10.231950759887695,-0.43605002760887146,-3.1060502529144287
1781033641257667300,15.255667236328126,10.108050346374512,-0.3960000276565552,-3.069000244140625
1781033641277191400,15.27519140625,9.760050773620605,-0.33900001645088196,-3.037050247192383
1781033641296718000,15.294718017578125,9.349950790405273,-0.2460000067949295,-3.076050043106079
1781033641316243500,15.314243408203126,9.08595085144043,-0.11700000613927841,-3.207000255584717
1781033641335765200,15.33376513671875,8.925000190734863,-0.031050002202391624,-3.369000196456909
1781033641355281000,15.353281005859374,8.794050216674805,-0.031950000673532486,-3.504000186920166
1781033641374797800,15.3727978515625,8.794950485229492,-0.07095000147819519,-3.6660001277923584
1781033641394320400,15.3923203125,8.848950386047363,-0.12495000660419464,-3.856950283050537
1781033641413839400,15.41183935546875,8.901000022888184,-0.19500000774860382,-4.024050235748291
1781033641433350100,15.43135009765625,8.908950805664062,-0.2770500183105469,-4.147950172424316
1781033641452862700,15.45086279296875,8.902950286865234,-0.3469500243663788,-4.198950290679932
1781033641472376600,15.47037646484375,8.893050193786621,-0.3859500288963318,-4.192950248718262
1781033641491889200,15.48988916015625,8.980050086975098,-0.3850500285625458,-4.183950424194336
1781033641511409200,15.5094091796875,9.169050216674805,-0.2850000262260437,-4.219050407409668
1781033641530933800,15.528933837890625,9.343050003051758,-0.11400000751018524,-4.213050365447998
1781033641550459000,15.548458984375,9.442049980163574,0.04005000367760658,-4.129050254821777
1781033641569984800,15.56798486328125,9.39900016784668,0.16905000805854797,-3.9930002689361572
1781033641589508000,15.587508056640624,9.26400089263916,0.3060000240802765,-3.9000000953674316
1781033641609023200,15.607023193359375,9.096000671386719,0.4459500312805176,-3.8310000896453857
1781033641628542200,15.626542236328126,8.923050880432129,0.5250000357627869,-3.81000018119812
1781033641648071400,15.646071533203125,8.838000297546387,0.5490000247955322,-3.825000286102295
1781033641667597600,15.66559765625,8.91195011138916,0.5089499950408936,-3.8200502395629883
1781033641687119600,15.68511962890625,9.03600025177002,0.43095001578330994,-3.8239502906799316
1781033641706638800,15.704638916015625,9.145950317382812,0.45600003004074097,-3.8299500942230225
1781033641726160600,15.72416064453125,9.157950401306152,0.6199500560760498,-3.8110501766204834
1781033641745683000,15.743682861328125,9.067950248718262,0.7999500632286072,-3.7450501918792725
1781033641765201400,15.763201416015624,8.93595027923584,0.9570000171661377,-3.7330501079559326
1781033641784723000,15.782722900390626,8.785950660705566,1.0860000848770142,-3.7770001888275146
1781033641804243000,15.802242919921875,8.62695026397705,1.1380500793457031,-3.870000123977661
1781033641823763000,15.821762939453125,8.475000381469727,1.1530500650405884,-3.9529502391815186
1781033641843284700,15.84128466796875,8.473050117492676,1.1400001049041748,-4.1010003089904785
1781033641862805800,15.8608056640625,8.682000160217285,1.0810500383377075,-4.420050144195557
1781033641882329000,15.8803291015625,8.964000701904297,0.9940500259399414,-4.915050029754639
1781033641901853200,15.899853271484375,9.063000679016113,0.8809500336647034,-5.4970502853393555
1781033641921380900,15.919380859375,8.937000274658203,0.7750500440597534,-5.983050346374512
1781033641940905200,15.9389052734375,8.743050575256348,0.76500004529953,-6.406050205230713
1781033641960426500,15.958426513671874,8.723999977111816,0.8250000476837158,-6.799050331115723
1781033641979953000,15.977952880859375,8.95305061340332,0.9690000414848328,-7.25100040435791
1781033641999480000,15.99747998046875,9.220050811767578,1.1100000143051147,-7.759950160980225
1781033642019002400,16.01700244140625,9.280950546264648,1.1269500255584717,-8.204999923706055
1781033642038518500,16.0365185546875,9.1360502243042,1.15500009059906,-8.677050590515137
1781033642058034000,16.056033935546875,8.896050453186035,1.2019500732421875,-9.20205020904541
1781033642077547300,16.07554736328125,8.664000511169434,1.2630000114440918,-9.747000694274902
1781033642097058300,16.095058349609374,8.482049942016602,1.3099501132965088,-10.22295093536377
1781033642116572400,16.114572509765626,8.293050765991211,1.2060000896453857,-10.504050254821777
1781033642136092200,16.134092041015624,8.023950576782227,1.0740000009536743,-10.581000328063965
1781033642155616000,16.153615966796874,7.4509501457214355,1.0200001001358032,-10.723050117492676
1781033642175139800,16.173139892578124,5.701050281524658,1.0639500617980957,-11.148000717163086
1781033642194667300,16.192667236328123,4.026000022888184,1.0080000162124634,-11.650050163269043
1781033642214195500,16.212195556640626,6.319050312042236,0.6700500249862671,-9.891000747680664
1781033642233723000,16.231722900390626,8.307000160217285,0.5959500074386597,-4.237950325012207
1781033642253249000,16.2512490234375,9.841950416564941,-0.895050048828125,0.20100000500679016
1781033642272774400,16.2707744140625,11.758950233459473,-1.4149500131607056,1.858950138092041
1781033642292303400,16.290303466796875,8.845050811767578,-1.5040500164031982,-0.009000000543892384
1781033642311833300,16.309833251953126,7.261050224304199,-1.1190000772476196,-4.105950355529785
1781033642331360300,16.3293603515625,7.387050151824951,2.4019501209259033,-4.723050117492676
1781033642350882800,16.3488828125,7.801050186157227,4.256999969482422,-5.017050266265869
1781033642370402800,16.36840283203125,8.14905071258545,4.083000183105469,-4.540050029754639
1781033642389924400,16.38792431640625,8.58495044708252,2.3050501346588135,-3.057000160217285
1781033642409447400,16.407447509765625,9.085050582885742,0.06195000186562538,-2.745000123977661
1781033642428970800,16.426970703125,9.522000312805176,-0.5509500503540039,-2.5360500812530518
1781033642448497700,16.44649755859375,10.098000526428223,-1.068000078201294,-2.4130501747131348
1781033642468022500,16.4660224609375,10.116000175476074,-1.5070500373840332,-2.275050163269043
1781033642487547600,16.485547607421875,9.816000938415527,-1.585050106048584,-2.3149502277374268
1781033642507074300,16.50507421875,9.178950309753418,0.10095000267028809,-2.505000114440918
1781033642526600700,16.5246005859375,7.651050567626953,0.547950029373169,-2.8060500621795654
1781033642546125800,16.544125732421875,7.678950309753418,1.0990500450134277,-3.205050230026245
1781033642565646800,16.563646728515625,7.765050411224365,1.1539500951766968,-3.2850000858306885
1781033642585166800,16.583166748046875,8.05305004119873,-0.4549500346183777,-3.0580501556396484
1781033642604690000,16.60268994140625,9.675000190734863,-0.7150500416755676,-2.545950174331665
1781033642624218000,16.622218017578124,9.951000213623047,-1.051050066947937,-0.9160500168800354
1781033642643747600,16.64174755859375,9.861000061035156,-1.2430500984191895,-0.7270500063896179
1781033642663272200,16.661272216796874,8.062950134277344,-1.168950080871582,-0.739050030708313
1781033642682796500,16.680796630859376,6.297000408172607,-0.9550500512123108,-0.6540000438690186
1781033642702315300,16.700315185546874,6.364050388336182,0.5989500284194946,-0.673050045967102
1781033642721828400,16.719828369140625,6.735000133514404,1.0780500173568726,-0.5879999995231628
1781033642741341000,16.7393408203125,8.520000457763672,1.6819500923156738,-0.25394999980926514
1781033642760852200,16.758852294921876,9.057000160217285,2.127000093460083,0.06195000186562538
1781033642780372000,16.7783720703125,9.70995044708252,2.0869500637054443,0.48705002665519714
1781033642799896800,16.797896728515624,11.33595085144043,1.6669501066207886,0.8290500640869141
1781033642819421400,16.81742138671875,11.944950103759766,1.0999500751495361,0.89805006980896
1781033642838948600,16.836948486328126,12.22095012664795,-0.6420000195503235,1.0350000858306885
1781033642858473000,16.856472900390624,12.285000801086426,-0.7680000066757202,1.0699501037597656
1781033642877996000,16.87599609375,10.684050559997559,-0.6180000305175781,1.0849500894546509
1781033642897520400,16.895520263671877,8.980950355529785,-0.23205001652240753,1.4640001058578491
1781033642917043000,16.91504296875,8.539050102233887,1.6549500226974487,1.9170000553131104
1781033642936564000,16.93456396484375,6.6469502449035645,1.6870501041412354,3.5340001583099365
1781033642956083500,16.95408349609375,6.117000102996826,1.503000020980835,3.8830502033233643
1781033642975605200,16.973605224609376,5.884950160980225,1.0849500894546509,5.602050304412842
1781033642995126800,16.993126708984374,6.23205041885376,0.7150500416755676,6.057000160217285
1781033643014645000,17.01264501953125,7.881000518798828,0.5610000491142273,7.698000431060791
1781033643034160400,17.032160400390627,9.77400016784668,0.6349500417709351,8.158050537109375
1781033643053675500,17.051675537109375,11.241000175476074,0.9510000348091125,8.506050109863281
1781033643073195000,17.071195068359376,11.41200065612793,1.3000500202178955,8.593050003051758
1781033643092716500,17.090716552734374,11.445000648498535,1.696950078010559,8.431950569152832
1781033643112235800,17.11023583984375,11.17905044555664,2.158050060272217,7.9710001945495605
1781033643131758000,17.129758056640625,9.535050392150879,2.5350000858306885,6.312000274658203
1781033643151282000,17.149281982421876,9.154050827026367,2.7589502334594727,5.989050388336182
1781033643170805800,17.1688056640625,7.2360005378723145,2.745000123977661,5.500950336456299
1781033643190329600,17.18832958984375,7.012950420379639,2.496000051498413,5.008950233459473
1781033643209848300,17.207848388671874,6.825000286102295,1.9950001239776611,4.603050231933594
1781033643229367600,17.227367431640626,6.891000270843506,0.5539500117301941,4.248000144958496
1781033643248892700,17.246892578125,7.390050411224365,0.22995001077651978,3.888000249862671
1781033643268420900,17.2664208984375,7.9960503578186035,-0.06599999964237213,3.5310001373291016
1781033643287949300,17.28594921875,8.413949966430664,-0.21705001592636108,3.261000156402588
1781033643307474000,17.305473876953126,8.575050354003906,-0.24000000953674316,3.1399500370025635
1781033643326994200,17.324994140625,8.41200065612793,-0.3750000298023224,3.06600022315979
1781033643346511600,17.34451171875,8.21505069732666,-0.6330000162124634,3.0139501094818115
1781033643366030800,17.36403076171875,8.313000679016113,-0.814050018787384,2.8369500637054443
1781033643385559600,17.3835595703125,8.566950798034668,-0.9150000214576721,2.496000051498413
1781033643405087200,17.403087158203125,8.752050399780273,-0.9720000624656677,2.098050117492676
1781033643424610000,17.422610107421875,8.677050590515137,-1.0720500946044922,1.7340000867843628
1781033643444133000,17.442133056640625,8.437050819396973,-1.300950050354004,1.4179500341415405
1781033643463657200,17.4616572265625,8.287050247192383,-1.4640001058578491,1.0549499988555908
1781033643483182000,17.48118212890625,8.308050155639648,-1.4830501079559326,0.598050057888031
1781033643502702600,17.50070263671875,8.3899507522583,-1.5370501279830933,0.1660500019788742
1781033643522228200,17.520228271484374,8.521950721740723,-1.7089500427246094,-0.16305001080036163
1781033643541751600,17.53975146484375,8.805000305175781,-2.0310001373291016,-0.3730500042438507
1781033643561273300,17.5592734375,9.270000457763672,-2.2740001678466797,-0.6409500241279602
1781033643580798000,17.5787978515625,9.799050331115723,-2.190000057220459,-1.0380001068115234
1781033643600318700,17.598318603515626,10.16100025177002,-2.0280001163482666,-1.4100000858306885
1781033643619839000,17.6178388671875,10.2610502243042,-2.110949993133545,-1.6560001373291016
1781033643639359000,17.63735888671875,10.189950942993164,-2.338050127029419,-1.7640000581741333
1781033643658883300,17.65688330078125,10.152000427246094,-2.5219500064849854,-1.8610501289367676
1781033643678405000,17.676405029296873,10.1089506149292,-2.455050230026245,-1.9930500984191895
1781033643697926400,17.695926513671875,10.027050018310547,-2.1259500980377197,-2.149049997329712
1781033643717452500,17.71545263671875,9.94005012512207,-1.9690500497817993,-2.2039501667022705
1781033643736976000,17.734975830078124,9.796050071716309,-2.035950183868408,-2.221950054168701
1781033643756493300,17.754493408203125,9.676050186157227,-2.1220500469207764,-2.3959500789642334
1781033643776013000,17.774012939453126,9.586950302124023,-2.1379501819610596,-2.6479501724243164
1781033643795534300,17.793534423828124,9.421050071716309,-1.990950107574463,-2.9059500694274902
1781033643815052800,17.813052734375,9.247050285339355,-1.894950032234192,-3.052950143814087
1781033643834569500,17.832569580078125,9.142950057983398,-2.0269501209259033,-3.112950086593628
1781033643854085400,17.85208544921875,9.124950408935547,-2.2159500122070312,-3.2290501594543457
1781033643873607200,17.871607177734376,9.292950630187988,-2.311950206756592,-3.424950122833252
1781033643893127700,17.891127685546873,9.571950912475586,-2.25600004196167,-3.646050214767456
1781033643912644400,17.910644287109374,9.772950172424316,-2.0350501537323,-3.8560502529144287
1781033643932162800,17.930162841796875,9.802950859069824,-1.6740000247955322,-3.976950168609619
1781033643951682300,17.949682373046876,9.597000122070312,-1.297950029373169,-4.011000156402588
1781033643971204600,17.96920458984375,9.19800090789795,-1.0380001068115234,-3.9660000801086426
1781033643990719500,17.988719482421875,8.805000305175781,-0.859950065612793,-3.8239502906799316
1781033644010228000,18.00822802734375,8.617050170898438,-0.7150500416755676,-3.744000196456909
1781033644029740300,18.027740234375,8.664000511169434,-0.6160500049591064,-3.7450501918792725
1781033644049259500,18.047259521484374,8.842050552368164,-0.492000013589859,-3.8149502277374268
1781033644068782000,18.066781982421876,8.9839506149292,-0.3820500075817108,-3.949050188064575
1781033644088303600,18.0863037109375,8.907000541687012,-0.30105000734329224,-4.008000373840332
1781033644107823000,18.105822998046875,8.66295051574707,-0.20205001533031464,-4.018050193786621
1781033644127341600,18.125341552734376,8.410050392150879,-0.10095000267028809,-4.033050060272217
1781033644146863000,18.144863037109374,8.242050170898438,-0.10095000267028809,-4.039050102233887
1781033644166383900,18.1643837890625,8.204999923706055,-0.3930000066757202,-4.033950328826904
1781033644185904400,18.183904296875,8.266050338745117,-1.0039499998092651,-3.991950273513794
1781033644205425400,18.20342529296875,8.526000022888184,-2.4469501972198486,-3.95805025100708
1781033644224946700,18.22294677734375,8.94795036315918,-2.6200501918792725,-3.9130501747131348
1781033644244467700,18.2424677734375,9.391950607299805,-2.605950117111206,-3.916950225830078
1781033644263989200,18.2619892578125,9.796950340270996,-2.350950002670288,-3.9379501342773438
1781033644283512300,18.28151220703125,10.011000633239746,-2.044950008392334,-3.873000144958496
1781033644303032000,18.301031982421875,9.985950469970703,-1.8240001201629639,-3.781050205230713
1781033644322550500,18.320550537109376,9.780000686645508,-1.615950107574463,-3.6259500980377197
1781033644342071800,18.34007177734375,9.430950164794922,-1.4050500392913818,-3.495000123977661
1781033644361591800,18.359591796875,9.073050498962402,-1.1830500364303589,-3.4110002517700195
1781033644381112600,18.379112548828125,8.854050636291504,-0.9439500570297241,-3.367950201034546
1781033644400632800,18.3986328125,8.797050476074219,-0.7440000176429749,-3.4429502487182617
1781033644420156200,18.41815625,8.860050201416016,-0.5989500284194946,-3.5250000953674316
1781033644439678500,18.437678466796875,8.932950019836426,-0.46095001697540283,-3.5910000801086426
1781033644459196200,18.457196044921876,8.94105052947998,-0.36195001006126404,-3.646050214767456
1781033644478714000,18.476714111328125,8.974950790405273,-0.3169500231742859,-3.6670501232147217
1781033644498231000,18.49623095703125,9.111000061035156,-0.2370000183582306,-3.7770001888275146
1781033644517747200,18.515747314453126,9.295050621032715,-0.15405000746250153,-4.012050151824951
1781033644537266400,18.535266357421875,9.298050880432129,-0.05295000225305557,-4.381050109863281
1781033644556787700,18.55478759765625,9.094950675964355,0.010950000956654549,-4.875
1781033644576306200,18.57430615234375,8.817000389099121,-0.028050001710653305,-5.4150004386901855
1781033644595826000,18.593825927734375,8.632950782775879,-0.019050000235438347,-6.001950263977051
1781033644615346400,18.613346435546877,8.623050689697266,0.09300000220537186,-6.595950126647949
1781033644634862300,18.6328623046875,8.745000839233398,0.3169500231742859,-7.129950523376465
1781033644654380800,18.652380859375,8.77500057220459,0.5899500250816345,-7.593000411987305
1781033644673911600,18.67191162109375,8.629950523376465,0.778950035572052,-7.9860005378723145
1781033644693441500,18.691441650390626,8.395950317382812,0.8179500102996826,-8.394000053405762
1781033644712960800,18.710960693359375,8.146050453186035,0.736050009727478,-8.976000785827637
1781033644732482300,18.730482421875,7.852050304412842,0.6349500417709351,-10.53600025177002
1781033644752006000,18.750005859375,7.491000175476074,0.5119500160217285,-11.035050392150879
1781033644771530800,18.76953076171875,7.078050136566162,0.3720000088214874,-11.613000869750977
1781033644791052500,18.789052490234376,6.732000350952148,0.23895001411437988,-12.037050247192383
1781033644810572800,18.80857275390625,6.469050407409668,0.12495000660419464,-12.295050621032715
1781033644830098000,18.828097900390624,5.94195032119751,0.1879500150680542,-12.496950149536133
1781033644849623800,18.847623779296875,2.622000217437744,0.4240500330924988,-12.814950942993164
1781033644869147000,18.86714697265625,5.63100004196167,0.534000039100647,-12.511950492858887
1781033644888667000,18.8866669921875,10.87605094909668,0.8740500211715698,-7.555050373077393
1781033644908190700,18.906190673828124,13.50195026397705,2.1510000228881836,-2.956050157546997
1781033644927715300,18.92571533203125,17.235000610351562,-0.35895001888275146,-0.8490000367164612
1781033644947241200,18.9452412109375,14.976000785827637,-0.6079500317573547,-0.5209500193595886
1781033644966765800,18.964765869140624,11.605950355529785,-0.6619500517845154,-3.3190500736236572
1781033644986289400,18.984289306640626,9.57300090789795,-0.5470499992370605,-3.9559502601623535
1781033645005815000,19.00381494140625,7.7310004234313965,2.458050012588501,-4.263000011444092
1781033645025337300,19.02333740234375,5.769000053405762,2.805000066757202,-3.934950113296509
1781033645044855800,19.042855712890624,3.9760501384735107,2.593950033187866,-1.957050085067749
1781033645064371000,19.062370849609376,4.293000221252441,1.141950011253357,-1.7880001068115234
1781033645083889700,19.0818896484375,6.469950199127197,0.8029500246047974,-2.076000213623047
1781033645103413000,19.1014130859375,8.991000175476074,0.34995001554489136,-2.3490002155303955
1781033645122935800,19.120935791015626,10.950000762939453,-0.16200000047683716,-2.524050235748291
1781033645142460200,19.140460205078124,11.086050987243652,-0.556950032711029,-2.7520501613616943
1781033645161984300,19.159984375,10.737000465393066,-0.7260000109672546,-2.814000129699707
1781033645181510700,19.1795107421875,8.71095085144043,-0.5130000114440918,-2.7139501571655273
1781033645201039400,19.199039306640625,8.260050773620605,0.0499500036239624,-2.5069501399993896
1781033645220566500,19.21856640625,7.957050323486328,0.6720000505447388,-2.092050075531006
1781033645240090400,19.23809033203125,7.821000576019287,1.1400001049041748,-1.7670000791549683
1781033645259608300,19.2576083984375,8.019000053405762,1.380000114440918,-1.7070001363754272
1781033645279123000,19.277123046875,8.14995002746582,1.2990000247955322,-1.7040001153945923
1781033645298631700,19.296631591796874,8.122050285339355,0.9739500284194946,-1.6849501132965088
1781033645318136800,19.31613671875,8.11500072479248,0.44805002212524414,-1.4689500331878662
1781033645337651200,19.335651123046876,8.23905086517334,-0.10305000841617584,-1.1160000562667847
1781033645357172700,19.3551728515625,8.638050079345703,-0.34095001220703125,-0.9529500603675842
1781033645376693000,19.37469287109375,9.15000057220459,-0.3439500033855438,-0.8910000324249268
1781033645396215000,19.394215087890625,9.400050163269043,-0.11295000463724136,-0.8380500674247742
1781033645415737600,19.413737548828124,9.407999992370605,0.32295000553131104,-0.6540000438690186
1781033645435260400,19.433260498046874,9.153000831604004,0.6330000162124634,-0.1980000138282776
1781033645454785500,19.45278564453125,8.91195011138916,0.9559500217437744,0.39000001549720764
1781033645474311000,19.472310791015627,9.22605037689209,1.2720000743865967,2.193000078201294
1781033645493829400,19.491829345703124,9.705000877380371,1.4380500316619873,2.3740501403808594
1781033645513345000,19.511344970703124,10.225050926208496,1.4830501079559326,2.6460001468658447
1781033645532864800,19.53086474609375,10.642950057983398,1.3470001220703125,2.817000150680542
1781033645552385800,19.5503857421875,10.545000076293945,1.1980500221252441,2.980950117111206
1781033645571905000,19.569905029296876,10.291950225830078,1.2540000677108765,3.1560001373291016
1781033645591424800,19.5894248046875,8.713950157165527,1.3639500141143799,3.38100004196167
1781033645610944800,19.60894482421875,8.329050064086914,1.2930001020431519,3.8970000743865967
1781033645630465300,19.62846533203125,7.7310004234313965,0.9439500570297241,5.482950210571289
1781033645649987800,19.64798779296875,7.158000469207764,-0.7189500331878662,7.636050224304199
1781033645669508400,19.66750830078125,7.002000331878662,-0.7810500264167786,8.06100082397461
1781033645689028400,19.6870283203125,7.255950450897217,-0.6469500064849854,8.62695026397705
1781033645708554500,19.706554443359376,7.746000289916992,-0.2050500065088272,9.001049995422363
1781033645728087000,19.726087158203125,8.235000610351562,1.321950078010559,8.890050888061523
1781033645747616300,19.7456162109375,8.385000228881836,1.76895010471344,8.311050415039062
1781033645767141000,19.76514111328125,8.236949920654297,2.1690001487731934,6.814050197601318
1781033645786664400,19.78466455078125,7.981050491333008,2.4379501342773438,6.382950305938721
1781033645806186500,19.8041865234375,7.642950534820557,2.4370501041412354,5.820000171661377
1781033645825708500,19.82370849609375,7.590000152587891,2.0779500007629395,5.320050239562988
1781033645845231000,19.843231201171875,7.7500505447387695,1.5540000200271606,3.690000057220459
1781033645864757500,19.862757568359374,7.9170002937316895,0.013050000183284283,3.4870500564575195
1781033645884281300,19.88228125,8.071050643920898,-1.659000039100647,3.258000135421753
1781033645903796500,19.90179638671875,8.128950119018555,-2.02305006980896,3.2130000591278076
1781033645923308000,19.92130810546875,8.290950775146484,-2.568000078201294,3.3799500465393066
1781033645942823700,19.94082373046875,8.634000778198242,-2.9440500736236572,3.5220000743865967
1781033645962342400,19.96034228515625,9.001049995422363,-3.0430500507354736,3.52305006980896
1781033645981860900,19.97986083984375,9.15195083618164,-2.9790000915527344,3.3960001468658447
1781033646001382700,19.999382568359376,8.992950439453125,-2.8819501399993896,3.1969501972198486
1781033646020905700,20.01890576171875,8.635950088500977,-2.9029500484466553,2.9950501918792725
1781033646040427800,20.038427734375,8.236050605773926,-3.1740002632141113,2.8320000171661377
1781033646059949600,20.057949462890626,8.11305046081543,-3.6070501804351807,2.647050142288208
1781033646079468000,20.077468017578123,8.443950653076172,-3.895050287246704,2.376000165939331
1781033646098987000,20.096987060546876,8.961000442504883,-3.9460501670837402,2.020050048828125
1781033646118506800,20.1165068359375,9.364950180053711,-3.790950298309326,1.651050090789795
1781033646138029000,20.136029052734376,9.451050758361816,-3.66195011138916,1.3339500427246094
1781033646157552000,20.15555224609375,9.177000045776367,-3.759000062942505,1.144950032234192
1781033646177074000,20.175073974609376,8.884050369262695,-3.89805006980896,1.059000015258789
1781033646196596000,20.194595947265626,8.782950401306152,-3.9100501537323,0.9540000557899475
1781033646216119300,20.214119384765624,8.902950286865234,-3.721050262451172,0.7800000309944153
1781033646235638000,20.233637939453125,9.064949989318848,-3.5500502586364746,0.595050036907196
1781033646255151400,20.2531513671875,9.045000076293945,-3.5380501747131348,0.42600002884864807
1781033646274664200,20.272664306640625,9.013050079345703,-3.4999501705169678,0.3150000274181366
1781033646294181400,20.292181396484374,9.097949981689453,-3.306000232696533,0.1770000010728836
1781033646313702400,20.311702392578123,9.25005054473877,-3.0349502563476562,0.0019500000635161996
1781033646333220400,20.331220458984376,9.370050430297852,-2.8410000801086426,-0.12405000627040863
1781033646352736000,20.350736083984376,9.375,-2.7880501747131348,-0.2749500274658203
1781033646372256300,20.37025634765625,9.237000465393066,-2.7559502124786377,-0.4759500324726105
1781033646391776300,20.3897763671875,9.133049964904785,-2.6110501289367676,-0.7459500432014465
1781033646411294200,20.409294189453124,9.127050399780273,-2.431950092315674,-0.9760500192642212
1781033646430813000,20.42881298828125,9.12600040435791,-2.2900500297546387,-1.081950068473816
1781033646450333200,20.448333251953127,9.108000755310059,-2.200050115585327,-1.1149500608444214
1781033646469855500,20.46785546875,9.069000244140625,-2.1559500694274902,-1.1770501136779785
1781033646489376800,20.487376708984375,9.04800033569336,-2.110949993133545,-1.3120501041412354
1781033646508900900,20.50690087890625,9.052950859069824,-2.152050018310547,-1.5079500675201416
1781033646528424400,20.526424560546875,9.09000015258789,-2.2260000705718994,-1.7220001220703125
1781033646547940600,20.545940673828124,9.166050910949707,-2.2579500675201416,-1.9350000619888306
1781033646567451600,20.56545166015625,9.2920503616333,-2.2069501876831055,-2.146050214767456
1781033646586964000,20.5849638671875,9.38895034790039,-2.02905011177063,-2.3899500370025635
1781033646606478800,20.604478759765627,9.34005069732666,-1.8480000495910645,-2.608950138092041
1781033646626000600,20.624000732421877,9.144000053405762,-1.696950078010559,-2.7079501152038574
1781033646645524700,20.643524658203123,8.914950370788574,-1.6320000886917114,-2.7589502334594727
1781033646665047000,20.663047119140625,8.82194995880127,-1.6410000324249268,-2.803950071334839
1781033646684571100,20.682571044921875,8.895000457763672,-1.6459500789642334,-2.9130001068115234
1781033646704090400,20.70209033203125,8.96505069732666,-1.7260501384735107,-3.1080000400543213
1781033646723608600,20.721608642578126,8.971050262451172,-1.801050066947937,-3.3349502086639404
1781033646743131000,20.741130859375,8.994000434875488,-1.8160500526428223,-3.532050132751465
1781033646762655700,20.76065576171875,9.046050071716309,-1.8310500383377075,-3.6499502658843994
1781033646782180000,20.78018017578125,9.180000305175781,-1.7779500484466553,-3.756000280380249
1781033646801704700,20.79970458984375,9.360000610351562,-1.725000023841858,-3.826050281524658
1781033646821230800,20.81923095703125,9.493950843811035,-1.6669501066207886,-3.89805006980896
1781033646840752400,20.83875244140625,9.540000915527344,-1.5510001182556152,-3.9430501461029053
1781033646860278000,20.858278076171874,9.504000663757324,-1.3540500402450562,-3.876000165939331
1781033646879807500,20.877807373046874,9.459000587463379,-1.0750499963760376,-3.7740001678466797
1781033646899331800,20.897331787109376,9.463950157165527,-0.739050030708313,-3.6610500812530518
1781033646918854400,20.9168544921875,9.433050155639648,-0.4240500330924988,-3.61995005607605
1781033646938379000,20.93637890625,9.375,-0.2770500183105469,-3.5970001220703125
1781033646957905000,20.95590478515625,9.324000358581543,-0.28200000524520874,-3.5329501628875732
1781033646977431000,20.97543115234375,9.306000709533691,-0.3859500288963318,-3.4729502201080322
1781033646996953000,20.994953125,9.388050079345703,-0.48705002665519714,-3.4270501136779785
1781033647016474000,21.01447412109375,9.433950424194336,-0.5110500454902649,-3.415950059890747
1781033647035995600,21.03399560546875,9.40095043182373,-0.45705002546310425,-3.4240500926971436
1781033647055515000,21.053514892578125,9.333000183105469,-0.38805001974105835,-3.3859500885009766
1781033647075035000,21.073034912109375,9.2920503616333,-0.41895002126693726,-3.324000120162964
1781033647094555400,21.092555419921876,9.336000442504883,-0.4710000157356262,-3.2850000858306885
1781033647114078500,21.112078369140626,9.325050354003906,-0.47700002789497375,-3.2539501190185547
1781033647133602300,21.131602294921876,9.20205020904541,-0.4440000355243683,-3.2179501056671143
1781033647153124600,21.15112451171875,9.025050163269043,-0.33705002069473267,-3.1399500370025635
1781033647172644900,21.170644775390624,8.869050025939941,-0.2370000183582306,-3.0799500942230225
1781033647192162000,21.190162109375,8.788949966430664,-0.21105000376701355,-3.0400500297546387
1781033647211680000,21.209679931640625,8.770950317382812,-0.2350500077009201,-3.046950101852417
1781033647231203600,21.22920361328125,8.81100082397461,-0.2689500153064728,-3.1150500774383545
1781033647250726700,21.2487265625,8.914050102233887,-0.28200000524520874,-3.207000255584717
1781033647270249700,21.268249755859376,9.010050773620605,-0.28200000524520874,-3.343050241470337
1781033647289771300,21.287771240234374,8.995050430297852,-0.25005000829696655,-3.481950283050537
1781033647309289500,21.30728955078125,8.872050285339355,-0.20805001258850098,-3.5749502182006836
1781033647328807200,21.32680712890625,8.707950592041016,-0.1770000010728836,-3.681000232696533
1781033647348329500,21.34632958984375,8.656050682067871,-0.11205000430345535,-3.853950262069702
1781033647367851800,21.365851806640624,8.695050239562988,-0.046950001269578934,-4.0410003662109375
1781033647387373800,21.385373779296874,8.701050758361816,-0.015000000596046448,-4.2330002784729
1781033647406895900,21.404895751953124,8.622000694274902,-0.018000001087784767,-4.414050102233887
1781033647426414300,21.424414306640625,8.557050704956055,-0.015000000596046448,-4.672950267791748
1781033647445934000,21.44393408203125,8.569950103759766,-0.006000000052154064,-5.055000305175781
1781033647465457000,21.463456787109376,8.622000694274902,0.016950000077486038,-5.520000457763672
1781033647484980700,21.482980712890626,8.65095043182373,0.07095000147819519,-6.001950263977051
1781033647504504300,21.50250439453125,8.626049995422363,0.15300001204013824,-6.4170002937316895
1781033647524032000,21.522031982421876,8.545050621032715,0.2530499994754791,-6.738000392913818
1781033647543564800,21.541564697265624,8.511000633239746,0.37005001306533813,-7.024050235748291
1781033647563095000,21.561094970703124,8.3899507522583,0.45795002579689026,-7.4320502281188965
1781033647582619100,21.580619140625,8.011950492858887,0.4459500312805176,-9.08595085144043
1781033647602141000,21.600140869140624,7.474050521850586,0.39000001549720764,-9.529950141906738
1781033647621663500,21.61966357421875,6.8710503578186035,0.36900001764297485,-11.338950157165527
1781033647641186600,21.6391865234375,6.292050361633301,0.5059500336647034,-11.941950798034668
1781033647660711200,21.658711181640626,4.516050338745117,0.7519500255584717,-12.583050727844238
1781033647680236000,21.678236083984373,4.110000133514404,1.0080000162124634,-13.11405086517334
1781033647699759000,21.697759033203123,2.5849502086639404,1.27305006980896,-15.003000259399414
1781033647719281200,21.71728125,0.820050060749054,1.2490500211715698,-15.199050903320312
1781033647738807800,21.736807861328124,6.300000190734863,-0.8929500579833984,-12.571950912475586
1781033647758335000,21.7563349609375,14.802000999450684,-1.3030500411987305,-6.904950141906738
1781033647777859000,21.775859130859374,20.952001571655273,-4.207050323486328,-1.5400500297546387
1781033647797382700,21.795382568359376,24.59400177001953,-5.925000190734863,0.5910000205039978
1781033647816899300,21.8148994140625,20.56800079345703,-7.240050315856934,0.3570000231266022
1781033647836412000,21.834411865234376,13.330050468444824,-6.901050090789795,-4.06695032119751
1781033647855934000,21.853933837890626,8.596050262451172,-4.075050354003906,-4.558050155639648
1781033647875459600,21.87345947265625,5.839950084686279,-0.30000001192092896,-4.588950157165527
1781033647894985500,21.8929853515625,3.7159502506256104,1.6639500856399536,-2.955000162124634
1781033647914510300,21.91251025390625,2.0789999961853027,3.3799500465393066,-2.476950168609619
1781033647934032000,21.932031982421876,0.17505000531673431,3.312000274658203,-1.9549500942230225
1781033647953557500,21.9515576171875,0.3150000274181366,1.5169501304626465,-1.7910001277923584
1781033647973083400,21.97108349609375,3.9240002632141113,-0.4720500111579895,-1.9390500783920288
1781033647992608800,21.99060888671875,8.44694995880127,-2.328000068664551,-2.247000217437744
1781033648012134000,22.0101337890625,11.641950607299805,-2.63700008392334,-2.7120001316070557
1781033648031661300,22.029661376953126,12.211950302124023,-2.7709500789642334,-3.0229501724243164
1781033648051188500,22.0491884765625,12.370050430297852,-2.4850502014160156,-3.0679502487182617
1781033648070712000,22.068712158203127,10.14900016784668,-0.5490000247955322,-3.145050048828125
1781033648090238700,22.08823876953125,7.4509501457214355,-0.18105000257492065,-2.968050241470337
1781033648109770800,22.107770751953126,5.599050045013428,0.27300000190734863,-2.5729501247406006
1781033648129299700,22.1272998046875,4.116000175476074,0.5350500345230103,-2.152050018310547
1781033648148825000,22.1468251953125,3.936000108718872,0.3330000042915344,-1.6080000400543213
1781033648168351200,22.166351318359375,5.494950294494629,-1.4880000352859497,-1.3240500688552856
1781033648187877400,22.18587744140625,8.926050186157227,-1.924950122833252,-1.3480501174926758
1781033648207404500,22.205404541015625,11.641950607299805,-2.4979500770568848,-1.3680000305175781
1781033648226933200,22.224933349609376,13.59795093536377,-2.634000062942505,-1.4620500802993774
1781033648246461000,22.2444609375,13.63800048828125,-1.0300500392913818,-1.5460500717163086
1781033648265986000,22.263986083984374,10.782000541687012,0.753000020980835,-1.4710500240325928
1781033648285512000,22.283511962890625,7.795050144195557,1.2420001029968262,-1.117050051689148
1781033648305035800,22.303035888671875,5.877000331878662,1.8760501146316528,0.7380000352859497
1781033648324558800,22.322558837890625,5.629950046539307,2.3770501613616943,0.9799500703811646
1781033648344084700,22.342084716796876,5.9659504890441895,2.364000082015991,1.5319501161575317
1781033648363608600,22.361608642578126,8.204999923706055,1.8720000982284546,2.098050117492676
1781033648383131600,22.381131591796876,11.779950141906738,1.2990000247955322,2.485950231552124
1781033648402655200,22.4006552734375,13.615050315856934,0.7270500063896179,2.8159501552581787
1781033648422178800,22.4201787109375,13.558950424194336,0.4129500091075897,3.016050100326538
1781033648441702100,22.4397021484375,13.086000442504883,0.3150000274181366,3.3640501499176025
1781033648461223200,22.45922314453125,9.574950218200684,0.07605000585317612,3.9469501972198486
1781033648480742700,22.47874267578125,7.297050476074219,-0.28095000982284546,5.514000415802002
1781033648500260400,22.49826025390625,6.957000255584717,-0.6990000605583191,7.135050296783447
1781033648519783200,22.517783203125,6.67995023727417,-1.0860000848770142,7.3999505043029785
1781033648539309600,22.5373095703125,6.820950508117676,-1.2499500513076782,7.885050296783447
1781033648558835700,22.556835693359375,7.333950519561768,-1.2460500001907349,8.461050033569336
1781033648578363100,22.576363037109374,7.82205057144165,-1.1080501079559326,8.952000617980957
1781033648597889000,22.595888916015625,8.068050384521484,-0.7849500179290771,9.304950714111328
1781033648617416200,22.615416259765624,8.062950134277344,-0.34800001978874207,9.4350004196167
1781033648636942300,22.6349423828125,7.879050254821777,1.3830000162124634,9.190950393676758
1781033648656468200,22.65446826171875,7.627050399780273,1.6840500831604004,7.288950443267822
1781033648675999500,22.67399951171875,7.194000244140625,1.9429501295089722,6.847050189971924
1781033648695530500,22.693530517578125,6.7099504470825195,1.765950083732605,5.314950466156006
1781033648715059000,22.713058837890625,6.50100040435791,1.2079501152038574,4.959000110626221
1781033648734582800,22.732582763671875,6.741000175476074,-0.5140500068664551,4.630950450897217
1781033648754102300,22.752102294921876,7.272000312805176,-2.196000099182129,4.375050067901611
1781033648773624300,22.771624267578126,7.783950328826904,-2.5950000286102295,4.1419501304626465
1781033648793147600,22.791147705078124,8.134050369262695,-3.2410502433776855,3.9720001220703125
1781033648812670200,22.810670166015626,8.479050636291504,-3.6949501037597656,3.853950262069702
1781033648832190700,22.830190673828124,8.838000297546387,-3.748950242996216,3.699000120162964
1781033648851712800,22.849712646484374,8.968050003051758,-3.5839502811431885,3.5329501628875732
1781033648871238400,22.86923828125,8.734050750732422,-3.595050096511841,3.3600001335144043
1781033648890765300,22.888765380859375,8.311050415039062,-3.819000244140625,3.186000108718872
1781033648910295000,22.908294921875,8.107950210571289,-3.9910502433776855,2.9770500659942627
1781033648929825500,22.927825439453127,8.190000534057617,-3.9100501537323,2.683950185775757
1781033648949352700,22.947352783203126,8.371050834655762,-3.6660001277923584,2.3989500999450684
1781033648968876500,22.96687646484375,8.367000579833984,-3.496950149536133,2.2009501457214355
1781033648988399400,22.9863994140625,8.13705062866211,-3.4990501403808594,2.0590500831604004
1781033649007923700,23.005923828125,8.017050743103027,-3.496950149536133,1.9650001525878906
1781033649027447800,23.02544775390625,8.083050727844238,-3.3520500659942627,1.8250501155853271
1781033649046974500,23.044974365234374,8.245050430297852,-3.1660501956939697,1.6500000953674316
1781033649066501000,23.064501220703125,8.47095012664795,-2.9580001831054688,1.4269500970840454
1781033649086026500,23.084026611328124,8.644950866699219,-2.67900013923645,1.1149500608444214
1781033649105551000,23.103551025390626,8.716950416564941,-2.385000228881836,0.859950065612793
1781033649125075700,23.12307568359375,8.581950187683105,-2.2139999866485596,0.703950047492981
1781033649144595000,23.142594970703126,8.278050422668457,-2.2759501934051514,0.6400500535964966
1781033649164113000,23.16211279296875,8.082000732421875,-2.4750001430511475,0.6160500049591064
1781033649183635500,23.181635498046877,8.232000350952148,-2.5990500450134277,0.5100000500679016
1781033649203158000,23.201157958984375,8.644950866699219,-2.6299500465393066,0.3660000264644623
1781033649222686700,23.220686767578126,9.013050079345703,-2.7690000534057617,0.27900001406669617
1781033649242217000,23.240217041015626,9.084000587463379,-3.0139501094818115,0.22395001351833344
1781033649261745200,23.2597451171875,8.956950187683105,-3.29295015335083,0.16305001080036163
1781033649281272000,23.27927197265625,8.859000205993652,-3.5350501537323,0.06705000251531601
1781033649300795400,23.29879541015625,8.914950370788574,-3.664950132369995,-0.14805001020431519
1781033649320324600,23.31832470703125,9.097949981689453,-3.687000274658203,-0.5160000324249268
1781033649339859200,23.337859130859375,9.142950057983398,-3.6349501609802246,-1.0200001001358032
1781033649359391200,23.35739111328125,9.064949989318848,-3.472050189971924,-1.5310500860214233
1781033649378925300,23.37692529296875,8.946000099182129,-3.172950267791748,-1.9410001039505005
1781033649398462700,23.396462646484373,8.793000221252441,-2.956050157546997,-2.2489500045776367
1781033649417997600,23.41599755859375,8.617950439453125,-2.9070000648498535,-2.4910500049591064
1781033649437531000,23.43553076171875,8.584050178527832,-2.9950501918792725,-2.754000186920166
1781033649457065200,23.455065185546875,8.686050415039062,-3.142050266265869,-3.0040502548217773
1781033649476598300,23.474598388671875,8.896050453186035,-3.252000093460083,-3.1470000743865967
1781033649496128800,23.494128662109375,9.238950729370117,-3.2530500888824463,-3.226950168609619
1781033649515660300,23.513660400390624,9.520950317382812,-3.1279501914978027,-3.361950159072876
1781033649535191600,23.533191650390624,9.646050453186035,-2.968950033187866,-3.6150002479553223
1781033649554717400,23.552717529296874,9.52695083618164,-2.8120501041412354,-3.9030001163482666
1781033649574244900,23.572244873046873,9.145950317382812,-2.7049500942230225,-4.084050178527832
1781033649593778200,23.591778076171874,8.764050483703613,-2.6290500164031982,-4.135050296783447
1781033649613312300,23.611312255859374,8.530950546264648,-2.5309500694274902,-4.2019500732421875
1781033649632843800,23.63084375,8.48805046081543,-2.4340500831604004,-4.3630499839782715
1781033649652371500,23.650371337890626,8.63700008392334,-2.3839499950408936,-4.546950340270996
1781033649671899100,23.669899169921877,8.758049964904785,-2.3389501571655273,-4.749000072479248
1781033649691427300,23.68942724609375,8.842950820922852,-2.25600004196167,-4.8070502281188965
1781033649710961400,23.70896142578125,9.007050514221191,-2.1090002059936523,-4.767000198364258
1781033649730498300,23.728498291015626,9.166050910949707,-1.8880500793457031,-4.812000274658203
1781033649750025700,23.748025634765625,9.184050559997559,-1.696950078010559,-4.88100004196167
1781033649769555200,23.76755517578125,9.013050079345703,-1.5460500717163086,-4.861050128936768
1781033649789089300,23.78708935546875,8.773950576782227,-1.3860000371932983,-4.753950119018555
1781033649808616200,23.8066162109375,8.686050415039062,-1.1479500532150269,-4.599000453948975
1781033649828136000,23.826135986328126,8.850000381469727,-0.8380500674247742,-4.480050086975098
1781033649847649500,23.8456494140625,9.172050476074219,-0.5179499983787537,-4.474050045013428
1781033649867160300,23.865160400390625,9.325950622558594,-0.325950026512146,-4.531050205230713
1781033649886673000,23.8846728515625,9.2160005569458,-0.32295000553131104,-4.53000020980835
1781033649906189300,23.904189208984373,8.965950012207031,-0.3940500319004059,-4.431000232696533
1781033649925706500,23.92370654296875,8.746050834655762,-0.4620000123977661,-4.34505033493042
1781033649945228300,23.943228271484376,8.671050071716309,-0.4620000123977661,-4.282950401306152
1781033649964749000,23.9627490234375,8.634000778198242,-0.4510500133037567,-4.23900032043457
1781033649984266000,23.982265869140626,8.526000022888184,-0.4630500078201294,-4.126950263977051
1781033650003785500,24.001785400390624,8.407050132751465,-0.47895002365112305,-3.936000108718872
1781033650023302000,24.021302001953124,8.395950317382812,-0.4710000157356262,-3.7230002880096436
1781033650042815200,24.040815185546876,8.475000381469727,-0.35295000672340393,-3.595050096511841
1781033650062330600,24.06033056640625,8.599950790405273,-0.21705001592636108,-3.5380501747131348
1781033650081848300,24.079848388671873,8.63700008392334,-0.09300000220537186,-3.453000068664551
1781033650101364700,24.09936474609375,8.599950790405273,-0.003000000026077032,-3.3760502338409424
1781033650120875800,24.118875732421873,8.677950859069824,0.0499500036239624,-3.343050241470337
1781033650140384500,24.138384521484376,8.815950393676758,0.13095000386238098,-3.433950185775757
1781033650159895000,24.15789501953125,8.964000701904297,0.21300001442432404,-3.6700501441955566
1781033650179405600,24.177405517578126,8.94795036315918,0.2160000056028366,-3.865950107574463
1781033650198917600,24.196917724609374,8.7610502243042,0.14400000870227814,-3.9559502601623535
1781033650218434600,24.2164345703125,8.646000862121582,0.0690000057220459,-3.9810001850128174
1781033650237951500,24.235951416015624,8.740950584411621,0.010050000622868538,-4.042050361633301
1781033650257464300,24.25546435546875,8.946000099182129,0.030000001192092896,-4.203000068664551
1781033650276978200,24.274978271484375,9.130050659179688,0.09495000541210175,-4.394999980926514
1781033650296498700,24.294498779296877,9.24000072479248,0.10005000233650208,-4.588050365447998
1781033650316019500,24.31401953125,9.270000457763672,0.07905000448226929,-4.794000148773193
1781033650335533600,24.333533447265626,9.357000350952148,0.0799500048160553,-5.086050033569336
1781033650355051000,24.353051025390624,9.442049980163574,0.14100000262260437,-5.47005033493042
1781033650374570500,24.372570556640625,9.369000434875488,0.2440500110387802,-5.904000282287598
1781033650394087200,24.392087158203125,9.13800048828125,0.33195000886917114,-6.32895040512085
1781033650413604000,24.41160400390625,8.85105037689209,0.3769500255584717,-6.7099504470825195
1781033650433122600,24.43112255859375,8.671950340270996,0.40095001459121704,-7.036050319671631
1781033650452638000,24.450637939453124,8.650050163269043,0.45900002121925354,-7.374000549316406
1781033650472152300,24.47015234375,8.682000160217285,0.5389500260353088,-7.705050468444824
1781033650491664400,24.489664306640623,8.667000770568848,0.597000002861023,-8.088000297546387
1781033650511174100,24.509174072265626,8.557050704956055,0.6169500350952148,-8.604000091552734
1781033650530688500,24.5286884765625,8.38800048828125,0.5929500460624695,-9.232950210571289
1781033650550202400,24.548202392578126,8.19795036315918,0.5680500268936157,-9.880050659179688
1781033650569717800,24.5677177734375,7.887000560760498,0.5100000500679016,-10.461000442504883
1781033650589236700,24.58723681640625,7.470000267028809,0.45600003004074097,-10.990050315856934
1781033650608757500,24.606757568359374,7.063950538635254,0.3850500285625458,-11.407950401306152
1781033650628279300,24.626279296875,6.639000415802002,0.37800002098083496,-11.766000747680664
1781033650647792600,24.645792724609375,4.918950080871582,0.6499500274658203,-12.129000663757324
1781033650667305000,24.665304931640627,2.814000129699707,1.1989500522613525,-12.454950332641602
1781033650686826200,24.684826171875,2.602950096130371,1.6660500764846802,-12.309000968933105
1781033650706342100,24.704342041015625,4.51800012588501,1.4059500694274902,-8.128950119018555
1781033650725851400,24.723851318359376,6.129000186920166,-0.45705002546310425,-3.453000068664551
1781033650745362400,24.743362548828124,12.255000114440918,-2.701050043106079,-1.714050054550171
1781033650764877000,24.762876953125,14.919000625610352,-3.082050085067749,-0.2749500274658203
1781033650784391200,24.78239111328125,14.694000244140625,-1.336050033569336,-2.193000078201294
1781033650803905000,24.801905029296876,14.472001075744629,0.5230500102043152,-3.8770501613616943
1781033650823421200,24.821421142578124,11.30505084991455,0.9780000448226929,-4.081050395965576
1781033650842941200,24.840941162109374,7.666950225830078,1.081950068473816,-3.850950241088867
1781033650862460400,24.86046044921875,6.01200008392334,-0.700950026512146,-3.2059502601623535
1781033650881977600,24.8799775390625,5.952000141143799,-1.0780500173568726,-2.703000068664551
1781033650901492700,24.89949267578125,6.339000225067139,-1.519050121307373,-2.5990500450134277
1781033650921008600,24.919008544921876,9.748950004577637,-1.7710500955581665,-2.839050054550171
1781033650940526800,24.93852685546875,11.33595085144043,-1.7220001220703125,-3.1309502124786377
1781033650960050000,24.9580498046875,11.599950790405273,-1.4449501037597656,-3.289950132369995
1781033650979572200,24.977572265625,11.529000282287598,-0.9720000624656677,-3.4609501361846924
1781033650999084000,24.997083984375,9.460050582885742,-0.34800001978874207,-3.5050501823425293
1781033651018593500,25.016593505859376,7.660950183868408,0.15900000929832458,-3.4680001735687256
1781033651038104300,25.036104248046875,7.264050483703613,0.32505002617836,-3.145050048828125
1781033651057614000,25.055614013671875,6.859050273895264,0.27300000190734863,-1.231950044631958
1781033651077121300,25.075121337890625,6.808050155639648,0.20205001533031464,-1.1119500398635864
1781033651096630300,25.09463037109375,6.966000556945801,0.1380000114440918,-1.1809500455856323
1781033651116142000,25.11414208984375,6.88200044631958,-0.036000002175569534,-1.3669500350952148
1781033651135657000,25.133656982421876,6.939000129699707,-0.34995001554489136,-1.5100500583648682
1781033651155169000,25.1531689453125,7.135050296783447,-0.5250000357627869,-1.4940000772476196
1781033651174680300,25.172680419921875,7.546950340270996,-0.4630500078201294,-1.333050012588501
1781033651194196000,25.192196044921875,8.143950462341309,-0.2160000056028366,-1.171950101852417
1781033651213706200,25.211706298828126,8.359950065612793,0.13095000386238098,-1.1650500297546387
1781033651233212400,25.23121240234375,8.418000221252441,0.5029500126838684,-1.2109500169754028
1781033651252724700,25.250724853515624,8.484000205993652,0.7800000309944153,-0.9439500570297241
1781033651272239400,25.2702392578125,8.728950500488281,1.1959500312805176,-0.5610000491142273
