time,seconds_elapsed,z,y,x
1780563537610185000,3.27918505859375,-0.5207560062408447,0.4751920104026794,0.1873490065336227
1780563537629706000,3.2987060546875,-0.7095119953155518,0.583558976650238,0.0535329990088939
1780563537649230000,3.31822998046875,-0.9079200029373168,0.5021920204162598,0.1291420012712478
1780563537668753700,3.337753662109375,-0.9079200029373168,0.5021920204162598,0.1291420012712478
1780563537688279600,3.357279541015625,-0.9475380182266236,0.1187509968876838,-0.2188979983329773
1780563537707803100,3.37680322265625,-0.9475380182266236,0.1187509968876838,-0.2188979983329773
1780563537727323400,3.396323486328125,-0.2563979923725128,0.0626989975571632,-2.453119993209839
1780563537746846500,3.415846435546875,-0.2563979923725128,0.0626989975571632,-2.453119993209839
1780563537766370600,3.43537060546875,0.3247289955615997,0.2352959960699081,-2.8611741065979004
1780563537785893000,3.45489306640625,0.3247289955615997,0.2352959960699081,-2.8611741065979004
1780563537805410600,3.47441064453125,-0.0453459993004798,0.2230879962444305,-3.222645998001098
1780563537824927500,3.493927490234375,-0.4729799926280975,0.2681010067462921,-3.5171360969543457
1780563537844450300,3.5134501953125,-0.8000980019569397,0.4793690145015716,-3.890204906463623
1780563537863977200,3.532977294921875,-0.8000980019569397,0.4793690145015716,-3.890204906463623
1780563537883503900,3.55250390625,-1.0433900356292725,1.2909549474716189,-4.790866851806641
1780563537903030500,3.572030517578125,-1.0433900356292725,1.2909549474716189,-4.790866851806641
1780563537922557700,3.5915576171875,-1.0433900356292725,1.2909549474716189,-4.790866851806641
1780563537942084400,3.61108447265625,-1.0486210584640503,1.570997953414917,-4.682865142822266
1780563537961610200,3.6306103515625,-1.064365029335022,1.6372109651565552,-4.480760097503662
1780563537981138200,3.65013818359375,-1.0149070024490356,1.8470699787139893,-4.539003849029541
1780563538000665300,3.669665283203125,-0.954873025417328,1.950029969215393,-4.6376237869262695
1780563538020190200,3.689190185546875,-0.8893010020256042,1.8750300407409668,-4.427322864532471
1780563538039714000,3.708714111328125,-0.8046669960021973,1.64889395236969,-3.820013046264648
1780563538059237000,3.728237060546875,-0.7592260241508484,1.3310569524765017,-3.03255295753479
1780563538078761200,3.74776123046875,-0.7592260241508484,1.3310569524765017,-3.03255295753479
1780563538098286600,3.76728662109375,-0.8035399913787842,1.0286040306091309,-1.9664770364761357
1780563538117812700,3.786812744140625,-0.8035399913787842,1.0286040306091309,-1.9664770364761357
1780563538137345000,3.806344970703125,-0.7966560125350952,1.105512022972107,-1.4285919666290283
1780563538156877000,3.825876953125,-0.7966560125350952,1.105512022972107,-1.4285919666290283
1780563538176402200,3.845402099609375,-0.774770975112915,0.8211920261383057,-0.2315109968185424
1780563538195932000,3.864931884765625,-0.8748220205307007,0.5218949913978577,0.3121789991855621
1780563538215464000,3.8844638671875,-0.972332000732422,0.3795590102672577,0.6263920068740845
1780563538234990600,3.903990478515625,-0.9644500017166138,0.4357300102710724,0.7817220091819763
1780563538254518000,3.92351806640625,-1.0005309581756592,0.5310580134391785,1.0860389471054075
1780563538274044700,3.943044677734375,-1.0005309581756592,0.5310580134391785,1.0860389471054075
1780563538293567000,3.96256689453125,-1.0408220291137695,0.3076010048389435,2.092859983444214
1780563538313093600,3.98209375,-1.0408220291137695,0.3076010048389435,2.092859983444214
1780563538332620500,4.00162060546875,-0.8783680200576782,-0.3276430070400238,2.379983901977539
1780563538352147200,4.021147216796875,-0.8783680200576782,-0.3276430070400238,2.379983901977539
1780563538371669800,4.040669677734375,-0.4035370051860809,-0.6218600273132324,2.090023994445801
1780563538391189000,4.06018896484375,-0.1802320033311844,-0.6732980012893677,2.185331106185913
1780563538410714600,4.079714599609375,0.0287430007010698,-0.7969229817390442,2.265633106231689
1780563538430243000,4.0992431640625,0.19930499792099,-1.0004160404205322,2.266021013259888
1780563538449769700,4.118769775390625,0.3718920052051544,-1.154276967048645,2.091173887252808
1780563538469295600,4.138295654296875,0.3718920052051544,-1.154276967048645,2.091173887252808
1780563538488820200,4.1578203125,0.4047749936580658,-1.3518520593643188,1.4451199769973757
1780563538508340200,4.17734033203125,0.4047749936580658,-1.3518520593643188,1.4451199769973757
1780563538527862300,4.1968623046875,0.2555460035800934,-1.4144259691238403,1.067988038063049
1780563538547390500,4.216390380859375,0.2555460035800934,-1.4144259691238403,1.067988038063049
1780563538566915600,4.23591552734375,0.1934009939432144,-1.1926519870758057,0.8242059946060181
1780563538586438000,4.25543798828125,0.2217810004949569,-0.9809550046920776,0.6554210186004639
1780563538605961000,4.2749609375,0.2803420126438141,-0.7427359819412231,0.5150449872016907
1780563538625483300,4.294483154296875,0.3377729952335357,-0.5631309747695923,0.4181790053844452
1780563538645004300,4.31400439453125,0.398470014333725,-0.4168179929256439,0.2781929969787597
1780563538664528600,4.333528564453125,0.3759050071239471,-0.2897469997406006,0.1013939976692199
1780563538684053800,4.3530537109375,0.3759050071239471,-0.2897469997406006,0.1013939976692199
1780563538703576800,4.372576904296875,0.3521569967269897,-0.401978999376297,-0.2827740013599396
1780563538723097600,4.39209765625,0.3521569967269897,-0.401978999376297,-0.2827740013599396
1780563538742621700,4.41162158203125,0.3521569967269897,-0.401978999376297,-0.2827740013599396
1780563538762155300,4.4311552734375,0.2776489853858948,-0.749921977519989,0.6996859908103943
1780563538781686300,4.450686279296875,0.2767780125141144,-0.7316949963569641,1.0989789962768557
1780563538801213200,4.470213134765625,0.2767780125141144,-0.7316949963569641,1.0989789962768557
1780563538820745000,4.489744873046875,0.1903329938650131,-0.9477760195732116,1.827867031097412
1780563538840273200,4.509273193359375,0.1004759967327117,-1.0054609775543213,2.197122097015381
1780563538859803600,4.5288037109375,0.0785349979996681,-0.96137797832489,2.6899330615997314
1780563538879331600,4.54833154296875,0.0785349979996681,-0.96137797832489,2.6899330615997314
1780563538898855700,4.567855712890625,0.1753060072660446,-0.6119760274887085,3.325093030929565
1780563538918380300,4.58738037109375,0.1753060072660446,-0.6119760274887085,3.325093030929565
1780563538937902600,4.606902587890625,0.0291099995374679,-0.0299740005284547,3.159825086593628
1780563538957426200,4.62642626953125,0.0291099995374679,-0.0299740005284547,3.159825086593628
1780563538976951300,4.645951416015625,-0.2937830090522766,0.2161879986524582,2.8743209838867188
1780563538996475400,4.665475341796875,-0.4502300024032593,0.1969469934701919,2.5918939113616943
1780563539015998200,4.684998291015625,-0.5806090235710144,0.1178779974579811,2.179115056991577
1780563539035523600,4.704523681640625,-0.606344997882843,0.0412670001387596,1.7073509693145752
1780563539055049700,4.7240498046875,-0.5387510061264038,-0.006969999987632,1.2376079559326172
1780563539074577400,4.743577392578125,-0.5387510061264038,-0.006969999987632,1.2376079559326172
1780563539094100700,4.763100830078125,-0.6092100143432617,-0.1483390033245086,0.5295680165290833
1780563539113622800,4.782622802734375,-0.6092100143432617,-0.1483390033245086,0.5295680165290833
1780563539133150200,4.802150146484375,-0.9658560156822203,-0.3244970142841339,-0.08347799628973
1780563539152676600,4.821676513671875,-0.9658560156822203,-0.3244970142841339,-0.08347799628973
1780563539172202200,4.8412021484375,-0.9757189750671388,-0.0416929982602596,-2.15851092338562
1780563539191724300,4.860724365234375,-0.9015520215034484,0.1406619995832443,-2.592379093170166
1780563539211248400,4.880248291015625,-0.8136429786682129,0.2365549951791763,-2.875385046005249
1780563539230775300,4.899775390625,-0.7270399928092957,0.2586160004138946,-2.9273340702056885
1780563539250301400,4.919301513671875,-0.6727499961853027,0.3658689856529236,-2.9459590911865234
1780563539269830000,4.938829833984375,-0.6727499961853027,0.3658689856529236,-2.9459590911865234
1780563539289352700,4.958352783203125,-0.7969440221786499,1.0460209846496582,-3.6047329902648926
1780563539308875300,4.977875244140625,-0.7969440221786499,1.0460209846496582,-3.6047329902648926
1780563539328402700,4.997402587890625,-1.1680539846420288,1.748345971107483,-4.206048011779785
1780563539347931100,5.01693115234375,-1.1680539846420288,1.748345971107483,-4.206048011779785
1780563539367459300,5.036459228515625,-1.144929051399231,1.6489269733428955,-3.4341111183166504
1780563539386984200,5.055984130859375,-1.144929051399231,1.6489269733428955,-3.4341111183166504
1780563539406505000,5.0755048828125,-0.4299040138721466,1.7090590000152588,-4.88355016708374
1780563539426023400,5.0950234375,-0.1768929958343505,3.513031005859375,-6.339957237243652
1780563539445543200,5.114543212890625,-0.3107570111751556,3.813780069351196,-6.317549228668213
1780563539465067300,5.1340673828125,-0.3107570111751556,3.813780069351196,-6.317549228668213
1780563539484592600,5.153592529296875,-2.5759050846099854,3.2939279079437256,-3.042067050933838
1780563539504116500,5.173116455078125,-2.5759050846099854,3.2939279079437256,-3.042067050933838
1780563539523631900,5.1926318359375,-2.386003017425537,0.929735004901886,-0.1260749995708465
1780563539543147000,5.21214697265625,-2.386003017425537,0.929735004901886,-0.1260749995708465
1780563539562664000,5.231663818359375,-2.386003017425537,0.929735004901886,-0.1260749995708465
1780563539582182400,5.251182373046875,1.0229179859161377,1.2637009620666504,-0.708886981010437
1780563539601701600,5.27070166015625,1.0229179859161377,1.2637009620666504,-0.708886981010437
1780563539621219800,5.2902197265625,-0.6007279753684998,1.3408459424972534,0.2412080019712448
1780563539640735200,5.3097353515625,-0.9262650012969972,1.0551910400390625,1.0026459693908691
1780563539660249000,5.3292490234375,-1.3147729635238647,0.7422469854354858,1.5163060426712036
1780563539679765500,5.348765625,-1.3147729635238647,0.7422469854354858,1.5163060426712036
1780563539699280400,5.3682802734375,-1.3077210187911987,0.4270499944686889,1.72844398021698
1780563539718795000,5.387794921875,-1.3077210187911987,0.4270499944686889,1.72844398021698
1780563539738313500,5.4073134765625,-0.6415050029754639,-0.1349170058965683,1.8887439966201784
1780563539757831000,5.426830810546875,-0.6415050029754639,-0.1349170058965683,1.8887439966201784
1780563539777343700,5.44634375,-0.3842360079288482,-0.9556310176849364,2.203094005584717
1780563539796854800,5.465854736328125,-0.1495230048894882,-1.2837389707565308,2.324129104614258
1780563539816363800,5.48536376953125,0.0242929998785257,-1.5893950462341309,2.3251149654388428
1780563539835880700,5.504880615234375,0.0656180009245872,-1.8152029514312744,2.0623350143432617
1780563539855397000,5.524397216796875,0.0603270009160041,-1.9470219612121584,1.674759030342102
1780563539874908700,5.54390869140625,0.0603270009160041,-1.9470219612121584,1.674759030342102
1780563539894418700,5.563418701171875,0.0998789966106414,-1.7342089414596558,1.35104501247406
1780563539913923600,5.582923583984375,0.0998789966106414,-1.7342089414596558,1.35104501247406
1780563539933431600,5.602431640625,0.5653120279312134,-1.3777140378952026,1.826941967010498
1780563539952944000,5.621944091796875,0.5653120279312134,-1.3777140378952026,1.826941967010498
1780563539972458000,5.6414580078125,0.6129220128059387,-1.2532639503479004,1.6696749925613403
1780563539991967700,5.6609677734375,0.4387800097465515,-1.3760570287704468,1.358312964439392
1780563540011474400,5.680474365234375,0.3817139863967895,-1.601912021636963,1.0654979944229126
1780563540030986200,5.699986328125,0.3797450065612793,-1.78410005569458,0.9082270264625548
1780563540050504700,5.719504638671875,0.4263080060482025,-1.8666130304336548,0.8858669996261597
1780563540070026500,5.739026611328125,0.4263080060482025,-1.8666130304336548,0.8858669996261597
1780563540089542400,5.75854248046875,0.4010579884052276,-1.6357940435409546,0.9536730051040648
1780563540109058000,5.77805810546875,0.4010579884052276,-1.6357940435409546,0.9536730051040648
1780563540128575500,5.797575439453125,0.1396189928054809,-1.3650590181350708,1.3921879529953003
1780563540148091000,5.8170908203125,0.1396189928054809,-1.3650590181350708,1.3921879529953003
1780563540167614500,5.836614501953125,0.1252409964799881,-1.3987430334091189,2.14635705947876
1780563540187133000,5.8561328125,0.2304210066795349,-1.4397050142288208,2.4120819568634038
1780563540206644000,5.87564404296875,0.3343479931354522,-1.4632329940795898,2.486556053161621
1780563540226157600,5.895157470703125,0.4177190065383911,-1.363837957382202,2.455358028411865
1780563540245677300,5.91467724609375,0.4776819944381714,-1.1531280279159546,2.508646011352539
1780563540265202200,5.9342021484375,0.4981769919395447,-0.94063001871109,2.69544005393982
1780563540284724500,5.953724365234375,0.4335330128669739,-0.6590840220451355,2.869460105895996
1780563540304244500,5.973244384765625,0.3006559908390045,-0.4057390093803406,2.8816161155700684
1780563540323766500,5.9927666015625,0.3006559908390045,-0.4057390093803406,2.8816161155700684
1780563540343289000,6.0122890625,-0.1983200013637542,0.0516000017523765,2.152160882949829
1780563540362815000,6.03181494140625,-0.1983200013637542,0.0516000017523765,2.152160882949829
1780563540382339600,6.051339599609375,-0.1983200013637542,0.0516000017523765,2.152160882949829
1780563540401860600,6.070860595703125,-0.8289110064506531,0.137373000383377,1.1552859544754028
1780563540421384200,6.09038427734375,-0.9687070250511168,0.0243439991027116,0.7665719985961914
1780563540440908000,6.109907958984375,-1.0525490045547483,-0.0497669987380504,0.1956630051136016
1780563540460433400,6.129433349609375,-1.0821549892425537,-0.0872569978237152,-1.5958900451660156
1780563540479955700,6.148955810546875,-1.0821549892425537,-0.0872569978237152,-1.5958900451660156
1780563540499474700,6.168474609375,-0.9172679781913756,0.0616060011088848,-2.294114112854004
1780563540518998500,6.18799853515625,-0.9172679781913756,0.0616060011088848,-2.294114112854004
1780563540538524700,6.207524658203125,-0.8011029958724976,0.0246249996125698,-2.516350030899048
1780563540558048500,6.227048583984375,-0.8011029958724976,0.0246249996125698,-2.516350030899048
1780563540577571800,6.24657177734375,-0.8198509812355042,0.2166620045900344,-2.6448159217834477
1780563540597091800,6.266091796875,-0.8461340069770813,0.5045040249824524,-2.942779064178467
1780563540616613400,6.28561328125,-0.9174550175666808,0.8945930004119873,-3.33174991607666
1780563540636132600,6.305132568359375,-0.8700069785118103,1.2058939933776855,-3.682131052017212
1780563540655656400,6.324656494140625,-0.7012100219726562,1.471286058425903,-3.845876932144165
1780563540675186200,6.344186279296875,-0.7012100219726562,1.471286058425903,-3.845876932144165
1780563540694710300,6.363710205078125,-0.3139840066432953,2.3909389972686768,-3.7703139781951904
1780563540714233300,6.3832333984375,-0.3139840066432953,2.3909389972686768,-3.7703139781951904
1780563540733757700,6.4027578125,-1.0586179494857788,3.299146890640259,-3.868696928024292
1780563540753278200,6.4222783203125,-1.0586179494857788,3.299146890640259,-3.868696928024292
1780563540772800500,6.441800537109375,-1.8824089765548704,4.119074821472168,-4.407057762145996
1780563540792330800,6.461330810546875,-2.042289972305298,4.273918151855469,-4.267333030700684
1780563540811859700,6.480859619140625,-2.075575113296509,3.989017963409424,-3.591624975204468
1780563540831384000,6.500384033203125,-2.00607705116272,2.132313966751098,-1.6663930416107178
1780563540850908200,6.519908203125,-1.678367018699646,1.5729409456253052,-1.086709976196289
1780563540870430200,6.53943017578125,-1.678367018699646,1.5729409456253052,-1.086709976196289
1780563540889950700,6.55895068359375,0.6281589865684509,0.1205039992928505,-0.5244460105895996
1780563540909474000,6.57847412109375,0.6281589865684509,0.1205039992928505,-0.5244460105895996
1780563540928996600,6.59799658203125,0.929066002368927,-0.7065550088882446,-0.1732729971408844
1780563540948520700,6.617520751953125,0.929066002368927,-0.7065550088882446,-0.1732729971408844
1780563540968044800,6.637044921875,0.5843219757080078,-0.5685070157051086,0.6801589727401733
1780563540987572700,6.65657275390625,0.5843219757080078,-0.5685070157051086,0.6801589727401733
1780563541007101700,6.676101806640625,-1.588547945022583,-0.1066069975495338,1.5505510568618774
1780563541026626300,6.695626220703125,-2.090311050415039,0.0811930000782013,2.070159912109375
1780563541046146000,6.71514599609375,-2.231765985488892,0.2219450026750564,2.580617904663086
1780563541065666000,6.734666015625,-2.231765985488892,0.2219450026750564,2.580617904663086
1780563541085190100,6.754190185546875,-2.231765985488892,0.2219450026750564,2.580617904663086
1780563541104714500,6.773714599609375,-0.8517119884490967,-0.4416010081768036,3.20918607711792
1780563541124234200,6.793234130859375,-0.8517119884490967,-0.4416010081768036,3.20918607711792
1780563541143756000,6.812756103515625,-0.0476329997181892,-1.3476070165634155,2.6083319187164307
1780563541163282400,6.832282470703125,-0.0476329997181892,-1.3476070165634155,2.6083319187164307
1780563541182806000,6.851805908203125,0.1520639955997467,-1.9858510494232176,1.976786971092224
1780563541202328800,6.871328857421875,0.1520639955997467,-1.9858510494232176,1.976786971092224
1780563541221852700,6.890852783203125,0.0293729994446039,-2.122036933898926,1.7688299417495728
1780563541241378800,6.91037890625,-0.0955879986286163,-1.803251028060913,1.682394027709961
1780563541260907800,6.92990771484375,0.0874790027737617,-1.3724980354309082,1.5544999837875366
1780563541280434700,6.9494345703125,0.0874790027737617,-1.3724980354309082,1.5544999837875366
1780563541299956700,6.968956787109375,0.5052940249443054,-0.9306510090827942,1.2128870487213137
1780563541319476000,6.98847607421875,0.5052940249443054,-0.9306510090827942,1.2128870487213137
1780563541339000000,7.008,0.7483800053596497,-1.2095760107040403,0.8883730173110962
1780563541358525700,7.027525634765625,0.7483800053596497,-1.2095760107040403,0.8883730173110962
1780563541378050600,7.047050537109375,0.4689010083675384,-1.2762479782104492,0.601265013217926
1780563541397576200,7.066576171875,0.3709860146045685,-1.312343955039978,0.3815900087356567
1780563541417098000,7.086097900390625,0.4048050045967102,-1.490082025527954,0.2068089991807937
1780563541436617000,7.105616943359375,0.5708720088005066,-1.661802053451538,0.16389000415802
1780563541456138000,7.125137939453125,0.8350300192832947,-1.640707015991211,0.2653869986534118
1780563541475662600,7.14466259765625,0.8350300192832947,-1.640707015991211,0.2653869986534118
1780563541495185200,7.16418505859375,1.0088950395584106,-0.8958899974822998,0.9186369776725768
1780563541514707500,7.18370751953125,1.0088950395584106,-0.8958899974822998,0.9186369776725768
1780563541534237200,7.2032373046875,0.4203549921512604,-0.2811920046806335,2.699780941009521
1780563541553767700,7.222767578125,0.4203549921512604,-0.2811920046806335,2.699780941009521
1780563541573293300,7.242293212890625,0.0712049975991249,-0.7171199917793274,3.069786071777344
1780563541592819200,7.261819091796875,0.0013579999795183,-0.7367780208587646,2.894761085510254
1780563541612344000,7.281343994140625,0.0117180002853274,-0.5235180258750916,2.6402029991149902
1780563541631872800,7.300872802734375,0.0709540024399757,-0.2462249994277954,2.550839900970459
1780563541651399400,7.3203994140625,0.1291420012712478,-0.0083370003849267,2.5031681060791016
1780563541670922000,7.339921875,0.1291420012712478,-0.0083370003849267,2.5031681060791016
1780563541690452000,7.359451904296875,0.1359259933233261,0.1610130071640014,2.0339059829711914
1780563541709983500,7.3789833984375,0.1359259933233261,0.1610130071640014,2.0339059829711914
1780563541729512700,7.3985126953125,-0.3354069888591766,0.3780539929866791,1.1814470291137695
1780563541749047300,7.41804736328125,-0.3354069888591766,0.3780539929866791,1.1814470291137695
1780563541768580600,7.43758056640625,-0.7173190116882324,0.2797160148620605,0.8629130125045776
1780563541788112400,7.4571123046875,-0.7598879933357239,0.2150830030441284,0.7230600118637085
1780563541807641300,7.476641357421875,-0.7654690146446228,0.1957309991121292,0.4461300075054168
1780563541827165200,7.496165283203125,-0.7376449704170227,0.2170329988002777,-0.0438509993255138
1780563541846689000,7.51568896484375,-0.7552409768104553,0.253504991531372,-1.7443710565567017
1780563541866215400,7.53521533203125,-0.7552409768104553,0.253504991531372,-1.7443710565567017
1780563541885741300,7.5547412109375,-1.0270580053329468,0.4060460031032562,-2.359375
1780563541905266200,7.57426611328125,-1.0270580053329468,0.4060460031032562,-2.359375
1780563541924794400,7.59379443359375,-1.0509239435195925,0.8473330140113831,-3.182651996612549
1780563541944322600,7.613322509765625,-1.0509239435195925,0.8473330140113831,-3.182651996612549
1780563541963849500,7.632849365234375,-0.8158400058746338,1.5561929941177368,-4.243956089019775
1780563541983373300,7.652373291015625,-0.8158400058746338,1.5561929941177368,-4.243956089019775
1780563542002894300,7.671894287109375,-1.1599689722061155,1.3276430368423462,-2.4465889930725098
1780563542022415000,7.6914150390625,-1.1599689722061155,1.3276430368423462,-2.4465889930725098
1780563542041939000,7.71093896484375,-1.3609340190887451,0.98888498544693,-2.3150670528411865
1780563542061469400,7.730469482421875,-0.962693989276886,1.323138952255249,-4.541932106018066
1780563542080997400,7.749997314453125,-0.4097220003604889,3.1691091060638428,-5.044390201568604
1780563542100520000,7.76952001953125,-0.4097220003604889,3.1691091060638428,-5.044390201568604
1780563542120045000,7.789045166015625,0.1489730030298233,3.50970196723938,-5.084386825561523
1780563542139573800,7.80857373046875,0.1489730030298233,3.50970196723938,-5.084386825561523
1780563542159100700,7.8281005859375,-0.7092800140380859,1.2174659967422483,-1.0652220249176023
1780563542178626000,7.8476259765625,-0.7092800140380859,1.2174659967422483,-1.0652220249176023
1780563542198152700,7.867152587890625,-1.3967230319976809,0.8958520293235779,-1.0066970586776731
1780563542217679600,7.8866796875,-1.1039780378341677,1.1396880149841309,-2.388969898223877
1780563542237202400,7.906202392578125,-0.6180739998817444,1.2567059993743896,-2.102515935897827
1780563542256724500,7.925724365234375,-0.2190999984741211,0.9878849983215332,-0.19998300075531
1780563542276248000,7.945248046875,-0.2190999984741211,0.9878849983215332,-0.19998300075531
1780563542295768300,7.964768310546875,-0.3643209934234619,0.002030000090599,0.79824298620224
1780563542315289300,7.984289306640625,-0.3643209934234619,0.002030000090599,0.79824298620224
1780563542334815500,8.0038154296875,-0.4249629974365234,0.4333989918231964,0.5045459866523743
1780563542354343000,8.023343017578124,-0.4249629974365234,0.4333989918231964,0.5045459866523743
1780563542373867500,8.042867431640625,-0.8981220126152039,0.4947240054607391,1.3789039850234983
1780563542393390300,8.062390380859375,-1.3318359851837158,0.0435720011591911,2.055532932281494
1780563542412915200,8.081915283203125,-1.5400760173797607,-0.3956780135631561,2.3161098957061768
1780563542432446000,8.101446044921875,-1.360456943511963,-0.6602579951286316,2.060931921005249
1780563542451977700,8.120977783203125,-0.8470600247383118,-0.7355449795722961,1.7176029682159424
1780563542471503400,8.14050341796875,-0.8470600247383118,-0.7355449795722961,1.7176029682159424
1780563542491026700,8.160026611328124,0.2018460035324096,-1.019595980644226,1.872743010520935
1780563542510551300,8.17955126953125,0.2018460035324096,-1.019595980644226,1.872743010520935
1780563542530080300,8.199080322265624,0.2030539959669113,-1.4473739862442017,1.962702989578247
1780563542549613600,8.218613525390625,0.2030539959669113,-1.4473739862442017,1.962702989578247
1780563542569144000,8.23814404296875,0.0732799991965293,-1.2575180530548096,1.1826879978179932
1780563542588669000,8.2576689453125,0.2691900134086609,-1.058720946311951,0.9993199706077576
1780563542608190500,8.2771904296875,0.5212770104408264,-0.8445709943771362,0.9551519751548768
1780563542627715300,8.29671533203125,0.6721600294113159,-0.686394989490509,0.8805189728736877
1780563542647242000,8.316241943359374,0.6318050026893616,-0.6631640195846558,0.6884030103683472
1780563542666769000,8.335768798828125,0.6318050026893616,-0.6631640195846558,0.6884030103683472
1780563542686290000,8.3552900390625,0.7938380241394043,-0.3836970031261444,0.2071550041437149
1780563542705810700,8.374810791015625,0.7938380241394043,-0.3836970031261444,0.2071550041437149
1780563542725335800,8.394335693359375,0.7938380241394043,-0.3836970031261444,0.2071550041437149
1780563542744853000,8.41385302734375,1.2827140092849731,-0.4346460103988647,0.0642850026488304
1780563542764365600,8.433365478515626,0.9926480054855348,-0.7527049779891968,-0.1302140057086944
1780563542783884300,8.45288427734375,0.6921610236167908,-0.946819007396698,-0.320374995470047
1780563542803404300,8.472404296875,0.6921610236167908,-0.946819007396698,-0.320374995470047
1780563542822930200,8.49193017578125,0.6762760281562805,-0.7600389719009399,-0.0192740000784397
1780563542842459000,8.511458984375,0.6762760281562805,-0.7600389719009399,-0.0192740000784397
1780563542861985300,8.5309853515625,0.7375789880752563,-0.372516006231308,2.245507001876831
1780563542881512000,8.550511962890624,0.4995369911193847,-0.3939630091190338,2.400320053100586
1780563542901038000,8.5700380859375,0.2656689882278442,-0.3367170095443725,2.5081849098205566
1780563542920564500,8.589564453125,0.2656689882278442,-0.3367170095443725,2.5081849098205566
1780563542940088000,8.609088134765624,0.203693002462387,0.1662430018186569,2.191041946411133
1780563542959616000,8.628615966796875,0.203693002462387,0.1662430018186569,2.191041946411133
1780563542979140900,8.648140869140626,0.1940709948539734,0.5815640091896057,2.62589693069458
1780563542998656300,8.66765625,0.1023489981889724,0.6215280294418335,2.9716238975524902
1780563543018182400,8.687182373046875,0.0425140000879764,0.7351379990577698,2.960129976272583
1780563543037713400,8.70671337890625,0.0192530006170272,1.0245599746704102,2.472754955291748
1780563543057240300,8.726240234375,-0.0636549964547157,1.324599027633667,1.8140230178833008
1780563543076768500,8.7457685546875,-0.0636549964547157,1.324599027633667,1.8140230178833008
1780563543096296400,8.76529638671875,-0.5273280143737793,1.3590279817581177,1.1667070388793943
1780563543115820300,8.7848203125,-0.5273280143737793,1.3590279817581177,1.1667070388793943
1780563543135342800,8.8043427734375,-0.9959269762039183,0.6039770245552063,0.6199340224266052
1780563543154869200,8.823869140625,-0.9959269762039183,0.6039770245552063,0.6199340224266052
1780563543174395000,8.843394775390625,-0.6825540065765381,0.0021969999652355,-0.4225209951400757
1780563543193920000,8.862919921875,-0.4613440036773681,-0.2351350039243698,-0.8443560004234314
1780563543213447200,8.882447265625,-0.2880820035934448,-0.3808999955654144,-1.1585140228271484
1780563543232971500,8.901971435546875,-0.2508350014686584,-0.5087090134620667,-1.408627986907959
1780563543252496600,8.92149658203125,-0.3727110028266907,-0.4763540029525757,-1.6649869680404663
1780563543272022800,8.941022705078124,-0.3727110028266907,-0.4763540029525757,-1.6649869680404663
1780563543291543800,8.960543701171876,-0.4360640048980713,0.1479980051517486,-2.318337917327881
1780563543311061000,8.98006103515625,-0.4360640048980713,0.1479980051517486,-2.318337917327881
1780563543330582500,8.99958251953125,-0.3094939887523651,1.167768955230713,-4.502642154693604
1780563543350107400,9.019107421875,-0.3094939887523651,1.167768955230713,-4.502642154693604
1780563543369632000,9.038632080078123,-0.4416399896144867,2.214756965637207,-4.816371917724609
1780563543389158100,9.058158203125,-0.8082180023193359,2.431392908096313,-4.578372955322266
1780563543408682200,9.07768212890625,-1.2094709873199463,2.381767988204956,-4.267803192138672
1780563543428205300,9.097205322265625,-1.5181540250778198,2.3305790424346924,-4.22606897354126
1780563543447730400,9.11673046875,-1.698639988899231,2.495155096054077,-4.608857154846191
1780563543467257900,9.1362578125,-1.698639988899231,2.495155096054077,-4.608857154846191
1780563543486786600,9.15578662109375,-1.8955910205841064,3.1612489223480225,-5.932458877563477
1780563543506313500,9.1753134765625,-1.8955910205841064,3.1612489223480225,-5.932458877563477
1780563543525842000,9.194842041015624,-2.038723945617676,1.2503700256347656,-1.5912699699401855
1780563543545370400,9.214370361328124,-2.038723945617676,1.2503700256347656,-1.5912699699401855
1780563543564895000,9.23389501953125,-1.4188899993896484,0.4286539852619171,-0.6533359885215759
1780563543584418600,9.25341845703125,0.0263749994337558,0.2452089935541153,-0.39792001247406
1780563543603942400,9.2729423828125,0.4765320122241974,0.6111869812011719,-0.653203010559082
1780563543623465200,9.29246533203125,0.4765320122241974,0.6111869812011719,-0.653203010559082
1780563543642988800,9.31198876953125,0.5745829939842224,1.2676680088043213,-0.3388130068778991
1780563543662514000,9.331513916015624,0.5745829939842224,1.2676680088043213,-0.3388130068778991
1780563543682039600,9.35103955078125,-1.5999499559402466,0.6340680122375488,1.7186100482940674
1780563543701570800,9.37057080078125,-1.9360020160675049,0.2209469974040985,2.010335922241211
1780563543721101300,9.390101318359376,-1.902060985565185,0.0019499999471008,1.983111023902893
1780563543740626200,9.409626220703124,-1.902060985565185,0.0019499999471008,1.983111023902893
1780563543760150300,9.429150390625,-1.0400320291519165,-0.3905589878559112,2.077624082565308
1780563543779672000,9.448672119140625,-1.0400320291519165,-0.3905589878559112,2.077624082565308
1780563543799196700,9.46819677734375,-0.4227249920368194,-0.9089450240135192,2.497812032699585
1780563543818729000,9.48772900390625,-0.4510360062122345,-1.2104860544204712,2.3922150135040283
1780563543838260000,9.507260009765623,-0.484261006116867,-1.557116985321045,2.2383100986480717
1780563543857785900,9.526785888671874,-0.3782700002193451,-1.805021047592163,2.1978719234466557
1780563543877313000,9.54631298828125,-0.3782700002193451,-1.805021047592163,2.1978719234466557
1780563543896839700,9.565839599609374,0.2247450053691864,-1.8259880542755127,2.0387520790100098
1780563543916363500,9.585363525390624,0.2247450053691864,-1.8259880542755127,2.0387520790100098
1780563543935890400,9.604890380859375,0.3288530111312866,-1.782920002937317,1.3720879554748535
1780563543955415000,9.6244150390625,0.3288530111312866,-1.782920002937317,1.3720879554748535
1780563543974936000,9.64393603515625,-0.0529289990663528,-1.6377979516983032,0.9232659935951232
1780563543994457000,9.66345703125,-0.2799560129642486,-1.3871289491653442,0.6837149858474731
1780563544013979100,9.682979248046877,-0.3857980072498321,-1.2389609813690186,0.426690012216568
1780563544033496600,9.70249658203125,-0.4055129885673523,-1.3835359811782837,0.3143459856510162
1780563544053014300,9.72201416015625,-0.4538629949092865,-1.7934459447860718,0.4989950060844421
1780563544072534500,9.741534423828124,-0.4538629949092865,-1.7934459447860718,0.4989950060844421
1780563544092055600,9.7610556640625,-0.2922289967536926,-2.226161003112793,1.429165005683899
1780563544111578600,9.78057861328125,-0.2922289967536926,-2.226161003112793,1.429165005683899
1780563544131099100,9.80009912109375,0.8040810227394104,-1.616418957710266,1.4921770095825195
1780563544150621000,9.819620849609375,0.8040810227394104,-1.616418957710266,1.4921770095825195
1780563544170145000,9.83914501953125,1.3848079442977903,-3.520551919937134,0.9402049779891968
1780563544189667600,9.85866748046875,0.8605780005455017,-3.577169895172119,0.9673460125923156
1780563544209188400,9.878188232421875,-0.6459749937057495,-3.282803058624268,1.1160680055618286
1780563544228711200,9.897711181640624,-0.7912489771842957,-1.5132609605789185,1.221714973449707
1780563544248236800,9.91723681640625,-0.843970000743866,-1.16224205493927,1.3866029977798462
1780563544267760000,9.936760009765624,-0.843970000743866,-1.16224205493927,1.3866029977798462
1780563544287282000,9.956281982421874,-0.6847490072250366,-1.0621589422225952,2.040785074234009
1780563544306806300,9.97580615234375,-0.6847490072250366,-1.0621589422225952,2.040785074234009
1780563544326324700,9.99532470703125,-0.2770609855651855,-0.8841609954833984,2.62391996383667
1780563544345846300,10.01484619140625,-0.2770609855651855,-0.8841609954833984,2.62391996383667
1780563544365374700,10.034374755859377,-0.2770609855651855,-0.8841609954833984,2.62391996383667
1780563544384899600,10.053899658203123,0.0044769998639822,-0.037721000611782,1.8261170387268064
1780563544404423000,10.0734228515625,-0.1806569993495941,0.3229599893093109,1.581117033958435
1780563544423948300,10.0929482421875,-0.5055009722709656,0.6347910165786743,1.442041039466858
1780563544443474200,10.11247412109375,-0.8418490290641785,0.6930570006370544,1.3440779447555542
1780563544463002600,10.132002685546874,-1.0711690187454224,0.5854939818382263,1.1561490297317505
1780563544482528500,10.151528564453123,-1.0711690187454224,0.5854939818382263,1.1561490297317505
1780563544502055700,10.1710556640625,-0.7430449724197388,0.2201199978590011,0.7505490183830261
1780563544521581800,10.190581787109377,-0.3162559866905212,0.2116400003433227,0.3703890144824981
1780563544541106400,10.2101064453125,-0.0397339984774589,0.2419669926166534,-0.1133920028805732
1780563544560633600,10.229633544921874,-0.0397339984774589,0.2419669926166534,-0.1133920028805732
1780563544580159000,10.249158935546877,-0.0732180029153823,0.3378179967403412,-1.0029120445251465
1780563544599683300,10.268683349609375,-0.2990570068359375,0.5764709711074829,-1.290876030921936
1780563544619207400,10.28820751953125,-0.565434992313385,0.9556620121002196,-1.5208640098571775
1780563544638736100,10.307736083984375,-0.7726989984512329,1.429257035255432,-1.8767410516738887
1780563544658261800,10.32726171875,-1.0039780139923096,1.9856619834899905,-2.3884739875793457
1780563544677786400,10.346786376953125,-1.0039780139923096,1.9856619834899905,-2.3884739875793457
1780563544697314800,10.366314697265626,-1.0965230464935305,2.7492690086364746,-3.33794903755188
1780563544716843500,10.385843505859375,-1.0965230464935305,2.7492690086364746,-3.33794903755188
1780563544736372200,10.405372314453125,-0.6976839900016785,2.2926928997039795,-2.862567901611328
1780563544755904000,10.424904052734377,-0.6976839900016785,2.2926928997039795,-2.862567901611328
1780563544775434800,10.444434814453125,0.1838849931955337,1.852429986000061,-2.9147279262542725
1780563544794960600,10.463960693359375,0.5879899859428406,2.297765016555786,-4.817356109619141
1780563544814487000,10.483487060546874,0.7395600080490112,3.7499380111694336,-5.321736812591553
1780563544834015500,10.503015380859376,0.4908519983291626,3.7442619800567623,-5.34908390045166
1780563544853547000,10.522547119140626,-0.1199809983372688,3.4067931175231934,-3.020325899124145
1780563544873074200,10.54207421875,-0.1199809983372688,3.4067931175231934,-3.020325899124145
1780563544892600300,10.561600341796876,-1.99542498588562,2.067631959915161,-0.4719479978084564
1780563544912129800,10.5811298828125,-1.99542498588562,2.067631959915161,-0.4719479978084564
1780563544931657500,10.600657470703124,-1.4929440021514893,1.4879319667816162,-0.5425710082054138
1780563544951190000,10.62018994140625,-1.4929440021514893,1.4879319667816162,-0.5425710082054138
1780563544970722800,10.639722900390623,-0.5743110179901123,1.2596420049667358,-0.7824810147285461
1780563544990251000,10.6592509765625,-0.4485580027103424,0.9413080215454102,-0.159633994102478
1780563545009778000,10.67877783203125,-0.591323971748352,0.5381960272789001,1.4272040128707886
1780563545029305000,10.69830517578125,-0.8227530121803284,0.1781740039587021,1.7724610567092896
1780563545048828700,10.71782861328125,-1.032356023788452,-0.0322059988975524,1.9215120077133176
1780563545068350200,10.73735009765625,-1.032356023788452,-0.0322059988975524,1.9215120077133176
1780563545087873500,10.75687353515625,-1.1395310163497925,-0.3273650109767914,1.8165600299835205
1780563545107398400,10.7763984375,-1.1395310163497925,-0.3273650109767914,1.8165600299835205
1780563545126920000,10.795919921875,-1.2872649431228638,-0.6850060224533081,1.914535999298096
1780563545146440700,10.815440673828125,-1.2872649431228638,-0.6850060224533081,1.914535999298096
1780563545165964300,10.83496435546875,-1.4346699714660645,-1.063444972038269,2.020348072052002
1780563545185485800,10.85448583984375,-1.3984689712524414,-1.4269269704818726,2.0654540061950684
1780563545205008100,10.874008056640625,-1.1904220581054688,-1.8767629861831665,2.102755069732666
1780563545224535300,10.893535400390626,-0.794152021408081,-2.293581962585449,2.0542900562286377
1780563545244063000,10.91306298828125,-0.3165690004825592,-2.517788887023926,1.8416759967803955
1780563545263589000,10.932589111328124,-0.3165690004825592,-2.517788887023926,1.8416759967803955
1780563545283118600,10.95211865234375,0.2856320142745971,-2.5205209255218506,1.0185710191726685
1780563545302652000,10.97165185546875,0.2856320142745971,-2.5205209255218506,1.0185710191726685
1780563545322179300,10.991179443359377,-0.11005300283432,-2.287925958633423,0.3915109932422638
1780563545341702000,11.010701904296877,-0.3537389934062958,-2.021215915679932,0.2176350057125091
1780563545361225200,11.03022509765625,-0.5080209970474243,-1.707705020904541,0.128834992647171
1780563545380746500,11.04974658203125,-0.4929330050945282,-1.3813420534133911,0.0350489988923072
1780563545400270000,11.06927001953125,-0.4929330050945282,-1.3813420534133911,0.0350489988923072
1780563545419798000,11.088798095703124,-8.19999986561e-05,-1.540748953819275,0.0928509980440139
1780563545439326700,11.10832666015625,0.3533459901809692,-1.6641449928283691,0.0853679999709129
1780563545458857000,11.12785693359375,0.6721240282058716,-1.7439030408859253,0.0889900028705596
1780563545478391300,11.147391357421874,0.6721240282058716,-1.7439030408859253,0.0889900028705596
1780563545497923300,11.16692333984375,0.6498939990997314,-1.4818229675292969,-0.0802410021424293
1780563545517450200,11.1864501953125,0.6498939990997314,-1.4818229675292969,-0.0802410021424293
1780563545536975400,11.205975341796876,0.493584007024765,-1.0015729665756226,-0.3427729904651642
1780563545556499700,11.225499755859374,0.493584007024765,-1.0015729665756226,-0.3427729904651642
1780563545576022300,11.245022216796874,0.4455479979515075,-0.7725039720535278,0.23369200527668
1780563545595546000,11.264546142578125,0.3513970077037811,-0.761031985282898,1.8915239572525024
1780563545615069400,11.2840693359375,0.1534090042114257,-0.7692170143127441,2.0190908908843994
1780563545634594600,11.303594482421875,0.064979001879692,-0.7536389827728271,2.078779935836792
1780563545654122500,11.32312255859375,0.1833540052175521,-0.727304995059967,1.9484339952468872
1780563545673651200,11.342651123046876,0.1833540052175521,-0.727304995059967,1.9484339952468872
1780563545693178000,11.36217822265625,0.599711000919342,-0.545619010925293,1.7078410387039185
1780563545712699100,11.38169921875,0.599711000919342,-0.545619010925293,1.7078410387039185
1780563545732222500,11.401222412109377,0.4798249900341034,-0.0310590006411075,1.954103946685791
1780563545751745800,11.420745849609377,0.4798249900341034,-0.0310590006411075,1.954103946685791
1780563545790802700,11.459802734375,-0.3354620039463043,0.8600280284881592,0.9332389831542968
1780563545810328800,11.479328857421876,-0.4500750005245209,0.9071130156517028,0.6945120096206665
1780563545829859300,11.498859375,-0.4456380009651184,0.8218899965286255,0.6556559801101685
1780563545849388500,11.518388427734376,-0.3866209983825683,0.6767449975013733,0.685204029083252
1780563545868915500,11.53791552734375,-0.3866209983825683,0.6767449975013733,0.685204029083252
1780563545888443600,11.557443603515624,-0.2603220045566559,0.3579689860343933,0.1700759977102279
1780563545907972600,11.57697265625,-0.2603220045566559,0.3579689860343933,0.1700759977102279
1780563545927500000,11.5965,-0.2937729954719543,0.4190410077571869,-2.02052903175354
1780563545947030300,11.6160302734375,-0.2937729954719543,0.4190410077571869,-2.02052903175354
1780563545966559000,11.63555908203125,-0.6181719899177551,0.6763150095939636,-2.2463619709014893
1780563545986090500,11.655090576171874,-0.7988839745521545,0.7326610088348389,-2.235766887664795
1780563546005620000,11.674619873046876,-0.9250739812850952,0.8668310046195984,-2.349329948425293
1780563546025148400,11.6941484375,-0.9250739812850952,0.8668310046195984,-2.349329948425293
1780563546044679400,11.713679443359377,-0.8690980076789856,1.6266759634017944,-3.188898086547852
1780563546064214000,11.733214111328126,-0.8690980076789856,1.6266759634017944,-3.188898086547852
1780563546083751700,11.752751708984375,-0.7135149836540222,2.302001953125,-3.4830880165100098
1780563546103287300,11.772287353515624,-0.7135149836540222,2.302001953125,-3.4830880165100098
1780563546122820400,11.7918203125,-0.7135149836540222,2.302001953125,-3.4830880165100098
1780563546142349800,11.811349853515624,-0.6458960175514221,2.922118902206421,-3.591865062713623
1780563546161874000,11.8308740234375,-0.5557209849357605,3.4217469692230225,-3.994976043701172
1780563546181395700,11.850395751953124,-0.5589979887008667,3.9149010181427,-4.268229961395264
1780563546200920000,11.869920166015625,-0.7663050293922424,4.054605960845947,-4.134555816650391
1780563546220448800,11.88944873046875,-1.1741809844970703,3.506455898284912,-2.445111036300659
1780563546239977000,11.90897705078125,-1.5105340480804443,1.3934509754180908,-1.793977975845337
1780563546259507200,11.928507080078123,-1.463616967201233,-0.5551919937133789,-1.017969012260437
1780563546279036700,11.94803662109375,-1.463616967201233,-0.5551919937133789,-1.017969012260437
1780563546298563800,11.967563720703126,0.5160080194473267,-0.5167750120162964,-0.5287619829177856
1780563546318091800,11.987091796875,0.5160080194473267,-0.5167750120162964,-0.5287619829177856
1780563546337618200,12.0066181640625,1.2872029542922974,0.370602011680603,-0.4244759976863861
1780563546357144800,12.026144775390623,1.2872029542922974,0.370602011680603,-0.4244759976863861
1780563546376678400,12.045678466796875,-0.765986979007721,0.5469459891319275,0.9597610235214232
1780563546396213200,12.065213134765624,-1.28813898563385,0.1876289993524551,1.4807900190353394
1780563546415743700,12.08474365234375,-1.861991047859192,-0.2206780016422271,1.7203439474105835
1780563546435270700,12.104270751953123,-2.0317800045013428,-0.447486013174057,1.8522599935531616
1780563546454793200,12.123793212890623,-1.6710920333862305,-0.3186309933662414,2.0501129627227783
1780563546474319400,12.1433193359375,-1.6710920333862305,-0.3186309933662414,2.0501129627227783
1780563546493849000,12.16284912109375,0.2309720069169998,0.2860049903392792,2.681588888168335
1780563546513384700,12.182384765625,0.2309720069169998,0.2860049903392792,2.681588888168335
1780563546532926000,12.201926025390623,-0.069412000477314,-0.0308820009231567,2.6528160572052
1780563546552461800,12.2214619140625,-0.069412000477314,-0.0308820009231567,2.6528160572052
1780563546571991600,12.240991455078126,-0.5562130212783813,-0.6068140268325806,1.76357102394104
1780563546591523000,12.260523193359376,-0.4911819994449615,-0.8479629755020142,1.4984489679336548
1780563546611054000,12.28005419921875,-0.2896760106086731,-1.0904929637908936,1.4327960014343262
1780563546630586000,12.299586181640626,-0.0254110004752874,-1.2460980415344238,1.4070390462875366
1780563546650118000,12.319117919921876,0.1433490067720413,-1.2244210243225098,1.2389789819717407
1780563546669648400,12.3386484375,0.1433490067720413,-1.2244210243225098,1.2389789819717407
1780563546689176300,12.35817626953125,0.2396039962768554,-0.8197140097618103,0.3007049858570099
1780563546708703000,12.377702880859376,0.2396039962768554,-0.8197140097618103,0.3007049858570099
1780563546728228400,12.397228271484376,0.3614110052585602,-0.6026570200920105,-0.4809040129184723
1780563546747756000,12.416756103515626,0.3614110052585602,-0.6026570200920105,-0.4809040129184723
1780563546767281200,12.43628125,0.7721400260925293,-0.706358015537262,0.0251209996640682
1780563546786804200,12.45580419921875,0.7721400260925293,-0.706358015537262,0.0251209996640682
1780563546806330600,12.47533056640625,0.955062985420227,-0.5714600086212158,0.1564899981021881
1780563546825858600,12.494858642578125,0.9145179986953736,-0.4516170024871826,-1.7761280536651611
1780563546845387800,12.5143876953125,0.8681300282478333,-0.4341329932212829,-2.011183977127075
1780563546864919600,12.53391943359375,0.9506800174713136,-0.551472008228302,-1.872493028640747
1780563546884451000,12.553451171875,0.9506800174713136,-0.551472008228302,-1.872493028640747
1780563546903984400,12.572984375,1.2613739967346191,-0.7754560112953186,0.6969829797744751
1780563546923518000,12.59251806640625,1.1876230239868164,-0.8432859778404236,2.0256359577178955
1780563546943051300,12.61205126953125,1.1876230239868164,-0.8432859778404236,2.0256359577178955
1780563546962586400,12.63158642578125,1.1876230239868164,-0.8432859778404236,2.0256359577178955
1780563546982119200,12.651119140625,-0.0733999982476234,-1.0358480215072632,1.4680310487747192
1780563547001653200,12.6706533203125,-0.3118990063667297,-0.9911500215530396,1.6722970008850098
1780563547021188000,12.69018798828125,-0.3103100061416626,-0.6657080054283142,3.425520896911621
1780563547040719600,12.7097197265625,-0.1506679952144622,-0.2895129919052124,3.768383026123047
1780563547060252200,12.729252197265623,-0.1096360012888908,-0.0291889999061822,4.149211883544922
1780563547079786200,12.7487861328125,-0.1096360012888908,-0.0291889999061822,4.149211883544922
1780563547099317800,12.76831787109375,-0.1689009964466095,0.4340499937534332,3.717042922973633
1780563547118844700,12.7878447265625,-0.1689009964466095,0.4340499937534332,3.717042922973633
1780563547138372600,12.80737255859375,-0.4937100112438202,1.0453170537948608,2.9225189685821533
1780563547157901600,12.826901611328124,-0.4937100112438202,1.0453170537948608,2.9225189685821533
1780563547177428500,12.846428466796874,-0.4672150015830993,1.1371400356292725,2.5414669513702397
1780563547196952800,12.865952880859377,-0.4104210138320923,0.9912139773368835,2.222093105316162
1780563547216476000,12.885475830078123,-0.3436099886894226,0.8667060136795044,1.7920269966125488
1780563547236005600,12.905005615234376,-0.3594569861888885,0.7751060128211975,1.3384560346603394
1780563547255535000,12.92453515625,-0.5225300192832947,0.6974790096282959,0.8835440278053284
1780563547275057700,12.9440576171875,-0.5225300192832947,0.6974790096282959,0.8835440278053284
1780563547294577000,12.963576904296875,-0.9971460103988647,0.6332719922065735,-0.3381209969520569
1780563547314096400,12.983096435546877,-0.9971460103988647,0.6332719922065735,-0.3381209969520569
1780563547333617400,13.002617431640624,-1.0819449424743652,0.9408130049705504,-1.550097942352295
1780563547353140000,13.022139892578124,-1.0819449424743652,0.9408130049705504,-1.550097942352295
1780563547372667000,13.0416669921875,-0.9717879891395568,1.2585140466690063,-2.155625104904175
1780563547392196000,13.061196044921877,-0.9277330040931702,1.2977770566940308,-2.520127058029175
1780563547411725000,13.08072509765625,-0.7834270000457764,1.4114149808883667,-4.454686164855957
1780563547431255300,13.10025537109375,-0.6261109709739685,1.7399699687957764,-4.979981899261475
1780563547450781000,13.119781005859377,-0.5594180226325989,2.135793924331665,-6.326342105865479
1780563547470304500,13.139304443359377,-0.5594180226325989,2.135793924331665,-6.326342105865479
1780563547489835500,13.15883544921875,-0.7960739731788635,2.249747037887573,-4.237417221069336
1780563547509363500,13.178363525390624,-0.7960739731788635,2.249747037887573,-4.237417221069336
1780563547528886500,13.197886474609374,-0.8744310140609741,2.249743938446045,-3.677872896194458
1780563547548411600,13.21741162109375,-0.8744310140609741,2.249743938446045,-3.677872896194458
1780563547567937500,13.2369375,-0.869513988494873,2.970633029937744,-5.5189080238342285
1780563547587464200,13.256464111328125,-0.869513988494873,2.970633029937744,-5.5189080238342285
1780563547606989600,13.275989501953124,-1.3804700374603271,0.6555719971656799,-1.3774429559707642
1780563547626516200,13.29551611328125,-1.3025319576263428,-0.973609983921051,-0.6158379912376404
1780563547646044000,13.3150439453125,-0.904567003250122,-1.2003320455551147,-0.1189339980483055
1780563547665571800,13.33457177734375,-0.904567003250122,-1.2003320455551147,-0.1189339980483055
1780563547685102000,13.35410205078125,-0.904567003250122,-1.2003320455551147,-0.1189339980483055
1780563547704634000,13.373634033203125,0.2695330083370209,0.0066990000195801,-1.9616940021514893
1780563547724163000,13.3931630859375,0.2695330083370209,0.0066990000195801,-1.9616940021514893
1780563547743689700,13.412689697265623,-0.6328380107879639,-0.149057000875473,1.1891200542449951
1780563547763216000,13.4322158203125,-0.6328380107879639,-0.149057000875473,1.1891200542449951
1780563547782741200,13.4517412109375,-0.6328380107879639,-0.149057000875473,1.1891200542449951
1780563547802263000,13.471262939453124,-2.2278308868408203,-0.0687170028686523,1.5415829420089722
1780563547821782300,13.4907822265625,-2.020266056060791,0.1020350009202957,1.4900929927825928
1780563547841299200,13.51029931640625,-1.6891109943389893,-0.0150079997256398,2.008711099624634
1780563547860821500,13.529821533203124,-1.396577000617981,-0.4387269914150238,2.6740779876708984
1780563547880347600,13.54934765625,-1.396577000617981,-0.4387269914150238,2.6740779876708984
1780563547899868000,13.568867919921876,-0.8254110217094421,-1.216905951499939,2.6766390800476074
1780563547919390000,13.588389892578125,-0.8254110217094421,-1.216905951499939,2.6766390800476074
1780563547938911000,13.607910888671874,-0.1804800033569336,-1.5183279514312744,1.8293410539627075
1780563547958430700,13.6274306640625,-0.1804800033569336,-1.5183279514312744,1.8293410539627075
1780563547977956900,13.646956787109374,0.2394050061702728,-1.6741759777069092,2.04369592666626
1780563547997486600,13.666486572265624,0.274194985628128,-1.5615400075912476,1.9198919534683228
1780563548017014300,13.68601416015625,0.2965829968452453,-1.317975997924805,1.4411720037460327
1780563548036537600,13.70553759765625,0.3463039994239807,-0.9509299993515016,0.8546050190925598
1780563548056062500,13.7250625,0.3463039994239807,-0.9509299993515016,0.8546050190925598
1780563548075588600,13.744588623046877,0.4425469934940338,-0.4644660055637359,0.0124840000644326
1780563548095114500,13.764114501953124,0.4425469934940338,-0.4644660055637359,0.0124840000644326
1780563548114641400,13.783641357421876,0.4768019914627075,-0.4435180127620697,-0.2797389924526214
1780563548134165500,13.80316552734375,0.4768019914627075,-0.4435180127620697,-0.2797389924526214
1780563548153687800,13.822687744140625,0.5244529843330383,-0.7919110059738159,0.0250979997217655
1780563548173213000,13.842212890625,0.5244529843330383,-0.7919110059738159,0.0250979997217655
1780563548192740600,13.86174072265625,0.5799630284309387,-0.7474610209465027,-0.1460999995470047
1780563548212266200,13.881266357421875,0.7096480131149292,-0.6319929957389832,-0.5593400001525879
1780563548231788800,13.900788818359375,0.9111469984054564,-0.7207109928131104,-0.9432209730148317
1780563548251309300,13.920309326171877,0.9925429821014404,-0.898635983467102,-1.059514045715332
1780563548270830800,13.939830810546876,0.9925429821014404,-0.898635983467102,-1.059514045715332
1780563548290353400,13.959353515625,0.7655320167541504,-0.951000988483429,0.916392982006073
1780563548309879000,13.978879150390624,0.7655320167541504,-0.951000988483429,0.916392982006073
1780563548329408300,13.998408203125,0.7621309757232666,-0.4217469990253448,1.800871968269348
1780563548348932400,14.017932373046875,0.7621309757232666,-0.4217469990253448,1.800871968269348
1780563548368457200,14.037457275390626,0.882955014705658,-0.6073660254478455,2.293473958969116
1780563548387990000,14.056989990234374,0.8296419978141785,-0.7707189917564392,2.240628957748413
1780563548407519200,14.076519287109376,0.7013710141181946,-0.6435629725456238,2.152420997619629
1780563548427046700,14.096046630859377,0.5608189702033997,-0.2044499963521957,2.1037960052490234
1780563548446571500,14.115571533203124,0.3344539999961853,0.302293986082077,2.0721359252929688
1780563548466096000,14.13509619140625,0.3344539999961853,0.302293986082077,2.0721359252929688
1780563548485621500,14.15462158203125,-0.3022559881210327,0.6897450089454651,1.976925015449524
1780563548505145900,14.174145751953125,-0.3022559881210327,0.6897450089454651,1.976925015449524
1780563548524672000,14.193672119140626,-0.5751870274543762,0.836217999458313,1.487328052520752
1780563548544194000,14.213194091796876,-0.5751870274543762,0.836217999458313,1.487328052520752
1780563548563716600,14.232716552734376,-0.5751870274543762,0.836217999458313,1.487328052520752
1780563548583242200,14.2522421875,-0.1720219999551773,1.0132930278778076,0.3264690041542053
1780563548602767000,14.27176708984375,-0.1720219999551773,1.0132930278778076,0.3264690041542053
1780563548622294000,14.2912939453125,-0.1720219999551773,1.0132930278778076,0.3264690041542053
1780563548641815300,14.310815185546875,-0.4337550103664398,0.8027390241622925,0.0713410004973411
1780563548661334800,14.330334716796877,-0.5699939727783203,0.786861002445221,-0.3808720111846924
1780563548680855000,14.34985498046875,-0.6672859787940979,0.811365008354187,-1.8777669668197632
1780563548700379400,14.36937939453125,-0.6672859787940979,0.811365008354187,-1.8777669668197632
1780563548719909000,14.3889091796875,-0.4494029879570007,1.0529290437698364,-2.7147490978240967
1780563548739439000,14.408439208984374,-0.4494029879570007,1.0529290437698364,-2.7147490978240967
1780563548758964200,14.427964111328125,-0.2931340038776397,1.2104779481887815,-2.6310129165649414
1780563548778491400,14.447491455078126,-0.2931340038776397,1.2104779481887815,-2.6310129165649414
1780563548798024200,14.467024169921874,0.5712680220603943,1.3708930015563965,-3.0482630729675293
1780563548817554400,14.486554443359376,2.229389905929565,1.81571102142334,-4.798962116241455
1780563548837082000,14.50608203125,2.2755110263824463,3.5807878971099854,-5.062685012817383
1780563548856607200,14.525607177734376,1.920956015586853,3.6775949001312256,-4.882721900939941
1780563548876131000,14.545131103515626,1.920956015586853,3.6775949001312256,-4.882721900939941
1780563548895651800,14.56465185546875,-1.94952404499054,4.251513957977295,-2.9820470809936523
1780563548915169800,14.584169677734376,-1.94952404499054,4.251513957977295,-2.9820470809936523
1780563548934696200,14.6036962890625,-4.110433101654053,7.653435230255127,-4.7864179611206055
1780563548954225700,14.6232255859375,-4.110433101654053,7.653435230255127,-4.7864179611206055
1780563548973750800,14.642750732421876,-4.313079833984375,8.076229095458984,-2.420938014984131
1780563548993275100,14.662275146484374,-2.4887900352478027,7.3787431716918945,-0.1288499981164932
1780563549012801800,14.6818017578125,-0.2624559998512268,5.231750011444092,0.3719959855079651
1780563549032333000,14.7013330078125,1.9305959939956665,4.635334014892578,0.5412660241127014
1780563549051861200,14.720861328125,2.3231329917907715,4.197237968444824,0.3036639988422394
1780563549071387100,14.74038720703125,2.3231329917907715,4.197237968444824,0.3036639988422394
1780563549090914800,14.759914794921874,1.7354819774627686,3.735399007797241,0.5600190162658691
1780563549110443300,14.779443359375,1.7354819774627686,3.735399007797241,0.5600190162658691
1780563549129975000,14.79897509765625,-0.1561090052127838,3.362229108810425,2.628722906112671
1780563549149506600,14.818506591796876,-0.1561090052127838,3.362229108810425,2.628722906112671
1780563549169033700,14.83803369140625,-0.7554110288619995,3.816335916519165,2.094032049179077
1780563549188560600,14.857560546875,-1.0986080169677734,4.054265022277832,1.7244490385055542
1780563549208088600,14.877088623046877,-1.4082740545272827,4.082417964935303,1.6707240343093872
1780563549227616800,14.89661669921875,-1.3970810174942017,3.862842082977295,1.7885830402374268
1780563549247141600,14.9161416015625,-1.1534210443496704,3.5675530433654785,1.745447039604187
1780563549266666000,14.935666015625,-1.1534210443496704,3.5675530433654785,1.745447039604187
1780563549286189600,14.955189453125,-0.6180099844932556,3.0374128818511963,0.8516939878463745
1780563549305710600,14.974710693359375,-0.6180099844932556,3.0374128818511963,0.8516939878463745
1780563549325232400,14.994232421875,-0.7038689851760864,2.77400803565979,0.3071730136871338
1780563549344755200,15.013755126953123,-0.8410990238189697,2.701345920562744,0.3594340085983276
1780563549364277800,15.03327783203125,-0.8410990238189697,2.701345920562744,0.3594340085983276
1780563549383803600,15.0528037109375,-1.3006019592285156,2.965331077575684,0.146806001663208
1780563549403332000,15.07233203125,-1.5867170095443726,2.7683451175689697,-0.1342149972915649
1780563549422860300,15.0918603515625,-1.72958505153656,2.241278886795044,-0.4249230027198791
1780563549442390500,15.111390625,-1.72958505153656,2.241278886795044,-0.4249230027198791
1780563549461919200,15.130919189453126,-1.6766300201416016,1.7653499841690063,-0.4958710074424743
1780563549481447000,15.150447021484377,-1.6171129941940308,1.411460041999817,-0.4504939913749695
1780563549500977000,15.169976806640625,-1.5370080471038818,1.1917879581451416,-0.5130149722099304
1780563549520504000,15.189504150390626,-1.5370080471038818,1.1917879581451416,-0.5130149722099304
1780563549540033000,15.209032958984375,-1.620640993118286,1.084597945213318,-0.9130039811134338
1780563549559561000,15.22856103515625,-1.620640993118286,1.084597945213318,-0.9130039811134338
1780563549579086600,15.248086669921875,-1.3389270305633545,1.1878479719161987,-1.1114269495010376
1780563549598611700,15.26761181640625,-0.991100013256073,1.082139015197754,-1.1096559762954712
1780563549618134500,15.287134521484376,-0.6719790101051331,0.9692839980125428,-1.108515977859497
1780563549637658600,15.30665869140625,-0.5121650099754333,0.8046969771385193,-1.1617239713668823
1780563549657187000,15.32618701171875,-0.4570220112800598,0.6514800190925598,-1.1925979852676392
1780563549676715800,15.3457158203125,-0.4570220112800598,0.6514800190925598,-1.1925979852676392
1780563549696242200,15.3652421875,-0.2340669929981231,0.3217920064926147,-1.0054559707641602
