time,seconds_elapsed,z,y,x
1780527070530145300,-0.491854736328125,-0.07819075137376785,0.13927727937698364,0.5619960427284241
1780527070560388000,-0.46161181640625,-0.0354301854968071,0.12950342893600464,0.05497787147760391
1780527070570489300,-0.4515107421875,0.01710422709584236,0.06230825558304787,0.1111774742603302
1780527070580560100,-0.44143994140625,-0.03787364438176155,-0.08674286305904388,-0.11239920556545258
1780527070600702000,-0.421298095703125,-0.06719517707824707,-0.03176499158143997,-0.0354301854968071
1780527070610803200,-0.41119677734375,-0.030543262138962746,0.042760565876960754,0.08307767659425735
1780527070620874000,-0.4011259765625,-0.024434609338641167,0.04398229718208313,0.0403171069920063
1780527070630975200,-0.391024658203125,-0.0403171069920063,-0.024434609338641167,-0.11850785464048386
1780527070641046000,-0.3809541015625,-0.04886921867728233,-0.09040805697441101,-0.26145032048225403
1780527070661218300,-0.36078173828125,-0.01710422709584236,-0.1319468915462494,-0.28955012559890747
1780527070671319600,-0.350680419921875,0,-0.11362093687057495,-0.23457226157188416
1780527070681390300,-0.340609619140625,0.0012217304902151227,-0.09651670604944229,-0.17592918872833252
1780527070691552800,-0.330447265625,-0.004886921960860491,-0.0806342139840126,-0.11728613078594208
1780527070701654000,-0.320345947265625,-0.012217304669320583,-0.05742133408784866,-0.07941248267889023
1780527070711724800,-0.310275146484375,-0.015882495790719986,-0.03298672288656235,-0.07452555745840073
1780527070721826000,-0.300174072265625,-0.012217304669320583,-0.013439035043120384,-0.1062905490398407
1780527070731927300,-0.29007275390625,-0.013439035043120384,-0.00366519158706069,-0.14049901068210602
1780527070741998300,-0.280001708984375,-0.019547687843441963,0.00366519158706069,-0.14294247329235077
1780527070752099600,-0.269900390625,-0.03176499158143997,0.01466076634824276,-0.12339477986097336
1780527070782372900,-0.239627197265625,-0.0403171069920063,0.05742133408784866,0.042760565876960754
1780527070802545200,-0.219454833984375,-0.030543262138962746,0.0659734457731247,0.04398229718208313
1780527070812616000,-0.209384033203125,-0.013439035043120384,0.04764748737215996,0.00366519158706069
1780527070822686700,-0.199313232421875,0.00366519158706069,0.02687807008624077,-0.042760565876960754
1780527070832788000,-0.1892119140625,0.019547687843441963,0.015882495790719986,-0.06963863968849182
1780527070842889200,-0.17911083984375,0.030543262138962746,0.009773843921720982,-0.07452555745840073
1780527070852990700,-0.16900927734375,0.0403171069920063,0.0012217304902151227,-0.08429940044879913
1780527070883294700,-0.138705322265625,0.06108652427792549,-0.039095375686883926,-0.15271630883216858
1780527070903436300,-0.118563720703125,0.06719517707824707,-0.03298672288656235,-0.1014036312699318
1780527070913537500,-0.10846240234375,0.06352998316287994,-0.03176499158143997,-0.0757472887635231
1780527070923638800,-0.098361328125,0.05375614017248154,-0.02687807008624077,-0.05742133408784866
1780527070933740000,-0.088260009765625,0.0403171069920063,-0.021991148591041565,-0.04886921867728233
1780527070943841500,-0.078158447265625,0.03298672288656235,-0.02321287989616394,-0.05497787147760391
1780527070953942800,-0.06805712890625,0.02687807008624077,-0.019547687843441963,-0.0708603709936142
1780527070964044000,-0.0579560546875,0.015882495790719986,-0.01710422709584236,-0.09773843735456467
1780527070984246800,-0.037753173828125,-0.00366519158706069,-0.00733038317412138,-0.13927727937698364
1780527070994348000,-0.02765185546875,-0.010995574295520782,0.006108652334660292,-0.13316862285137177
1780527071004418800,-0.017581298828125,-0.019547687843441963,0.021991148591041565,-0.1014036312699318
1780527071014459100,-0.007540771484375,-0.024434609338641167,0.04153883829712868,-0.04398229718208313
1780527071024560400,0.002560302734375,-0.03176499158143997,0.0659734457731247,0.0012217304902151227
1780527071034662000,0.012661865234375,-0.02687807008624077,0.07819075137376785,0.01466076634824276
1780527071043732500,0.021732421875,-0.021991148591041565,0.07941248267889023,-0.00366519158706069
1780527071084107300,0.062107177734375,-0.01710422709584236,0.08796459436416626,0
1780527071094178000,0.072177978515625,-0.009773843921720982,0.09040805697441101,0.010995574295520782
1780527071124329500,0.10232958984375,0.01466076634824276,0.06841690838336945,-0.04153883829712868
1780527071134430700,0.1124306640625,0.024434609338641167,0.05864306539297104,-0.04153883829712868
1780527071144471000,0.122470947265625,0.02321287989616394,0.05375614017248154,-0.02687807008624077
1780527071164643300,0.142643310546875,0.012217304669320583,0.03176499158143997,-0.015882495790719986
1780527071174714000,0.152714111328125,0.00366519158706069,0.024434609338641167,-0.010995574295520782
1780527071194886100,0.17288623046875,-0.015882495790719986,0.019547687843441963,0.00366519158706069
1780527071204957000,0.18295703125,-0.02076941914856434,0.01466076634824276,0.00855211354792118
1780527071215058200,0.19305810546875,-0.030543262138962746,0.009773843921720982,0.00366519158706069
1780527071225159700,0.20315966796875,-0.0354301854968071,0,-0.0012217304902151227
1780527071235261000,0.213260986328125,-0.03298672288656235,-0.010995574295520782,-0.0024434609804302454
1780527071245362200,0.223362060546875,-0.04153883829712868,-0.015882495790719986,0.0024434609804302454
1780527071255402500,0.233402587890625,-0.05009094998240471,-0.015882495790719986,0.006108652334660292
1780527071265503700,0.243503662109375,-0.051312681287527084,-0.015882495790719986,0.00366519158706069
1780527071275574500,0.253574462890625,-0.05375614017248154,-0.025656340643763542,0.00733038317412138
1780527071305787100,0.283787109375,-0.028099801391363144,-0.03420845419168472,0.01466076634824276
1780527071315858000,0.29385791015625,-0.021991148591041565,-0.03420845419168472,-0.009773843921720982
1780527071325928700,0.3039287109375,-0.00366519158706069,-0.045204028487205505,-0.024434609338641167
1780527071335999500,0.31399951171875,0.013439035043120384,-0.06230825558304787,-0.02687807008624077
1780527071356202000,0.334201904296875,0.05619960278272629,-0.0806342139840126,-0.03420845419168472
1780527071366272800,0.344272705078125,0.09773843735456467,-0.09773843735456467,-0.06475171446800232
1780527071386445000,0.364445068359375,0.20036379992961884,-0.13927727937698364,-0.16249015927314758
1780527071406647600,0.3846474609375,0.32498031854629517,-0.16737708449363708,-0.3029891550540924
1780527071426789000,0.4047890625,0.5314527750015259,-0.18936823308467865,-0.6047565937042236
1780527071436921000,0.414921142578125,0.6731734871864319,-0.21380282938480377,-0.8600982427597046
1780527071446992000,0.424991943359375,0.807563841342926,-0.2480112910270691,-1.2192870378494263
1780527071457093000,0.435093017578125,0.9248499870300293,-0.27977627515792847,-1.653001308441162
1780527071467164000,0.445163818359375,1.0335839986801147,-0.2932153046131134,-2.1111502647399902
1780527071497468000,0.475468017578125,1.176526427268982,-0.35185837745666504,-3.363424062728882
1780527071507538700,0.48553857421875,1.177748203277588,-0.3396410644054413,-3.6273179054260254
1780527071517609500,0.495609375,1.1948524713516235,-0.3066543638706207,-3.771481990814209
1780527071527711000,0.5057109375,1.2302825450897217,-0.27000242471694946,-3.79958176612854
1780527071537842700,0.5158427734375,1.2754865884780884,-0.23945917189121246,-3.762929916381836
1780527071547913500,0.52591357421875,1.3158037662506104,-0.20525072515010834,-3.726278066635132
1780527071558014700,0.5360146484375,1.3536773920059204,-0.14294247329235077,-3.7165040969848633
1780527071568116200,0.5461162109375,1.4013248682022095,-0.015882495790719986,-3.758043050765991
1780527071578248000,0.556248046875,1.451415777206421,0.1466076523065567,-3.8851029872894287
1780527071588318700,0.566318603515625,1.5027284622192383,0.2675589919090271,-4.065918922424316
1780527071608521500,0.586521484375,1.674992561340332,0.35185837745666504,-4.283387184143066
1780527071618622700,0.596622802734375,1.8509217500686646,0.3836233615875244,-4.197865962982178
1780527071628754400,0.60675439453125,2.0561723709106445,0.4349360466003418,-3.944967746734619
1780527071638856000,0.61685595703125,2.22477126121521,0.4911356568336487,-3.5112533569335938
1780527071648957200,0.626957275390625,2.326174736022949,0.5510004758834839,-2.9077186584472656
1780527071659058400,0.637058349609375,2.367713689804077,0.7159340381622314,-2.207667112350464
1780527071669160000,0.647159912109375,2.3713788986206055,0.9712757468223572,-1.4953981637954712
1780527071679261200,0.65726123046875,2.372600555419922,1.177748203277588,-0.8759807348251343
1780527071709565200,0.687565185546875,2.116037130355835,1.643227458000183,0.024434609338641167
1780527071719666400,0.69766650390625,2.0024163722991943,1.7763961553573608,0.02321287989616394
1780527071729767700,0.707767578125,1.901012659072876,1.8582520484924316,-0.13927727937698364
1780527071739899600,0.717899658203125,1.7922786474227905,1.8863518238067627,-0.45692721009254456
1780527071749970400,0.727970458984375,1.673770785331726,1.853365182876587,-0.9077457785606384
1780527071760071700,0.73807177734375,1.5308283567428589,1.7849482297897339,-1.451415777206421
1780527071770142500,0.748142578125,1.3573426008224487,1.7373007535934448,-2.026850938796997
1780527071780274400,0.7582744140625,1.205847978591919,1.6957619190216064,-2.5619688034057617
1780527071810609000,0.78860888671875,0.9370672702789307,1.528384804725647,-4.111123085021973
1780527071820649200,0.798649169921875,0.8637634515762329,1.49906325340271,-4.62302827835083
1780527071840882200,0.818882080078125,0.799011766910553,1.187522053718567,-5.87896728515625
1780527071850953000,0.828952880859375,0.8051204085350037,1.0836749076843262,-6.233268737792969
1780527071861085000,0.8390849609375,0.7782423496246338,0.9529497623443604,-6.56680154800415
1780527071871186200,0.849186279296875,0.7012733221054077,0.797789990901947,-6.853908061981201
1780527071891389000,0.869388916015625,0.5277875661849976,0.5180137157440186,-6.969972610473633
1780527071901520600,0.879520751953125,0.4960225820541382,0.4031710624694824,-6.687752723693848
1780527071911622000,0.889621826171875,0.4813618063926697,0.31154128909111023,-6.254038333892822
1780527071921753900,0.89975390625,0.4300491213798523,0.251676470041275,-5.803219795227051
1780527071931824600,0.90982470703125,0.32620203495025635,0.1820378452539444,-5.429370403289795
1780527071941956400,0.919956298828125,0.2272418737411499,0.09162978827953339,-5.084842205047607
1780527071952057900,0.930057861328125,0.17837265133857727,-0.019547687843441963,-4.703662395477295
1780527071962189600,0.940189453125,0.1966986060142517,-0.10384709388017654,-4.304156303405762
1780527071972260400,0.95026025390625,0.2370157092809677,-0.14905111491680145,-3.9437460899353027
1780527071982392300,0.960392333984375,0.2565633952617645,-0.1417207419872284,-3.6529741287231445
1780527072002625500,0.98062548828125,0.19914206862449646,-0.07941248267889023,-3.0274481773376465
1780527072012726800,0.990726806640625,0.1771509200334549,-0.018325956538319588,-2.6474900245666504
1780527072022858500,1.0008583984375,0.1417207419872284,0.06230825558304787,-2.361604928970337
1780527072038025700,1.016025634765625,0.06475171446800232,0.1160643994808197,-2.2406537532806396
1780527072043061200,1.021061279296875,-0.015882495790719986,0.15271630883216858,-2.2345449924468994
1780527072053162500,1.03116259765625,-0.0708603709936142,0.17959438264369965,-2.2931880950927734
1780527072063294500,1.04129443359375,-0.10751228034496307,0.18936823308467865,-2.428800106048584
1780527072073426200,1.05142626953125,-0.13805554807186127,0.19547687470912933,-2.5338690280914307
1780527072083527400,1.06152734375,-0.16859880089759827,0.19058994948863983,-2.576629638671875
1780527072093659400,1.071659423828125,-0.19425514340400696,0.19547687470912933,-2.4947736263275146
1780527072103791000,1.081791015625,-0.20036379992961884,0.2064724564552307,-2.216219186782837
1780527072134125600,1.11212548828125,-0.2076941877603531,0.1771509200334549,-1.3096951246261597
1780527072154328300,1.132328369140625,0.01466076634824276,0.030543262138962746,-1.0225883722305298
1780527072174561500,1.1525615234375,0.28466320037841797,-0.3591887652873993,-1.1374311447143555
1780527072184662800,1.162662841796875,0.39095374941825867,-0.5583308339118958,-1.3964380025863647
1780527072199830000,1.177830078125,0.42149701714515686,-0.6279694437980652,-1.8851301670074463
1780527072204896000,1.18289599609375,0.3176499307155609,-0.6243042945861816,-2.3603832721710205
1780527072215027700,1.19302783203125,0.23579397797584534,-0.6841690540313721,-2.5118777751922607
1780527072225129000,1.20312890625,0.3885102868080139,-0.7122688889503479,-2.177123785018921
1780527072235291400,1.21329150390625,0.6316346526145935,-0.5827654600143433,-1.6175711154937744
1780527072245392600,1.223392578125,0.7452555894851685,-0.38728857040405273,-1.2522737979888916
1780527072285828600,1.26382861328125,0.455705463886261,0.09529497474431992,-0.33597588539123535
1780527072326264300,1.304264404296875,0.2321287989616394,0.5180137157440186,1.6383405923843384
1780527072336396300,1.314396240234375,0.1563815027475357,0.5253441333770752,1.948660135269165
1780527072427369000,1.405368896484375,0.1466076523065567,-0.24434609711170197,1.6493362188339233
1780527072518219800,1.4962197265625,0.09285151958465576,-0.8356636762619019,0.4031710624694824
1780527072548493300,1.526493408203125,0.006108652334660292,-0.8112290501594543,0.08429940044879913
1780527072558564000,1.536564208984375,-0.07208210229873657,-0.797789990901947,0.2431243658065796
1780527072568665300,1.546665283203125,-0.10995574295520782,-0.8100073337554932,0.39584067463874817
1780527072598939000,1.57693896484375,-0.21013765037059784,-0.7867944240570068,0.8674286603927612
1780527072609009700,1.587009765625,-0.23457226157188416,-0.7367035150527954,0.9773843884468079
1780527072619111000,1.59711083984375,-0.2675589919090271,-0.6841690540313721,1.0555751323699951
1780527072629181700,1.607181640625,-0.2968805134296417,-0.6389650702476501,1.1166616678237915
1780527072639252500,1.61725244140625,-0.3176499307155609,-0.6035348773002625,1.1630873680114746
1780527072649354000,1.62735400390625,-0.3335324227809906,-0.5852088928222656,1.177748203277588
1780527072659394300,1.637394287109375,-0.3481931984424591,-0.5852088928222656,1.1557570695877075
1780527072669495600,1.64749560546875,-0.3543018400669098,-0.5949827432632446,1.1020009517669678
1780527072689667600,1.66766748046875,-0.3677408695220947,-0.5693264007568359,0.9529497623443604
1780527072699738400,1.67773828125,-0.38117989897727966,-0.5497786998748779,0.8943067193031311
1780527072709778700,1.68777880859375,-0.3982841372489929,-0.5412266254425049,0.8588765263557434
1780527072719880000,1.6978798828125,-0.4080579876899719,-0.5375614166259766,0.8344419002532959
1780527072729981400,1.7079814453125,-0.4153883755207062,-0.5314527750015259,0.7684684991836548
1780527072740021800,1.718021728515625,-0.42638394236564636,-0.5241223573684692,0.6304129362106323
1780527072750092500,1.728092529296875,-0.46303585171699524,-0.50335294008255,0.44104471802711487
1780527072760193800,1.73819384765625,-0.5326744914054871,-0.45204028487205505,0.24678955972194672
1780527072770234000,1.748234130859375,-0.6035348773002625,-0.3738495409488678,0.09407325088977814
1780527072780305000,1.758304931640625,-0.6585127115249634,-0.294437050819397,0
1780527072800446500,1.778446533203125,-0.8686503767967224,-0.0757472887635231,-0.19792033731937408
1780527072810517200,1.788517333984375,-1.0286970138549805,0.06352998316287994,-0.3494149148464203
1780527072820588000,1.798588134765625,-1.177748203277588,0.17837265133857727,-0.4300491213798523
1780527072830658800,1.808658935546875,-1.3182471990585327,0.2736676335334778,-0.39584067463874817
1780527072840729600,1.8187294921875,-1.4453071355819702,0.3640756905078888,-0.21013765037059784
1780527072850800400,1.82880029296875,-1.5503759384155273,0.4593706727027893,0.10751228034496307
1780527072860902000,1.83890185546875,-1.6505578756332397,0.5632177591323853,0.43615779280662537
1780527072870972700,1.84897265625,-1.7482963800430298,0.6707300543785095,0.66584312915802
1780527072881074000,1.859073974609375,-1.8399261236190796,0.7415903806686401,0.7513642311096191
1780527072891114200,1.8691142578125,-1.930334210395813,0.8038986921310425,0.6792821288108826
1780527072911316700,1.889316650390625,-2.0195205211639404,0.9138544201850891,0.2590068578720093
1780527072931427800,1.909427734375,-2.113593816757202,0.9859365224838257,-0.2321287989616394
1780527072971680500,1.949680419921875,-2.1343631744384766,1.1850786209106445,-0.05742133408784866
1780527072981751300,1.959751220703125,-2.144136905670166,1.1887437105178833,0.02321287989616394
1780527073032105500,2.01010546875,-2.0280725955963135,0.8833111524581909,0.05253441259264946
1780527073082520300,2.060520263671875,-1.6371188163757324,0.7440338730812073,0.17959438264369965
1780527073102662100,2.080662109375,-1.4110987186431885,0.6866125464439392,0.7623597979545593
1780527073122834200,2.100834228515625,-1.1081095933914185,0.646295428276062,1.0690141916275024
1780527073132905000,2.110905029296875,-0.9187413454055786,0.6316346526145935,1.0604621171951294
1780527073142975700,2.120975830078125,-0.7538077235221863,0.6194173693656921,0.9187413454055786
1780527073153046500,2.131046630859375,-0.6340781450271606,0.5937610268592834,0.6572909951210022
1780527073163117300,2.141117431640625,-0.5546656250953674,0.5510004758834839,0.37751471996307373
1780527073173218600,2.151218505859375,-0.4740314185619354,0.50335294008255,0.13439035415649414
1780527073183289300,2.161289306640625,-0.38728857040405273,0.4605923891067505,-0.015882495790719986
1780527073193360400,2.1713603515625,-0.304210901260376,0.39584067463874817,-0.051312681287527084
1780527073213563000,2.19156298828125,-0.1368338167667389,0.22846360504627228,0.3090978264808655
1780527073223633700,2.201633544921875,-0.02932153269648552,0.22357667982578278,0.7379252314567566
1780527073233735000,2.21173486328125,0.08796459436416626,0.2822197377681732,1.236391305923462
1780527073243806000,2.221805908203125,0.17837265133857727,0.41661009192466736,1.6285667419433594
1780527073253846000,2.231845947265625,0.2382374405860901,0.608421802520752,1.6029103994369507
1780527073263947500,2.241947509765625,0.2577851414680481,0.7538077235221863,0.6524040699005127
1780527073274018300,2.252018310546875,0.08429940044879913,0.5400048494338989,-0.970054030418396
1780527073284089000,2.262089111328125,-0.07208210229873657,-0.23090706765651703,-1.9071213006973267
1780527073294160000,2.272159912109375,0.1368338167667389,-0.9175195693969727,-1.624901533126831
1780527073344575000,2.322574951171875,0.06475171446800232,0.39584067463874817,1.0946705341339111
1780527073354676200,2.33267626953125,0.24190263450145721,0.3384193480014801,0.6597344875335693
1780527073364747000,2.3427470703125,0.30054569244384766,0.3029891550540924,0.26633724570274353
1780527073374848300,2.35284814453125,0.26022860407829285,0.31520646810531616,-0.018325956538319588
1780527073384949500,2.362949462890625,0.16493362188339233,0.36163222789764404,-0.19914206862449646
1780527073415192600,2.393192626953125,0.028099801391363144,0.384845107793808,-0.44715335965156555
1780527073425293800,2.4032939453125,0.042760565876960754,0.3445279896259308,-0.5497786998748779
1780527073455537000,2.433536865234375,0.06352998316287994,0.3078760802745819,-0.656069278717041
1780527073465607700,2.443607666015625,0.13439035415649414,0.35185837745666504,-0.626747727394104
1780527073475647700,2.453647705078125,0.2064724564552307,0.32498031854629517,-0.7440338730812073
1780527073485749200,2.463749267578125,0.18570303916931152,0.2871066629886627,-1.009149432182312
1780527073495789600,2.47378955078125,0.07330382615327835,0.2382374405860901,-1.3756685256958008
1780527073505890800,2.483890869140625,0.05497787147760391,0.22602014243602753,-1.508837103843689
1780527073515992000,2.493991943359375,0.12461651116609573,0.22968533635139465,-1.4575244188308716
1780527073536103200,2.514103271484375,0.21380282938480377,0.2272418737411499,-1.0922271013259888
1780527073546235100,2.524235107421875,0.23579397797584534,0.12217304855585098,-0.9456194043159485
1780527073556336400,2.53433642578125,0.2932153046131134,-0.04886921867728233,-0.7147123217582703
1780527073566437600,2.544437744140625,0.38240164518356323,-0.18325957655906677,-0.4153883755207062
1780527073576539000,2.554538818359375,0.4899139404296875,-0.2590068578720093,-0.1514945775270462
1780527073586640400,2.564640380859375,0.598647952079773,-0.35185837745666504,0.10018189996480942
1780527073596711200,2.574711181640625,0.720820963382721,-0.5314527750015259,0.30543261766433716
1780527073606782000,2.584781982421875,0.8930850028991699,-0.7538077235221863,0.4447098970413208
1780527073616913700,2.59491357421875,1.1020009517669678,-0.9492846131324768,0.5057964324951172
1780527073626984400,2.604984375,1.3243558406829834,-1.0800096988677979,0.39584067463874817
1780527073637086000,2.6150859375,1.5222761631011963,-1.1447614431381226,0.10384709388017654
1780527073647187200,2.625187255859375,1.6884315013885498,-1.1997393369674683,-0.2528982162475586
1780527073717835300,2.695835205078125,2.2430970668792725,-1.6468926668167114,-3.6969563961029053
1780527073727936800,2.705936767578125,2.305405378341675,-1.7238616943359375,-3.6309831142425537
1780527073738038000,2.7160380859375,2.2602014541625977,-1.7299703359603882,-2.7488934993743896
1780527073748139300,2.72613916015625,2.0415115356445312,-1.6493362188339233,-1.1582005023956299
1780527073758271200,2.736271240234375,1.7189748287200928,-1.4770721197128296,0.7147123217582703
1780527073768342000,2.746342041015625,1.3964380025863647,-1.2705997228622437,2.3322834968566895
1780527073778412800,2.756412841796875,1.273043155670166,-1.047023057937622,3.43672776222229
1780527073788483600,2.766483642578125,1.4147639274597168,-0.8112290501594543,3.9571850299835205
1780527073798584800,2.776584716796875,1.5528194904327393,-0.5827654600143433,3.7274997234344482
1780527073808716800,2.786716796875,1.4563027620315552,-0.37262779474258423,2.693915843963623
1780527073818787600,2.79678759765625,1.2327260971069336,-0.22357667982578278,1.1508700847625732
1780527073828858400,2.8068583984375,1.1020009517669678,-0.16249015927314758,-0.4190535545349121
1780527073838929200,2.81692919921875,1.1239920854568481,-0.16982053220272064,-1.6994271278381348
1780527073849030400,2.827030517578125,1.1594222784042358,-0.19914206862449646,-2.6902506351470947
1780527073919648000,2.89764794921875,0.1869247704744339,-0.0708603709936142,-5.1043901443481445
1780527073959900700,2.937900634765625,0.010995574295520782,0.28588494658470154,-2.7989845275878906
1780527074010254800,2.9882548828125,0.19058994948863983,0.31154128909111023,-1.654223084449768
1780527074020386600,2.998386474609375,0.13805554807186127,0.2638937830924988,-2.0610592365264893
1780527074030457300,3.008457275390625,0.0012217304902151227,0.17592918872833252,-2.7036895751953125
1780527074040528100,3.018528076171875,0.036651913076639175,0.05864306539297104,-2.993239641189575
1780527074050568400,3.028568359375,0.09896016865968704,-0.0757472887635231,-2.9883527755737305
1780527074060670000,3.038669921875,0.0403171069920063,-0.1514945775270462,-2.965139865875244
1780527074101014000,3.079013916015625,-0.08918632566928864,0.004886921960860491,-1.4220943450927734
1780527074111084800,3.089084716796875,-0.10873401165008545,0.06963863968849182,-1.1435397863388062
1780527074131257000,3.109257080078125,-0.16982053220272064,0.22846360504627228,-0.7134906053543091
1780527074141358300,3.1193583984375,-0.2028072625398636,0.3396410644054413,-0.5534439086914062
1780527074151459600,3.12945947265625,-0.21380282938480377,0.4349360466003418,-0.41172316670417786
1780527074161530400,3.1395302734375,-0.2028072625398636,0.4996877610683441,-0.22968533635139465
1780527074171692800,3.14969287109375,-0.17837265133857727,0.5326744914054871,-0.02932153269648552
1780527074181763600,3.159763671875,-0.16859880089759827,0.5180137157440186,0.09651670604944229
1780527074191834400,3.16983447265625,-0.1820378452539444,0.475253164768219,0.13316862285137177
1780527074201935600,3.179935546875,-0.20891591906547546,0.4178318381309509,0.17837265133857727
1780527074262543600,3.240543701171875,-0.9419541954994202,0.23335053026676178,1.8448129892349243
1780527074272644900,3.250644775390625,-1.0213667154312134,0.23335053026676178,2.509434461593628
1780527074282776800,3.26077685546875,-0.9932668805122375,0.21868975460529327,3.163060188293457
1780527074292878000,3.270878173828125,-0.9553932547569275,0.13561208546161652,3.5381314754486084
1780527074302948900,3.280948974609375,-1.0604621171951294,0.08307767659425735,3.4746015071868896
1780527074313050000,3.291050048828125,-1.254717230796814,0.14905111491680145,3.1874947547912598
1780527074323121000,3.301120849609375,-1.3976596593856812,0.22602014243602753,3.0335566997528076
1780527074333192000,3.31119189453125,-1.4282029867172241,0.21502456068992615,3.2094860076904297
1780527074343262700,3.3212626953125,-1.4172073602676392,0.14782938361167908,3.6248743534088135
1780527074353364000,3.331364013671875,-1.4892895221710205,0.08674286305904388,4.004832744598389
1780527074423920600,3.401920654296875,-1.8216001987457275,0.3995058834552765,2.719572067260742
1780527074454255000,3.432255126953125,-1.4599679708480835,0.7745771408081055,3.543018341064453
1780527074464356400,3.4423564453125,-1.3561208248138428,0.9053022861480713,3.8398988246917725
1780527074474457600,3.45245751953125,-1.214400053024292,0.9822713136672974,3.830125093460083
1780527074484559000,3.46255908203125,-1.0702359676361084,0.9932668805122375,3.6578609943389893
1780527074494660400,3.472660400390625,-0.9627236127853394,0.9236282706260681,3.5723400115966797
1780527074504761600,3.48276171875,-0.8747590184211731,0.8637634515762329,3.7250561714172363
1780527074514893600,3.4928935546875,-0.7293730974197388,0.8454375267028809,4.141666412353516
1780527074524994800,3.502994873046875,-0.46792277693748474,0.856433093547821,4.447099208831787
1780527074535096000,3.513095947265625,-0.3139847218990326,0.789237916469574,4.348138809204102
1780527074545197300,3.523197265625,-0.2993239760398865,0.7061602473258972,3.9070940017700195
1780527074555298800,3.533298828125,-0.2431243658065796,0.6279694437980652,3.4184019565582275
1780527074565400000,3.543400146484375,-0.10873401165008545,0.5436700582504272,3.0225613117218018
1780527074575531800,3.55353173828125,-0.013439035043120384,0.48258355259895325,2.75500226020813
1780527074626069000,3.604069091796875,0.3445279896259308,0.3445279896259308,0.9676105380058289
1780527074636170200,3.614170166015625,0.39217549562454224,0.22602014243602753,0.6145304441452026
1780527074656373000,3.634373046875,0.513126790523529,-0.01466076634824276,0.07941248267889023
1780527074696839200,3.674839111328125,0.14049901068210602,-0.7086036801338196,-1.1105530261993408
1780527074706971100,3.68497119140625,0.009773843921720982,-0.8442157506942749,-0.7867944240570068
1780527074717072400,3.695072265625,-0.10995574295520782,-0.836885392665863,-0.3433062732219696
1780527074727204400,3.705204345703125,-0.2871066629886627,-0.8307767510414124,-0.1319468915462494
1780527074737305600,3.7153056640625,-0.5619960427284241,-0.9053022861480713,-0.32620203495025635
1780527074747468000,3.725468017578125,-0.8955284357070923,-0.9615018963813782,-0.8649851679801941
1780527074757569300,3.7355693359375,-1.2400563955307007,-0.9419541954994202,-1.5601497888565063
1780527074767701000,3.745700927734375,-1.5320500135421753,-0.911410927772522,-2.172236919403076
1780527074777802500,3.755802490234375,-1.7214182615280151,-0.9236282706260681,-2.500882387161255
1780527074787903700,3.76590380859375,-1.8362609148025513,-0.8552113175392151,-2.5509731769561768
1780527074798035500,3.776035400390625,-1.8496999740600586,-0.7220427393913269,-2.2968533039093018
1780527074808167400,3.78616748046875,-1.7043139934539795,-0.5363397002220154,-1.8777997493743896
1780527074818299100,3.796299072265625,-1.4697418212890625,-0.3494149148464203,-1.5125023126602173
1780527074828400600,3.806400634765625,-1.2376129627227783,-0.21991148591041565,-1.3426817655563354
1780527074858674000,3.836673828125,-0.8258898258209229,-0.030543262138962746,-2.1868975162506104
1780527074919251500,3.89725146484375,0.15393804013729095,-0.1661553531885147,-4.2003092765808105
1780527074929291800,3.907291748046875,0.4031710624694824,0.03787364438176155,-3.5723400115966797
1780527074939393000,3.91739306640625,0.5338962078094482,0.24434609711170197,-2.8160886764526367
1780527074989808000,3.96780810546875,0.05375614017248154,0.42760565876960754,-0.010995574295520782
1780527075040223000,4.018222900390625,-0.11362093687057495,0.6255260109901428,-0.33597588539123535
1780527075050263300,4.02826318359375,-0.17592918872833252,0.6255260109901428,-0.7342600226402283
1780527075060364500,4.038364501953125,-0.23457226157188416,0.6426302194595337,-0.96883225440979
1780527075070466000,4.048466064453125,-0.2528982162475586,0.6524040699005127,-0.9627236127853394
1780527075080567300,4.0585673828125,-0.27488934993743896,0.6023131608963013,-0.7684684991836548
1780527075090638000,4.06863818359375,-0.32620203495025635,0.5705481171607971,-0.16371189057826996
1780527075100708900,4.078708984375,-0.2981022298336029,0.5607742667198181,0.6963863968849182
1780527075110779600,4.088779541015625,-0.1869247704744339,0.44837507605552673,1.8252654075622559
1780527075120850400,4.098850341796875,0.0806342139840126,0.19425514340400696,3.0298917293548584
1780527075130952000,4.108951904296875,0.23579397797584534,0.16859880089759827,3.8313467502593994
1780527075141022700,4.119022705078125,0.09651670604944229,0.3078760802745819,3.271794319152832
1780527075151093500,4.129093505859375,-0.14294247329235077,0.3689626157283783,1.9339994192123413
1780527075161194800,4.13919482421875,-0.20525072515010834,0.32986724376678467,0.6414085030555725
1780527075171296000,4.1492958984375,-0.0708603709936142,0.2223549485206604,-0.1270599663257599
1780527075181397500,4.1593974609375,0.19914206862449646,0.1966986060142517,-0.1966986060142517
1780527075191468300,4.16946826171875,0.3384193480014801,0.33475416898727417,0.09162978827953339
1780527075201478000,4.179477783203125,0.12950342893600464,0.598647952079773,0.4764748811721802
1780527075211579400,4.189579345703125,-0.1466076523065567,0.8002334833145142,0.5277875661849976
1780527075221650200,4.199650146484375,-0.24434609711170197,0.7440338730812073,-0.0708603709936142
1780527075231751400,4.20975146484375,-0.14294247329235077,0.5314527750015259,-0.5229006409645081
1780527075241852700,4.219852783203125,0.08796459436416626,0.31642818450927734,-0.588874101638794
1780527075261994200,4.239994140625,-0.06841690838336945,0.3029891550540924,-0.33719760179519653
1780527075272095700,4.250095703125,-0.09285151958465576,0.3640756905078888,0.025656340643763542
1780527075282166500,4.26016650390625,0.030543262138962746,0.33475416898727417,-0.01466076634824276
1780527075292237300,4.2702373046875,0.09285151958465576,0.26022860407829285,-0.31642818450927734
1780527075322449700,4.30044970703125,0.04642575979232788,0.1111774742603302,-0.3127630054950714
1780527075332520400,4.3105205078125,-0.013439035043120384,0.1612684279680252,-0.08796459436416626
1780527075433381000,4.411381103515625,-0.00366519158706069,0.11728613078594208,-0.37140607833862305
1780527075493805800,4.471805908203125,-0.010995574295520782,-0.01466076634824276,0.08307767659425735
1780527075554230500,4.53223046875,0.036651913076639175,0.03298672288656235,-0.006108652334660292
1780527075584504000,4.562504150390625,0.02321287989616394,0.06475171446800232,0.09773843735456467
1780527075594574800,4.572574951171875,0.05375614017248154,0.05864306539297104,0.09040805697441101
1780527075604645600,4.582645751953125,0.06230825558304787,0.06475171446800232,0.06475171446800232
1780527075624817700,4.602817626953125,0.10262536257505417,0.06719517707824707,-0.039095375686883926
1780527075634949600,4.61294970703125,0.11362093687057495,0.06719517707824707,-0.06841690838336945
1780527075645020400,4.6230205078125,0.1417207419872284,0.05375614017248154,-0.06352998316287994
1780527075655121700,4.63312158203125,0.14538592100143433,0.02932153269648552,-0.09040805697441101
1780527075665223200,4.64322314453125,0.11239920556545258,0.00855211354792118,-0.05253441259264946
1780527075675324400,4.653324462890625,0.10384709388017654,0.0024434609804302454,0.09896016865968704
1780527075685456100,4.6634560546875,0.11239920556545258,-0.012217304669320583,0.15027284622192383
1780527075695527000,4.67352685546875,0.10506882518529892,-0.028099801391363144,0.09529497474431992
1780527075705628400,4.68362841796875,0.11484266817569733,-0.06108652427792549,0.009773843921720982
1780527075735871200,4.713871337890625,0.11362093687057495,-0.16737708449363708,-0.05864306539297104
1780527075745911600,4.72391162109375,0.11484266817569733,-0.16982053220272064,-0.08796459436416626
1780527075756012800,4.7340126953125,0.1258382350206375,-0.15027284622192383,-0.14538592100143433
1780527075766114300,4.7441142578125,0.13316862285137177,-0.12095131725072861,-0.12217304855585098
1780527075776215600,4.754215576171875,0.13439035415649414,-0.1014036312699318,-0.030543262138962746
1780527075786286300,4.764286376953125,0.11728613078594208,-0.06719517707824707,0.1417207419872284
1780527075796387600,4.7743876953125,0.10995574295520782,-0.028099801391363144,0.23335053026676178
1780527075806488800,4.78448876953125,0.10506882518529892,-0.00366519158706069,0.19058994948863983
1780527075816590300,4.79459033203125,0.10384709388017654,0.024434609338641167,0.09162978827953339
1780527075836762400,4.814762451171875,0.1270599663257599,0.11484266817569733,-0.030543262138962746
1780527075846833200,4.824833251953125,0.11850785464048386,0.16859880089759827,0.00855211354792118
1780527075856904000,4.834904052734375,0.11728613078594208,0.23579397797584534,0.1111774742603302
1780527075867005200,4.845005126953125,0.11484266817569733,0.304210901260376,0.17470745742321014
1780527075877076000,4.855075927734375,0.11239920556545258,0.35674530267715454,0.18814650177955627
1780527075887177500,4.865177490234375,0.12461651116609573,0.39095374941825867,0.15027284622192383
1780527075897278700,4.87527880859375,0.1417207419872284,0.3995058834552765,0.05253441259264946
1780527075937592600,4.915592529296875,0.1563815027475357,0.35674530267715454,-0.20525072515010834
1780527075987946500,4.965946533203125,0.10262536257505417,0.2076941877603531,-0.33108896017074585
1780527075998047700,4.9760478515625,0.12950342893600464,0.15271630883216858,-0.37629300355911255
1780527076048462800,5.026462890625,0.12950342893600464,-0.1514945775270462,-0.21380282938480377
1780527076068604400,5.0466044921875,0.14294247329235077,-0.13805554807186127,-0.24678955972194672
1780527076078675200,5.05667529296875,0.16982053220272064,-0.11362093687057495,-0.21624629199504852
1780527076088715500,5.066715576171875,0.14538592100143433,-0.06230825558304787,-0.1466076523065567
1780527076098816800,5.076816650390625,0.06841690838336945,-0.00855211354792118,-0.02932153269648552
1780527076108918000,5.08691796875,0.0354301854968071,-0.00855211354792118,0.1722639948129654
1780527076119019500,5.09701953125,0.04642575979232788,-0.02321287989616394,0.304210901260376
1780527076129059800,5.107059814453125,-0.004886921960860491,0.0012217304902151227,0.2724458873271942
1780527076159333000,5.1373330078125,-0.0012217304902151227,0.006108652334660292,0.2675589919090271
1780527076169373400,5.14737353515625,-0.09162978827953339,-0.024434609338641167,0.1771509200334549
1780527076179474700,5.157474609375,-0.16493362188339233,-0.030543262138962746,0.06963863968849182
1780527076209687300,5.187687255859375,-0.09896016865968704,0.09773843735456467,-0.06719517707824707
1780527076229859300,5.207859375,-0.2028072625398636,0.16493362188339233,0.04153883829712868
1780527076239930000,5.21793017578125,-0.19303341209888458,0.17470745742321014,0.09162978827953339
1780527076280243700,5.25824365234375,-0.1111774742603302,0.15515977144241333,-0.17470745742321014
1780527076310486800,5.28848681640625,0.010995574295520782,0.09773843735456467,-0.08674286305904388
1780527076320588000,5.298588134765625,0.009773843921720982,0.0806342139840126,-0.024434609338641167
1780527076330689300,5.308689208984375,0.021991148591041565,0.08429940044879913,0.10018189996480942
1780527076340760000,5.318760009765625,0.05009094998240471,0.07819075137376785,0.17348572611808777
1780527076350861600,5.328861572265625,0.051312681287527084,0.0757472887635231,0.14782938361167908
1780527076360962800,5.338962890625,0.036651913076639175,0.0806342139840126,0.14294247329235077
1780527076371033600,5.34903369140625,0.03176499158143997,0.09040805697441101,0.1514945775270462
1780527076381104400,5.3591044921875,0.019547687843441963,0.08552113175392151,0.1270599663257599
1780527076391205600,5.36920556640625,-0.012217304669320583,0.08552113175392151,0.059864792972803116
1780527076401276400,5.3792763671875,-0.0354301854968071,0.1014036312699318,0.00366519158706069
1780527076411378000,5.3893779296875,-0.04642575979232788,0.12461651116609573,-0.051312681287527084
1780527076431550000,5.409550048828125,-0.06475171446800232,0.1417207419872284,-0.10506882518529892
1780527076481934600,5.4599345703125,-0.07330382615327835,0.15027284622192383,-0.0012217304902151227
1780527076552491000,5.530490966796875,-0.0403171069920063,0.03176499158143997,0.04886921867728233
1780527076633210000,5.611210205078125,-0.018325956538319588,-0.006108652334660292,0.02076941914856434
1780527076643311400,5.621311279296875,-0.00733038317412138,-0.04153883829712868,0.02687807008624077
1780527076713898500,5.6918984375,0.08429940044879913,0.019547687843441963,0.09773843735456467
1780527076804780000,5.782780029296875,-0.16371189057826996,-0.10018189996480942,0.04153883829712868
1780527076835053300,5.81305322265625,-0.08552113175392151,-0.1160643994808197,0.24190263450145721
1780527076855256000,5.833256103515625,-0.12828169763088226,-0.030543262138962746,0.036651913076639175
1780527076875428000,5.853427978515625,-0.08307767659425735,0.024434609338641167,0.2871066629886627
1780527076895630800,5.873630859375,0.00733038317412138,-0.13927727937698364,0.08307767659425735
1780527076905732000,5.883732177734375,0.010995574295520782,-0.16371189057826996,-0.021991148591041565
1780527076915863800,5.89386376953125,0.025656340643763542,-0.1319468915462494,-0.0757472887635231
1780527076925965300,5.90396533203125,-0.01710422709584236,-0.06230825558304787,-0.20036379992961884
1780527076936097000,5.914096923828125,-0.09162978827953339,0.021991148591041565,-0.2773328125476837
1780527076946229000,5.92422900390625,-0.036651913076639175,0.1160643994808197,-0.17959438264369965
1780527076956330200,5.934330322265625,0.07330382615327835,0.15393804013729095,-0.06963863968849182
1780527076966431500,5.944431396484375,0.10995574295520782,0.09896016865968704,-0.04398229718208313
1780527076976533000,5.954532958984375,0.05619960278272629,0.00855211354792118,-0.1661553531885147
1780527076986634200,5.96463427734375,-0.02076941914856434,-0.05253441259264946,-0.2822197377681732
1780527076996735500,5.974735595703125,-0.04642575979232788,-0.09285151958465576,-0.2626720666885376
1780527077006867500,5.984867431640625,-0.01710422709584236,-0.10384709388017654,-0.16493362188339233
1780527077016999200,5.994999267578125,-0.004886921960860491,-0.10506882518529892,-0.08918632566928864
1780527077027100400,6.005100341796875,-0.02687807008624077,-0.11362093687057495,-0.02932153269648552
1780527077107850000,6.08585009765625,-0.039095375686883926,-0.012217304669320583,-0.006108652334660292
1780527077117951200,6.095951171875,-0.015882495790719986,0.03787364438176155,-0.10995574295520782
1780527077158356700,6.136356689453125,-0.06230825558304787,0.04398229718208313,-0.6976081132888794
1780527077208863200,6.18686328125,-0.3494149148464203,0.018325956538319588,0.0403171069920063
1780527077289704200,6.2677041015625,-0.17959438264369965,0.12950342893600464,0.2565633952617645
1780527077319977700,6.297977783203125,-0.03420845419168472,0.0757472887635231,0.2382374405860901
1780527077330079000,6.308078857421875,0,0.05375614017248154,0.1869247704744339
1780527077340180200,6.31818017578125,0.03176499158143997,0.0403171069920063,0.17959438264369965
1780527077350281700,6.32828173828125,0.08307767659425735,0.028099801391363144,0.20525072515010834
1780527077360352500,6.3383525390625,0.12461651116609573,0,0.20891591906547546
1780527077380494000,6.358494140625,0.13927727937698364,-0.07208210229873657,0.1417207419872284
1780527077420868900,6.398868896484375,0.16371189057826996,-0.1270599663257599,0.1160643994808197
1780527077430939600,6.408939697265625,0.1514945775270462,-0.10262536257505417,0.006108652334660292
1780527077441010400,6.419010498046875,0.14294247329235077,-0.09407325088977814,-0.10751228034496307
1780527077451081200,6.429081298828125,0.15515977144241333,-0.10262536257505417,-0.2223549485206604
1780527077461182500,6.439182373046875,0.16249015927314758,-0.11239920556545258,-0.2626720666885376
1780527077471253200,6.449253173828125,0.14416420459747314,-0.08674286305904388,-0.31154128909111023
1780527077481324000,6.459323974609375,0.09162978827953339,-0.04764748737215996,-0.33719760179519653
1780527077491394800,6.469394775390625,0.039095375686883926,-0.04642575979232788,-0.3078760802745819
1780527077501465900,6.4794658203125,0.036651913076639175,-0.025656340643763542,-0.1869247704744339
1780527077511536600,6.48953662109375,0.04886921867728233,0.021991148591041565,-0.12217304855585098
1780527077521607400,6.499607421875,0.01710422709584236,-0.04764748737215996,-0.14294247329235077
1780527077531739100,6.5097392578125,-0.021991148591041565,-0.09285151958465576,-0.12339477986097336
1780527077541810000,6.519809814453125,-0.07452555745840073,-0.13072516024112701,-0.08307767659425735
1780527077551880700,6.529880615234375,-0.07452555745840073,-0.024434609338641167,-0.13805554807186127
1780527077561982200,6.539982177734375,-0.13805554807186127,0.02932153269648552,-0.16371189057826996
1780527077582154200,6.560154296875,-0.14782938361167908,0.09162978827953339,-0.30543261766433716
1780527077592225000,6.57022509765625,-0.12339477986097336,0.09896016865968704,-0.3787364661693573
1780527077602326300,6.580326171875,-0.08918632566928864,0.12095131725072861,-0.4031710624694824
1780527077612397000,6.59039697265625,-0.07330382615327835,0.07452555745840073,-0.3799581825733185
1780527077622498600,6.60049853515625,-0.02321287989616394,0.0659734457731247,-0.31642818450927734
1780527077632599800,6.610599853515625,-0.018325956538319588,-0.013439035043120384,-0.20891591906547546
1780527077703217400,6.681217529296875,0.2370157092809677,-0.31154128909111023,0.16249015927314758
1780527077713318700,6.691318603515625,0.2822197377681732,-0.375071257352829,0.11972958594560623
1780527077723389700,6.7013896484375,0.31520646810531616,-0.4495968222618103,0.1111774742603302
1780527077733491000,6.711490966796875,0.3481931984424591,-0.5229006409645081,0.19058994948863983
1780527077753663000,6.7316630859375,0.49357911944389343,-0.616973876953125,0.42149701714515686
1780527077773865700,6.75186572265625,0.5778785347938538,-0.6511823534965515,0.5265658497810364
1780527077783936500,6.7619365234375,0.6340781450271606,-0.6536257863044739,0.5497786998748779
1780527077794007300,6.77200732421875,0.7012733221054077,-0.6633996367454529,0.5192354321479797
1780527077804108500,6.782108642578125,0.7684684991836548,-0.6866125464439392,0.455705463886261
1780527077814179300,6.792179443359375,0.8283332586288452,-0.7195992469787598,0.4190535545349121
1780527077834321000,6.81232080078125,0.9541715383529663,-0.7281513810157776,0.6291912198066711
1780527077844422400,6.82242236328125,1.026253581047058,-0.7171558141708374,0.8381071090698242
1780527077854523600,6.832523681640625,1.0934487581253052,-0.7086036801338196,0.9969320893287659
1780527077874665200,6.852665283203125,1.1337659358978271,-0.6646214127540588,1.1301007270812988
1780527077884797000,6.862796875,1.1496484279632568,-0.6536257863044739,1.0751228332519531
1780527077894868000,6.872867919921875,1.1691961288452148,-0.6536257863044739,0.950506329536438
1780527077965485600,6.943485595703125,1.216843605041504,-0.5962044596672058,0.6438519954681396
1780527078005890800,6.983890869140625,1.0005972385406494,-0.6438519954681396,0.9199630618095398
1780527078015992000,6.993991943359375,0.9712757468223572,-0.6511823534965515,0.817337691783905
1780527078026093300,7.00409326171875,0.9285151958465576,-0.66584312915802,0.7134906053543091
1780527078036225300,7.014225341796875,0.8930850028991699,-0.6817256212234497,0.6805039048194885
1780527078056397300,7.034397216796875,0.8710938692092896,-0.6780604124069214,0.8258898258209229
1780527078066498800,7.044498779296875,0.8759807348251343,-0.6426302194595337,1.007927656173706
1780527078076600000,7.05460009765625,0.8979719281196594,-0.616973876953125,1.2681562900543213
1780527078086640400,7.064640380859375,0.9370672702789307,-0.616973876953125,1.508837103843689
1780527078096741600,7.07474169921875,0.9676105380058289,-0.6206390857696533,1.5968017578125
1780527078106843000,7.0848427734375,0.9480628371238708,-0.5925393104553223,1.470963478088379
1780527078116913700,7.09491357421875,0.9187413454055786,-0.5229006409645081,1.177748203277588
1780527078126954000,7.1049541015625,0.9040805697441101,-0.44715335965156555,0.807563841342926
1780527078137055200,7.11505517578125,0.8894197940826416,-0.38240164518356323,0.48747047781944275
1780527078157227500,7.1352275390625,0.901637077331543,-0.2724458873271942,0.598647952079773
1780527078187439900,7.16543994140625,0.7037167549133301,-0.304210901260376,2.076941728591919
1780527078258027000,7.236027099609375,0.5436700582504272,-0.1966986060142517,1.6175711154937744
1780527078278229800,7.256229736328125,0.5387831330299377,-0.19547687470912933,1.7275269031524658
1780527078298371300,7.276371337890625,0.513126790523529,-0.14782938361167908,1.5748106241226196
1780527078308442000,7.286442138671875,0.5351179838180542,-0.1417207419872284,1.4440854787826538
1780527078318543400,7.29654345703125,0.5644394755363464,-0.1466076523065567,1.3170254230499268
1780527078328644600,7.30664453125,0.5803219676017761,-0.1514945775270462,1.2498302459716797
1780527078338746000,7.31674609375,0.5949827432632446,-0.1563815027475357,1.273043155670166
1780527078348847400,7.326847412109375,0.618195652961731,-0.14049901068210602,1.3915510177612305
1780527078358948600,7.336948486328125,0.6426302194595337,-0.09529497474431992,1.577254056930542
1780527078379090200,7.357090087890625,0.6841690540313721,0.02687807008624077,1.8216001987457275
1780527078399231700,7.377231689453125,0.6475171446800232,0.04642575979232788,1.576032280921936
1780527078419373600,7.39737353515625,0.6963863968849182,-0.0024434609804302454,1.1032226085662842
1780527078429444400,7.4074443359375,0.7782423496246338,0.0012217304902151227,0.6548475623130798
1780527078439545600,7.417545654296875,0.7965682744979858,0.042760565876960754,0.4153883755207062
1780527078449616400,7.427616455078125,0.7831292152404785,0.06352998316287994,0.15027284622192383
1780527078459717600,7.437717529296875,0.7391469478607178,0.045204028487205505,-0.10751228034496307
1780527078469788400,7.447788330078125,0.6902777552604675,0.006108652334660292,-0.3078760802745819
1780527078540436700,7.518436767578125,0.4801400899887085,-0.07330382615327835,-0.6902777552604675
1780527078600922600,7.578922607421875,0.35063666105270386,-0.04642575979232788,-0.5962044596672058
1780527078621094700,7.5990947265625,0.2785545587539673,-0.07452555745840073,-0.901637077331543
1780527078631196000,7.60919580078125,0.2541199326515198,-0.09285151958465576,-1.0555751323699951
1780527078641266700,7.6192666015625,0.2321287989616394,-0.10384709388017654,-1.1374311447143555
1780527078651307000,7.62930712890625,0.19914206862449646,-0.1014036312699318,-1.1129964590072632
1780527078661377800,7.639377685546875,0.15515977144241333,-0.09529497474431992,-0.9773843884468079
1780527078671479300,7.649479248046875,0.11972958594560623,-0.12950342893600464,-0.6792821288108826
1780527078681550000,7.659550048828125,0.11972958594560623,-0.10751228034496307,-0.22357667982578278
1780527078762177500,7.740177490234375,-0.10262536257505417,-0.013439035043120384,0.3286454975605011
1780527078772248300,7.750248291015625,-0.11484266817569733,-0.00855211354792118,0.4105014503002167
1780527078812562000,7.79056201171875,-0.08918632566928864,-0.0403171069920063,0.6035348773002625
1780527078822663200,7.8006630859375,-0.07330382615327835,-0.05619960278272629,0.5387831330299377
1780527078832764700,7.8107646484375,-0.051312681287527084,-0.06475171446800232,0.50335294008255
1780527078842835500,7.82083544921875,-0.03298672288656235,-0.07208210229873657,0.5265658497810364
1780527078873078300,7.851078369140625,-0.05742133408784866,-0.09651670604944229,0.7525860071182251
1780527078893189400,7.871189453125,-0.09407325088977814,-0.03298672288656235,0.6743952035903931
1780527078943635000,7.921635009765625,-0.1820378452539444,0.00366519158706069,-0.03176499158143997
1780527078963807000,7.941806884765625,-0.19303341209888458,0.06230825558304787,0.08918632566928864
1780527078994050000,7.972050048828125,-0.16004669666290283,0.11972958594560623,0.43615779280662537
1780527079004120800,7.982120849609375,-0.14049901068210602,0.12950342893600464,0.5693264007568359
1780527079014222000,7.99222216796875,-0.13927727937698364,0.13561208546161652,0.6988298296928406
1780527079024292900,8.00229296875,-0.12828169763088226,0.15393804013729095,0.779464066028595
1780527079034363600,8.01236376953125,-0.10995574295520782,0.1612684279680252,0.7929030656814575
1780527079044434400,8.022434326171876,-0.10384709388017654,0.1563815027475357,0.7770205736160278
1780527079054536000,8.032535888671875,-0.10262536257505417,0.15393804013729095,0.7672467231750488
1780527079064606700,8.042606689453125,-0.10384709388017654,0.16004669666290283,0.7635815739631653
1780527079074708000,8.0527080078125,-0.09529497474431992,0.19914206862449646,0.7574729323387146
1780527079094880000,8.0728798828125,-0.05009094998240471,0.23579397797584534,0.6023131608963013
1780527079104981200,8.082981201171876,-0.03176499158143997,0.22968533635139465,0.49357911944389343
1780527079115052300,8.09305224609375,-0.0012217304902151227,0.2321287989616394,0.42149701714515686
1780527079125092400,8.10309228515625,0.04153883829712868,0.2565633952617645,0.4190535545349121
1780527079135193900,8.11319384765625,0.09285151958465576,0.29077184200286865,0.46181413531303406
1780527079145295000,8.123295166015625,0.1820378452539444,0.3543018400669098,0.5852088928222656
1780527079155426800,8.1334267578125,0.2015855312347412,0.35185837745666504,0.6291912198066711
1780527079165528300,8.1435283203125,0.22357667982578278,0.3481931984424591,0.6536257863044739
1780527079175629600,8.153629638671875,0.25045475363731384,0.3396410644054413,0.656069278717041
1780527079185700400,8.163700439453125,0.26511552929878235,0.3323107063770294,0.5791002511978149
1780527079195801600,8.173801513671876,0.2590068578720093,0.2932153046131134,0.4337143301963806
1780527079205811500,8.1838115234375,0.24068090319633484,0.26145032048225403,0.28099802136421204
1780527079256226600,8.2342265625,0.2028072625398636,0.19058994948863983,0.36163222789764404
1780527079336884500,8.314884521484375,0.16249015927314758,0.14416420459747314,-0.13561208546161652
1780527079367188500,8.3451884765625,0.12950342893600464,0.07819075137376785,-0.13927727937698364
1780527079397492200,8.3754921875,-0.02076941914856434,0.04886921867728233,-0.3543018400669098
1780527079437897700,8.415897705078125,-0.06108652427792549,0.015882495790719986,-0.06719517707824707
1780527079447968500,8.425968505859375,-0.04398229718208313,0.021991148591041565,0.04398229718208313
1780527079498536000,8.476535888671876,-0.02321287989616394,0.012217304669320583,-0.20402899384498596
1780527079508637400,8.486637451171875,-0.013439035043120384,-0.024434609338641167,-0.23335053026676178
1780527079518738700,8.49673876953125,0.015882495790719986,-0.019547687843441963,-0.12950342893600464
1780527079528870400,8.506870361328126,0.05742133408784866,-0.004886921960860491,0.0806342139840126
1780527079538972000,8.516971923828125,0.11972958594560623,0.039095375686883926,0.2577851414680481
1780527079559174400,8.53717431640625,0.17470745742321014,0.09162978827953339,-0.08307767659425735
1780527079589478400,8.567478515625,0.07819075137376785,-0.10018189996480942,-1.1032226085662842
1780527079599579600,8.57757958984375,0.06963863968849182,-0.11972958594560623,-1.214400053024292
1780527079609681200,8.58768115234375,0.06352998316287994,-0.13561208546161652,-1.2278391122817993
1780527079619752000,8.597751953125,0.07208210229873657,-0.12828169763088226,-1.1704177856445312
1780527079629883600,8.607883544921876,0.10384709388017654,-0.10018189996480942,-1.0800096988677979
1780527079639985200,8.617985107421875,0.12950342893600464,-0.07696902006864548,-0.9431759119033813
1780527079660187600,8.638187744140625,0.1771509200334549,-0.019547687843441963,-0.4789183437824249
1780527079670289000,8.648288818359376,0.2125810980796814,0.0354301854968071,-0.27977627515792847
1780527079680390400,8.658390380859375,0.25045475363731384,0.09040805697441101,-0.18814650177955627
1780527079690522000,8.668522216796875,0.27977627515792847,0.13316862285137177,-0.23945917189121246
1780527079710755300,8.68875537109375,0.25534167885780334,0.11362093687057495,-0.5583308339118958
1780527079720856600,8.698856689453125,0.21624629199504852,0.12339477986097336,-0.6475171446800232
1780527079730957800,8.708957763671876,0.1722639948129654,0.09040805697441101,-0.8307767510414124
1780527079741059300,8.719059326171875,0.13561208546161652,0.010995574295520782,-1.1105530261993408
1780527079751160600,8.72916064453125,0.09040805697441101,-0.06841690838336945,-1.4233160018920898
1780527079761261800,8.73926171875,0.042760565876960754,-0.08307767659425735,-1.6200146675109863
1780527079771363300,8.74936328125,0.042760565876960754,-0.08307767659425735,-1.6200146675109863
1780527079781464600,8.759464599609375,-0.0012217304902151227,-0.09407325088977814,-1.6725490093231201
1780527079791535400,8.769535400390625,-0.025656340643763542,-0.10384709388017654,-1.5503759384155273
1780527079801636600,8.77963671875,-0.024434609338641167,-0.08796459436416626,-1.313360333442688
1780527079811707400,8.789707275390626,0,-0.05619960278272629,-1.0702359676361084
1780527079821808600,8.79980859375,0.06475171446800232,-0.01710422709584236,-0.9297369122505188
1780527079842011400,8.820011474609375,0.13561208546161652,-0.05009094998240471,-0.8857545852661133
1780527079912629000,8.89062890625,-0.09162978827953339,0.00366519158706069,-0.20891591906547546
1780527079922730500,8.90073046875,-0.06963863968849182,-0.03298672288656235,-0.22479841113090515
1780527079942872000,8.9208720703125,-0.0024434609804302454,-0.09040805697441101,-0.26633724570274353
1780527079952973300,8.930973388671875,0.036651913076639175,-0.10506882518529892,-0.23945917189121246
1780527079963074600,8.941074462890626,0.05497787147760391,-0.09407325088977814,-0.1258382350206375
1780527079973145300,8.951145263671876,0.06719517707824707,-0.06841690838336945,0.06841690838336945
1780527079983185700,8.961185546875,0.06230825558304787,-0.01466076634824276,0.35185837745666504
1780527080063904800,9.04190478515625,0.09285151958465576,-0.0403171069920063,0.9810495972633362
1780527080073945000,9.051945068359375,0.08185594528913498,-0.0659734457731247,0.9810495972633362
1780527080084015900,9.062015869140625,0.004886921960860491,-0.02932153269648552,0.988379955291748
1780527080114320000,9.09231982421875,-0.03787364438176155,0.18570303916931152,1.2852604389190674
1780527080124421000,9.102421142578125,-0.024434609338641167,0.19303341209888458,1.3341296911239624
1780527080134492000,9.112491943359375,0.010995574295520782,0.20036379992961884,1.340238332748413
1780527080144593200,9.12259326171875,0.045204028487205505,0.1966986060142517,1.0971139669418335
1780527080154694400,9.1326943359375,0.03787364438176155,0.16493362188339233,0.6389650702476501
1780527080164796000,9.1427958984375,0.028099801391363144,0.1160643994808197,0.07819075137376785
1780527080174866700,9.15286669921875,0.05864306539297104,0.07208210229873657,-0.4691445231437683
1780527080184937500,9.1629375,0.14049901068210602,0.010995574295520782,-0.988379955291748
1780527080195038700,9.173038818359375,0.23090706765651703,-0.08918632566928864,-1.4844025373458862
1780527080205140000,9.183139892578126,0.28099802136421204,-0.21624629199504852,-1.9266690015792847
1780527080225251000,9.2032509765625,0.23579397797584534,-0.4031710624694824,-2.364048480987549
1780527080235321900,9.21332177734375,0.1612684279680252,-0.5253441333770752,-2.4972171783447266
1780527080245362200,9.223362060546876,0.0659734457731247,-0.7269296646118164,-2.765997886657715
1780527080255433000,9.233432861328126,0.02076941914856434,-0.8539896011352539,-2.8625144958496094
1780527080265534500,9.243534423828125,0.0354301854968071,-0.7953465580940247,-2.4434609413146973
1780527080275635700,9.2536357421875,0.010995574295520782,-0.5839871764183044,-1.431868076324463
1780527080285676000,9.263676025390625,-0.1270599663257599,-0.26145032048225403,-0.14538592100143433
1780527080295777300,9.27377734375,-0.19303341209888458,0.07208210229873657,0.7611380815505981
1780527080315949300,9.29394921875,-0.22113321721553802,0.2272418737411499,0.8148942589759827
1780527080326020000,9.30402001953125,-0.1563815027475357,0.09407325088977814,0.4544837474822998
1780527080336152000,9.314152099609375,-0.04153883829712868,-0.11362093687057495,0.02076941914856434
1780527080356324000,9.334323974609376,0.14538592100143433,-0.1563815027475357,-0.3836233615875244
1780527080366364400,9.344364501953125,0.16493362188339233,-0.16371189057826996,-0.6108652353286743
1780527080376465700,9.354465576171876,0.1514945775270462,-0.14782938361167908,-0.7513642311096191
1780527080386536400,9.364536376953126,0.1319468915462494,-0.10262536257505417,-0.8197811841964722
1780527080396607200,9.374607177734376,0.10873401165008545,-0.01710422709584236,-0.8112290501594543
1780527080406678000,9.384677978515626,0.11239920556545258,-0.00855211354792118,-0.8087855577468872
1780527080477265400,9.455265380859375,0.33719760179519653,-0.21991148591041565,-0.5717698931694031
1780527080487366700,9.46536669921875,-0.06108652427792549,0.05742133408784866,0.27000242471694946
1780527080527741400,9.505741455078125,0.3139847218990326,-0.16004669666290283,0.6145304441452026
1780527080537842700,9.5158427734375,0.15271630883216858,-0.16249015927314758,0.33719760179519653
1780527080558014700,9.5360146484375,0.08918632566928864,-0.06108652427792549,0.30543261766433716
1780527080568085500,9.54608544921875,0.01466076634824276,0.01710422709584236,0.2785545587539673
1780527080648713000,9.626712890625,-0.0354301854968071,0.17104226350784302,0.33719760179519653
1780527080668854800,9.646854736328125,0.12461651116609573,-0.09162978827953339,-0.44715335965156555
1780527080678925600,9.656925537109375,0.0659734457731247,-0.1368338167667389,-0.608421802520752
1780527080689057300,9.667057373046875,0.010995574295520782,-0.11362093687057495,-0.49724429845809937
1780527080699128000,9.677128173828125,-0.006108652334660292,-0.03176499158143997,-0.21135938167572021
1780527080709198800,9.68719873046875,-0.009773843921720982,0.0403171069920063,0.0354301854968071
1780527080729371100,9.70737109375,-0.03787364438176155,-0.04398229718208313,-0.2370157092809677
1780527080739472400,9.717472412109375,-0.06352998316287994,-0.09040805697441101,-0.32009339332580566
1780527080749543200,9.727543212890625,-0.04886921867728233,-0.1014036312699318,-0.33719760179519653
1780527080759644400,9.73764453125,-0.03787364438176155,-0.06963863968849182,-0.27977627515792847
1780527080769745700,9.74774560546875,-0.06963863968849182,-0.045204028487205505,-0.29077184200286865
1780527080779816400,9.75781640625,-0.13561208546161652,-0.051312681287527084,-0.28466320037841797
1780527080789887500,9.767887451171875,-0.1771509200334549,-0.07452555745840073,-0.2919935882091522
1780527080799958300,9.777958251953125,-0.2076941877603531,-0.09407325088977814,-0.3628539443016052
1780527080810029000,9.788029052734375,-0.24556782841682434,-0.09773843735456467,-0.3579670190811157
1780527080860474600,9.838474609375,-0.6536257863044739,-0.02076941914856434,0.1270599663257599
1780527080880677000,9.858677001953126,-0.8112290501594543,-0.042760565876960754,-0.042760565876960754
1780527080920991000,9.898990966796875,-0.8613200187683105,-0.27000242471694946,-0.6707300543785095
1780527080971405800,9.94940576171875,-1.2486085891723633,-0.31520646810531616,-0.17470745742321014
1780527081011750100,9.989750244140625,-1.451415777206421,-0.4141666293144226,-0.5778785347938538
1780527081021821000,9.999821044921875,-1.4795156717300415,-0.3995058834552765,-0.5338962078094482
1780527081031891700,10.0098916015625,-1.4611896276474,-0.33597588539123535,-0.3445279896259308
1780527081052094500,10.030094482421875,-1.3267992734909058,-0.32986724376678467,-0.04153883829712868
1780527081102509600,10.080509521484375,-1.0726794004440308,-0.3530801236629486,-0.13805554807186127
1780527081163056400,10.141056396484375,-0.5057964324951172,-0.16982053220272064,-0.455705463886261
1780527081173127200,10.151127197265625,-0.44837507605552673,-0.2370157092809677,-0.5387831330299377
1780527081183228400,10.161228515625,-0.4593706727027893,-0.251676470041275,-0.4153883755207062
1780527081193268700,10.171268798828125,-0.4251621961593628,-0.18814650177955627,-0.16982053220272064
1780527081203370000,10.181369873046876,-0.31031954288482666,-0.11362093687057495,-0.04764748737215996
1780527081213440800,10.191440673828126,-0.15393804013729095,-0.1160643994808197,-0.16004669666290283
1780527081223542300,10.201542236328125,-0.02321287989616394,-0.24434609711170197,-0.5009095072746277
1780527081253846000,10.231845947265626,0.2981022298336029,-0.48869219422340393,-0.9236282706260681
1780527081324433200,10.30243310546875,1.1252137422561646,-0.6743952035903931,-1.5711454153060913
1780527081354676200,10.33267626953125,1.321912407875061,-0.5998696684837341,-1.0458012819290161
1780527081364747000,10.3427470703125,1.4868459701538086,-0.6108652353286743,-1.1447614431381226
1780527081374848300,10.35284814453125,1.5149458646774292,-0.4813618063926697,-0.7305948138237
1780527081384919000,10.3629189453125,1.5222761631011963,-0.3445279896259308,-0.08674286305904388
1780527081395020500,10.3730205078125,1.5821410417556763,-0.18448130786418915,0.1966986060142517
1780527081415192600,10.393192626953125,1.5308283567428589,0.11972958594560623,0.7538077235221863
1780527081425263400,10.403263427734375,1.5222761631011963,0.2773328125476837,0.8686503767967224
1780527081435334100,10.413334228515625,1.5210545063018799,0.45204028487205505,0.8014551997184753
1780527081445374500,10.42337451171875,1.4501941204071045,0.6255260109901428,0.598647952079773
1780527081455475700,10.433475830078125,1.2522737979888916,0.799011766910553,0.5485569834709167
1780527081465546500,10.44354638671875,0.96883225440979,0.8967501521110535,0.8161159753799438
1780527081515992000,10.493991943359376,-0.3066543638706207,0.9517280459403992,-0.24923302233219147
1780527081526032400,10.504032470703125,-0.48258355259895325,0.9236282706260681,-0.2223549485206604
1780527081536133600,10.514133544921876,-0.6047565937042236,0.8772025108337402,-0.32009339332580566
1780527081546204400,10.524204345703126,-0.7330383062362671,0.8100073337554932,-0.7195992469787598
1780527081556275200,10.534275146484376,-0.9053022861480713,0.7611380815505981,-1.3671164512634277
1780527081576417000,10.5544169921875,-1.1789699792861938,1.026253581047058,-2.693915843963623
1780527081636963800,10.6149638671875,-1.4086552858352661,-0.19303341209888458,-0.33719760179519653
1780527081687470300,10.66547021484375,-2.5534167289733887,0.9749409556388855,2.2272145748138428
1780527081697571600,10.675571533203126,-1.8154915571212769,0.1270599663257599,0.7415903806686401
1780527081707642600,10.685642578125,-1.1545352935791016,-0.22846360504627228,-0.8552113175392151
1780527081717743900,10.695743896484375,-1.312138557434082,0.06719517707824707,-0.8820894360542297
1780527081727845000,10.70584521484375,-1.4465289115905762,0.656069278717041,-0.26145032048225403
1780527081737946400,10.7159462890625,-0.9908234477043152,0.901637077331543,0.24068090319633484
1780527081748078300,10.726078369140625,-0.513126790523529,0.6792821288108826,0.626747727394104
1780527081758149000,10.736149169921875,-0.6035348773002625,0.48380526900291443,1.0506882667541504
1780527081788422700,10.766422607421875,-0.7024950385093689,1.1691961288452148,0.6890559792518616
1780527081798524000,10.77652392578125,-0.4434881806373596,1.1691961288452148,0.2638937830924988
1780527081808625200,10.786625244140625,-0.24556782841682434,0.8759807348251343,0.2565633952617645
1780527081818726400,10.796726318359376,-0.0806342139840126,0.7122688889503479,0.6230825781822205
1780527081828797200,10.806797119140626,0.07452555745840073,0.675616979598999,0.8698720932006836
1780527081838868000,10.816867919921876,0.2015855312347412,0.588874101638794,0.6475171446800232
1780527081848969500,10.826969482421875,0.1319468915462494,0.5852088928222656,0.14049901068210602
1780527081859040300,10.837040283203125,-0.15760323405265808,0.5510004758834839,-0.025656340643763542
1780527081879242800,10.85724267578125,-0.5424483418464661,0.4031710624694824,0.11850785464048386
1780527081929810400,10.907810546875,-0.24556782841682434,-0.21013765037059784,0.1563815027475357
1780527081950013200,10.92801318359375,-0.32620203495025635,0.294437050819397,-0.04153883829712868
1780527081960145000,10.938144775390626,0.015882495790719986,0.32498031854629517,-0.3787364661693573
1780527081970246100,10.94824609375,0.45204028487205505,-0.7550294399261475,-0.07208210229873657
1780527081980378000,10.958378173828125,0.3885102868080139,-0.9615018963813782,0.3384193480014801
1780527081990479400,10.968479248046876,0.07452555745840073,-0.7684684991836548,0.6878342628479004
1780527082000580600,10.97858056640625,-0.1514945775270462,-0.38117989897727966,0.9932668805122375
1780527082010743000,10.988742919921876,-0.09651670604944229,0.18081611394882202,0.7391469478607178
1780527082020844300,10.99884423828125,0.16737708449363708,0.5302310585975647,-0.03298672288656235
1780527082041047000,11.019047119140625,0.5681046843528748,-0.7049384713172913,-1.284038782119751
1780527082051178800,11.0291787109375,0.5412266254425049,-1.312138557434082,-1.224173903465271
1780527082071412000,11.049411865234376,0.34574973583221436,-1.1362093687057495,0.02932153269648552
1780527082091675600,11.069675537109376,0.4495968222618103,0.06352998316287994,0.9639453291893005
1780527082101777000,11.07977685546875,0.5583308339118958,0.22479841113090515,0.8197811841964722
1780527082122010000,11.100010009765626,0.7843509912490845,-0.33108896017074585,-0.31154128909111023
1780527082132111600,11.110111572265625,0.769690215587616,-0.5900958180427551,-0.5473352670669556
1780527082142243300,11.120243408203125,0.6670648455619812,-0.607200026512146,-0.5290092825889587
1780527082152405800,11.13040576171875,0.5900958180427551,-0.48380526900291443,-0.22846360504627228
1780527082162507000,11.140507080078125,0.5778785347938538,-0.41661009192466736,0.2431243658065796
1780527082172608300,11.150608154296876,0.5876523852348328,-0.4642575979232788,0.646295428276062
1780527082182709800,11.160709716796875,0.6340781450271606,-0.45326200127601624,0.5937610268592834
1780527082192841500,11.170841552734375,0.6866125464439392,-0.4434881806373596,0.23090706765651703
1780527082202942700,11.180942626953126,0.66584312915802,-0.5656611919403076,-0.042760565876960754
1780527082213044200,11.191044189453125,0.5754350423812866,-0.7305948138237,-0.31154128909111023
1780527082223145500,11.2011455078125,0.46670106053352356,-0.8124507665634155,-0.5644394755363464
1780527082233246700,11.211246826171875,0.4349360466003418,-0.817337691783905,-0.5400048494338989
1780527082243378700,11.221378662109375,0.46181413531303406,-0.846659243106842,-0.2174680233001709
1780527082253480000,11.23147998046875,0.48258355259895325,-0.8833111524581909,0.16493362188339233
1780527082263581200,11.241581298828125,0.5387831330299377,-0.6548475623130798,0.2932153046131134
1780527082293854700,11.271854736328125,0.6426302194595337,-0.2528982162475586,0.31154128909111023
1780527082303956000,11.2819560546875,0.6389650702476501,-0.32498031854629517,0.2125810980796814
1780527082314057200,11.29205712890625,0.6255260109901428,-0.19792033731937408,0.294437050819397
1780527082334229500,11.3122294921875,0.4960225820541382,0.1014036312699318,0.5229006409645081
1780527082344330800,11.322330810546875,0.5424483418464661,0.10751228034496307,0.5497786998748779
1780527082354462500,11.33246240234375,0.5803219676017761,0.04153883829712868,0.50335294008255
1780527082364533200,11.342533203125,0.5180137157440186,-0.1270599663257599,0.4740314185619354
1780527082374665200,11.352665283203125,0.39217549562454224,-0.30543261766433716,0.39217549562454224
1780527082384797000,11.362796875,0.2981022298336029,-0.3799581825733185,0.15882496535778046
1780527082394898400,11.3728984375,0.2565633952617645,-0.33597588539123535,-0.06841690838336945
1780527082404969200,11.38296923828125,0.21868975460529327,-0.22357667982578278,-0.09773843735456467
1780527082415131400,11.39313134765625,0.19425514340400696,-0.07941248267889023,0.04642575979232788
1780527082425233000,11.40323291015625,0.24678955972194672,0.03176499158143997,0.14416420459747314
1780527082435364600,11.413364501953126,0.34208452701568604,0.019547687843441963,0.21380282938480377
1780527082445435400,11.423435302734376,0.4190535545349121,-0.11484266817569733,0.24556782841682434
1780527082455597800,11.433597900390625,0.4190535545349121,-0.24556782841682434,0.1661553531885147
1780527082465699000,11.443698974609376,0.3494149148464203,-0.2736676335334778,0.06475171446800232
1780527082475800600,11.453800537109375,0.2687807083129883,-0.19425514340400696,0.02076941914856434
1780527082485871400,11.463871337890625,0.23090706765651703,-0.08185594528913498,-0.00733038317412138
1780527082506104300,11.484104248046876,0.26633724570274353,0.00733038317412138,-0.03787364438176155
1780527082516205800,11.494205810546875,0.28955012559890747,0.0024434609804302454,-0.03298672288656235
1780527082526276600,11.504276611328125,0.3029891550540924,-0.02076941914856434,0.04886921867728233
1780527082536377900,11.5143779296875,0.3384193480014801,-0.0806342139840126,0.11362093687057495
1780527082546479000,11.52447900390625,0.38728857040405273,-0.1270599663257599,0.15515977144241333
1780527082556550000,11.5345498046875,0.4300491213798523,-0.1111774742603302,0.29077184200286865
1780527082566620700,11.54462060546875,0.43615779280662537,-0.08307767659425735,0.4764748811721802
1780527082627137000,11.605136962890626,0.18081611394882202,-0.13805554807186127,0.042760565876960754
1780527082637207800,11.615207763671876,0.13316862285137177,-0.17592918872833252,-0.2834414839744568
1780527082677521700,11.655521728515625,0.042760565876960754,0.03787364438176155,0.0354301854968071
1780527082687592400,11.665592529296875,0.13805554807186127,0.02932153269648552,0.08918632566928864
1780527082697693700,11.675693603515626,0.24434609711170197,-0.006108652334660292,0.09773843735456467
1780527082707764500,11.685764404296876,0.34574973583221436,-0.0708603709936142,0.1563815027475357
1780527082717835300,11.695835205078126,0.4202753007411957,-0.13805554807186127,0.31031954288482666
1780527082727906000,11.705906005859376,0.4386012554168701,-0.18814650177955627,0.5119050741195679
1780527082738007600,11.716007568359375,0.4105014503002167,-0.17104226350784302,0.6707300543785095
1780527082748108800,11.72610888671875,0.2981022298336029,-0.16004669666290283,0.5338962078094482
1780527082758179600,11.7361796875,0.24434609711170197,-0.15515977144241333,0.2993239760398865
1780527082768280800,11.74628076171875,0.20036379992961884,-0.1368338167667389,0.05497787147760391
1780527082778351600,11.7563515625,0.16859880089759827,-0.10262536257505417,-0.10995574295520782
1780527082788353000,11.76635302734375,0.14049901068210602,-0.05864306539297104,-0.1319468915462494
1780527082798454300,11.776454345703126,0.10384709388017654,-0.00733038317412138,-0.0403171069920063
1780527082808494600,11.78649462890625,0.07208210229873657,0.05009094998240471,0.07941248267889023
1780527082818595800,11.796595947265626,0.06108652427792549,0.09162978827953339,0.1661553531885147
1780527082828667000,11.8066669921875,0.07819075137376785,0.12461651116609573,0.21868975460529327
1780527082848839000,11.8268388671875,0.16859880089759827,0.1270599663257599,0.24678955972194672
1780527082858940200,11.836940185546876,0.2064724564552307,0.08674286305904388,0.3078760802745819
1780527082869041400,11.84704150390625,0.22357667982578278,0.051312681287527084,0.3982841372489929
1780527082879112400,11.857112548828125,0.21013765037059784,0.021991148591041565,0.44715335965156555
1780527082949638400,11.927638427734376,0.15027284622192383,0.0806342139840126,0.21380282938480377
1780527082989982700,11.967982666015626,0.051312681287527084,0.07696902006864548,0.30054569244384766
1780527083050468600,12.028468505859376,0.04153883829712868,0.06963863968849182,0.16982053220272064
1780527083151268000,12.12926806640625,0.06963863968849182,-0.024434609338641167,0.08796459436416626
1780527083211876000,12.1898759765625,-0.012217304669320583,-0.059864792972803116,-0.17470745742321014
1780527083262291000,12.240291015625,-0.07452555745840073,-0.06963863968849182,-0.13439035415649414
1780527083272361700,12.25036181640625,-0.07330382615327835,-0.07941248267889023,-0.24190263450145721
1780527083292534000,12.270533935546876,-0.06475171446800232,-0.1062905490398407,-0.38117989897727966
1780527083302604800,12.280604736328126,-0.045204028487205505,-0.1111774742603302,-0.27122417092323303
1780527083393394400,12.37139453125,-0.09407325088977814,-0.1417207419872284,-0.06475171446800232
1780527083433708300,12.411708251953126,-0.1612684279680252,-0.17104226350784302,-0.14294247329235077
1780527083443748600,12.42174853515625,-0.18570303916931152,-0.1563815027475357,-0.09529497474431992
1780527083453849900,12.431849853515626,-0.21380282938480377,-0.1612684279680252,-0.0757472887635231
1780527083463920600,12.441920654296876,-0.2480112910270691,-0.13561208546161652,-0.06719517707824707
1780527083473961000,12.4519609375,-0.30054569244384766,-0.07452555745840073,-0.019547687843441963
1780527083484031700,12.46203173828125,-0.3677408695220947,-0.024434609338641167,0.07208210229873657
1780527083494133000,12.472133056640626,-0.50335294008255,0.05619960278272629,0.21380282938480377
1780527083504203800,12.482203857421876,-0.5632177591323853,0.0757472887635231,0.2028072625398636
1780527083514274600,12.492274658203126,-0.6340781450271606,0.059864792972803116,0.09896016865968704
1780527083524345600,12.502345703125,-0.7110471725463867,0.042760565876960754,-0.02687807008624077
1780527083534446800,12.51244677734375,-0.7757988572120667,0.05253441259264946,-0.08552113175392151
1780527083544517600,12.522517578125,-0.8185594081878662,0.0757472887635231,-0.09529497474431992
1780527083554588400,12.53258837890625,-0.8429940342903137,0.1014036312699318,-0.04398229718208313
1780527083574730000,12.55272998046875,-0.9150761365890503,0.07819075137376785,0.16737708449363708
1780527083655418400,12.63341845703125,-1.177748203277588,-0.0012217304902151227,0.19547687470912933
1780527083756279000,12.734279052734376,-1.06657075881958,-0.22602014243602753,0.0757472887635231
1780527083816795400,12.79479541015625,-0.9175195693969727,-0.3286454975605011,-0.2223549485206604
1780527083826896600,12.804896728515626,-0.8698720932006836,-0.27977627515792847,-0.04764748737215996
1780527083897484000,12.875484130859375,-0.3677408695220947,-0.5106833577156067,-0.2785545587539673
1780527083988212700,12.966212646484376,0.6377432942390442,-0.43127086758613586,0.051312681287527084
1780527083998314000,12.97631396484375,0.759916365146637,-0.45326200127601624,0.07819075137376785
1780527084008354300,12.986354248046876,0.8784242272377014,-0.4251621961593628,-0.09407325088977814
1780527084048729000,13.02672900390625,1.2315043210983276,-0.5693264007568359,-0.8747590184211731
1780527084058830300,13.036830322265626,1.3072515726089478,-0.6133087277412415,-0.9004153609275818
1780527084068931600,13.046931640625,1.302364706993103,-0.6817256212234497,-0.5546656250953674
1780527084079002400,13.05700244140625,1.3377948999404907,-0.7330383062362671,-0.2981022298336029
1780527084099174700,13.077174560546876,1.576032280921936,-0.7550294399261475,-0.5070181488990784
1780527084109215000,13.087215087890625,1.7043139934539795,-0.7831292152404785,-0.921184778213501
1780527084119316200,13.097316162109376,1.7531832456588745,-0.797789990901947,-1.2180652618408203
1780527084159691000,13.13769091796875,2.057394027709961,-0.7330383062362671,-1.0409144163131714
1780527084230339000,13.208339111328126,1.615127682685852,0.14049901068210602,0.3530801236629486
1780527084240440300,13.2184404296875,1.566258430480957,0.3127630054950714,0.29077184200286865
1780527084250511400,13.228511474609375,1.1606439352035522,0.5009095072746277,0.27977627515792847
1780527084260612600,13.238612548828126,0.9517280459403992,0.6548475623130798,0.39584067463874817
1780527084270713900,13.2487138671875,0.6719517707824707,0.8478809595108032,0.5693264007568359
1780527084290886000,13.268885986328126,-0.00855211354792118,1.0103710889816284,1.166752576828003
1780527084300987400,13.2789873046875,-0.32986724376678467,1.017701506614685,1.3939944505691528
1780527084311088600,13.289088623046876,-0.5571091175079346,0.9932668805122375,1.6884315013885498
1780527084321190000,13.29918994140625,-0.7660250067710876,0.9517280459403992,1.8191566467285156
1780527084331260700,13.3092607421875,-0.9443976879119873,0.846659243106842,1.8252654075622559
1780527084341362200,13.319362060546876,-1.0873401165008545,0.7134906053543091,1.7568484544754028
1780527084351463400,13.32946337890625,-1.2779301404953003,0.5925393104553223,1.4795156717300415
1780527084361564700,13.339564697265626,-1.3829989433288574,0.4337143301963806,1.0519099235534668
1780527084371696600,13.349696533203126,-1.4147639274597168,0.29565876722335815,0.50335294008255
1780527084381798000,13.3597978515625,-1.4355332851409912,0.35063666105270386,-0.4202753007411957
1780527084401939500,13.379939453125,-1.0494664907455444,0.6670648455619812,-2.7537806034088135
1780527084412010200,13.39001025390625,-1.1032226085662842,0.8735373020172119,-3.8203511238098145
1780527084422111500,13.400111572265626,-1.2571606636047363,1.2119566202163696,-3.441614866256714
1780527084432213000,13.410212890625,-1.33168625831604,1.2693779468536377,-2.1478021144866943
1780527084442253300,13.42025341796875,-1.4049900770187378,0.9395107626914978,-0.9651671051979065
1780527084452354600,13.4303544921875,-1.7763961553573608,0.6548475623130798,-0.12828169763088226
1780527084462425300,13.44042529296875,-2.2602014541625977,0.5534439086914062,0.3017674386501312
1780527084472557000,13.45055712890625,-2.2797491550445557,0.6988298296928406,0.24556782841682434
1780527084482597400,13.460597412109376,-1.9730947017669678,0.8674286603927612,-0.04398229718208313
1780527084492698600,13.47069873046875,-1.6236798763275146,0.9456194043159485,-0.3176499307155609
1780527084543144200,13.521144287109376,-1.177748203277588,1.016479730606079,0.9358455538749695
1780527084553215200,13.53121533203125,-1.0201449394226074,1.0299187898635864,1.1227703094482422
1780527084563286000,13.5412861328125,-0.8161159753799438,1.1178834438323975,0.9920451641082764
1780527084573387300,13.55138720703125,-0.6536257863044739,1.1545352935791016,0.8625417351722717
1780527084633964500,13.611964599609376,-0.08185594528913498,0.5803219676017761,0.38240164518356323
1780527084664299000,13.642299072265626,-0.3176499307155609,0.4544837474822998,0.2028072625398636
1780527084674400500,13.652400390625,-0.24434609711170197,0.28588494658470154,0.3494149148464203
1780527084684501800,13.662501708984376,-0.01710422709584236,-0.010995574295520782,0.5387831330299377
1780527084694603000,13.67260302734375,0.15027284622192383,-0.21380282938480377,0.6426302194595337
1780527084704704300,13.682704345703126,0.20402899384498596,-0.19792033731937408,0.39217549562454224
1780527084724968000,13.702968017578126,0.03787364438176155,-0.03420845419168472,0.2687807083129883
1780527084745140200,13.72314013671875,0.12217304855585098,-0.019547687843441963,-0.3591887652873993
1780527084755272000,13.73327197265625,0.32009339332580566,-0.1062905490398407,-0.24923302233219147
1780527084765373200,13.743373291015626,0.43249258399009705,-0.32009339332580566,0.15760323405265808
1780527084775474700,13.753474609375,0.4043927788734436,-0.37262779474258423,0.31031954288482666
1780527084785576000,13.763575927734376,0.3066543638706207,-0.26022860407829285,0.32009339332580566
1780527084795677200,13.77367724609375,0.2883284091949463,-0.14049901068210602,0.41661009192466736
1780527084805809200,13.78380908203125,0.38606682419776917,-0.1869247704744339,0.03176499158143997
1780527084826042400,13.80404248046875,0.5766568183898926,-0.27488934993743896,-0.4056145250797272
1780527084866508500,13.844508544921876,0.45326200127601624,-0.3384193480014801,-0.24190263450145721
1780527084876609800,13.85460986328125,0.48380526900291443,-0.3335324227809906,-0.019547687843441963
1780527084886711300,13.864711181640626,0.49357911944389343,-0.3188716471195221,0.08796459436416626
1780527084896843000,13.874843017578126,0.504574716091156,-0.19058994948863983,0.10262536257505417
1780527084906944300,13.8849443359375,0.5571091175079346,-0.08185594528913498,0.02076941914856434
1780527084927177500,13.905177490234376,0.675616979598999,-0.5082398653030396,-0.3176499307155609
1780527084967613200,13.94561328125,0.7061602473258972,-0.6731734871864319,-0.09529497474431992
1780527084977714700,13.955714599609376,0.7929030656814575,-0.455705463886261,-0.02076941914856434
1780527084987816000,13.96581591796875,0.8258898258209229,-0.23457226157188416,0.018325956538319588
1780527084997947600,13.97594775390625,0.789237916469574,-0.1612684279680252,0.13927727937698364
1780527085008049200,13.986049072265626,0.7232644557952881,-0.26145032048225403,0.28466320037841797
1780527085028282400,14.006282470703125,0.720820963382721,-0.4080579876899719,0.14538592100143433
1780527085038383600,14.016383544921876,0.6377432942390442,-0.384845107793808,0.3078760802745819
1780527085048515300,14.026515380859376,0.49846604466438293,-0.29077184200286865,0.5241223573684692
1780527085058616800,14.036616943359375,0.46792277693748474,-0.06963863968849182,0.4642575979232788
1780527085068718000,14.046718017578126,0.5302310585975647,0.08307767659425735,0.17959438264369965
1780527085078819300,14.0568193359375,0.5387831330299377,-0.0012217304902151227,-0.09162978827953339
1780527085088920600,14.066920654296876,0.46181413531303406,-0.18081611394882202,-0.1966986060142517
1780527085099052500,14.077052490234376,0.4447098970413208,-0.2993239760398865,-0.27488934993743896
1780527085109153800,14.08715380859375,0.4960225820541382,-0.3384193480014801,-0.2932153046131134
1780527085119285800,14.09728564453125,0.4605923891067505,-0.31031954288482666,-0.1014036312699318
1780527085129417500,14.10741748046875,0.36529740691185,-0.20891591906547546,0.22357667982578278
1780527085139549400,14.117549560546875,0.3335324227809906,-0.06841690838336945,0.44715335965156555
1780527085149650700,14.127650634765626,0.3396410644054413,0.08307767659425735,0.4948008358478546
1780527085159752000,14.137751953125,0.31642818450927734,0.13316862285137177,0.46670106053352356
1780527085200187600,14.178187744140626,0.2028072625398636,0.0708603709936142,-0.5461135506629944
1780527085291099600,14.269099609375,0.14905111491680145,-0.06352998316287994,-0.2577851414680481
1780527085341606100,14.319606201171876,0.5583308339118958,-0.1258382350206375,0.5192354321479797
1780527085361747700,14.339747802734376,0.5143485069274902,-0.2382374405860901,0.5998696684837341
1780527085371818500,14.349818603515626,0.36651915311813354,-0.1466076523065567,0.43127086758613586
1780527085381920000,14.359919921875,0.2724458873271942,-0.05864306539297104,0.1966986060142517
1780527085391990800,14.36999072265625,0.2528982162475586,-0.012217304669320583,0.04398229718208313
1780527085402031000,14.380031005859376,0.2638937830924988,0.004886921960860491,-0.04398229718208313
1780527085412132400,14.39013232421875,0.26022860407829285,0.03420845419168472,-0.04398229718208313
1780527085442314200,14.420314208984376,0.21013765037059784,0.11850785464048386,0.13805554807186127
1780527085492729300,14.470729248046876,0.27488934993743896,0.025656340643763542,0.29565876722335815
1780527085502800100,14.480800048828126,0.24923302233219147,0.013439035043120384,0.3689626157283783
1780527085512871000,14.490870849609376,0.2382374405860901,0.00366519158706069,0.3225368559360504
1780527085522911200,14.5009111328125,0.21868975460529327,-0.01466076634824276,0.21135938167572021
1780527085532982000,14.51098193359375,0.19425514340400696,-0.019547687843441963,0.09285151958465576
1780527085543052800,14.521052734375,0.16737708449363708,-0.0024434609804302454,0.019547687843441963
1780527085563164000,14.541163818359376,0.15882496535778046,0.04764748737215996,0.0012217304902151227
1780527085573265200,14.55126513671875,0.16737708449363708,0.059864792972803116,0.09529497474431992
1780527085583366400,14.561366455078126,0.16982053220272064,0.06230825558304787,0.1966986060142517
1780527085593437200,14.571437255859376,0.16859880089759827,0.06108652427792549,0.2871066629886627
1780527085603508000,14.581508056640626,0.1771509200334549,0.05742133408784866,0.30543261766433716
1780527085613609500,14.591609375,0.22968533635139465,-0.00733038317412138,0.19303341209888458
1780527085623710700,14.601710693359376,0.23335053026676178,-0.05742133408784866,0.16249015927314758
1780527085633781500,14.611781494140626,0.19425514340400696,-0.0708603709936142,0.16493362188339233
1780527085643852300,14.621852294921876,0.1319468915462494,-0.0403171069920063,0.16493362188339233
1780527085653923000,14.631923095703126,0.07941248267889023,-0.009773843921720982,0.1722639948129654
1780527085684166100,14.662166259765625,0.036651913076639175,0.019547687843441963,-0.010995574295520782
1780527085724479700,14.702479736328126,0.04642575979232788,0.09040805697441101,0.2125810980796814
1780527085734581000,14.7125810546875,0.04398229718208313,0.09529497474431992,0.3066543638706207
1780527085744651800,14.72265185546875,0.042760565876960754,0.08918632566928864,0.375071257352829
1780527085754722600,14.73272265625,0.04886921867728233,0.08307767659425735,0.38606682419776917
1780527085764793600,14.742793701171875,0.05375614017248154,0.08307767659425735,0.3384193480014801
1780527085774894800,14.752894775390626,0.06475171446800232,0.07452555745840073,0.27122417092323303
1780527085784996000,14.76299609375,0.07696902006864548,0.042760565876960754,0.2321287989616394
1780527085795067000,14.77306689453125,0.07941248267889023,0,0.2785545587539673
1780527085805168000,14.783168212890626,0.07452555745840073,-0.013439035043120384,0.34086281061172485
1780527085815269600,14.79326953125,0.05497787147760391,-0.006108652334660292,0.3604104816913605
1780527085825340400,14.80334033203125,0.036651913076639175,0.01466076634824276,0.33475416898727417
1780527085835441700,14.813441650390626,0.03420845419168472,0.02687807008624077,0.22113321721553802
1780527085845543000,14.82354296875,0.013439035043120384,0.024434609338641167,0.10262536257505417
1780527085875816400,14.85381640625,-0.012217304669320583,0.0012217304902151227,0.03298672288656235
1780527085885917700,14.863917724609376,-0.02687807008624077,0.019547687843441963,-0.0024434609804302454
1780527085895988500,14.873988525390626,-0.0012217304902151227,0.02321287989616394,-0.036651913076639175
1780527085906059300,14.884059326171876,0.024434609338641167,-0.010995574295520782,-0.004886921960860491
1780527085916130000,14.894130126953126,0.030543262138962746,-0.04398229718208313,0.05497787147760391
1780527085926231600,14.9042314453125,0.009773843921720982,-0.04764748737215996,0.1319468915462494
1780527085936302300,14.91430224609375,-0.018325956538319588,-0.03298672288656235,0.22479841113090515
1780527085946373000,14.924373046875,-0.015882495790719986,-0.015882495790719986,0.23090706765651703
1780527085976585500,14.95458544921875,0.039095375686883926,-0.05375614017248154,0.04153883829712868
1780527085986656300,14.96465625,0.039095375686883926,-0.07452555745840073,-0.01466076634824276
1780527085996727000,14.97472705078125,0.0012217304902151227,-0.08796459436416626,-0.07696902006864548
1780527086006767400,14.984767333984376,-0.05497787147760391,-0.08674286305904388,-0.13927727937698364
1780527086016838100,14.994838134765626,-0.09407325088977814,-0.0806342139840126,-0.25534167885780334
1780527086026909000,15.004908935546876,-0.11362093687057495,-0.0757472887635231,-0.36529740691185
1780527086037010200,15.01501025390625,-0.11239920556545258,-0.05253441259264946,-0.38606682419776917
1780527086057152000,15.035152099609375,-0.05497787147760391,-0.08185594528913498,-0.2822197377681732
1780527086067222800,15.045222900390625,-0.03298672288656235,-0.12095131725072861,-0.25534167885780334
1780527086137810000,15.115809814453126,-0.03420845419168472,-0.19058994948863983,-0.01710422709584236
1780527086157982000,15.13598193359375,-0.08796459436416626,-0.18814650177955627,-0.1160643994808197
1780527086178154000,15.156154052734376,-0.1514945775270462,-0.11484266817569733,-0.051312681287527084
1780527086188224800,15.166224853515626,-0.1722639948129654,-0.08918632566928864,-0.0012217304902151227
1780527086198295600,15.176295654296876,-0.1771509200334549,-0.08918632566928864,0.042760565876960754
1780527086208397000,15.18639697265625,-0.18814650177955627,-0.1062905490398407,0.030543262138962746
1780527086218498300,15.196498291015626,-0.22602014243602753,-0.1258382350206375,0.04886921867728233
1780527086228599600,15.206599609375,-0.2981022298336029,-0.10873401165008545,0.09529497474431992
1780527086238670300,15.21667041015625,-0.384845107793808,-0.06352998316287994,0.17837265133857727
1780527086248771800,15.226771728515626,-0.45326200127601624,-0.02687807008624077,0.21868975460529327
1780527086258873000,15.236873046875,-0.5119050741195679,0.009773843921720982,0.21135938167572021
1780527086268913400,15.246913330078126,-0.5644394755363464,0.04153883829712868,0.19425514340400696
1780527086278984200,15.256984130859376,-0.6230825781822205,0.05375614017248154,0.15760323405265808
1780527086289055000,15.267054931640626,-0.7012733221054077,0.04886921867728233,0.11728613078594208
1780527086299125800,15.277125732421876,-0.7855727076530457,0.02932153269648552,0.07819075137376785
1780527086309227000,15.28722705078125,-0.8662069439888,0.019547687843441963,-0.02076941914856434
1780527086359642000,15.33764208984375,-1.1337659358978271,0.015882495790719986,0.18936823308467865
1780527086369743400,15.347743408203126,-1.19607412815094,0.00733038317412138,0.2834414839744568
1780527086389885000,15.367885009765626,-1.2473868131637573,-0.03298672288656235,-0.05742133408784866
1780527086399986400,15.377986328125,-1.281595230102539,-0.0354301854968071,-0.09162978827953339
1780527086410087700,15.388087646484376,-1.3194689750671387,-0.01710422709584236,-0.04153883829712868
1780527086420158500,15.398158447265626,-1.3390166759490967,-0.018325956538319588,-0.018325956538319588
1780527086470573600,15.448573486328126,-1.3451253175735474,-0.13072516024112701,-0.06719517707824707
1780527086480644400,15.458644287109376,-1.3377948999404907,-0.14416420459747314,-0.2577851414680481
1780527086490745600,15.46874560546875,-1.2974777221679688,-0.1722639948129654,-0.33719760179519653
1780527086510917600,15.488917724609376,-1.2046263217926025,-0.34208452701568604,-0.19914206862449646
1780527086520927500,15.498927490234376,-1.1520918607711792,-0.38728857040405273,-0.12095131725072861
1780527086531028700,15.50902880859375,-1.1178834438323975,-0.33597588539123535,-0.08185594528913498
1780527086541099500,15.519099609375,-1.0800096988677979,-0.2590068578720093,-0.036651913076639175
1780527086551170300,15.52917041015625,-1.0042624473571777,-0.2370157092809677,-0.012217304669320583
1780527086561241300,15.539241455078125,-0.9126327037811279,-0.2822197377681732,-0.03787364438176155
1780527086571342600,15.549342529296876,-0.7941248416900635,-0.37629300355911255,-0.07941248267889023
1780527086581413400,15.559413330078126,-0.6805039048194885,-0.48258355259895325,-0.1417207419872284
1780527086591514600,15.5695146484375,-0.6218608021736145,-0.5082398653030396,-0.15882496535778046
1780527086611656200,15.58965625,-0.4740314185619354,-0.36651915311813354,0.20891591906547546
1780527086621727000,15.59972705078125,-0.28588494658470154,-0.38117989897727966,0.25534167885780334
1780527086631828500,15.609828369140626,-0.12339477986097336,-0.48747047781944275,0.1417207419872284
1780527086641868500,15.61986865234375,0.0024434609804302454,-0.5448917746543884,-0.06108652427792549
1780527086651939600,15.629939697265625,0.13316862285137177,-0.5119050741195679,-0.15393804013729095
1780527086662010400,15.64001025390625,0.28466320037841797,-0.45814892649650574,-0.14049901068210602
1780527086672081200,15.6500810546875,0.43615779280662537,-0.46670106053352356,-0.036651913076639175
1780527086692192300,15.670192138671876,0.7110471725463867,-0.5717698931694031,0.1368338167667389
1780527086712333800,15.690333740234376,0.9908234477043152,-0.5900958180427551,-0.1661553531885147
1780527086722374100,15.7003740234375,1.1288789510726929,-0.5705481171607971,-0.39217549562454224
1780527086762718200,15.74071826171875,1.5564846992492676,-0.6719517707824707,-0.9126327037811279
1780527086772850200,15.75085009765625,1.6701055765151978,-0.6792821288108826,-0.8747590184211731
1780527086782951400,15.760951416015626,1.7385225296020508,-0.6817256212234497,-0.6780604124069214
1780527086833366500,15.811366455078126,2.0586159229278564,-0.6548475623130798,-0.8662069439888
1780527086863609300,15.841609375,2.0842721462249756,-0.598647952079773,-1.274264931678772
1780527086873710600,15.851710693359376,1.9718730449676514,-0.6023131608963013,-1.1166616678237915
1780527086883781600,15.86178173828125,1.8790215253829956,-0.5595525503158569,-0.7965682744979858
1780527086893852400,15.871852294921876,1.833817481994629,-0.485027015209198,-0.6707300543785095
1780527086903953700,15.88195361328125,1.8350391387939453,-0.43615779280662537,-0.8307767510414124
1780527086914055000,15.892054931640626,1.8301522731781006,-0.4190535545349121,-1.1704177856445312
1780527086934196500,15.912196533203126,1.4306464195251465,-0.43127086758613586,-1.2583824396133423
1780527086944267300,15.922267333984376,1.1386528015136719,-0.34086281061172485,-1.018923282623291
1780527086954368800,15.93236865234375,0.9138544201850891,-0.23335053026676178,-0.7147123217582703
1780527086964470000,15.942469970703126,0.7635815739631653,-0.1722639948129654,-0.5571091175079346
1780527086974632400,15.952632568359375,0.5717698931694031,-0.11484266817569733,-0.5962044596672058
1780527086984703200,15.962703125,0.3701843321323395,-0.0659734457731247,-0.6426302194595337
1780527086994835000,15.9728349609375,0.16982053220272064,0.004886921960860491,-0.6780604124069214
1780527087004905700,15.98290576171875,-0.04886921867728233,0.15393804013729095,-0.6805039048194885
1780527087015007000,15.993007080078126,-0.2064724564552307,0.35185837745666504,-0.6194173693656921
1780527087035240200,16.013240234375,-0.46303585171699524,0.6377432942390442,-0.37140607833862305
1780527087045341700,16.023341796875,-0.6902777552604675,0.7086036801338196,0.02932153269648552
1780527087055443000,16.03344287109375,-0.9663888216018677,0.7648032903671265,0.455705463886261
1780527087065574700,16.04357470703125,-1.1826350688934326,0.827111542224884,0.6621779203414917
1780527087075706600,16.05370654296875,-1.3732250928878784,1.1410962343215942,0.28099802136421204
1780527087085777400,16.06377734375,-1.3634512424468994,1.3426817655563354,0.009773843921720982
1780527087126182700,16.1041826171875,-1.5796974897384644,1.4563027620315552,0.40683624148368835
1780527087136284000,16.114283935546876,-1.8399261236190796,1.2950342893600464,0.9737191796302795
1780527087146385200,16.12438525390625,-2.0341813564300537,1.1704177856445312,1.3170254230499268
1780527087156486700,16.134486572265626,-2.001194477081299,1.177748203277588,1.4220943450927734
1780527087206993200,16.1849931640625,-1.6957619190216064,1.3854423761367798,0.3591887652873993
1780527087247398400,16.2253984375,-1.2327260971069336,0.9260717034339905,1.2229522466659546
1780527087287834400,16.26583447265625,-0.7049384713172913,0.7159340381622314,0.2174680233001709
1780527087297905200,16.2759052734375,-0.6377432942390442,0.5571091175079346,0.5900958180427551
1780527087308006400,16.28600634765625,-0.46181413531303406,0.5510004758834839,0.7965682744979858
1780527087318077200,16.2960771484375,-0.2370157092809677,0.5632177591323853,0.978606104850769
1780527087348472600,16.32647265625,0.18814650177955627,0.3433062732219696,0.6047565937042236
1780527087368705800,16.346705810546876,0.2076941877603531,-0.18325957655906677,-0.32009339332580566
1780527087378807000,16.35680712890625,0.1820378452539444,-0.2736676335334778,-0.5424483418464661
1780527087388908500,16.366908447265626,0.1661553531885147,-0.12950342893600464,-0.3677408695220947
1780527087399009800,16.377009765625,0.20036379992961884,0.1966986060142517,-0.0659734457731247
1780527087409111000,16.387111083984376,0.32620203495025635,0.33108896017074585,0.2590068578720093
1780527087419212500,16.397212646484373,0.48747047781944275,0.10018189996480942,0.3689626157283783
1780527087429313800,16.407313720703126,0.5461135506629944,-0.32498031854629517,0.2076941877603531
1780527087449547000,16.427547119140623,0.5803219676017761,-0.5766568183898926,-0.31031954288482666
1780527087459648300,16.437648193359376,0.5900958180427551,-0.28588494658470154,-0.16737708449363708
1780527087469749500,16.44774951171875,0.5167919993400574,0.02932153269648552,0.1966986060142517
1780527087479850800,16.457850830078126,0.4202753007411957,0.14782938361167908,0.4703662395477295
1780527087489952300,16.4679521484375,0.42149701714515686,0.04764748737215996,0.5607742667198181
1780527087500053500,16.478053466796876,0.5326744914054871,-0.03176499158143997,0.34086281061172485
1780527087510185200,16.488185302734376,0.7147123217582703,-0.1062905490398407,-0.17470745742321014
1780527087520256000,16.498256103515626,0.9138544201850891,-0.2528982162475586,-0.38728857040405273
1780527087530357500,16.508357421875,1.0030407905578613,-0.3384193480014801,-0.1466076523065567
1780527087540489200,16.5184892578125,0.8442157506942749,-0.3323107063770294,0.20525072515010834
1780527087611259600,16.589259765625,0.8319984674453735,-0.2590068578720093,-0.5583308339118958
1780527087621361000,16.59936083984375,0.8124507665634155,-0.49724429845809937,-0.09407325088977814
1780527087681938200,16.659938232421876,0.7782423496246338,-0.20036379992961884,-0.4337143301963806
1780527087692039700,16.670039794921873,0.750142514705658,-0.23335053026676178,-0.26511552929878235
1780527087702141000,16.680140869140626,0.6866125464439392,-0.26145032048225403,-0.01466076634824276
1780527087712272600,16.690272705078126,0.6279694437980652,-0.2675589919090271,0.21380282938480377
1780527087722374100,16.7003740234375,0.5595525503158569,-0.21502456068992615,0.30543261766433716
1780527087732475400,16.710475341796876,0.43127086758613586,-0.1270599663257599,0.3017674386501312
1780527087742576600,16.72057666015625,0.2883284091949463,-0.0403171069920063,0.3384193480014801
1780527087752708600,16.73070849609375,0.2015855312347412,0.06719517707824707,0.24923302233219147
1780527087762840300,16.74084033203125,0.15882496535778046,0.13927727937698364,-0.03787364438176155
1780527087772941600,16.750941650390626,0.16249015927314758,0.0757472887635231,-0.3066543638706207
1780527087783073500,16.761073486328126,0.1918116807937622,-0.06230825558304787,-0.4288274049758911
1780527087793174800,16.7711748046875,0.20891591906547546,-0.16982053220272064,-0.384845107793808
1780527087803276000,16.781276123046876,0.21380282938480377,-0.23335053026676178,-0.17959438264369965
1780527087813377500,16.79137744140625,0.18325957655906677,-0.2174680233001709,0.09651670604944229
1780527087823478800,16.801478759765626,0.1258382350206375,-0.14782938361167908,0.294437050819397
1780527087833610500,16.811610595703126,0.09529497474431992,-0.045204028487205505,0.2724458873271942
1780527087843712000,16.8217119140625,0.10018189996480942,0.08429940044879913,0.04398229718208313
1780527087853782800,16.83178271484375,0.09529497474431992,0.11850785464048386,-0.16737708449363708
1780527087863884000,16.841884033203126,0.06719517707824707,0.013439035043120384,-0.26633724570274353
1780527087873985300,16.8519853515625,0.02932153269648552,-0.13439035415649414,-0.38117989897727966
1780527087884086800,16.862086669921876,0.015882495790719986,-0.18325957655906677,-0.5216789245605469
1780527087894157600,16.872157470703126,0.051312681287527084,-0.14905111491680145,-0.6023131608963013
1780527087904228400,16.882228271484376,0.10262536257505417,-0.12095131725072861,-0.40072759985923767
1780527087914299100,16.892299072265626,0.1270599663257599,-0.11239920556545258,-0.07819075137376785
1780527087924370000,16.902369873046876,0.13561208546161652,-0.05375614017248154,0.1966986060142517
1780527087934471200,16.91247119140625,0.18936823308467865,0.06352998316287994,0.3701843321323395
1780527088015098600,16.9930986328125,0.22113321721553802,0.12339477986097336,-0.01710422709584236
1780527088025169400,17.00316943359375,0.2871066629886627,0.1111774742603302,0.1014036312699318
1780527088035240200,17.013240234375,0.3433062732219696,0.04642575979232788,0.2064724564552307
1780527088045311000,17.02331103515625,0.3604104816913605,0.00855211354792118,0.25534167885780334
1780527088055381800,17.0333818359375,0.32498031854629517,-0.00855211354792118,0.24556782841682434
1780527088065483300,17.043483154296876,0.28099802136421204,-0.03420845419168472,0.11362093687057495
1780527088075584500,17.05358447265625,0.2480112910270691,-0.045204028487205505,-0.03787364438176155
1780527088085624800,17.063624755859376,0.21013765037059784,-0.02321287989616394,-0.09773843735456467
1780527088105796900,17.083796875,0.1417207419872284,0.09896016865968704,-0.04886921867728233
1780527088115867600,17.09386767578125,0.17470745742321014,0.1563815027475357,-0.042760565876960754
1780527088125938400,17.1039384765625,0.20891591906547546,0.14294247329235077,0.04764748737215996
1780527088136009200,17.11400927734375,0.22479841113090515,0.09896016865968704,0.1514945775270462
1780527088146080000,17.124080078125,0.21013765037059784,0.08674286305904388,0.1722639948129654
1780527088156181500,17.134181396484376,0.2028072625398636,0.08429940044879913,0.11484266817569733
1780527088176353500,17.154353515625,0.23335053026676178,0.1062905490398407,-0.015882495790719986
1780527088206627000,17.184626953125,0.31154128909111023,0.05009094998240471,0.2883284091949463
1780527088216697900,17.19469775390625,0.3127630054950714,-0.015882495790719986,0.33719760179519653
1780527088226768600,17.2047685546875,0.2785545587539673,-0.03298672288656235,0.2822197377681732
1780527088236870000,17.214869873046876,0.20525072515010834,-0.013439035043120384,0.16737708449363708
1780527088246940700,17.224940673828126,0.1417207419872284,0.009773843921720982,0.08307767659425735
1780527088257011500,17.235011474609376,0.10262536257505417,0.01710422709584236,0.08185594528913498
1780527088267082200,17.245082275390626,0.0708603709936142,0.019547687843441963,0.11850785464048386
1780527088277153000,17.255153076171876,0.059864792972803116,0.039095375686883926,0.13072516024112701
1780527088287254500,17.265254638671873,0.06352998316287994,0.0403171069920063,0.11972958594560623
1780527088297355800,17.275355712890626,0.05742133408784866,0.04642575979232788,0.1319468915462494
1780527088337700000,17.3157001953125,0.09285151958465576,0.02932153269648552,0.13927727937698364
1780527088398124800,17.376124755859376,0.13561208546161652,0.08185594528913498,0.27977627515792847
1780527088418266400,17.396266357421876,0.09529497474431992,0.06475171446800232,0.2370157092809677
1780527088458610700,17.436610595703126,0.0806342139840126,0.09529497474431992,0.20036379992961884
1780527088468712000,17.4467119140625,0.07330382615327835,0.10873401165008545,0.21624629199504852
1780527088478782700,17.45678271484375,0.06352998316287994,0.12095131725072861,0.2223549485206604
1780527088488884000,17.466884033203126,0.06108652427792549,0.1258382350206375,0.2223549485206604
1780527088498954800,17.476954833984376,0.06841690838336945,0.13316862285137177,0.22602014243602753
1780527088509056300,17.48705615234375,0.07330382615327835,0.11362093687057495,0.21624629199504852
1780527088539268600,17.5172685546875,0.0757472887635231,0.03176499158143997,0.22479841113090515
1780527088599723800,17.577723876953126,0.025656340643763542,0.0024434609804302454,0.05253441259264946
1780527088609794800,17.587794921875,0.0403171069920063,-0.00855211354792118,0.05375614017248154
1780527088629966800,17.607966796875,0.01466076634824276,-0.010995574295520782,0.15393804013729095
1780527088650078000,17.628077880859376,0.00366519158706069,0.045204028487205505,0.11239920556545258
1780527088710533000,17.688533203125,0.04642575979232788,-0.00366519158706069,-0.039095375686883926
1780527088801262000,17.779261962890626,0.02932153269648552,0.006108652334660292,-0.013439035043120384
1780527088811363300,17.78936328125,0.030543262138962746,0.018325956538319588,0.08918632566928864
1780527088821434000,17.79943408203125,0.039095375686883926,0.021991148591041565,0.10506882518529892
1780527088831505000,17.8095048828125,0.02687807008624077,0.004886921960860491,0.05864306539297104
1780527088841606100,17.819606201171876,-0.00733038317412138,-0.04153883829712868,-0.05253441259264946
1780527088851677000,17.829677001953126,-0.04398229718208313,-0.09529497474431992,-0.23945917189121246
1780527088881950500,17.859950439453126,-0.028099801391363144,-0.08796459436416626,-0.28955012559890747
1780527088922264000,17.90026416015625,-0.01466076634824276,-0.1514945775270462,-0.2174680233001709
1780527088932396000,17.91039599609375,-0.028099801391363144,-0.16371189057826996,-0.36529740691185
1780527088972770800,17.950770751953126,-0.02932153269648552,-0.09162978827953339,0.030543262138962746
1780527088982872000,17.9608720703125,-0.024434609338641167,-0.11484266817569733,0.16737708449363708
1780527088992973300,17.970973388671876,-0.05009094998240471,-0.13439035415649414,0.14538592100143433
1780527089013145600,17.9911455078125,-0.11484266817569733,-0.14294247329235077,-0.03787364438176155
1780527089033348000,18.01134814453125,-0.1820378452539444,-0.17959438264369965,-0.07696902006864548
1780527089043449600,18.02144970703125,-0.2174680233001709,-0.19547687470912933,-0.05375614017248154
1780527089053520400,18.031520263671876,-0.26633724570274353,-0.17348572611808777,-0.019547687843441963
1780527089063591200,18.041591064453126,-0.31642818450927734,-0.15515977144241333,0.00855211354792118
1780527089073692400,18.0516923828125,-0.36163222789764404,-0.15760323405265808,0.036651913076639175
1780527089103935200,18.081935302734376,-0.46303585171699524,-0.08429940044879913,0.02076941914856434
1780527089114006000,18.092006103515626,-0.48380526900291443,-0.08429940044879913,0.00366519158706069
1780527089124076800,18.102076904296876,-0.5241223573684692,-0.10018189996480942,-0.004886921960860491
1780527089134178300,18.11217822265625,-0.5705481171607971,-0.06108652427792549,-0.02321287989616394
1780527089154320000,18.13231982421875,-0.6450737118721008,-0.04153883829712868,-0.039095375686883926
1780527089164390700,18.142390625,-0.7024950385093689,-0.0659734457731247,-0.00855211354792118
1780527089174461400,18.15246142578125,-0.7672467231750488,-0.059864792972803116,0.02076941914856434
1780527089184532200,18.1625322265625,-0.827111542224884,-0.019547687843441963,0.02687807008624077
1780527089194633500,18.172633544921876,-0.8881980776786804,0.030543262138962746,-0.00366519158706069
1780527089204704300,18.182704345703126,-0.9456194043159485,0.05253441259264946,0.004886921960860491
1780527089214775000,18.192775146484376,-0.988379955291748,0.019547687843441963,0.006108652334660292
1780527089224846000,18.20284619140625,-1.0384708642959595,-0.0024434609804302454,-0.04764748737215996
1780527089234947300,18.212947265625,-1.0995573997497559,0.028099801391363144,-0.04642575979232788
1780527089245018000,18.22301806640625,-1.1728612184524536,0.06352998316287994,0.039095375686883926
1780527089255119400,18.233119384765626,-1.2522737979888916,0.045204028487205505,0.05497787147760391
1780527089265190100,18.243190185546876,-1.3084733486175537,0.0354301854968071,-0.02687807008624077
1780527089275291600,18.253291748046873,-1.3231340646743774,0.059864792972803116,-0.09651670604944229
1780527089285423400,18.26342333984375,-1.3194689750671387,0.051312681287527084,-0.08185594528913498
1780527089305595400,18.283595458984376,-1.3096951246261597,-0.039095375686883926,0.08185594528913498
1780527089315666200,18.293666259765626,-1.3158037662506104,-0.04886921867728233,0.16493362188339233
1780527089325767700,18.303767578125,-1.321912407875061,-0.12217304855585098,0.17348572611808777
1780527089335869000,18.313868896484376,-1.3072515726089478,-0.2431243658065796,0.059864792972803116
1780527089345939700,18.323939697265626,-1.302364706993103,-0.3090978264808655,-0.13439035415649414
1780527089356041000,18.334041015625,-1.3072515726089478,-0.3127630054950714,-0.2480112910270691
1780527089366111700,18.34411181640625,-1.2705997228622437,-0.27000242471694946,-0.2981022298336029
1780527089376213200,18.354213134765626,-1.216843605041504,-0.2626720666885376,-0.3078760802745819
1780527089386314500,18.364314453125,-1.1630873680114746,-0.3029891550540924,-0.2015855312347412
1780527089396385300,18.37438525390625,-1.0995573997497559,-0.31154128909111023,-0.10384709388017654
1780527089406456000,18.3844560546875,-1.0299187898635864,-0.3176499307155609,-0.03420845419168472
1780527089416526800,18.39452685546875,-0.9321803450584412,-0.3677408695220947,0.00366519158706069
1780527089426628000,18.404628173828126,-0.8491026759147644,-0.39095374941825867,-0.07941248267889023
1780527089436699000,18.414698974609376,-0.7916813492774963,-0.3591887652873993,-0.051312681287527084
1780527089456901600,18.434901611328126,-0.6243042945861816,-0.27611109614372253,0.2785545587539673
1780527089466972400,18.444972412109376,-0.5253441333770752,-0.19792033731937408,0.39217549562454224
1780527089477043200,18.455043212890626,-0.4031710624694824,-0.19914206862449646,0.4178318381309509
1780527089497246000,18.475245849609376,-0.1771509200334549,-0.41661009192466736,0.2028072625398636
1780527089507347200,18.48534716796875,-0.06719517707824707,-0.5204572081565857,0.10384709388017654
1780527089517418000,18.49541796875,0.04642575979232788,-0.5668829679489136,0.025656340643763542
1780527089527519200,18.505519287109376,0.14538592100143433,-0.5375614166259766,-0.11728613078594208
1780527089547660800,18.525660888671876,0.41172316670417786,-0.36529740691185,-0.2272418737411499
1780527089557792800,18.535792724609376,0.6010913848876953,-0.3591887652873993,-0.0708603709936142
1780527089598045400,18.57604541015625,1.2021827697753906,-0.6120869517326355,-0.2565633952617645
1780527089608116200,18.5861162109375,1.341460108757019,-0.6108652353286743,-0.3640756905078888
1780527089618248200,18.596248291015623,1.4624114036560059,-0.5607742667198181,-0.49846604466438293
1780527089628349400,18.606349365234376,1.578475832939148,-0.5876523852348328,-0.5375614166259766
1780527089638420200,18.616420166015626,1.7263051271438599,-0.6389650702476501,-0.6377432942390442
1780527089648521500,18.626521484375,1.8191566467285156,-0.720820963382721,-0.7635815739631653
1780527089658592300,18.63659228515625,1.8411478996276855,-0.8063421249389648,-0.8759807348251343
1780527089668693500,18.646693603515626,1.8399261236190796,-0.8295549750328064,-0.9456194043159485
1780527089678795000,18.656794921875,1.8154915571212769,-0.7770205736160278,-0.93095862865448
1780527089688865800,18.66686572265625,1.8008307218551636,-0.7183775305747986,-0.7086036801338196
1780527089698967000,18.676967041015626,1.8643606901168823,-0.7061602473258972,-0.5583308339118958
1780527089709037800,18.687037841796876,1.9437731504440308,-0.7232644557952881,-0.7073819637298584
1780527089719108600,18.697108642578126,1.9437731504440308,-0.769690215587616,-0.8136724829673767
1780527089729209900,18.7072099609375,1.948660135269165,-0.7929030656814575,-0.8491026759147644
1780527089739281000,18.717281005859373,1.9523253440856934,-0.7147123217582703,-0.8710938692092896
1780527089749382100,18.727382080078126,1.909564733505249,-0.6279694437980652,-0.7098253965377808
1780527089759391700,18.737391845703126,1.881464958190918,-0.5070181488990784,-0.6218608021736145
1780527089769523700,18.747523681640626,1.8362609148025513,-0.3543018400669098,-0.6279694437980652
1780527089779655400,18.757655517578126,1.7409659624099731,-0.23457226157188416,-0.5338962078094482
1780527089789757000,18.7677568359375,1.6603317260742188,-0.16249015927314758,-0.3689626157283783
1780527089799797200,18.77779736328125,1.626123309135437,-0.10873401165008545,-0.3286454975605011
1780527089870506200,18.84850634765625,0.5461135506629944,0.4092797040939331,0.2015855312347412
1780527089910911700,18.888911865234373,-0.19547687470912933,0.5473352670669556,-0.1612684279680252
1780527090001884400,18.979884521484376,-1.7800613641738892,1.19607412815094,0.26511552929878235
1780527090042320400,19.0203203125,-2.116037130355835,1.4770721197128296,0.9236282706260681
1780527090113121000,19.09112109375,-1.4049900770187378,1.0873401165008545,0.8710938692092896
1780527090173820700,19.151820556640626,-0.7183775305747986,0.3799581825733185,1.1227703094482422
1780527090264854500,19.2428544921875,0.06108652427792549,-0.015882495790719986,0.12217304855585098
1780527090315483100,19.293483154296876,0.49846604466438293,-0.827111542224884,-0.7806857824325562
1780527090345848000,19.32384814453125,0.6707300543785095,0.12095131725072861,0.5314527750015259
1780527090355949600,19.333949462890626,0.6133087277412415,0.07941248267889023,0.740368664264679
1780527090366111700,19.34411181640625,0.5180137157440186,0.015882495790719986,0.34086281061172485
1780527090376243700,19.35424365234375,0.5253441333770752,-0.04642575979232788,-0.04153883829712868
1780527090416649000,19.39464892578125,0.8710938692092896,-0.04398229718208313,-0.40683624148368835
1780527090446983400,19.4249833984375,0.7379252314567566,-0.47280970215797424,0.024434609338641167
1780527090457084700,19.435084716796876,0.6939429044723511,-0.4764748811721802,-0.33475416898727417
1780527090507591400,19.48559130859375,1.0445796251296997,-0.3335324227809906,0.14782938361167908
1780527090517692700,19.495692626953126,0.9810495972633362,-0.4447098970413208,0.25045475363731384
1780527090537895200,19.515895263671876,0.827111542224884,-0.26511552929878235,0.00733038317412138
1780527090558067500,19.5360673828125,0.608421802520752,-0.03420845419168472,0.14538592100143433
1780527090578300700,19.55630078125,0.4899139404296875,0.08918632566928864,-0.08185594528913498
1780527090588432400,19.566432373046876,0.3640756905078888,-0.024434609338641167,-0.20891591906547546
1780527090598533600,19.57653369140625,0.22968533635139465,-0.13561208546161652,-0.3897320330142975
1780527090628868000,19.6068681640625,0.13439035415649414,-0.08796459436416626,-0.7122688889503479
1780527090679252700,19.657252685546876,0.15393804013729095,0.04764748737215996,0.21868975460529327
1780527090699455200,19.677455322265626,0.14782938361167908,-0.18814650177955627,-0.394618958234787
1780527090719627500,19.69762744140625,0.12950342893600464,-0.4092797040939331,-0.7391469478607178
1780527090729728800,19.707728759765626,0.08185594528913498,-0.27977627515792847,-0.6511823534965515
1780527090749931500,19.727931640625,0.19547687470912933,0.08918632566928864,-0.3127630054950714
1780527090810417200,19.788417236328126,0.4386012554168701,0.05253441259264946,0.3897320330142975
1780527090891044600,19.869044677734376,0.20525072515010834,0.13561208546161652,0.2932153046131134
1780527090931389000,19.909388916015626,0.26633724570274353,0.012217304669320583,0.01466076634824276
1780527090941429200,19.91942919921875,0.26511552929878235,0.006108652334660292,-0.00855211354792118
1780527090951530500,19.929530517578126,0.25045475363731384,0.009773843921720982,-0.0024434609804302454
1780527090961631700,19.9396318359375,0.22113321721553802,0.015882495790719986,0.05497787147760391
1780527090971702500,19.94970263671875,0.1966986060142517,0.0354301854968071,0.13072516024112701
1780527090981773600,19.959773681640623,0.17959438264369965,0.09162978827953339,0.19425514340400696
1780527091012046800,19.990046875,0.19058994948863983,0.15393804013729095,0.23090706765651703
1780527091022117600,20.00011767578125,0.19058994948863983,0.14538592100143433,0.29077184200286865
1780527091032188400,20.0101884765625,0.17837265133857727,0.1368338167667389,0.33108896017074585
1780527091042259200,20.02025927734375,0.14416420459747314,0.13316862285137177,0.36529740691185
1780527091052360700,20.030360595703126,0.11239920556545258,0.14294247329235077,0.3335324227809906
1780527091062431500,20.040431396484376,0.08552113175392151,0.13805554807186127,0.2626720666885376
1780527091072532700,20.05053271484375,0.06230825558304787,0.1258382350206375,0.21135938167572021
1780527091082603500,20.060603515625,0.04886921867728233,0.1111774742603302,0.19792033731937408
1780527091092704800,20.070704833984376,0.04642575979232788,0.10995574295520782,0.18325957655906677
1780527091102775600,20.080775634765626,0.030543262138962746,0.11728613078594208,0.16004669666290283
1780527091112877000,20.090876953125,0.01710422709584236,0.11728613078594208,0.16371189057826996
1780527091122947800,20.10094775390625,0.019547687843441963,0.12217304855585098,0.16737708449363708
1780527091133018600,20.1110185546875,0.036651913076639175,0.1368338167667389,0.14416420459747314
1780527091143089400,20.12108935546875,0.04642575979232788,0.13072516024112701,0.1563815027475357
1780527091163292000,20.1412919921875,0.04764748737215996,0.1319468915462494,0.2528982162475586
1780527091173362700,20.15136279296875,0.059864792972803116,0.1368338167667389,0.2565633952617645
1780527091183464200,20.161464111328126,0.05864306539297104,0.1319468915462494,0.2675589919090271
1780527091193535000,20.171534912109376,0.02932153269648552,0.11484266817569733,0.32009339332580566
1780527091203575300,20.1815751953125,0.0024434609804302454,0.12950342893600464,0.37140607833862305
1780527091213646000,20.19164599609375,0.004886921960860491,0.13805554807186127,0.3836233615875244
1780527091223716900,20.201716796875,0.01710422709584236,0.1258382350206375,0.33475416898727417
1780527091243889000,20.221888916015626,0.045204028487205505,0.11850785464048386,0.2382374405860901
1780527091253990100,20.231990234375,0.04642575979232788,0.08796459436416626,0.2370157092809677
1780527091264061000,20.24206103515625,0.030543262138962746,0.06475171446800232,0.2883284091949463
1780527091274162400,20.252162353515626,0.00855211354792118,0.0659734457731247,0.3127630054950714
1780527091284202800,20.26220263671875,0.00366519158706069,0.05497787147760391,0.2687807083129883
1780527091294242800,20.272242919921876,0.01466076634824276,0.04153883829712868,0.1563815027475357
1780527091304344300,20.28234423828125,0.025656340643763542,0.04764748737215996,0.01710422709584236
1780527091314415000,20.2924150390625,0.030543262138962746,0.05864306539297104,-0.025656340643763542
1780527091324486000,20.30248583984375,0.03787364438176155,0.04886921867728233,0.02687807008624077
1780527091334556700,20.312556640625,0.04642575979232788,0.02076941914856434,0.11239920556545258
