time,seconds_elapsed,z,y,x
1780527070540216000,-0.481783935546875,6.277596950531006,7.790732383728027,1.5753847360610962
1780527070570489300,-0.4515107421875,6.92881965637207,7.90086555480957,0.2585737705230713
1780527070580560100,-0.44143994140625,6.763619899749756,6.94079065322876,0.8667010068893433
1780527070600702000,-0.421298095703125,6.63433313369751,6.708553314208984,1.2449848651885986
1780527070610803200,-0.41119677734375,6.710947513580322,7.220912456512451,0.8858546018600464
1780527070620874000,-0.4011259765625,6.722918510437012,7.532158374786377,0.7757213711738586
1780527070630975200,-0.391024658203125,6.830657482147217,7.489062786102295,0.8978256583213806
1780527070641046000,-0.3809541015625,6.97430944442749,7.1921820640563965,1.070208191871643
1780527070651147300,-0.370852783203125,6.98628044128418,6.919242858886719,1.015141487121582
1780527070661218300,-0.36078173828125,6.909666061401367,6.8378400802612305,1.1228805780410767
1780527070671319600,-0.350680419921875,6.871358871459961,6.739677906036377,1.1827356815338135
1780527070681390300,-0.340609619140625,6.878541469573975,6.696582317352295,1.314416766166687
1780527070691552800,-0.330447265625,6.615179061889648,6.775590896606445,1.479616641998291
1780527070701654000,-0.320345947265625,6.531382083892822,6.8378400802612305,1.623268723487854
1780527070711724800,-0.310275146484375,6.428431510925293,6.957550048828125,1.6328455209732056
1780527070721826000,-0.300174072265625,6.574477672576904,6.88332986831665,1.6687586307525635
1780527070731927300,-0.29007275390625,6.746860504150391,6.84981107711792,1.5610195398330688
1780527070741998300,-0.280001708984375,6.8593878746032715,6.737283706665039,1.5155296325683594
1780527070752099600,-0.269900390625,7.000645637512207,6.756437301635742,1.525106430053711
1780527070782372900,-0.239627197265625,7.086836814880371,7.050923824310303,1.2210428714752197
1780527070802545200,-0.219454833984375,6.950367450714111,7.132327079772949,1.1324573755264282
1780527070812616000,-0.209384033203125,6.9910688400268555,7.168240070343018,1.094150185585022
1780527070822686700,-0.199313232421875,7.041347026824951,7.000645637512207,1.0821791887283325
1780527070832788000,-0.1892119140625,7.079654216766357,6.909666061401367,1.072602391242981
1780527070842889200,-0.17911083984375,7.134721279144287,6.971915245056152,0.9696516990661621
1780527070852990700,-0.16900927734375,7.091625213623047,6.931213855743408,1.0103530883789062
1780527070863061500,-0.1589384765625,7.105990409851074,6.912060260772705,0.9528923034667969
1780527070883294700,-0.138705322265625,7.086836814880371,6.619967937469482,1.036689281463623
1780527070893365500,-0.128634521484375,7.096413612365723,6.631938934326172,0.9816226959228516
1780527070903436300,-0.118563720703125,7.046135425567627,6.562506675720215,1.0079588890075684
1780527070913537500,-0.10846240234375,6.897695064544678,6.557718276977539,1.0558429956436157
1780527070923638800,-0.098361328125,6.907271862030029,6.567295074462891,1.1659762859344482
1780527070933740000,-0.088260009765625,6.84981107711792,6.63433313369751,1.1300631761550903
1780527070943841500,-0.078158447265625,6.801927089691162,6.730101108551025,1.0534487962722778
1780527070953942800,-0.06805712890625,6.8043212890625,6.670246124267578,1.1635819673538208
1780527070964044000,-0.0579560546875,6.871358871459961,6.756437301635742,1.158793568611145
1780527070984246800,-0.037753173828125,6.952761650085449,6.751648902893066,1.3000515699386597
1780527070994348000,-0.02765185546875,6.979097843170166,6.672640323638916,1.280897855758667
1780527071004418800,-0.017581298828125,6.900089263916016,6.560112476348877,1.237802267074585
1780527071014459100,-0.007540771484375,6.900089263916016,6.698976516723633,1.2856862545013428
1780527071024560400,0.002560302734375,6.8162922859191895,6.900089263916016,1.3024457693099976
1780527071034662000,0.012661865234375,6.797138690948486,6.864176273345947,1.2545616626739502
1780527071043732500,0.021732421875,6.868964672088623,6.868964672088623,1.2689268589019775
1780527071063935200,0.041935302734375,7.026981830596924,6.766014099121094,1.2521674633026123
1780527071084107300,0.062107177734375,7.015010833740234,6.871358871459961,1.1540051698684692
1780527071094178000,0.072177978515625,7.024587631225586,6.89530086517334,1.0749965906143188
1780527071134430700,0.1124306640625,7.110779285430908,6.732495307922363,1.1109095811843872
1780527071144471000,0.122470947265625,7.134721279144287,6.813898086547852,1.158793568611145
1780527071154572500,0.132572509765625,7.134721279144287,6.864176273345947,1.1300631761550903
1780527071164643300,0.142643310546875,7.139509677886963,6.687005519866943,1.2114660739898682
1780527071174714000,0.152714111328125,7.158663272857666,6.6846113204956055,1.2282254695892334
1780527071194886100,0.17288623046875,7.184999465942383,6.629544734954834,1.2952631711959839
1780527071204957000,0.18295703125,7.108384609222412,6.557718276977539,1.256955862045288
1780527071215058200,0.19305810546875,7.158663272857666,6.646304130554199,1.3024457693099976
1780527071225159700,0.20315966796875,7.060500621795654,6.619967937469482,1.2018892765045166
1780527071235261000,0.213260986328125,7.105990409851074,6.5696892738342285,1.1851298809051514
1780527071245362200,0.223362060546875,7.113173484802246,6.670246124267578,1.0582371950149536
1780527071255402500,0.233402587890625,7.146692276000977,6.7277069091796875,1.1109095811843872
1780527071265503700,0.243503662109375,7.072471618652344,6.660669326782227,1.137245774269104
1780527071275574500,0.253574462890625,7.084442615509033,6.627150535583496,1.0199298858642578
1780527071305787100,0.283787109375,7.046135425567627,6.746860504150391,0.9097966551780701
1780527071315858000,0.29385791015625,7.038952827453613,6.8162922859191895,0.8523358106613159
1780527071325928700,0.3039287109375,7.041347026824951,6.842628479003906,0.8259995579719543
1780527071335999500,0.31399951171875,7.089231014251709,6.933608055114746,0.608127236366272
1780527071356202000,0.334201904296875,7.003039836883545,7.0557122230529785,0.19871874153614044
1780527071366272800,0.344272705078125,6.914454460144043,7.079654216766357,-0.05027823522686958
1780527071376374300,0.354374267578125,6.852205276489258,7.182605266571045,-0.18914192914962769
1780527071406647600,0.3846474609375,6.2392897605896,7.350199222564697,-0.7086837291717529
1780527071416718300,0.39471826171875,5.971138954162598,7.46033239364624,-0.9576807022094727
1780527071426789000,0.4047890625,5.485116004943848,7.493851184844971,-1.194706678390503
1780527071436921000,0.414921142578125,5.125985622406006,7.237671852111816,-1.3311761617660522
1780527071446992000,0.424991943359375,4.800374507904053,6.94079065322876,-1.4867992401123047
1780527071457093000,0.435093017578125,4.5609540939331055,6.586448669433594,-1.3958195447921753
1780527071467164000,0.445163818359375,4.551377296447754,6.45476770401001,-1.237802267074585
1780527071477265400,0.455265380859375,4.525041103363037,6.189011573791504,-0.9696516990661621
1780527071497468000,0.475468017578125,4.661510944366455,5.5760955810546875,-0.6344634294509888
1780527071507538700,0.48553857421875,4.707000732421875,5.149928092956543,-0.5746083855628967
1780527071517609500,0.495609375,4.929661273956299,4.764461517333984,-0.6272808313369751
1780527071527711000,0.5057109375,5.006275653839111,4.2975921630859375,-0.6368576288223267
1780527071537842700,0.5158427734375,4.778826713562012,3.687070608139038,-0.7829039692878723
1780527071547913500,0.52591357421875,4.639962673187256,3.246537446975708,-0.6248866319656372
1780527071558014700,0.5360146484375,4.23773717880249,3.0526070594787598,-0.29209262132644653
1780527071568116200,0.5461162109375,3.928884983062744,3.0789434909820557,0.2777273952960968
1780527071578248000,0.556248046875,4.086902141571045,3.177105665206909,1.0295066833496094
1780527071588318700,0.566318603515625,4.505887508392334,2.9735984802246094,1.778891921043396
1780527071608521500,0.586521484375,5.719748020172119,1.8555063009262085,2.2218191623687744
1780527071618622700,0.596622802734375,6.090848922729492,0.849941611289978,2.075772762298584
1780527071628754400,0.60675439453125,6.253654956817627,-0.4692635238170624,1.9057846069335938
1780527071638856000,0.61685595703125,6.287173748016357,-1.5203180313110352,1.6855180263519287
1780527071648957200,0.626957275390625,6.751648902893066,-2.3343467712402344,2.2409727573394775
1780527071659058400,0.637058349609375,7.924807548522949,-3.0310592651367188,2.9281086921691895
1780527071669160000,0.647159912109375,8.702922821044922,-3.758896589279175,3.3925838470458984
1780527071679261200,0.65726123046875,9.01895809173584,-4.5609540939331055,3.404554843902588
1780527071709565200,0.687565185546875,9.069235801696777,-4.110844135284424,2.7557260990142822
1780527071719666400,0.69766650390625,9.277531623840332,-3.4596214294433594,2.4205379486083984
1780527071729767700,0.707767578125,9.320627212524414,-2.9496564865112305,2.0590133666992188
1780527071739899600,0.717899658203125,9.17697525024414,-2.801215887069702,1.821987509727478
1780527071749970400,0.727970458984375,9.17936897277832,-3.1747114658355713,1.7190368175506592
1780527071760071700,0.73807177734375,9.387664794921875,-3.734954595565796,1.9823989868164062
1780527071770142500,0.748142578125,9.86889934539795,-4.089296340942383,2.03507137298584
1780527071780274400,0.7582744140625,10.022128105163574,-4.575319290161133,1.9033904075622559
1780527071810609000,0.78860888671875,10.594342231750488,-5.872976779937744,1.6855180263519287
1780527071820649200,0.798649169921875,11.03248119354248,-5.841852188110352,1.4676456451416016
1780527071840882200,0.818882080078125,10.218452453613281,-6.253654956817627,1.2306196689605713
1780527071850953000,0.828952880859375,9.579200744628906,-6.931213855743408,1.0749965906143188
1780527071861085000,0.8390849609375,8.848969459533691,-7.82185697555542,1.0821791887283325
1780527071871186200,0.849186279296875,8.164227485656738,-8.796297073364258,0.9074024558067322
1780527071881287400,0.859287353515625,7.793126583099365,-9.691728591918945,0.7565677165985107
1780527071891389000,0.869388916015625,7.299921035766602,-10.654197692871094,0.6248866319656372
1780527071901520600,0.879520751953125,6.864176273345947,-11.453861236572266,0.47644615173339844
1780527071911622000,0.889621826171875,6.287173748016357,-12.126631736755371,0.2849099934101105
1780527071921753900,0.89975390625,5.963956356048584,-12.425907135009766,0.016759412363171577
1780527071931824600,0.90982470703125,5.770026206970215,-12.193669319152832,-0.4165911078453064
1780527071941956400,0.919956298828125,5.39174222946167,-11.820174217224121,-0.849941611289978
1780527071952057900,0.930057861328125,4.594472885131836,-11.621455192565918,-1.1994950771331787
1780527071962189600,0.940189453125,3.6320040225982666,-11.348516464233398,-1.3742717504501343
1780527071972260400,0.95026025390625,3.184288263320923,-11.401188850402832,-1.45806884765625
1780527071982392300,0.960392333984375,3.292027235031128,-11.57596492767334,-1.7860745191574097
1780527072002625500,0.98062548828125,2.298433542251587,-12.018892288208008,-2.432508945465088
1780527072012726800,0.990726806640625,1.7956513166427612,-11.8441162109375,-2.647987127304077
1780527072022858500,1.0008583984375,1.2186486721038818,-11.678915977478027,-2.920926094055176
1780527072038025700,1.016025634765625,0.730231523513794,-11.379640579223633,-3.1316158771514893
1780527072043061200,1.021061279296875,0.31842881441116333,-11.27190113067627,-3.160346269607544
1780527072053162500,1.03116259765625,0.21787235140800476,-11.348516464233398,-3.179499864578247
1780527072063294500,1.04129443359375,0.22266076505184174,-11.492168426513672,-2.9975404739379883
1780527072073426200,1.05142626953125,0.002394201699644327,-11.90157699584961,-2.762908697128296
1780527072083527400,1.06152734375,0.17956513166427612,-11.892000198364258,-2.4660277366638184
1780527072093659400,1.071659423828125,0.11013327538967133,-11.63342571258545,-2.169146776199341
1780527072103791000,1.081791015625,-0.45010992884635925,-11.374852180480957,-1.778891921043396
1780527072134125600,1.11212548828125,0.7015010714530945,-9.059659004211426,-2.315192937850952
1780527072144227000,1.12222705078125,1.1420341730117798,-8.111555099487305,-2.940079689025879
1780527072154328300,1.132328369140625,2.4181437492370605,-7.058106422424316,-3.6990416049957275
1780527072174561500,1.1525615234375,3.845088005065918,-4.9152960777282715,-4.888959884643555
1780527072184662800,1.162662841796875,1.9177556037902832,-5.003881454467773,-5.298368453979492
1780527072199830000,1.177830078125,-1.359906554222107,-6.63433313369751,-4.845864295959473
1780527072204896000,1.18289599609375,-3.026270866394043,-8.655038833618164,-4.091690540313721
1780527072215027700,1.19302783203125,-3.095702886581421,-9.41639518737793,-3.2776620388031006
1780527072225129000,1.20312890625,-3.201047658920288,-9.615114212036133,-2.5043349266052246
1780527072235291400,1.21329150390625,-3.227383852005005,-9.607931137084961,-2.6144683361053467
1780527072245392600,1.223392578125,-3.141192674636841,-9.892841339111328,-3.3734302520751953
1780527072285828600,1.26382861328125,-3.00711727142334,-12.05959415435791,-4.175487995147705
1780527072326264300,1.304264404296875,-1.0797849893569946,-11.444284439086914,-4.036623954772949
1780527072336396300,1.314396240234375,-0.3926490843296051,-10.66137981414795,-4.144362926483154
1780527072417267700,1.395267822265625,2.3726539611816406,-9.749189376831055,-3.270479440689087
1780527072508118500,1.486118408203125,1.577778935432434,-10.412383079528809,-2.7126305103302
1780527072538422500,1.516422607421875,0.8762778043746948,-11.39161205291748,-2.52109432220459
1780527072548493300,1.526493408203125,0.811634361743927,-11.745953559875488,-2.7078421115875244
1780527072558564000,1.536564208984375,0.7422025203704834,-11.834539413452148,-2.75812029838562
1780527072568665300,1.546665283203125,0.6536170840263367,-11.669339179992676,-2.609679937362671
1780527072598939000,1.57693896484375,0.47644615173339844,-10.802638053894043,-2.166752576828003
1780527072609009700,1.587009765625,0.44532153010368347,-10.575188636779785,-2.252943754196167
1780527072619111000,1.59711083984375,0.4668693244457245,-10.319009780883789,-2.293645143508911
1780527072629181700,1.607181640625,0.3208230137825012,-10.086771965026855,-2.5258827209472656
1780527072639252500,1.61725244140625,0.3064578175544739,-9.971850395202637,-2.693476915359497
1780527072649354000,1.62735400390625,0.2968810200691223,-9.603142738342285,-2.7126305103302
1780527072659394300,1.637394287109375,0.26336219906806946,-9.327810287475586,-2.612074136734009
1780527072669495600,1.64749560546875,0.26575639843940735,-9.081207275390625,-2.477998733520508
1780527072689667600,1.66766748046875,0.5003881454467773,-9.074024200439453,-2.4133553504943848
1780527072699738400,1.67773828125,0.6344634294509888,-8.975862503051758,-2.410961151123047
1780527072709778700,1.68777880859375,0.40701428055763245,-8.851364135742188,-2.3080103397369385
1780527072719880000,1.6978798828125,0.040701430290937424,-8.841787338256836,-2.248155355453491
1780527072729981400,1.7079814453125,-0.26336219906806946,-8.851364135742188,-2.0207061767578125
1780527072740021800,1.718021728515625,-0.40940847992897034,-9.011775016784668,-1.8794482946395874
1780527072750092500,1.728092529296875,-0.4908113479614258,-9.35654067993164,-1.6711528301239014
1780527072760193800,1.73819384765625,-0.5554547905921936,-9.782708168029785,-1.7549498081207275
1780527072770234000,1.748234130859375,-0.7589619159698486,-10.055646896362305,-1.7310078144073486
1780527072780305000,1.758304931640625,-1.036689281463623,-10.505757331848145,-1.5825673341751099
1780527072800446500,1.778446533203125,-1.0654197931289673,-11.274295806884766,-1.656787633895874
1780527072810517200,1.788517333984375,-0.9840168952941895,-11.537657737731934,-1.7860745191574097
1780527072820588000,1.798588134765625,-1.0199298858642578,-12.035652160644531,-1.8124107122421265
1780527072830658800,1.808658935546875,-1.1013327836990356,-12.193669319152832,-1.6208745241165161
1780527072840729600,1.8187294921875,-1.2641384601593018,-12.303802490234375,-1.3623007535934448
1780527072850800400,1.82880029296875,-1.4460978507995605,-12.253523826599121,-1.259350061416626
1780527072860902000,1.83890185546875,-1.2401964664459229,-11.923124313354492,-1.0462661981582642
1780527072870972700,1.84897265625,-0.993593692779541,-11.446678161621094,-0.8643068075180054
1780527072881074000,1.859073974609375,-0.47884035110473633,-10.8505220413208,-0.5099649429321289
1780527072891114200,1.8691142578125,0.10295066982507706,-10.041281700134277,-0.3208230137825012
1780527072901215500,1.879215576171875,0.8020575642585754,-9.8784761428833,0.11013327538967133
1780527072911316700,1.889316650390625,1.4197616577148438,-9.560047149658203,0.38067805767059326
1780527072921387500,1.899387451171875,1.8100165128707886,-9.445125579833984,0.5602431893348694
1780527072931427800,1.909427734375,1.9943699836730957,-9.366117477416992,0.8020575642585754
1780527072971680500,1.949680419921875,2.889801502227783,-9.41639518737793,1.2976573705673218
1780527072981751300,1.959751220703125,3.3231520652770996,-9.162610054016113,1.3311761617660522
1780527073032105500,2.01010546875,4.850652694702148,-6.979097843170166,2.169146776199341
1780527073082520300,2.060520263671875,5.372588634490967,-6.995857238769531,3.177105665206909
1780527073092591000,2.070591064453125,5.298368453979492,-6.651092529296875,3.3207578659057617
1780527073102662100,2.080662109375,5.094861030578613,-5.975927352905273,3.3901896476745605
1780527073112763400,2.090763427734375,4.577713489532471,-5.494692802429199,3.466804027557373
1780527073122834200,2.100834228515625,4.252102375030518,-5.25527286529541,3.5673606395721436
1780527073132905000,2.110905029296875,4.022258758544922,-5.281609058380127,3.584120035171509
1780527073142975700,2.120975830078125,4.141968727111816,-5.688623428344727,3.4739866256713867
1780527073153046500,2.131046630859375,4.220977783203125,-5.999869346618652,3.270479440689087
1780527073163117300,2.141117431640625,4.4077253341674805,-5.987898349761963,3.205836057662964
1780527073173218600,2.151218505859375,4.434061527252197,-5.901707172393799,3.380612850189209
1780527073183289300,2.161289306640625,4.388571739196777,-5.853823184967041,3.4979286193847656
1780527073193360400,2.1713603515625,4.376600742340088,-5.980715751647949,3.6320040225982666
1780527073203461600,2.181461669921875,4.213795185089111,-6.110002517700195,3.7493197917938232
1780527073223633700,2.201633544921875,2.9017724990844727,-6.763619899749756,4.019864559173584
1780527073233735000,2.21173486328125,1.7501614093780518,-6.730101108551025,4.501099109649658
1780527073243806000,2.221805908203125,0.9864110946655273,-5.738901615142822,5.130774021148682
1780527073253846000,2.231845947265625,3.157952070236206,-5.0876784324646,5.200206279754639
1780527073263947500,2.241947509765625,9.617507934570312,-5.717353820800781,3.9049429893493652
1780527073274018300,2.252018310546875,17.089811325073242,-7.524975776672363,-0.507570743560791
1780527073284089000,2.262089111328125,13.546393394470215,-11.283872604370117,-2.7246015071868896
1780527073294160000,2.272159912109375,6.7923502922058105,-13.663708686828613,-0.9217676520347595
1780527073304261000,2.28226123046875,4.680664539337158,-13.017274856567383,2.3989901542663574
1780527073344575000,2.322574951171875,3.737348794937134,-5.851428985595703,2.5474305152893066
1780527073354676200,2.33267626953125,4.8267107009887695,-6.301538944244385,2.2002713680267334
1780527073364747000,2.3427470703125,5.171475887298584,-6.9910688400268555,3.0406360626220703
1780527073374848300,2.35284814453125,5.439626216888428,-7.400477409362793,3.84269380569458
1780527073384949500,2.362949462890625,5.6670756340026855,-7.4770917892456055,4.122815132141113
1780527073415192600,2.393192626953125,6.076483726501465,-7.161057472229004,3.7014358043670654
1780527073425293800,2.4032939453125,5.420472621917725,-7.1706342697143555,3.488351821899414
1780527073455537000,2.433536865234375,3.268085241317749,-6.943184852600098,2.695871114730835
1780527073465607700,2.443607666015625,5.353435039520264,-7.266402244567871,2.0398597717285156
1780527073475647700,2.453647705078125,4.750096321105957,-7.891288757324219,2.7246015071868896
1780527073485749200,2.463749267578125,4.548983097076416,-8.461109161376953,3.485957622528076
1780527073495789600,2.47378955078125,5.1116204261779785,-8.11634349822998,3.7876269817352295
1780527073505890800,2.483890869140625,5.916072368621826,-8.801085472106934,3.890577793121338
1780527073515992000,2.493991943359375,5.039794445037842,-8.7484130859375,3.5194764137268066
1780527073526062800,2.504062744140625,3.4572272300720215,-8.89685344696045,3.3470940589904785
1780527073536103200,2.514103271484375,3.5936968326568604,-7.987056732177734,3.2130186557769775
1780527073546235100,2.524235107421875,4.496310710906982,-6.710947513580322,3.380612850189209
1780527073556336400,2.53433642578125,6.107608318328857,-6.0836663246154785,3.8786067962646484
1780527073566437600,2.544437744140625,6.976703643798828,-5.56173038482666,3.9863457679748535
1780527073576539000,2.554538818359375,7.8960771560668945,-4.9799394607543945,3.708618402481079
1780527073586640400,2.564640380859375,8.197746276855469,-4.357447147369385,3.2345664501190186
1780527073596711200,2.574711181640625,8.300697326660156,-3.4620156288146973,3.4548330307006836
1780527073606782000,2.584781982421875,7.8314337730407715,-2.674323320388794,4.098873138427734
1780527073616913700,2.59491357421875,7.331045627593994,-2.2361843585968018,4.788403511047363
1780527073626984400,2.604984375,7.24485445022583,-1.9345149993896484,5.197812080383301
1780527073637086000,2.6150859375,7.086836814880371,-2.027888774871826,4.934449672698975
1780527073647187200,2.625187255859375,6.258443355560303,-2.540247917175293,4.508281707763672
1780527073717835300,2.695835205078125,1.3479355573654175,-11.341333389282227,1.920149803161621
1780527073727936800,2.705936767578125,1.4676456451416016,-15.904682159423828,1.1109095811843872
1780527073738038000,2.7160380859375,1.1444283723831177,-18.918981552124023,0.31842881441116333
1780527073748139300,2.72613916015625,0.2082955539226532,-19.73301124572754,-0.31364041566848755
1780527073758271200,2.736271240234375,-1.1037269830703735,-18.191144943237305,-1.1563993692398071
1780527073768342000,2.746342041015625,-2.6862943172454834,-14.891934394836426,-1.8483237028121948
1780527073778412800,2.756412841796875,-4.220977783203125,-11.856086730957031,-2.0422539710998535
1780527073788483600,2.766483642578125,-5.135562419891357,-10.007762908935547,-1.6112977266311646
1780527073798584800,2.776584716796875,-4.955997467041016,-8.489839553833008,-0.8906430602073669
1780527073808716800,2.786716796875,-3.936067581176758,-7.201758861541748,-0.9696516990661621
1780527073818787600,2.79678759765625,-2.5713725090026855,-6.7923502922058105,-1.8770540952682495
1780527073828858400,2.8068583984375,-1.6831238269805908,-7.965508937835693,-2.58813214302063
1780527073838929200,2.81692919921875,-1.4413094520568848,-9.691728591918945,-2.8155810832977295
1780527073849030400,2.827030517578125,-0.8307880163192749,-10.579977035522461,-2.8802247047424316
1780527073919648000,2.89764794921875,-3.7181951999664307,-12.595894813537598,-3.794809579849243
1780527073949830000,2.927829833984375,-3.177105665206909,-12.990938186645508,-1.6208745241165161
1780527074010254800,2.9882548828125,-1.6927006244659424,-7.965508937835693,-2.296039342880249
1780527074020386600,2.998386474609375,-0.7829039692878723,-7.7763671875,-3.205836057662964
1780527074030457300,3.008457275390625,-0.9361328482627869,-7.924807548522949,-3.8163576126098633
1780527074040528100,3.018528076171875,-2.5785553455352783,-8.736441612243652,-3.5673606395721436
1780527074050568400,3.028568359375,-4.177882194519043,-9.44991397857666,-3.315969467163086
1780527074060670000,3.038669921875,-5.04218864440918,-9.888052940368652,-3.404554843902588
1780527074101014000,3.079013916015625,-6.076483726501465,-10.706870079040527,-2.252943754196167
1780527074111084800,3.089084716796875,-6.440402507781982,-10.378864288330078,-1.920149803161621
1780527074121186300,3.099186279296875,-6.871358871459961,-10.043676376342773,-1.6328455209732056
1780527074131257000,3.109257080078125,-7.5417351722717285,-9.904812812805176,-1.6496049165725708
1780527074141358300,3.1193583984375,-7.46033239364624,-9.995792388916016,-1.8794482946395874
1780527074151459600,3.12945947265625,-7.189787864685059,-10.127472877502441,-2.2194249629974365
1780527074161530400,3.1395302734375,-6.40927791595459,-10.26394271850586,-2.4013843536376953
1780527074171692800,3.14969287109375,-5.710171222686768,-10.424354553222656,-2.406172752380371
1780527074181763600,3.159763671875,-5.0685248374938965,-10.5344877243042,-2.4875755310058594
1780527074191834400,3.16983447265625,-4.55616569519043,-10.78587818145752,-2.3247697353363037
1780527074201935600,3.179935546875,-4.218583583831787,-11.190498352050781,-2.1499931812286377
1780527074262543600,3.240543701171875,-5.693411827087402,-11.372458457946777,-1.2114660739898682
1780527074272644900,3.250644775390625,-5.5114521980285645,-9.385271072387695,-1.0462661981582642
1780527074282776800,3.26077685546875,-5.906495571136475,-8.767566680908203,-0.48602294921875
1780527074292878000,3.270878173828125,-6.155492782592773,-8.87051773071289,0.2968810200691223
1780527074302948900,3.280948974609375,-4.98472785949707,-9.306262016296387,1.1228805780410767
1780527074313050000,3.291050048828125,-3.2968156337738037,-10.342951774597168,1.3910311460494995
1780527074323121000,3.301120849609375,-1.944091796875,-11.51850414276123,1.37906014919281
1780527074333192000,3.31119189453125,-1.8124107122421265,-12.708422660827637,1.5514427423477173
1780527074343262700,3.3212626953125,-2.403778553009033,-13.639766693115234,1.9536685943603516
1780527074353364000,3.331364013671875,-2.999934673309326,-13.907917976379395,2.473210334777832
1780527074434052400,3.41205224609375,-2.7940332889556885,-10.771512985229492,4.865017890930176
1780527074454255000,3.432255126953125,-1.6328455209732056,-8.528146743774414,4.565742492675781
1780527074464356400,3.4423564453125,-1.501164436340332,-7.228095054626465,4.230554580688477
1780527074474457600,3.45245751953125,-0.9576807022094727,-7.017405033111572,3.8546648025512695
1780527074484559000,3.46255908203125,-0.608127236366272,-8.087613105773926,3.4763808250427246
1780527074494660400,3.472660400390625,0.31603461503982544,-8.49941635131836,3.423708438873291
1780527074504761600,3.48276171875,1.455674648284912,-7.182605266571045,3.4835634231567383
1780527074514893600,3.4928935546875,1.5322890281677246,-5.743690013885498,3.7876269817352295
1780527074524994800,3.502994873046875,1.0654197931289673,-5.322310447692871,4.005499362945557
1780527074535096000,3.513095947265625,1.3646949529647827,-4.941632270812988,3.7636849880218506
1780527074545197300,3.523197265625,2.647987127304077,-5.078101634979248,2.9975404739379883
1780527074555298800,3.533298828125,3.28963303565979,-5.884947776794434,2.2146365642547607
1780527074565400000,3.543400146484375,3.5051112174987793,-6.57926607131958,1.8770540952682495
1780527074575531800,3.55353173828125,3.7205893993377686,-6.224924564361572,1.5514427423477173
1780527074636170200,3.614170166015625,6.581660270690918,-6.675034523010254,-1.1324573755264282
1780527074646271700,3.624271728515625,7.309497833251953,-6.742072105407715,-2.126051187515259
1780527074656373000,3.634373046875,7.407660007476807,-6.258443355560303,-2.298433542251587
1780527074666474200,3.64447412109375,7.005434036254883,-6.244078159332275,-2.365471363067627
1780527074706971100,3.68497119140625,6.7061591148376465,-10.41956615447998,-4.431667327880859
1780527074717072400,3.695072265625,6.344634532928467,-9.986215591430664,-4.7189717292785645
1780527074727204400,3.705204345703125,6.208165168762207,-9.959878921508789,-4.963180065155029
1780527074737305600,3.7153056640625,5.92325496673584,-10.04846477508545,-5.063736438751221
1780527074747468000,3.725468017578125,5.659893035888672,-9.246406555175781,-4.122815132141113
1780527074757569300,3.7355693359375,5.130774021148682,-8.169015884399414,-2.734178304672241
1780527074767701000,3.745700927734375,4.766855716705322,-8.01339340209961,-1.5538369417190552
1780527074777802500,3.755802490234375,4.853046894073486,-8.51138687133789,-0.5099649429321289
1780527074787903700,3.76590380859375,5.2672438621521,-8.372523307800293,0.026336219161748886
1780527074798035500,3.776035400390625,5.137956619262695,-7.8960771560668945,0.689530074596405
1780527074808167400,3.78616748046875,4.881777286529541,-7.048529624938965,1.482010841369629
1780527074818299100,3.796299072265625,4.699818134307861,-6.631938934326172,2.099714994430542
1780527074828400600,3.806400634765625,4.541800498962402,-6.205770969390869,2.470816135406494
1780527074848603100,3.82660302734375,3.9695863723754883,-5.839457988739014,2.5929205417633057
1780527074899048700,3.877048583984375,-0.8810662031173706,-7.86734676361084,7.259219646453857
1780527074929291800,3.907291748046875,-1.4077905416488647,-11.820174217224121,7.692570209503174
1780527074939393000,3.91739306640625,-0.8523358106613159,-12.550405502319336,7.3885064125061035
1780527074949494300,3.927494384765625,-0.033518824726343155,-12.023680686950684,6.97430944442749
1780527074999909400,3.977909423828125,-0.10773907601833344,-8.468291282653809,7.850587368011475
1780527075040223000,4.018222900390625,0.3447650372982025,-6.641515731811523,8.348581314086914
1780527075050263300,4.02826318359375,1.0055646896362305,-6.588842868804932,8.346187591552734
1780527075060364500,4.038364501953125,0.9648633003234863,-6.92881965637207,8.161833763122559
1780527075070466000,4.048466064453125,2.1332337856292725,-8.4108304977417,7.6782050132751465
1780527075080567300,4.0585673828125,2.030282974243164,-8.762778282165527,7.522581577301025
1780527075090638000,4.06863818359375,3.44765043258667,-8.724471092224121,7.132327079772949
1780527075100708900,4.078708984375,5.22175407409668,-7.735665798187256,6.782773494720459
1780527075110779600,4.088779541015625,9.751583099365234,-5.647922039031982,6.205770969390869
1780527075120850400,4.098850341796875,7.5848307609558105,-4.98472785949707,6.833051681518555
1780527075130952000,4.108951904296875,3.222595453262329,-4.426878929138184,7.0772600173950195
1780527075141022700,4.119022705078125,1.1851298809051514,-2.5785553455352783,6.607996463775635
1780527075151093500,4.129093505859375,1.3120225667953491,-2.1308395862579346,5.760449409484863
1780527075161194800,4.13919482421875,2.3295583724975586,-3.825934410095215,5.331887245178223
1780527075171296000,4.1492958984375,2.5115175247192383,-7.223306655883789,5.803544998168945
1780527075181397500,4.1593974609375,3.114856481552124,-11.034875869750977,6.682217121124268
1780527075191468300,4.16946826171875,4.620809078216553,-12.172121047973633,6.517016887664795
1780527075201478000,4.179477783203125,5.104437828063965,-10.144232749938965,4.750096321105957
1780527075211579400,4.189579345703125,4.651933670043945,-7.872135162353516,2.7533318996429443
1780527075221650200,4.199650146484375,3.622427225112915,-5.959167957305908,1.0654197931289673
1780527075231751400,4.20975146484375,0.8906430602073669,-8.44195556640625,1.5059528350830078
1780527075241852700,4.219852783203125,0.8667010068893433,-10.690110206604004,3.0885202884674072
1780527075251923500,4.22992333984375,3.157952070236206,-9.909601211547852,3.93367338180542
1780527075261994200,4.239994140625,3.3854012489318848,-8.269572257995605,3.9863457679748535
1780527075272095700,4.250095703125,2.518700122833252,-7.443572998046875,3.689464807510376
1780527075292237300,4.2702373046875,1.0295066833496094,-8.456320762634277,3.7277719974517822
1780527075322449700,4.30044970703125,2.7988216876983643,-9.490615844726562,5.432443618774414
1780527075332520400,4.3105205078125,2.47560453414917,-8.87291145324707,5.135562419891357
1780527075433381000,4.411381103515625,1.7980455160140991,-9.75637149810791,4.1874589920043945
1780527075493805800,4.471805908203125,2.5929205417633057,-7.977479934692383,4.900930881500244
1780527075554230500,4.53223046875,2.8203697204589844,-8.497021675109863,4.697423934936523
1780527075584504000,4.562504150390625,2.078166961669922,-8.374917984008789,4.077325344085693
1780527075594574800,4.572574951171875,1.7501614093780518,-8.288725852966309,4.02465295791626
1780527075604645600,4.582645751953125,1.9369091987609863,-8.08043098449707,4.079719543457031
1780527075614716400,4.59271630859375,1.9153614044189453,-8.252813339233398,4.0533833503723145
1780527075624817700,4.602817626953125,2.1164743900299072,-8.276755332946777,3.9887399673461914
1780527075634949600,4.61294970703125,2.346317768096924,-8.528146743774414,4.122815132141113
1780527075645020400,4.6230205078125,2.252943754196167,-9.3828763961792,4.144362926483154
1780527075655121700,4.63312158203125,2.5067291259765625,-9.821015357971191,3.9384617805480957
1780527075665223200,4.64322314453125,2.298433542251587,-9.402029991149902,3.955221176147461
1780527075675324400,4.653324462890625,2.097320795059204,-8.724471092224121,4.240131378173828
1780527075685456100,4.6634560546875,2.094926595687866,-8.355764389038086,4.218583583831787
1780527075695527000,4.67352685546875,2.2026655673980713,-8.248024940490723,3.971980571746826
1780527075705628400,4.68362841796875,2.4899697303771973,-8.391676902770996,3.804386615753174
1780527075715699200,4.69369921875,2.6431987285614014,-8.379706382751465,3.907337188720703
1780527075735871200,4.713871337890625,1.6400281190872192,-8.35336971282959,3.9600095748901367
1780527075745911600,4.72391162109375,1.1851298809051514,-8.671798706054688,3.9624037742614746
1780527075756012800,4.7340126953125,1.7190368175506592,-8.939949035644531,3.9001545906066895
1780527075766114300,4.7441142578125,2.4875755310058594,-9.536105155944824,3.84269380569458
1780527075776215600,4.754215576171875,2.8586769104003906,-9.327810287475586,3.8977603912353516
1780527075786286300,4.764286376953125,2.6791117191314697,-8.520963668823242,4.146757125854492
1780527075796387600,4.7743876953125,2.3271639347076416,-7.989450931549072,4.352658748626709
1780527075806488800,4.78448876953125,2.3558945655822754,-8.02536392211914,4.462791919708252
1780527075816590300,4.79459033203125,2.808398485183716,-8.300697326660156,4.534617900848389
1780527075836762400,4.814762451171875,3.179499864578247,-9.478644371032715,4.525041103363037
1780527075846833200,4.824833251953125,3.117250680923462,-9.452308654785156,4.5154643058776855
1780527075856904000,4.834904052734375,2.956839084625244,-9.059659004211426,4.489128112792969
1780527075867005200,4.845005126953125,2.8874073028564453,-8.705317497253418,4.331110954284668
1780527075877076000,4.855075927734375,2.7940332889556885,-8.33182144165039,4.185064792633057
1780527075887177500,4.865177490234375,3.0142998695373535,-8.334216117858887,3.9647979736328125
1780527075897278700,4.87527880859375,3.184288263320923,-8.508993148803711,3.8498764038085938
1780527075907349500,4.885349609375,3.114856481552124,-8.83699893951416,3.8115692138671875
1780527075937592600,4.915592529296875,2.209848165512085,-8.753201484680176,4.369418144226074
1780527075947663400,4.925663330078125,1.9728221893310547,-9.124302864074707,4.522646903991699
1780527075998047700,4.9760478515625,1.601720929145813,-8.765172004699707,3.383007049560547
1780527076048462800,5.026462890625,1.678335428237915,-8.214506149291992,3.1914708614349365
1780527076058533600,5.03653369140625,1.2521674633026123,-8.451532363891602,3.162740468978882
1780527076068604400,5.0466044921875,1.5418659448623657,-9.11233139038086,3.5721490383148193
1780527076078675200,5.05667529296875,1.7741034030914307,-9.531316757202148,3.7277719974517822
1780527076088715500,5.066715576171875,2.0661959648132324,-10.072406768798828,3.471592426300049
1780527076098816800,5.076816650390625,2.3367409706115723,-10.194510459899902,2.87064790725708
1780527076108918000,5.08691796875,1.2210428714752197,-10.153809547424316,2.827552318572998
1780527076119019500,5.09701953125,0.5889736413955688,-10.27591323852539,3.026270866394043
1780527076129059800,5.107059814453125,1.7597382068634033,-9.967061996459961,3.1292216777801514
1780527076139161000,5.1171611328125,3.050212860107422,-9.346963882446289,3.7205893993377686
1780527076159333000,5.1373330078125,3.177105665206909,-8.04930591583252,4.639962673187256
1780527076169373400,5.14737353515625,2.4612393379211426,-7.934384346008301,4.199429988861084
1780527076179474700,5.157474609375,1.3192051649093628,-8.185775756835938,3.4189200401306152
1780527076209687300,5.187687255859375,2.0470423698425293,-9.469067573547363,2.964021682739258
1780527076229859300,5.207859375,2.4444799423217773,-9.476250648498535,2.5067291259765625
1780527076250001000,5.2280009765625,1.6831238269805908,-9.411606788635254,2.734178304672241
1780527076310486800,5.28848681640625,3.4165258407592773,-8.518569946289062,4.90571928024292
1780527076320588000,5.298588134765625,3.3877954483032227,-8.403648376464844,5.013458251953125
1780527076330689300,5.308689208984375,2.8850131034851074,-8.291120529174805,5.080495834350586
1780527076340760000,5.318760009765625,2.9233202934265137,-8.621520042419434,5.018246650695801
1780527076350861600,5.328861572265625,2.808398485183716,-9.097966194152832,4.618414878845215
1780527076360962800,5.338962890625,2.674323320388794,-9.246406555175781,4.060565948486328
1780527076371033600,5.34903369140625,2.1380221843719482,-9.08838939666748,3.818751811981201
1780527076381104400,5.3591044921875,2.0877439975738525,-8.734047889709473,3.622427225112915
1780527076391205600,5.36920556640625,2.006340980529785,-8.604761123657227,3.442862033843994
1780527076401276400,5.3792763671875,2.27209734916687,-8.556877136230469,3.138798475265503
1780527076411378000,5.3893779296875,1.9704279899597168,-8.650250434875488,3.0310592651367188
1780527076431550000,5.409550048828125,2.4636335372924805,-9.050082206726074,3.3925838470458984
1780527076481934600,5.4599345703125,2.6455929279327393,-8.544905662536621,3.866635799407959
1780527076552491000,5.530490966796875,2.7006595134735107,-8.901641845703125,4.043806552886963
1780527076633210000,5.611210205078125,3.3662476539611816,-8.190564155578613,3.488351821899414
1780527076643311400,5.621311279296875,3.2178070545196533,-8.027758598327637,3.6990416049957275
1780527076713898500,5.6918984375,2.0877439975738525,-8.576030731201172,4.4723687171936035
1780527076804780000,5.782780029296875,3.2393548488616943,-9.102754592895508,3.576937437057495
1780527076835053300,5.81305322265625,1.647210717201233,-9.258378028869629,4.534617900848389
1780527076845154800,5.82315478515625,2.229001760482788,-9.05247688293457,4.656722068786621
1780527076855256000,5.833256103515625,2.9544448852539062,-8.571242332458496,4.522646903991699
1780527076875428000,5.853427978515625,3.77565598487854,-7.90086555480957,3.936067581176758
1780527076895630800,5.873630859375,2.873042106628418,-8.497021675109863,4.043806552886963
1780527076905732000,5.883732177734375,2.27209734916687,-8.916007041931152,4.084507942199707
1780527076915863800,5.89386376953125,0.7613561153411865,-10.158597946166992,3.8810009956359863
1780527076925965300,5.90396533203125,0.7829039692878723,-10.819397926330566,3.2632968425750732
1780527076936097000,5.914096923828125,1.3311761617660522,-10.08198356628418,2.786850690841675
1780527076946229000,5.92422900390625,2.3798365592956543,-8.990227699279785,2.540247917175293
1780527076956330200,5.934330322265625,2.801215887069702,-8.583212852478027,2.6384103298187256
1780527076966431500,5.944431396484375,2.5665841102600098,-8.65982723236084,2.9041666984558105
1780527076976533000,5.954532958984375,2.5043349266052246,-8.729259490966797,3.2537200450897217
1780527076986634200,5.96463427734375,2.557007312774658,-8.724471092224121,3.6367924213409424
1780527076996735500,5.974735595703125,2.410961151123047,-8.705317497253418,3.9432501792907715
1780527077006867500,5.984867431640625,2.6839001178741455,-8.633491516113281,4.264073371887207
1780527077016999200,5.994999267578125,2.8131868839263916,-8.731653213500977,4.228160381317139
1780527077027100400,6.005100341796875,2.4372973442077637,-8.777143478393555,3.9264907836914062
1780527077097748700,6.075748779296875,1.9488801956176758,-7.692570209503174,3.224989652633667
1780527077117951200,6.095951171875,2.255337953567505,-7.702147006988525,3.5410242080688477
1780527077158356700,6.136356689453125,3.2321722507476807,-8.892065048217773,4.788403511047363
1780527077218995000,6.196994873046875,1.3000515699386597,-8.578424453735352,5.233725070953369
1780527077289704200,6.2677041015625,2.3080103397369385,-9.5408935546875,3.378218650817871
1780527077319977700,6.297977783203125,1.9584569931030273,-9.583989143371582,3.44765043258667
1780527077330079000,6.308078857421875,2.190694570541382,-9.248801231384277,3.5242648124694824
1780527077340180200,6.31818017578125,2.456450939178467,-9.066842079162598,3.6727054119110107
1780527077350281700,6.32828173828125,2.5905263423919678,-9.006986618041992,3.8522706031799316
1780527077360352500,6.3383525390625,2.6815059185028076,-8.774748802185059,4.055777549743652
1780527077370423300,6.34842333984375,2.8155810832977295,-8.578424453735352,4.228160381317139
1780527077380494000,6.358494140625,2.8155810832977295,-8.523358345031738,4.288015365600586
1780527077420868900,6.398868896484375,2.2146365642547607,-7.857769966125488,4.280832767486572
1780527077430939600,6.408939697265625,2.011129379272461,-7.570465564727783,4.316745758056641
1780527077441010400,6.419010498046875,2.296039342880249,-7.508216381072998,4.350264549255371
1780527077451081200,6.429081298828125,2.343923568725586,-7.448361396789551,4.754884719848633
1780527077461182500,6.439182373046875,2.2888567447662354,-7.785943984985352,5.1116204261779785
1780527077471253200,6.449253173828125,2.516305923461914,-7.750030994415283,5.16429328918457
1780527077481324000,6.459323974609375,2.892195701599121,-7.953537940979004,4.9583916664123535
1780527077491394800,6.469394775390625,4.54419469833374,-6.938396453857422,3.8594532012939453
1780527077501465900,6.4794658203125,3.004723072052002,-7.465120792388916,3.3949780464172363
1780527077511536600,6.48953662109375,2.736572504043579,-7.996633529663086,2.978386878967285
1780527077521607400,6.499607421875,2.999934673309326,-8.705317497253418,3.624821424484253
1780527077531739100,6.5097392578125,2.121262788772583,-8.1139497756958,4.424484729766846
1780527077541810000,6.519809814453125,2.6623523235321045,-8.473079681396484,4.766855716705322
1780527077551880700,6.529880615234375,1.7597382068634033,-8.559270858764648,4.922478675842285
1780527077561982200,6.539982177734375,1.460463047027588,-8.990227699279785,4.479551315307617
1780527077572053000,6.550052978515625,1.7549498081207275,-8.520963668823242,4.410119533538818
1780527077582154200,6.560154296875,2.3511061668395996,-8.547300338745117,4.58968448638916
1780527077592225000,6.57022509765625,2.1571757793426514,-9.153033256530762,4.347870349884033
1780527077602326300,6.580326171875,2.9065608978271484,-8.975862503051758,4.256890773773193
1780527077612397000,6.59039697265625,2.875436305999756,-10.108319282531738,4.120420932769775
1780527077622498600,6.60049853515625,2.80361008644104,-10.431536674499512,4.134786128997803
1780527077632599800,6.610599853515625,3.507505416870117,-10.405200958251953,3.708618402481079
1780527077683106300,6.661106201171875,3.2417490482330322,-8.554482460021973,2.9281086921691895
1780527077713318700,6.691318603515625,4.113238334655762,-8.04691219329834,2.6623523235321045
1780527077723389700,6.7013896484375,4.3406877517700195,-7.733271598815918,2.7916390895843506
1780527077733491000,6.711490966796875,4.503493309020996,-7.790732383728027,2.918531894683838
1780527077753663000,6.7316630859375,4.426878929138184,-7.951143741607666,3.4763808250427246
1780527077773865700,6.75186572265625,4.278438568115234,-7.886500358581543,3.9217023849487305
1780527077783936500,6.7619365234375,4.211400985717773,-7.8745293617248535,4.1156325340271
1780527077794007300,6.77200732421875,4.381389141082764,-7.860164165496826,4.223371982574463
1780527077804108500,6.782108642578125,4.592078685760498,-7.879317760467529,4.326322555541992
1780527077814179300,6.792179443359375,4.699818134307861,-7.781155586242676,4.371812343597412
1780527077834321000,6.81232080078125,4.704606533050537,-7.489062786102295,4.750096321105957
1780527077844422400,6.82242236328125,4.786009311676025,-7.680599212646484,5.0014872550964355
1780527077864594400,6.842594482421875,5.169081687927246,-7.484274387359619,5.377377033233643
1780527077884797000,6.862796875,4.896142482757568,-7.594407558441162,5.398924827575684
1780527077894868000,6.872867919921875,4.637568473815918,-7.630321025848389,5.432443618774414
1780527077965485600,6.943485595703125,4.4077253341674805,-10.144232749938965,4.819528102874756
1780527078005890800,6.983890869140625,3.464409828186035,-9.454702377319336,4.350264549255371
1780527078015992000,6.993991943359375,3.3518824577331543,-9.521739959716797,4.2544965744018555
1780527078026093300,7.00409326171875,3.1531636714935303,-9.557653427124023,4.1156325340271
1780527078036225300,7.014225341796875,2.920926094055176,-9.622296333312988,3.9911341667175293
1780527078056397300,7.034397216796875,3.1651346683502197,-9.643844604492188,3.7708675861358643
1780527078066498800,7.044498779296875,3.3925838470458984,-9.59596061706543,3.5410242080688477
1780527078076600000,7.05460009765625,3.359065055847168,-9.617507934570312,3.2417490482330322
1780527078086640400,7.064640380859375,2.7485435009002686,-9.440337181091309,3.1316158771514893
1780527078096741600,7.07474169921875,2.051830768585205,-9.342175483703613,3.047818660736084
1780527078106843000,7.0848427734375,1.656787633895874,-8.925583839416504,3.069366693496704
1780527078116913700,7.09491357421875,1.4987702369689941,-8.927978515625,2.980781078338623
1780527078126954000,7.1049541015625,1.7501614093780518,-9.287108421325684,2.7222073078155518
1780527078137055200,7.11505517578125,2.367865562438965,-10.043676376342773,2.5737667083740234
1780527078157227500,7.1352275390625,3.9240965843200684,-12.064382553100586,2.3558945655822754
1780527078187439900,7.16543994140625,2.6815059185028076,-11.4849853515625,1.9919757843017578
1780527078258027000,7.236027099609375,4.235342979431152,-9.327810287475586,0.8427590131759644
1780527078268128300,7.246128173828125,4.072536945343018,-9.124302864074707,0.6488286852836609
1780527078288269800,7.266269775390625,3.9193081855773926,-7.888894557952881,-0.035913024097681046
1780527078308442000,7.286442138671875,4.122815132141113,-7.448361396789551,-0.790086567401886
1780527078318543400,7.29654345703125,4.529829502105713,-7.343016624450684,-0.7541735172271729
1780527078328644600,7.30664453125,5.037400245666504,-7.316680431365967,-0.7469909191131592
1780527078338746000,7.31674609375,5.571307182312012,-7.491456985473633,-0.6607996821403503
1780527078348847400,7.326847412109375,5.980715751647949,-7.41484260559082,-0.608127236366272
1780527078358948600,7.336948486328125,6.22731876373291,-7.254431247711182,-0.7757213711738586
1780527078379090200,7.357090087890625,6.552929878234863,-6.461950302124023,-1.194706678390503
1780527078389161000,7.367160888671875,6.67982292175293,-5.935225963592529,-1.6280571222305298
1780527078399231700,7.377231689453125,6.440402507781982,-5.372588634490967,-1.7549498081207275
1780527078419373600,7.39737353515625,6.162675380706787,-4.7189717292785645,-1.8291701078414917
1780527078429444400,7.4074443359375,6.030993938446045,-4.812345504760742,-1.8722656965255737
1780527078439545600,7.417545654296875,6.342240333557129,-4.965574264526367,-2.190694570541382
1780527078449616400,7.427616455078125,6.8378400802612305,-5.262455463409424,-2.4636335372924805
1780527078459717600,7.437717529296875,7.343016624450684,-5.521028995513916,-2.626439332962036
1780527078469788400,7.447788330078125,7.522581577301025,-5.698200225830078,-2.6815059185028076
1780527078479890000,7.457889892578125,7.826645374298096,-5.954379558563232,-2.762908697128296
1780527078560578300,7.538578369140625,7.644686222076416,-6.845022678375244,-2.0638017654418945
1780527078621094700,7.5990947265625,6.9240312576293945,-6.921637058258057,-2.1595699787139893
1780527078631196000,7.60919580078125,6.97430944442749,-7.343016624450684,-2.0231003761291504
1780527078641266700,7.6192666015625,6.897695064544678,-7.536946773529053,-1.8602946996688843
1780527078651307000,7.62930712890625,7.137115478515625,-8.042123794555664,-1.6639702320098877
1780527078661377800,7.639377685546875,7.965508937835693,-8.38449478149414,-1.5921441316604614
1780527078671479300,7.649479248046875,7.5201873779296875,-8.743624687194824,-1.9632453918457031
1780527078681550000,7.659550048828125,6.995857238769531,-8.315062522888184,-1.4413094520568848
1780527078691590100,7.669590087890625,6.655880928039551,-7.632715225219727,-1.3263877630233765
1780527078762177500,7.740177490234375,7.615955829620361,-7.623138427734375,-0.7876923680305481
1780527078772248300,7.750248291015625,7.845798969268799,-7.601590633392334,-0.9720458984375
1780527078812562000,7.79056201171875,7.307103633880615,-7.026981830596924,-0.3711012601852417
1780527078822663200,7.8006630859375,7.38132381439209,-7.158663272857666,-0.24660277366638184
1780527078832764700,7.8107646484375,7.565677165985107,-7.240066051483154,-0.24181437492370605
1780527078842835500,7.82083544921875,7.711723804473877,-7.307103633880615,-0.08379705995321274
1780527078873078300,7.851078369140625,7.082048416137695,-6.493074893951416,0.8259995579719543
1780527078893189400,7.871189453125,6.768408298492432,-5.9735331535339355,1.0247182846069336
1780527078953705700,7.931705810546875,6.998251438140869,-6.440402507781982,1.1061211824417114
1780527078983948500,7.961948486328125,7.247248649597168,-6.4164605140686035,0.6655880808830261
1780527078994050000,7.972050048828125,7.292738437652588,-6.387730121612549,0.3663128614425659
1780527079004120800,7.982120849609375,7.374141216278076,-6.100425720214844,0.38546648621559143
1780527079014222000,7.99222216796875,7.218518257141113,-5.8203043937683105,0.2992752194404602
1780527079024292900,8.00229296875,7.139509677886963,-5.74129581451416,-0.0071826050989329815
1780527079034363600,8.01236376953125,7.16584587097168,-5.679046630859375,-0.31124621629714966
1780527079044434400,8.022434326171876,7.247248649597168,-5.616796970367432,-0.3758896589279175
1780527079054536000,8.032535888671875,7.354987621307373,-5.52821159362793,-0.3064578175544739
1780527079064606700,8.042606689453125,7.352593421936035,-5.3342814445495605,-0.2849099934101105
1780527079074708000,8.0527080078125,6.981492042541504,-5.125985622406006,-0.3687070608139038
1780527079094880000,8.0728798828125,6.967126846313477,-4.841075897216797,-0.40940847992897034
1780527079104981200,8.082981201171876,7.352593421936035,-4.841075897216797,-0.38307225704193115
1780527079115052300,8.09305224609375,7.515398979187012,-4.991910457611084,-0.49559974670410156
1780527079125092400,8.10309228515625,7.654263019561768,-5.135562419891357,-0.8762778043746948
1780527079135193900,8.11319384765625,7.829039573669434,-5.116408824920654,-0.9552865028381348
1780527079145295000,8.123295166015625,7.929595947265625,-5.272032260894775,-0.8978256583213806
1780527079155426800,8.1334267578125,8.185775756835938,-5.188235282897949,-1.3072341680526733
1780527079165528300,8.1435283203125,8.271966934204102,-4.900930881500244,-1.3048399686813354
1780527079175629600,8.153629638671875,8.121131896972656,-4.946420669555664,-1.556231141090393
1780527079185700400,8.163700439453125,8.259995460510254,-4.963180065155029,-1.9512743949890137
1780527079195801600,8.173801513671876,8.317456245422363,-5.128379821777344,-1.7597382068634033
1780527079205811500,8.1838115234375,8.640673637390137,-5.233725070953369,-1.0821791887283325
1780527079256226600,8.2342265625,9.215282440185547,-5.293580055236816,-1.41257905960083
1780527079336884500,8.314884521484375,9.05487060546875,-5.3797712326049805,-0.5219359993934631
1780527079367188500,8.3451884765625,8.81784439086914,-5.729324817657471,-0.8762778043746948
1780527079397492200,8.3754921875,7.888894557952881,-5.743690013885498,-0.6272808313369751
1780527079437897700,8.415897705078125,8.62391471862793,-5.504269599914551,-0.8690952062606812
1780527079447968500,8.425968505859375,8.468291282653809,-5.264849662780762,-1.1109095811843872
1780527079498536000,8.476535888671876,7.19936466217041,-5.252878665924072,-1.9129672050476074
1780527079508637400,8.486637451171875,7.762001991271973,-5.568912982940674,-1.9752163887023926
1780527079518738700,8.49673876953125,8.449137687683105,-5.765237808227539,-1.8507179021835327
1780527079528870400,8.506870361328126,8.762778282165527,-5.432443618774414,-1.7932571172714233
1780527079538972000,8.516971923828125,8.939949035644531,-4.867412090301514,-1.8602946996688843
1780527079549073200,8.5270732421875,9.437943458557129,-4.177882194519043,-2.0685901641845703
1780527079559174400,8.53717431640625,8.822632789611816,-4.165910720825195,-2.099714994430542
1780527079589478400,8.567478515625,7.184999465942383,-5.748478412628174,-2.0207061767578125
1780527079599579600,8.57757958984375,7.091625213623047,-5.750872611999512,-1.766920804977417
1780527079609681200,8.58768115234375,7.354987621307373,-5.729324817657471,-1.8339585065841675
1780527079619752000,8.597751953125,7.548917770385742,-5.7556610107421875,-1.8483237028121948
1780527079629883600,8.607883544921876,7.575253963470459,-5.825092792510986,-1.889025092124939
1780527079639985200,8.617985107421875,8.291120529174805,-6.1267619132995605,-2.054224967956543
1780527079650086400,8.62808642578125,8.109161376953125,-6.287173748016357,-1.8722656965255737
1780527079670289000,8.648288818359376,7.240066051483154,-5.664681434631348,-1.4628572463989258
1780527079680390400,8.658390380859375,6.186617374420166,-5.726930618286133,-1.6352397203445435
1780527079690522000,8.668522216796875,6.385335922241211,-5.870582580566406,-1.8267759084701538
1780527079710755300,8.68875537109375,7.237671852111816,-6.232107162475586,-1.7381904125213623
1780527079720856600,8.698856689453125,6.610390663146973,-5.853823184967041,-1.8076223134994507
1780527079741059300,8.719059326171875,6.586448669433594,-5.904101371765137,-1.316810965538025
1780527079751160600,8.72916064453125,6.461950302124023,-6.414066314697266,-0.9768342971801758
1780527079761261800,8.73926171875,6.619967937469482,-7.144298076629639,-0.8954314589500427
1780527079771363300,8.74936328125,6.619967937469482,-7.144298076629639,-0.8954314589500427
1780527079781464600,8.759464599609375,7.4316020011901855,-7.493851184844971,-1.0007762908935547
1780527079791535400,8.769535400390625,7.513004779815674,-7.577648162841797,-1.0007762908935547
1780527079801636600,8.77963671875,7.240066051483154,-7.242460250854492,-0.9481038451194763
1780527079811707400,8.789707275390626,6.777985095977783,-6.912060260772705,-0.9840168952941895
1780527079821808600,8.79980859375,6.818686485290527,-7.220912456512451,-0.8906430602073669
1780527079842011400,8.820011474609375,7.1251444816589355,-8.53293514251709,-1.2186486721038818
1780527079892457000,8.87045703125,7.292738437652588,-8.449137687683105,-1.436521053314209
1780527079922730500,8.90073046875,6.892906665802002,-6.811503887176514,-1.623268723487854
1780527079942872000,8.9208720703125,7.127538681030273,-7.836222171783447,-1.7764976024627686
1780527079952973300,8.930973388671875,7.108384609222412,-8.169015884399414,-1.8076223134994507
1780527079963074600,8.941074462890626,6.873753070831299,-8.808267593383789,-1.5634137392044067
1780527079973145300,8.951145263671876,6.517016887664795,-9.148244857788086,-1.161187767982483
1780527079993287000,8.971286865234376,7.129932880401611,-8.978256225585938,-0.790086567401886
1780527080063904800,9.04190478515625,6.607996463775635,-9.232041358947754,-1.0582371950149536
1780527080073945000,9.051945068359375,6.502651691436768,-9.11233139038086,-0.912190854549408
1780527080084015900,9.062015869140625,6.452373504638672,-8.62391471862793,-0.6320692300796509
1780527080094117000,9.0721171875,6.033388137817383,-7.785943984985352,-0.3280056416988373
1780527080114320000,9.09231982421875,5.473145008087158,-6.078877925872803,-0.6584054827690125
1780527080134492000,9.112491943359375,4.54419469833374,-4.553771495819092,-1.766920804977417
1780527080144593200,9.12259326171875,5.207388877868652,-3.711012601852417,-2.626439332962036
1780527080154694400,9.1326943359375,5.322310447692871,-2.5905263423919678,-3.0310592651367188
1780527080164796000,9.1427958984375,5.56173038482666,-1.5610195398330688,-3.136404275894165
1780527080174866700,9.15286669921875,5.652710437774658,-1.0103530883789062,-3.201047658920288
1780527080184937500,9.1629375,6.811503887176514,-1.4245500564575195,-3.643975019454956
1780527080195038700,9.173038818359375,7.108384609222412,-3.337517261505127,-3.845088005065918
1780527080205140000,9.183139892578126,7.723694801330566,-5.530605792999268,-3.205836057662964
1780527080225251000,9.2032509765625,9.502586364746094,-7.043741226196289,-1.4197616577148438
1780527080235321900,9.21332177734375,9.57441234588623,-7.63989782333374,-1.4413094520568848
1780527080245362200,9.223362060546876,7.7213006019592285,-9.543288230895996,-1.2832920551300049
1780527080255433000,9.233432861328126,6.404489517211914,-12.763489723205566,-0.8619126081466675
1780527080265534500,9.243534423828125,5.793968200683594,-14.750677108764648,0.004788403399288654
1780527080275635700,9.2536357421875,4.90571928024292,-13.888764381408691,0.011971008032560349
1780527080285676000,9.263676025390625,4.20421838760376,-11.650185585021973,-0.5506663918495178
1780527080295777300,9.27377734375,4.630385875701904,-8.513781547546387,-0.7326257228851318
1780527080305848000,9.28384814453125,6.282385349273682,-5.920860767364502,-1.1228805780410767
1780527080326020000,9.30402001953125,6.971915245056152,-4.766855716705322,-1.920149803161621
1780527080336152000,9.314152099609375,6.256049156188965,-5.518634796142578,-1.4197616577148438
1780527080346222800,9.324222900390625,5.8203043937683105,-5.623979568481445,-1.0654197931289673
1780527080366364400,9.344364501953125,4.1180267333984375,-6.277596950531006,-1.3192051649093628
1780527080376465700,9.354465576171876,3.9671921730041504,-7.038952827453613,-1.3096283674240112
1780527080386536400,9.364536376953126,4.527435302734375,-7.436390399932861,-1.7693150043487549
1780527080396607200,9.374607177734376,4.991910457611084,-7.338228225708008,-2.6431987285614014
1780527080406678000,9.384677978515626,4.817133903503418,-7.568071365356445,-3.3901896476745605
1780527080467164000,9.445163818359376,6.19379997253418,-14.784195899963379,3.778050184249878
1780527080487366700,9.46536669921875,4.520252704620361,-9.734824180603027,-2.8131868839263916
1780527080497437400,9.4754375,2.853888511657715,-6.852205276489258,-4.055777549743652
1780527080527741400,9.505741455078125,3.713406801223755,-6.320692539215088,-0.9026140570640564
1780527080537842700,9.5158427734375,4.529829502105713,-6.878541469573975,-1.0127472877502441
1780527080558014700,9.5360146484375,3.3255462646484375,-8.336610794067383,-2.341529369354248
1780527080568085500,9.54608544921875,6.1315507888793945,-8.939949035644531,-3.4404678344726562
1780527080648713000,9.626712890625,6.0621185302734375,-5.080495834350586,-5.674258232116699
1780527080668854800,9.646854736328125,6.174646377563477,-7.862558364868164,-3.9049429893493652
1780527080678925600,9.656925537109375,5.762843608856201,-8.825027465820312,-3.756502389907837
1780527080689057300,9.667057373046875,5.9519853591918945,-8.978256225585938,-4.28322696685791
1780527080699128000,9.677128173828125,5.849034786224365,-8.202534675598145,-4.55616569519043
1780527080709198800,9.68719873046875,5.12119722366333,-7.642292022705078,-4.592078685760498
1780527080729371100,9.70737109375,5.822698593139648,-6.876147270202637,-3.6727054119110107
1780527080739472400,9.717472412109375,5.856217384338379,-7.252037048339844,-3.514688014984131
1780527080749543200,9.727543212890625,5.96874475479126,-7.659051418304443,-3.584120035171509
1780527080759644400,9.73764453125,6.493074893951416,-7.95832633972168,-3.7181951999664307
1780527080769745700,9.74774560546875,6.327875137329102,-7.694964408874512,-3.77565598487854
1780527080779816400,9.75781640625,6.282385349273682,-7.55131196975708,-3.864241600036621
1780527080789887500,9.767887451171875,5.913678169250488,-7.173028469085693,-3.600879430770874
1780527080799958300,9.777958251953125,4.8051629066467285,-7.261613845825195,-3.2776620388031006
1780527080810029000,9.788029052734375,4.831499099731445,-8.08043098449707,-3.093308687210083
1780527080860474600,9.838474609375,5.2049946784973145,-6.801927089691162,-3.576937437057495
1780527080880677000,9.858677001953126,4.345476150512695,-5.60722017288208,-2.652775526046753
1780527080920991000,9.898990966796875,4.467580318450928,-8.348581314086914,-2.1380221843719482
1780527080971405800,9.94940576171875,4.955997467041016,-6.217741966247559,-1.2066776752471924
1780527081011750100,9.989750244140625,4.067748546600342,-8.121131896972656,0.6536170840263367
1780527081021821000,9.999821044921875,3.840299606323242,-8.762778282165527,0.4213795065879822
1780527081031891700,10.0098916015625,4.32871675491333,-8.561665534973145,-0.040701430290937424
1780527081052094500,10.030094482421875,3.845088005065918,-7.659051418304443,0.18914192914962769
1780527081092408000,10.070407958984376,4.572925090789795,-8.243236541748047,-0.4429273009300232
1780527081163056400,10.141056396484375,5.276820659637451,-9.560047149658203,1.2018892765045166
1780527081173127200,10.151127197265625,4.651933670043945,-10.077195167541504,1.680729627609253
1780527081183228400,10.161228515625,3.6511576175689697,-9.77791976928711,1.5753847360610962
1780527081193268700,10.171268798828125,3.1531636714935303,-8.710105895996094,1.0749965906143188
1780527081203370000,10.181369873046876,3.2752678394317627,-7.285555839538574,1.0654197931289673
1780527081213440800,10.191440673828126,3.936067581176758,-6.452373504638672,1.9297266006469727
1780527081223542300,10.201542236328125,5.236119270324707,-6.732495307922363,2.427720546722412
1780527081263916800,10.241916748046876,3.665522813796997,-8.71489429473877,3.9815573692321777
1780527081324433200,10.30243310546875,4.884171485900879,-11.978191375732422,5.4228668212890625
1780527081364747000,10.3427470703125,3.77565598487854,-13.654131889343262,5.4659624099731445
1780527081374848300,10.35284814453125,5.396530628204346,-14.58308219909668,5.980715751647949
1780527081384919000,10.3629189453125,5.12119722366333,-13.42668342590332,7.8960771560668945
1780527081395020500,10.3730205078125,5.303156852722168,-12.51449203491211,9.117119789123535
1780527081415192600,10.393192626953125,2.8610711097717285,-10.764330863952637,8.001421928405762
1780527081425263400,10.403263427734375,2.557007312774658,-9.761159896850586,7.841010570526123
1780527081435334100,10.413334228515625,3.071760892868042,-10.450690269470215,8.671798706054688
1780527081445374500,10.42337451171875,4.309563159942627,-12.777854919433594,9.205705642700195
1780527081455475700,10.433475830078125,2.9927520751953125,-14.906299591064453,8.322244644165039
1780527081465546500,10.44354638671875,2.9257144927978516,-16.517597198486328,7.898471355438232
1780527081475647700,10.453647705078126,5.102043628692627,-12.138602256774902,7.378929615020752
1780527081515992000,10.493991943359376,0.5937620401382446,-11.628637313842773,4.4939165115356445
1780527081526032400,10.504032470703125,-3.35667085647583,-10.481815338134766,0.4381389021873474
1780527081536133600,10.514133544921876,-5.037400245666504,-8.372523307800293,-2.1164743900299072
1780527081546204400,10.524204345703126,-5.214571475982666,-8.485051155090332,-3.3231520652770996
1780527081556275200,10.534275146484376,-4.548983097076416,-6.203376770019531,-3.332728862762451
1780527081576417000,10.5544169921875,-9.437943458557129,-6.315904140472412,-1.4317326545715332
1780527081636963800,10.6149638671875,-9.655815124511719,-7.398083209991455,4.924872875213623
1780527081687470300,10.66547021484375,7.623138427734375,-2.849100112915039,-0.9552865028381348
1780527081697571600,10.675571533203126,3.0813376903533936,-6.959944248199463,1.259350061416626
1780527081707642600,10.685642578125,-3.6822822093963623,-11.286267280578613,3.931279182434082
1780527081717743900,10.695743896484375,-4.338293552398682,-13.139378547668457,0.9983820915222168
1780527081727845000,10.70584521484375,1.522712230682373,-14.599842071533203,-3.4811692237854004
1780527081737946400,10.7159462890625,8.367734909057617,-15.468936920166016,-3.35667085647583
1780527081748078300,10.726078369140625,7.0317702293396,-12.682085990905762,1.0678139925003052
1780527081758149000,10.736149169921875,1.1635819673538208,-8.863334655761719,4.378994941711426
1780527081768250400,10.74625048828125,-3.1244332790374756,-6.538564682006836,5.066130638122559
1780527081798524000,10.77652392578125,4.376600742340088,-10.38604736328125,-3.090914487838745
1780527081808625200,10.786625244140625,-0.5722141861915588,-10.900800704956055,-2.8586769104003906
1780527081818726400,10.796726318359376,-3.315969467163086,-9.727641105651855,-0.4118026793003082
1780527081828797200,10.806797119140626,-2.3582887649536133,-8.480262756347656,3.0358476638793945
1780527081838868000,10.816867919921876,3.2848446369171143,-8.142680168151855,6.066906929016113
1780527081848969500,10.826969482421875,7.247248649597168,-7.484274387359619,6.799532890319824
1780527081859040300,10.837040283203125,2.580949544906616,-8.001421928405762,4.197035789489746
1780527081869141500,10.8471416015625,-1.5155296325683594,-9.074024200439453,-0.304063618183136
1780527081879242800,10.85724267578125,-2.3558945655822754,-9.227252960205078,-3.35667085647583
1780527081889374700,10.867374755859375,-0.7661445140838623,-9.279925346374512,-2.719813108444214
1780527081939911700,10.91791162109375,-3.3255462646484375,-7.793126583099365,-1.0821791887283325
1780527081950013200,10.92801318359375,-3.9839515686035156,-9.564835548400879,-4.170699596405029
1780527081960145000,10.938144775390626,3.24414324760437,-9.959878921508789,-5.023035049438477
1780527081970246100,10.94824609375,8.429984092712402,-10.47702693939209,-1.5179238319396973
1780527081980378000,10.958378173828125,5.396530628204346,-9.691728591918945,7.805097579956055
1780527081990479400,10.968479248046876,-1.6639702320098877,-9.14585018157959,7.412448406219482
1780527082000580600,10.97858056640625,-6.3063273429870605,-8.497021675109863,3.866635799407959
1780527082010743000,10.988742919921876,-4.1611223220825195,-7.400477409362793,-0.8259995579719543
1780527082020844300,10.99884423828125,-0.5051765441894531,-7.371747016906738,-4.285621166229248
1780527082030945800,11.00894580078125,3.6966474056243896,-8.578424453735352,-4.041412353515625
1780527082051178800,11.0291787109375,5.578489780426025,-11.429919242858887,4.908113479614258
1780527082071412000,11.049411865234376,-0.24899697303771973,-11.772290229797363,7.010222434997559
1780527082081544000,11.0595439453125,-0.28969839215278625,-9.435548782348633,4.158728122711182
1780527082101777000,11.07977685546875,0.6033388376235962,-7.474697589874268,-1.7357962131500244
1780527082111908900,11.089908935546875,2.31758713722229,-7.252037048339844,-1.800439715385437
1780527082132111600,11.110111572265625,3.670311212539673,-10.11789608001709,2.27209734916687
1780527082142243300,11.120243408203125,3.117250680923462,-10.675745010375977,3.157952070236206
1780527082152405800,11.13040576171875,1.9153614044189453,-10.522516250610352,3.9456443786621094
1780527082162507000,11.140507080078125,-0.31842881441116333,-10.539276123046875,4.07014274597168
1780527082172608300,11.150608154296876,-1.6136919260025024,-9.95748519897461,2.8131868839263916
1780527082182709800,11.160709716796875,-0.7445967197418213,-8.480262756347656,0.790086567401886
1780527082192841500,11.170841552734375,0.8643068075180054,-7.110779285430908,-0.5674257874488831
1780527082202942700,11.180942626953126,2.516305923461914,-7.623138427734375,-1.0438719987869263
1780527082213044200,11.191044189453125,3.4332852363586426,-8.808267593383789,-0.7781155705451965
1780527082223145500,11.2011455078125,3.56017804145813,-9.758766174316406,0.17717093229293823
1780527082233246700,11.211246826171875,2.3798365592956543,-10.723628997802734,2.252943754196167
1780527082253480000,11.23147998046875,-1.8363527059555054,-11.118672370910645,4.568136692047119
1780527082263581200,11.241581298828125,0.9457096457481384,-9.864110946655273,2.185906171798706
1780527082293854700,11.271854736328125,4.355052947998047,-9.150638580322266,-1.2282254695892334
1780527082303956000,11.2819560546875,2.434903144836426,-9.20091724395752,0.6919242739677429
1780527082314057200,11.29205712890625,0.646434485912323,-9.651026725769043,1.9321208000183105
1780527082334229500,11.3122294921875,-0.047884032130241394,-10.278307914733887,1.3934253454208374
1780527082344330800,11.322330810546875,1.6974890232086182,-9.785101890563965,0.24181437492370605
1780527082354462500,11.33246240234375,2.58813214302063,-8.53293514251709,-0.26815059781074524
1780527082364533200,11.342533203125,2.715024709701538,-7.979874134063721,0.05027823522686958
1780527082374665200,11.352665283203125,2.142810583114624,-8.185775756835938,0.8643068075180054
1780527082384797000,11.362796875,1.7094600200653076,-8.913613319396973,1.8171991109848022
1780527082394898400,11.3728984375,1.534683346748352,-9.615114212036133,1.9393033981323242
1780527082404969200,11.38296923828125,0.26336219906806946,-10.139444351196289,0.6177040338516235
1780527082415131400,11.39313134765625,0.7661445140838623,-10.505757331848145,-1.3000515699386597
1780527082425233000,11.40323291015625,1.9153614044189453,-10.002974510192871,-2.3127987384796143
1780527082435364600,11.413364501953126,2.8850131034851074,-9.727641105651855,-1.6927006244659424
1780527082445435400,11.423435302734376,3.0861260890960693,-9.567230224609375,0.1628057211637497
1780527082455597800,11.433597900390625,2.7437551021575928,-9.296685218811035,1.9800047874450684
1780527082465699000,11.443698974609376,1.8698714971542358,-9.244012832641602,2.691082715988159
1780527082475800600,11.453800537109375,1.2090718746185303,-9.181763648986816,2.212242364883423
1780527082485871400,11.463871337890625,0.9696516990661621,-9.313444137573242,0.7182605266571045
1780527082495972600,11.47397265625,0.7852981686592102,-9.801861763000488,-0.6703764796257019
1780527082516205800,11.494205810546875,2.4899697303771973,-9.80904483795166,-2.0015525817871094
1780527082526276600,11.504276611328125,2.652775526046753,-10.103530883789062,-1.6208745241165161
1780527082536377900,11.5143779296875,2.9951462745666504,-10.407594680786133,-0.6440402865409851
1780527082546479000,11.52447900390625,3.1004912853240967,-10.548852920532227,0.4213795065879822
1780527082556550000,11.5345498046875,2.3726539611816406,-10.587160110473633,1.1252747774124146
1780527082566620700,11.54462060546875,2.22660756111145,-10.56800651550293,1.4437036514282227
1780527082627137000,11.605136962890626,2.7269957065582275,-8.418013572692871,0.47165772318840027
1780527082637207800,11.615207763671876,2.806004285812378,-9.332598686218262,1.5203180313110352
1780527082677521700,11.655521728515625,1.0965443849563599,-10.08437728881836,0.21547815203666687
1780527082687592400,11.665592529296875,1.41257905960083,-10.213664054870605,-0.10295066982507706
1780527082697693700,11.675693603515626,2.0853497982025146,-10.520122528076172,-0.004788403399288654
1780527082707764500,11.685764404296876,2.762908697128296,-10.84094524383545,0.15083470940589905
1780527082717835300,11.695835205078126,2.782062292098999,-10.469843864440918,0.47884035110473633
1780527082727906000,11.705906005859376,2.5043349266052246,-9.605537414550781,0.44771572947502136
1780527082738007600,11.716007568359375,2.1068975925445557,-8.96389102935791,0.2082955539226532
1780527082748108800,11.72610888671875,2.3582887649536133,-8.068459510803223,-0.3423708379268646
1780527082758179600,11.7361796875,2.408566951751709,-8.192957878112793,-0.35434186458587646
1780527082768280800,11.74628076171875,2.7054479122161865,-8.722076416015625,-0.2561795711517334
1780527082778351600,11.7563515625,2.9927520751953125,-9.327810287475586,0.10534487664699554
1780527082788353000,11.76635302734375,3.2537200450897217,-9.653421401977539,0.36152446269989014
1780527082798454300,11.776454345703126,3.1866824626922607,-9.78989028930664,0.47644615173339844
1780527082808494600,11.78649462890625,3.0095114707946777,-9.744400978088379,0.2561795711517334
1780527082818595800,11.796595947265626,2.6599581241607666,-9.5408935546875,-0.05506663769483566
1780527082828667000,11.8066669921875,2.387019157409668,-9.706093788146973,-0.4908113479614258
1780527082838737700,11.816737548828126,2.4851813316345215,-9.974244117736816,-0.8140285611152649
1780527082848839000,11.8268388671875,2.5091233253479004,-9.99100399017334,-0.9169792532920837
1780527082858940200,11.836940185546876,2.360682964324951,-9.928754806518555,-0.8595184087753296
1780527082869041400,11.84704150390625,2.2146365642547607,-9.543288230895996,-0.586579442024231
1780527082879112400,11.857112548828125,2.1571757793426514,-9.040505409240723,-0.33997663855552673
1780527082889183200,11.867183349609375,2.3535003662109375,-8.949525833129883,-0.33039984107017517
1780527082969810700,11.947810791015625,3.2345664501190186,-9.244012832641602,-1.3287819623947144
1780527082989982700,11.967982666015626,3.2345664501190186,-9.368511199951172,-1.7717092037200928
1780527083040397800,12.018397705078126,3.220201253890991,-9.193734169006348,-1.987187385559082
1780527083131126500,12.10912646484375,3.3518824577331543,-9.354146003723145,-1.9273324012756348
1780527083151268000,12.12926806640625,3.423708438873291,-9.461885452270508,-1.8411411046981812
1780527083211876000,12.1898759765625,3.4835634231567383,-9.526528358459473,-2.5977089405059814
1780527083262291000,12.240291015625,3.3901896476745605,-8.803479194641113,-2.585737943649292
1780527083272361700,12.25036181640625,3.507505416870117,-9.289502143859863,-2.8419175148010254
1780527083292534000,12.270533935546876,3.6559460163116455,-10.201693534851074,-2.5761611461639404
1780527083302604800,12.280604736328126,3.552995204925537,-10.127472877502441,-2.5067291259765625
1780527083383293200,12.361293212890626,2.9879636764526367,-9.29189682006836,-2.425326347351074
1780527083433708300,12.411708251953126,3.064578056335449,-9.090784072875977,-2.011129379272461
1780527083443748600,12.42174853515625,3.0621838569641113,-8.973467826843262,-1.9273324012756348
1780527083453849900,12.431849853515626,3.201047658920288,-8.87051773071289,-1.5275006294250488
1780527083463920600,12.441920654296876,3.404554843902588,-8.69334602355957,-1.1204863786697388
1780527083473961000,12.4519609375,3.603273630142212,-8.89685344696045,-0.7326257228851318
1780527083484031700,12.46203173828125,3.485957622528076,-8.971074104309082,-0.9840168952941895
1780527083494133000,12.472133056640626,3.3854012489318848,-8.700529098510742,-1.4939818382263184
1780527083504203800,12.482203857421876,2.4851813316345215,-8.293514251708984,-1.6950948238372803
1780527083514274600,12.492274658203126,2.7724854946136475,-8.341399192810059,-1.1348515748977661
1780527083524345600,12.502345703125,3.205836057662964,-8.528146743774414,-0.6727706789970398
1780527083534446800,12.51244677734375,3.117250680923462,-8.935160636901855,-0.45010992884635925
1780527083544517600,12.522517578125,3.19865345954895,-9.138668060302734,-0.6416460275650024
1780527083554588400,12.53258837890625,3.141192674636841,-9.11233139038086,-0.7230489253997803
1780527083574730000,12.55272998046875,2.7246015071868896,-8.683769226074219,-0.28730419278144836
1780527083655418400,12.63341845703125,2.7437551021575928,-8.030152320861816,0.090979665517807
1780527083756279000,12.734279052734376,2.434903144836426,-7.881711959838867,1.2258312702178955
1780527083816795400,12.79479541015625,2.9759926795959473,-8.786720275878906,2.889801502227783
1780527083826896600,12.804896728515626,2.4229321479797363,-9.050082206726074,2.4636335372924805
1780527083897484000,12.875484130859375,2.492363929748535,-9.265560150146484,3.77565598487854
1780527083988212700,12.966212646484376,2.0015525817871094,-8.501810073852539,4.424484729766846
1780527083998314000,12.97631396484375,1.723825216293335,-8.501810073852539,4.347870349884033
1780527084008354300,12.986354248046876,1.8794482946395874,-8.20732307434082,3.952826976776123
1780527084048729000,13.02672900390625,1.9488801956176758,-10.450690269470215,4.261679172515869
1780527084058830300,13.036830322265626,1.0869675874710083,-10.852916717529297,4.1180267333984375
1780527084068931600,13.046931640625,1.6519991159439087,-9.799467086791992,3.9169139862060547
1780527084079002400,13.05700244140625,1.173158884048462,-8.47547435760498,3.8570590019226074
1780527084099174700,13.077174560546876,1.8076223134994507,-9.114726066589355,3.687070608139038
1780527084109215000,13.087215087890625,1.742978811264038,-11.233593940734863,3.5745432376861572
1780527084119316200,13.097316162109376,2.5115175247192383,-11.793837547302246,3.598485231399536
1780527084159691000,13.13769091796875,2.056619167327881,-11.647790908813477,6.605602264404297
1780527084220237800,13.19823779296875,1.0845733880996704,-10.824186325073242,8.161833763122559
1780527084240440300,13.2184404296875,0.6057330369949341,-12.507309913635254,7.752425193786621
1780527084250511400,13.228511474609375,-1.3048399686813354,-13.46020221710205,7.072471618652344
1780527084260612600,13.238612548828126,-0.090979665517807,-14.13057804107666,6.672640323638916
1780527084270713900,13.2487138671875,-0.2992752194404602,-14.437036514282227,6.162675380706787
1780527084280784600,13.25878466796875,-1.1659762859344482,-14.798561096191406,5.686229228973389
1780527084300987400,13.2789873046875,-4.467580318450928,-11.8441162109375,2.2026655673980713
1780527084311088600,13.289088623046876,-4.10366153717041,-11.508927345275879,0.9911994934082031
1780527084321190000,13.29918994140625,-0.2801215946674347,-9.524134635925293,0.26336219906806946
1780527084331260700,13.3092607421875,3.095702886581421,-7.704541206359863,0.2059013396501541
1780527084341362200,13.319362060546876,3.466804027557373,-6.962338447570801,0.12928688526153564
1780527084351463400,13.32946337890625,1.0821791887283325,-4.491522312164307,-0.35673606395721436
1780527084361564700,13.339564697265626,-2.5713725090026855,-2.6408045291900635,0.2298433631658554
1780527084371696600,13.349696533203126,-5.063736438751221,-0.2585737705230713,0.29209262132644653
1780527084381798000,13.3597978515625,-6.931213855743408,1.9297266006469727,-0.002394201699644327
1780527084401939500,13.379939453125,-1.7405846118927002,-8.753201484680176,3.205836057662964
1780527084412010200,13.39001025390625,-0.6655880808830261,-17.578227996826172,4.084507942199707
1780527084422111500,13.400111572265626,1.2018892765045166,-21.526268005371094,4.627991676330566
1780527084432213000,13.410212890625,5.995080947875977,-20.381839752197266,8.372523307800293
1780527084442253300,13.42025341796875,6.337451934814453,-16.16325569152832,13.941436767578125
1780527084452354600,13.4303544921875,2.492363929748535,-11.868058204650879,14.233529090881348
1780527084462425300,13.44042529296875,-0.016759412363171577,-8.31985092163086,9.437943458557129
1780527084472557000,13.45055712890625,0.933738648891449,-6.607996463775635,4.28322696685791
1780527084482597400,13.460597412109376,1.4532804489135742,-7.745242595672607,1.900996208190918
1780527084492698600,13.47069873046875,0.6919242739677429,-10.33098030090332,2.360682964324951
1780527084522941700,13.500941650390626,2.8586769104003906,-14.551958084106445,2.8850131034851074
1780527084553215200,13.53121533203125,-0.24420857429504395,-9.002198219299316,-0.1149216815829277
1780527084563286000,13.5412861328125,0.3902548849582672,-8.884882926940918,1.2401964664459229
1780527084573387300,13.55138720703125,2.650381326675415,-9.205705642700195,2.693476915359497
1780527084633964500,13.611964599609376,1.7286136150360107,-8.908824920654297,3.6176388263702393
1780527084664299000,13.642299072265626,1.1683704853057861,-9.14585018157959,-1.4844050407409668
1780527084674400500,13.652400390625,1.3886369466781616,-8.422801971435547,-1.821987509727478
1780527084684501800,13.662501708984376,2.032677173614502,-8.367734909057617,0.07661445438861847
1780527084694603000,13.67260302734375,4.98472785949707,-8.492233276367188,2.4420857429504395
1780527084704704300,13.682704345703126,5.896918773651123,-8.135497093200684,3.955221176147461
1780527084714836200,13.692836181640626,2.410961151123047,-8.678980827331543,3.450044631958008
1780527084724968000,13.702968017578126,-2.9903578758239746,-10.462661743164062,1.4460978507995605
1780527084735069400,13.7130693359375,-2.537853717803955,-10.651803016662598,-0.8236053586006165
1780527084745140200,13.72314013671875,0.06224924325942993,-9.524134635925293,-1.6855180263519287
1780527084755272000,13.73327197265625,3.737348794937134,-8.667010307312012,-0.42616790533065796
1780527084765373200,13.743373291015626,5.784391403198242,-8.59997272491455,1.7166426181793213
1780527084775474700,13.753474609375,6.845022678375244,-8.482656478881836,2.6455929279327393
1780527084785576000,13.763575927734376,4.709394931793213,-8.312667846679688,2.6815059185028076
1780527084795677200,13.77367724609375,-0.38067805767059326,-9.318233489990234,2.47560453414917
1780527084805809200,13.78380908203125,-3.1268274784088135,-9.976638793945312,1.482010841369629
1780527084815910400,13.793910400390626,2.2601263523101807,-7.9176249504089355,0.3447650372982025
1780527084826042400,13.80404248046875,6.030993938446045,-7.687781810760498,1.115697979927063
1780527084866508500,13.844508544921876,-0.7038952708244324,-10.474632263183594,4.082113742828369
1780527084876609800,13.85460986328125,-1.3263877630233765,-10.630255699157715,5.219359874725342
1780527084886711300,13.864711181640626,-0.0071826050989329815,-10.02452278137207,4.790797710418701
1780527084896843000,13.874843017578126,1.9704279899597168,-8.858546257019043,2.006340980529785
1780527084906944300,13.8849443359375,2.736572504043579,-8.1139497756958,-0.7637503147125244
1780527084917045800,13.895045654296876,2.7006595134735107,-7.857769966125488,-1.434126853942871
1780527084967613200,13.94561328125,0.31124621629714966,-11.046846389770508,4.101267337799072
1780527084977714700,13.955714599609376,1.1994950771331787,-10.046070098876953,1.5969325304031372
1780527084987816000,13.96581591796875,3.507505416870117,-8.446743965148926,-0.4213795065879822
1780527084997947600,13.97594775390625,4.2090067863464355,-8.090007781982422,-1.4317326545715332
1780527085008049200,13.986049072265626,4.268861770629883,-8.7484130859375,-0.9385270476341248
1780527085018180900,13.996180908203126,4.089296340942383,-9.469067573547363,0.9409212470054626
1780527085028282400,14.006282470703125,2.4157495498657227,-9.545681953430176,2.9927520751953125
1780527085038383600,14.016383544921876,-0.586579442024231,-9.337387084960938,3.6128504276275635
1780527085048515300,14.026515380859376,-1.335964560508728,-9.260771751403809,2.63362193107605
1780527085058616800,14.036616943359375,-0.3663128614425659,-8.757989883422852,1.0007762908935547
1780527085068718000,14.046718017578126,2.6216509342193604,-8.042123794555664,-0.17956513166427612
1780527085078819300,14.0568193359375,4.292803764343262,-8.192957878112793,-1.0295066833496094
1780527085088920600,14.066920654296876,3.7253777980804443,-9.131484985351562,-0.9193734526634216
1780527085099052500,14.077052490234376,2.7293899059295654,-10.074800491333008,0.3902548849582672
1780527085109153800,14.08715380859375,1.6112977266311646,-10.520122528076172,2.1332337856292725
1780527085119285800,14.09728564453125,0.3926490843296051,-10.486603736877441,2.9903578758239746
1780527085129417500,14.10741748046875,0.1843535304069519,-10.35252857208252,2.784456491470337
1780527085139549400,14.117549560546875,2.0805611610412598,-9.5624418258667,1.5131354331970215
1780527085149650700,14.127650634765626,3.093308687210083,-8.08043098449707,0.13168109953403473
1780527085159752000,14.137751953125,3.7421371936798096,-7.50582218170166,-0.2968810200691223
1780527085200187600,14.178187744140626,0.950498104095459,-10.515334129333496,0.5650315880775452
1780527085291099600,14.269099609375,0.8690952062606812,-9.543288230895996,2.0590133666992188
1780527085341606100,14.319606201171876,3.0813376903533936,-9.904812812805176,1.0342950820922852
1780527085361747700,14.339747802734376,1.8052281141281128,-8.47786808013916,2.652775526046753
1780527085371818500,14.349818603515626,1.7501614093780518,-8.470685958862305,1.3623007535934448
1780527085381920000,14.359919921875,1.98958158493042,-8.42040729522705,-0.12210428714752197
1780527085391990800,14.36999072265625,2.207453966140747,-8.937555313110352,-0.8978256583213806
1780527085402031000,14.380031005859376,3.0334534645080566,-9.167398452758789,-1.0821791887283325
1780527085412132400,14.39013232421875,3.1723172664642334,-9.615114212036133,-0.5602431893348694
1780527085442314200,14.420314208984376,2.604891538619995,-9.536105155944824,0.23942017555236816
1780527085492729300,14.470729248046876,2.2649147510528564,-9.17936897277832,-0.31124621629714966
1780527085502800100,14.480800048828126,2.434903144836426,-9.074024200439453,-0.26096799969673157
1780527085512871000,14.490870849609376,2.846705913543701,-8.913613319396973,-0.1867477297782898
1780527085522911200,14.5009111328125,2.9472622871398926,-8.96149730682373,0
1780527085532982000,14.51098193359375,2.518700122833252,-9.004592895507812,0.21547815203666687
1780527085543052800,14.521052734375,2.5474305152893066,-9.394847869873047,0.19393034279346466
1780527085563164000,14.541163818359376,2.360682964324951,-10.14902114868164,0.16759411990642548
1780527085573265200,14.55126513671875,2.456450939178467,-10.180145263671875,0
1780527085583366400,14.561366455078126,2.497152328491211,-9.560047149658203,-0.10773907601833344
1780527085593437200,14.571437255859376,2.5977089405059814,-9.368511199951172,-0.45250412821769714
1780527085603508000,14.581508056640626,2.6647465229034424,-9.227252960205078,-0.8044517636299133
1780527085613609500,14.591609375,2.6815059185028076,-9.557653427124023,-0.8667010068893433
1780527085623710700,14.601710693359376,2.451662540435791,-9.198522567749023,-0.42616790533065796
1780527085633781500,14.611781494140626,2.473210334777832,-9.21288776397705,-0.2082955539226532
1780527085643852300,14.621852294921876,2.4181437492370605,-9.198522567749023,-0.6440402865409851
1780527085653923000,14.631923095703126,2.559401512145996,-8.975862503051758,-1.0630255937576294
1780527085694267400,14.672267333984376,3.2106244564056396,-9.883264541625977,-0.7206547260284424
1780527085724479700,14.702479736328126,2.9927520751953125,-9.883264541625977,-0.8930372595787048
1780527085734581000,14.7125810546875,2.7700912952423096,-9.648633003234863,-1.2330138683319092
1780527085744651800,14.72265185546875,2.87064790725708,-9.29189682006836,-1.5275006294250488
1780527085754722600,14.73272265625,2.4827871322631836,-9.08838939666748,-1.7477672100067139
1780527085764793600,14.742793701171875,2.4803929328918457,-9.184157371520996,-2.0925323963165283
1780527085774894800,14.752894775390626,2.942473888397217,-9.653421401977539,-2.2242133617401123
1780527085784996000,14.76299609375,3.28963303565979,-9.775525093078613,-1.9584569931030273
1780527085795067000,14.77306689453125,3.485957622528076,-9.660603523254395,-1.5394717454910278
1780527085805168000,14.783168212890626,3.466804027557373,-9.349357604980469,-1.335964560508728
1780527085815269600,14.79326953125,3.469198226928711,-9.129091262817383,-1.4221558570861816
1780527085825340400,14.80334033203125,3.248931646347046,-9.153033256530762,-1.742978811264038
1780527085835441700,14.813441650390626,3.177105665206909,-9.17936897277832,-2.0446481704711914
1780527085845543000,14.82354296875,3.203441858291626,-9.284713745117188,-2.248155355453491
1780527085875816400,14.85381640625,3.466804027557373,-9.263166427612305,-2.1308395862579346
1780527085885917700,14.863917724609376,3.3494882583618164,-9.588777542114258,-2.4899697303771973
1780527085895988500,14.873988525390626,3.5458126068115234,-9.828198432922363,-2.4013843536376953
1780527085906059300,14.884059326171876,3.383007049560547,-10.007762908935547,-1.9943699836730957
1780527085916130000,14.894130126953126,3.531447410583496,-9.852140426635742,-1.4915876388549805
1780527085926231600,14.9042314453125,3.0789434909820557,-9.622296333312988,-1.6065093278884888
1780527085936302300,14.91430224609375,3.0119056701660156,-9.502586364746094,-2.2864625453948975
1780527085946373000,14.924373046875,3.071760892868042,-9.239224433898926,-2.9688100814819336
1780527085956444000,14.93444384765625,3.3303346633911133,-9.29189682006836,-3.4332852363586426
1780527085976585500,14.95458544921875,3.890577793121338,-9.279925346374512,-3.313575267791748
1780527085986656300,14.96465625,4.2760443687438965,-9.133879661560059,-2.58813214302063
1780527085996727000,14.97472705078125,4.0078935623168945,-8.75080680847168,-2.1380221843719482
1780527086006767400,14.984767333984376,3.1651346683502197,-8.9064302444458,-1.9776105880737305
1780527086016838100,14.994838134765626,2.911349296569824,-9.308655738830566,-2.3343467712402344
1780527086026909000,15.004908935546876,2.741360902786255,-9.437943458557129,-2.8850131034851074
1780527086037010200,15.01501025390625,3.114856481552124,-9.677363395690918,-3.464409828186035
1780527086057152000,15.035152099609375,4.07014274597168,-9.569623947143555,-3.004723072052002
1780527086067222800,15.045222900390625,3.7253777980804443,-9.481039047241211,-2.425326347351074
1780527086137810000,15.115809814453126,3.251325845718384,-8.968679428100586,-2.456450939178467
1780527086168052700,15.146052734375,3.0382418632507324,-9.188945770263672,-2.279279947280884
1780527086178154000,15.156154052734376,2.9065608978271484,-8.939949035644531,-2.652775526046753
1780527086188224800,15.166224853515626,3.002328872680664,-8.927978515625,-2.8850131034851074
1780527086198295600,15.176295654296876,2.7964274883270264,-8.959102630615234,-2.676717519760132
1780527086208397000,15.18639697265625,3.0526070594787598,-8.918401718139648,-2.094926595687866
1780527086218498300,15.196498291015626,3.3877954483032227,-9.083600997924805,-1.5394717454910278
1780527086228599600,15.206599609375,3.375824451446533,-8.757989883422852,-1.3455413579940796
1780527086238670300,15.21667041015625,3.093308687210083,-8.643068313598633,-1.53707754611969
1780527086248771800,15.226771728515626,3.134010076522827,-8.44434928894043,-1.8076223134994507
1780527086258873000,15.236873046875,2.9759926795959473,-8.233659744262695,-2.1116859912872314
1780527086268913400,15.246913330078126,3.4739866256713867,-8.26239013671875,-2.188300371170044
1780527086278984200,15.256984130859376,3.512293815612793,-8.123526573181152,-1.9584569931030273
1780527086289055000,15.267054931640626,3.3016040325164795,-7.99184513092041,-1.3455413579940796
1780527086299125800,15.277125732421876,2.8203697204589844,-8.08282470703125,-0.6392518281936646
1780527086309227000,15.28722705078125,2.762908697128296,-8.192957878112793,-0.22026655077934265
1780527086359642000,15.33764208984375,2.829946517944336,-8.125920295715332,-0.2059013396501541
1780527086369743400,15.347743408203126,2.8203697204589844,-7.8098859786987305,0.0694318488240242
1780527086389885000,15.367885009765626,2.892195701599121,-8.08282470703125,0.31124621629714966
1780527086399986400,15.377986328125,2.63362193107605,-8.305485725402832,0.5051765441894531
1780527086410087700,15.388087646484376,2.7724854946136475,-8.702922821044922,0.4381389021873474
1780527086420158500,15.398158447265626,2.959233283996582,-8.892065048217773,0.7134721279144287
1780527086430229200,15.408229248046876,3.1196448802948,-8.678980827331543,1.1635819673538208
1780527086480644400,15.458644287109376,2.564189910888672,-8.221688270568848,0.7805097699165344
1780527086490745600,15.46874560546875,3.0861260890960693,-8.638279914855957,1.0965443849563599
1780527086510917600,15.488917724609376,2.875436305999756,-8.559270858764648,2.964021682739258
1780527086520927500,15.498927490234376,2.5019407272338867,-8.482656478881836,3.3303346633911133
1780527086531028700,15.50902880859375,2.2385785579681396,-8.29590892791748,2.7054479122161865
1780527086541099500,15.519099609375,2.5067291259765625,-8.090007781982422,1.886630892753601
1780527086551170300,15.52917041015625,2.22660756111145,-7.922413349151611,1.5107412338256836
1780527086561241300,15.539241455078125,2.4205379486083984,-7.86734676361084,1.8076223134994507
1780527086571342600,15.549342529296876,2.0374655723571777,-8.456320762634277,3.0310592651367188
1780527086581413400,15.559413330078126,2.473210334777832,-8.827422142028809,4.402936935424805
1780527086591514600,15.5695146484375,2.3032219409942627,-8.947132110595703,4.685452938079834
1780527086611656200,15.58965625,2.7916390895843506,-7.73087739944458,2.7916390895843506
1780527086621727000,15.59972705078125,1.8962076902389526,-7.513004779815674,2.7222073078155518
1780527086631828500,15.609828369140626,2.2409727573394775,-7.630321025848389,3.313575267791748
1780527086641868500,15.61986865234375,2.6360161304473877,-8.26478385925293,4.1395745277404785
1780527086651939600,15.629939697265625,2.7485435009002686,-9.107542991638184,4.0749311447143555
1780527086662010400,15.64001025390625,3.0550012588500977,-9.301473617553711,3.6511576175689697
1780527086672081200,15.6500810546875,2.964021682739258,-8.966285705566406,3.5218706130981445
1780527086682090800,15.6600908203125,2.2457611560821533,-8.149862289428711,4.0294413566589355
1780527086692192300,15.670192138671876,1.1994950771331787,-8.209717750549316,4.778826713562012
1780527086702263000,15.680262939453126,1.479616641998291,-8.401253700256348,5.130774021148682
1780527086722374100,15.7003740234375,2.0925323963165283,-8.803479194641113,4.314351558685303
1780527086762718200,15.74071826171875,1.5729905366897583,-11.219228744506836,4.683058738708496
1780527086772850200,15.75085009765625,1.6041151285171509,-11.08754825592041,4.3406877517700195
1780527086782951400,15.760951416015626,1.113303780555725,-10.781089782714844,4.292803764343262
1780527086813194200,15.7911943359375,1.2306196689605713,-9.919178009033203,5.614402770996094
1780527086853508000,15.831508056640626,1.1755530834197998,-12.837709426879883,5.214571475982666
1780527086863609300,15.841609375,1.0749965906143188,-13.326127052307129,5.080495834350586
1780527086873710600,15.851710693359376,0.8403648138046265,-12.459425926208496,5.07570743560791
1780527086883781600,15.86178173828125,1.2473790645599365,-10.101137161254883,5.327098846435547
1780527086893852400,15.871852294921876,0.8451532125473022,-9.131484985351562,5.468356609344482
1780527086903953700,15.88195361328125,0.8858546018600464,-10.160991668701172,5.372588634490967
1780527086914055000,15.892054931640626,0.3687070608139038,-12.222399711608887,5.781997203826904
1780527086934196500,15.912196533203126,-1.4317326545715332,-14.396334648132324,6.071695327758789
1780527086944267300,15.922267333984376,-0.7709329724311829,-12.401965141296387,5.442020416259766
1780527086954368800,15.93236865234375,-1.0055646896362305,-11.41555404663086,5.604825973510742
1780527086964470000,15.942469970703126,-0.5195417404174805,-11.288661003112793,5.135562419891357
1780527086974632400,15.952632568359375,-0.9050082564353943,-11.674127578735352,4.352658748626709
1780527086984703200,15.962703125,-2.5258827209472656,-11.91354751586914,4.639962673187256
1780527086994835000,15.9728349609375,-2.75812029838562,-11.238382339477539,4.4723687171936035
1780527087004905700,15.98290576171875,-2.6408045291900635,-11.080365180969238,3.751713991165161
1780527087015007000,15.993007080078126,-1.6352397203445435,-12.030863761901855,3.44765043258667
1780527087035240200,16.013240234375,0.8619126081466675,-14.06114673614502,5.1331682205200195
1780527087045341700,16.023341796875,-0.3926490843296051,-13.510479927062988,5.722142219543457
1780527087055443000,16.03344287109375,-2.5234885215759277,-11.889605522155762,5.623979568481445
1780527087065574700,16.04357470703125,-4.060565948486328,-10.108319282531738,5.343858242034912
1780527087075706600,16.05370654296875,-3.138798475265503,-8.851364135742188,4.668693542480469
1780527087085777400,16.06377734375,-1.7357962131500244,-10.424354553222656,3.1962592601776123
1780527087126182700,16.1041826171875,0.6607996821403503,-12.883199691772461,5.48272180557251
1780527087136284000,16.114283935546876,-1.1755530834197998,-10.472238540649414,5.549759387969971
1780527087146385200,16.12438525390625,-2.535459518432617,-8.688557624816895,4.759673118591309
1780527087156486700,16.134486572265626,-3.4524388313293457,-9.057265281677246,3.6583402156829834
1780527087166588000,16.144587890625,-2.892195701599121,-10.994174003601074,3.1196448802948
1780527087206993200,16.1849931640625,4.02465295791626,-10.800244331359863,4.280832767486572
1780527087247398400,16.2253984375,0.2106897532939911,-6.9910688400268555,1.577778935432434
1780527087287834400,16.26583447265625,2.5737667083740234,-9.50737476348877,3.1699230670928955
1780527087297905200,16.2759052734375,1.3958195447921753,-9.435548782348633,1.7956513166427612
1780527087308006400,16.28600634765625,-0.6344634294509888,-8.844181060791016,0.6129156351089478
1780527087318077200,16.2960771484375,-1.4628572463989258,-8.892065048217773,-0.40940847992897034
1780527087348472600,16.32647265625,2.8826189041137695,-7.354987621307373,-0.40940847992897034
1780527087358574000,16.336573974609376,1.5682021379470825,-8.633491516113281,1.0199298858642578
1780527087378807000,16.35680712890625,0.40462008118629456,-10.070012092590332,2.9305028915405273
1780527087388908500,16.366908447265626,0.9768342971801758,-9.794678688049316,1.192312479019165
1780527087399009800,16.377009765625,2.3702597618103027,-8.528146743774414,-1.3551181554794312
1780527087409111000,16.387111083984376,3.9001545906066895,-7.623138427734375,-2.2697031497955322
1780527087419212500,16.397212646484373,2.6599581241607666,-8.001421928405762,-0.6392518281936646
1780527087429313800,16.407313720703126,0.5506663918495178,-9.078812599182129,1.8602946996688843
1780527087439445500,16.417445556640626,0.11971008777618408,-9.794678688049316,3.270479440689087
1780527087459648300,16.437648193359376,3.550601005554199,-9.495404243469238,1.5897499322891235
1780527087469749500,16.44774951171875,5.085284233093262,-8.695740699768066,-0.6057330369949341
1780527087479850800,16.457850830078126,3.44765043258667,-7.637503623962402,-1.558625340461731
1780527087489952300,16.4679521484375,0.7924807667732239,-8.04930591583252,-1.5394717454910278
1780527087500053500,16.478053466796876,-1.036689281463623,-9.643844604492188,-1.0989385843276978
1780527087510185200,16.488185302734376,0.4189853072166443,-9.57201862335205,-0.23702596127986908
1780527087520256000,16.498256103515626,2.9544448852539062,-10.84094524383545,1.8076223134994507
1780527087530357500,16.508357421875,5.5545477867126465,-10.632649421691895,3.550601005554199
1780527087540489200,16.5184892578125,5.91128396987915,-9.464279174804688,3.378218650817871
1780527087611259600,16.589259765625,5.360617637634277,-10.38604736328125,1.039083480834961
1780527087621361000,16.59936083984375,4.247313976287842,-10.14902114868164,2.4181437492370605
1780527087681938200,16.659938232421876,4.558559894561768,-10.02691650390625,0.4165911078453064
1780527087692039700,16.670039794921873,5.066130638122559,-9.895236015319824,0.2777273952960968
1780527087702141000,16.680140869140626,4.182670593261719,-9.294290542602539,0.4908113479614258
1780527087712272600,16.690272705078126,3.220201253890991,-9.129091262817383,1.1300631761550903
1780527087722374100,16.7003740234375,2.604891538619995,-8.724471092224121,1.6065093278884888
1780527087732475400,16.710475341796876,0.9409212470054626,-8.054094314575195,1.4413094520568848
1780527087742576600,16.72057666015625,0.0071826050989329815,-8.118738174438477,0.6153098344802856
1780527087752708600,16.73070849609375,0.5961562395095825,-8.216899871826172,-0.18914192914962769
1780527087772941600,16.750941650390626,3.797203779220581,-9.500192642211914,0.3447650372982025
1780527087783073500,16.761073486328126,4.292803764343262,-10.625467300415039,1.4173674583435059
1780527087793174800,16.7711748046875,3.5051112174987793,-10.946290016174316,2.1499931812286377
1780527087803276000,16.781276123046876,2.652775526046753,-10.251971244812012,2.4660277366638184
1780527087813377500,16.79137744140625,1.1563993692398071,-9.320627212524414,2.118868589401245
1780527087823478800,16.801478759765626,-0.4668693244457245,-8.537723541259766,1.137245774269104
1780527087833610500,16.811610595703126,0.47644615173339844,-8.406042098999023,-0.47165772318840027
1780527087843712000,16.8217119140625,2.2218191623687744,-8.269572257995605,-1.7693150043487549
1780527087853782800,16.83178271484375,3.641580820083618,-8.473079681396484,-1.7693150043487549
1780527087863884000,16.841884033203126,4.122815132141113,-8.81784439086914,-0.6009446382522583
1780527087873985300,16.8519853515625,3.73016619682312,-9.514557838439941,0.811634361743927
1780527087884086800,16.862086669921876,2.9688100814819336,-10.465055465698242,1.7525556087493896
1780527087894157600,16.872157470703126,2.7485435009002686,-10.517727851867676,2.2433669567108154
1780527087904228400,16.882228271484376,0.8786720037460327,-11.374852180480957,2.7485435009002686
1780527087914299100,16.892299072265626,0.6248866319656372,-10.548852920532227,2.1739351749420166
1780527087924370000,16.902369873046876,0.8595184087753296,-9.651026725769043,0.7829039692878723
1780527087934471200,16.91247119140625,1.45806884765625,-8.968679428100586,-0.40701428055763245
1780527088015098600,16.9930986328125,1.9991583824157715,-10.070012092590332,-0.019153613597154617
1780527088025169400,17.00316943359375,1.8315643072128296,-10.019734382629395,-0.2992752194404602
1780527088035240200,17.013240234375,2.250549554824829,-9.569623947143555,-0.19871874153614044
1780527088045311000,17.02331103515625,2.2457611560821533,-8.93037223815918,-0.0071826050989329815
1780527088055381800,17.0333818359375,2.188300371170044,-8.827422142028809,0.48602294921875
1780527088065483300,17.043483154296876,2.5019407272338867,-8.968679428100586,0.8882488012313843
1780527088075584500,17.05358447265625,2.8179752826690674,-9.330204010009766,1.259350061416626
1780527088085624800,17.063624755859376,2.3104045391082764,-9.299078941345215,1.2521674633026123
1780527088105796900,17.083796875,2.164358377456665,-9.62947940826416,0.090979665517807
1780527088115867600,17.09386767578125,2.7700912952423096,-9.727641105651855,-0.05746084079146385
1780527088125938400,17.1039384765625,3.0095114707946777,-9.813833236694336,0.4668693244457245
1780527088136009200,17.11400927734375,2.4827871322631836,-9.641449928283691,0.7661445140838623
1780527088146080000,17.124080078125,2.0446481704711914,-9.387664794921875,0.790086567401886
1780527088156181500,17.134181396484376,1.5849615335464478,-9.191340446472168,0.6584054827690125
1780527088176353500,17.154353515625,1.944091796875,-10.079588890075684,-0.29209262132644653
1780527088186424300,17.16442431640625,2.5977089405059814,-10.199298858642578,-0.8571242094039917
1780527088216697900,17.19469775390625,2.403778553009033,-8.942343711853027,-0.22744916379451752
1780527088226768600,17.2047685546875,2.2673089504241943,-8.607154846191406,0
1780527088236870000,17.214869873046876,2.518700122833252,-8.832210540771484,-0.07182604819536209
1780527088246940700,17.224940673828126,2.7724854946136475,-9.10993766784668,-0.07661445438861847
1780527088257011500,17.235011474609376,2.58813214302063,-9.301473617553711,-0.17956513166427612
1780527088267082200,17.245082275390626,2.4181437492370605,-9.363722801208496,-0.26575639843940735
1780527088277153000,17.255153076171876,2.2409727573394775,-9.445125579833984,-0.2825157940387726
1780527088287254500,17.265254638671873,2.408566951751709,-9.497797966003418,-0.3208230137825012
1780527088297355800,17.275355712890626,2.6001031398773193,-9.59596061706543,-0.5482721924781799
1780527088337700000,17.3157001953125,2.829946517944336,-9.720458984375,-0.3758896589279175
1780527088398124800,17.376124755859376,2.537853717803955,-9.375694274902344,-0.524330198764801
1780527088418266400,17.396266357421876,3.0597896575927734,-9.32541561126709,-0.7733271718025208
1780527088458610700,17.436610595703126,2.9041666984558105,-9.545681953430176,-0.507570743560791
1780527088468712000,17.4467119140625,2.8419175148010254,-9.48343276977539,-0.5602431893348694
1780527088478782700,17.45678271484375,2.9161376953125,-9.495404243469238,-0.768538773059845
1780527088488884000,17.466884033203126,3.0885202884674072,-9.478644371032715,-0.9026140570640564
1780527088498954800,17.476954833984376,3.0526070594787598,-9.813833236694336,-1.194706678390503
1780527088509056300,17.48705615234375,2.853888511657715,-9.773131370544434,-1.3742717504501343
1780527088519127000,17.497126953125,2.7222073078155518,-9.531316757202148,-1.091755986213684
1780527088539268600,17.5172685546875,2.7461493015289307,-9.334992408752441,-1.0773907899856567
1780527088549339400,17.52733935546875,3.4165258407592773,-9.437943458557129,-1.2401964664459229
1780527088599723800,17.577723876953126,3.5936968326568604,-9.720458984375,-1.7980455160140991
1780527088609794800,17.587794921875,3.687070608139038,-9.727641105651855,-1.2856862545013428
1780527088629966800,17.607966796875,3.335123062133789,-9.50498104095459,-1.0630255937576294
1780527088660179200,17.63817919921875,3.1938650608062744,-9.751583099365234,-1.702277421951294
1780527088710533000,17.688533203125,3.2968156337738037,-9.727641105651855,-1.8579005002975464
1780527088801262000,17.779261962890626,2.964021682739258,-9.75397777557373,-2.2649147510528564
1780527088811363300,17.78936328125,2.851494312286377,-9.519346237182617,-2.7006595134735107
1780527088821434000,17.79943408203125,2.8395233154296875,-8.987833023071289,-2.9664158821105957
1780527088831505000,17.8095048828125,3.3255462646484375,-8.736441612243652,-2.9041666984558105
1780527088841606100,17.819606201171876,3.799597978591919,-8.791508674621582,-2.5665841102600098
1780527088851677000,17.829677001953126,3.691859006881714,-9.23682975769043,-2.298433542251587
1780527088881950500,17.859950439453126,3.442862033843994,-9.998186111450195,-3.294421434402466
1780527088922264000,17.90026416015625,3.3686418533325195,-8.971074104309082,-2.647987127304077
1780527088932396000,17.91039599609375,3.818751811981201,-9.368511199951172,-2.1116859912872314
1780527088972770800,17.950770751953126,2.918531894683838,-9.196128845214844,-2.343923568725586
1780527088982872000,17.9608720703125,2.6144683361053467,-8.698134422302246,-2.126051187515259
1780527088992973300,17.970973388671876,2.829946517944336,-8.367734909057617,-2.099714994430542
1780527089003044000,17.981044189453126,3.043030261993408,-8.573636054992676,-2.094926595687866
1780527089023246800,18.001246826171876,3.1699230670928955,-9.004592895507812,-1.7956513166427612
1780527089033348000,18.01134814453125,2.956839084625244,-8.987833023071289,-1.194706678390503
1780527089043449600,18.02144970703125,2.849100112915039,-8.880094528198242,-0.8475474119186401
1780527089053520400,18.031520263671876,2.7317841053009033,-8.83939266204834,-0.6200982332229614
1780527089063591200,18.041591064453126,2.6791117191314697,-8.683769226074219,-0.5195417404174805
1780527089073692400,18.0516923828125,2.6144683361053467,-8.588001251220703,-0.569819986820221
1780527089103935200,18.081935302734376,3.136404275894165,-8.592789649963379,-1.436521053314209
1780527089114006000,18.092006103515626,3.162740468978882,-8.588001251220703,-0.9983820915222168
1780527089124076800,18.102076904296876,3.315969467163086,-8.65743350982666,-0.9169792532920837
1780527089134178300,18.11217822265625,3.28963303565979,-8.815450668334961,-1.2066776752471924
1780527089154320000,18.13231982421875,3.162740468978882,-8.51138687133789,-0.569819986820221
1780527089164390700,18.142390625,3.0166940689086914,-8.355764389038086,0.07900865375995636
1780527089174461400,18.15246142578125,2.6360161304473877,-8.367734909057617,0.3519476354122162
1780527089184532200,18.1625322265625,2.6168625354766846,-8.59997272491455,0.040701430290937424
1780527089194633500,18.172633544921876,2.765302896499634,-8.236053466796875,-0.26096799969673157
1780527089204704300,18.182704345703126,2.4372973442077637,-8.22887134552002,-0.31124621629714966
1780527089214775000,18.192775146484376,2.403778553009033,-8.336610794067383,-0.0933738648891449
1780527089224846000,18.20284619140625,2.8347349166870117,-8.346187591552734,-0.2082955539226532
1780527089234947300,18.212947265625,3.1435868740081787,-8.125920295715332,-0.2298433631658554
1780527089245018000,18.22301806640625,2.9664158821105957,-8.032546997070312,0.05985504388809204
1780527089255119400,18.233119384765626,2.9975404739379883,-8.35097599029541,0.33758243918418884
1780527089265190100,18.243190185546876,3.134010076522827,-8.40843677520752,0.33997663855552673
1780527089275291600,18.253291748046873,2.698265314102173,-8.554482460021973,0.45489832758903503
1780527089285423400,18.26342333984375,2.408566951751709,-8.89685344696045,0.8140285611152649
1780527089305595400,18.283595458984376,2.4396915435791016,-8.731653213500977,0.33997663855552673
1780527089315666200,18.293666259765626,2.5330653190612793,-7.953537940979004,0.19153612852096558
1780527089325767700,18.303767578125,2.801215887069702,-7.757213592529297,0.8810662031173706
1780527089335869000,18.313868896484376,2.9305028915405273,-7.692570209503174,1.8986018896102905
1780527089345939700,18.323939697265626,2.3247697353363037,-7.905653953552246,2.494758129119873
1780527089356041000,18.334041015625,2.0638017654418945,-8.485051155090332,2.3774423599243164
1780527089366111700,18.34411181640625,2.33913516998291,-8.650250434875488,2.0829553604125977
1780527089376213200,18.354213134765626,2.6886885166168213,-8.547300338745117,1.9776105880737305
1780527089386314500,18.364314453125,2.786850690841675,-8.880094528198242,2.0614075660705566
1780527089396385300,18.37438525390625,3.0597896575927734,-8.192957878112793,2.121262788772583
1780527089406456000,18.3844560546875,2.5522189140319824,-7.99184513092041,2.5665841102600098
1780527089416526800,18.39452685546875,2.607285737991333,-8.35097599029541,3.4308910369873047
1780527089426628000,18.404628173828126,2.920926094055176,-8.480262756347656,4.163516521453857
1780527089436699000,18.414698974609376,2.6599581241607666,-8.880094528198242,4.668693542480469
1780527089456901600,18.434901611328126,2.22660756111145,-8.360552787780762,3.339911460876465
1780527089466972400,18.444972412109376,2.0254945755004883,-7.735665798187256,2.054224967956543
1780527089477043200,18.455043212890626,1.1971008777618408,-8.042123794555664,1.3072341680526733
1780527089497246000,18.475245849609376,2.250549554824829,-7.793126583099365,2.7126305103302
1780527089507347200,18.48534716796875,2.6839001178741455,-7.481880187988281,4.326322555541992
1780527089517418000,18.49541796875,2.8155810832977295,-7.738059997558594,5.173870086669922
1780527089527519200,18.505519287109376,2.7102363109588623,-8.360552787780762,4.627991676330566
1780527089537590000,18.515590087890626,2.7940332889556885,-8.96389102935791,3.205836057662964
1780527089557792800,18.535792724609376,2.2218191623687744,-8.889671325683594,2.33913516998291
1780527089608116200,18.5861162109375,1.965639591217041,-8.681375503540039,5.099649429321289
1780527089618248200,18.596248291015623,2.293645143508911,-8.588001251220703,4.908113479614258
1780527089628349400,18.606349365234376,1.920149803161621,-9.05487060546875,4.941632270812988
1780527089638420200,18.616420166015626,1.3335703611373901,-9.761159896850586,5.34625244140625
1780527089648521500,18.626521484375,0.8020575642585754,-10.556035041809082,5.427655220031738
1780527089658592300,18.63659228515625,-0.1867477297782898,-11.60708999633789,5.657498836517334
1780527089668693500,18.646693603515626,0.49320554733276367,-11.839327812194824,5.446808815002441
1780527089678795000,18.656794921875,1.3479355573654175,-10.63743782043457,4.9583916664123535
1780527089688865800,18.66686572265625,1.5107412338256836,-9.931148529052734,4.4939165115356445
1780527089698967000,18.676967041015626,2.5282769203186035,-10.204087257385254,4.496310710906982
1780527089709037800,18.687037841796876,2.0685901641845703,-10.216058731079102,4.5394062995910645
1780527089719108600,18.697108642578126,1.0055646896362305,-11.4849853515625,4.867412090301514
1780527089729209900,18.7072099609375,1.45806884765625,-11.736376762390137,5.652710437774658
1780527089739281000,18.717281005859373,1.2641384601593018,-11.276689529418945,6.011840343475342
1780527089749382100,18.727382080078126,0.047884032130241394,-12.035652160644531,5.746084213256836
1780527089759391700,18.737391845703126,0.8403648138046265,-12.476184844970703,5.0685248374938965
1780527089769523700,18.747523681640626,1.4389152526855469,-12.02607536315918,4.431667327880859
1780527089779655400,18.757655517578126,1.5825673341751099,-10.752359390258789,4.546588897705078
1780527089789757000,18.7677568359375,0.871489405632019,-10.089165687561035,4.793191909790039
1780527089799797200,18.77779736328125,0.811634361743927,-11.0300874710083,4.833893299102783
1780527089880607700,18.858607666015626,-2.6240451335906982,-11.887211799621582,3.3470940589904785
1780527089910911700,18.888911865234373,-0.6775590777397156,-12.610260009765625,4.036623954772949
1780527090001884400,18.979884521484376,2.779668092727661,-11.410765647888184,4.977545261383057
1780527090042320400,19.0203203125,1.9752163887023926,-11.463438034057617,3.3925838470458984
1780527090113121000,19.09112109375,-0.4812345504760742,-11.413159370422363,2.212242364883423
1780527090163688700,19.141688720703126,1.5490485429763794,-7.177816867828369,2.0901381969451904
1780527090254783700,19.23278369140625,-0.019153613597154617,-9.967061996459961,-1.0749965906143188
1780527090305351400,19.283351318359376,0.8044517636299133,-9.93354320526123,3.737348794937134
1780527090355949600,19.333949462890626,5.65031623840332,-6.543353080749512,-0.7134721279144287
1780527090366111700,19.34411181640625,3.1268274784088135,-6.909666061401367,0.19393034279346466
1780527090376243700,19.35424365234375,0.26575639843940735,-8.815450668334961,2.123656988143921
1780527090416649000,19.39464892578125,5.195417881011963,-8.406042098999023,0.5291185975074768
1780527090436882200,19.414882080078126,3.1268274784088135,-7.6111674308776855,0.18914192914962769
1780527090457084700,19.435084716796876,1.7190368175506592,-8.528146743774414,3.4548330307006836
1780527090467186200,19.445186279296873,0.9959878921508789,-9.674968719482422,3.909731388092041
1780527090517692700,19.495692626953126,3.3063924312591553,-8.473079681396484,2.537853717803955
1780527090537895200,19.515895263671876,2.027888774871826,-8.59997272491455,1.9800047874450684
1780527090558067500,19.5360673828125,0.3687070608139038,-8.470685958862305,-0.7541735172271729
1780527090578300700,19.55630078125,3.471592426300049,-7.268796443939209,-0.5506663918495178
1780527090588432400,19.566432373046876,4.668693542480469,-7.592013359069824,0.6607996821403503
1780527090598533600,19.57653369140625,4.960785865783691,-8.561665534973145,1.8555063009262085
1780527090628868000,19.6068681640625,2.959233283996582,-11.058817863464355,2.274491548538208
1780527090659111200,19.637111083984376,-0.1843535304069519,-8.643068313598633,0.019153613597154617
1780527090699455200,19.677455322265626,4.797980308532715,-8.585607528686523,-0.45010992884635925
1780527090709587200,19.687587158203126,4.424484729766846,-9.433155059814453,1.8531121015548706
1780527090729728800,19.707728759765626,2.0877439975738525,-10.955866813659668,3.1866824626922607
1780527090739830000,19.717830078125,1.9105730056762695,-11.473014831542969,2.1523873805999756
1780527090770073000,19.748072998046876,2.300827741622925,-10.019734382629395,-0.24660277366638184
1780527090830620000,19.808619873046876,2.3271639347076416,-8.999804496765137,0.6823474764823914
1780527090921287700,19.89928759765625,2.0901381969451904,-9.193734169006348,-0.06224924325942993
1780527090931389000,19.909388916015626,2.3774423599243164,-9.275136947631836,0.08140286058187485
1780527090941429200,19.91942919921875,2.760514497756958,-9.35893440246582,0.3519476354122162
1780527090951530500,19.929530517578126,3.1866824626922607,-9.454702377319336,0.5554547905921936
1780527090961631700,19.9396318359375,3.201047658920288,-9.481039047241211,0.5770025849342346
1780527090971702500,19.94970263671875,3.2345664501190186,-9.248801231384277,0.28730419278144836
1780527090981773600,19.959773681640623,3.2585084438323975,-9.289502143859863,-0.17238251864910126
1780527091012046800,19.990046875,3.023876667022705,-9.667786598205566,-0.5267243981361389
1780527091022117600,20.00011767578125,2.9017724990844727,-9.406818389892578,-0.4908113479614258
1780527091032188400,20.0101884765625,2.5929205417633057,-9.157821655273438,-0.3495534360408783
1780527091042259200,20.02025927734375,2.425326347351074,-9.0859956741333,-0.6248866319656372
1780527091052360700,20.030360595703126,2.5665841102600098,-8.949525833129883,-0.9169792532920837
1780527091062431500,20.040431396484376,2.9759926795959473,-8.973467826843262,-1.1013327836990356
1780527091072532700,20.05053271484375,2.8802247047424316,-8.975862503051758,-0.8882488012313843
1780527091082603500,20.060603515625,2.9688100814819336,-9.045293807983398,-0.5554547905921936
1780527091092704800,20.070704833984376,3.3063924312591553,-9.224859237670898,-0.43335050344467163
1780527091102775600,20.080775634765626,3.3925838470458984,-9.155426979064941,-0.40222588181495667
1780527091112877000,20.090876953125,3.2417490482330322,-9.117119789123535,-0.42377370595932007
1780527091122947800,20.10094775390625,3.112462282180786,-9.536105155944824,-0.49799394607543945
1780527091133018600,20.1110185546875,3.335123062133789,-9.588777542114258,-0.6655880808830261
1780527091143089400,20.12108935546875,3.050212860107422,-9.488221168518066,-0.7158663272857666
1780527091163292000,20.1412919921875,2.8179752826690674,-9.445125579833984,-0.7350199222564697
1780527091173362700,20.15136279296875,3.177105665206909,-9.454702377319336,-0.5841852426528931
1780527091183464200,20.161464111328126,3.536235809326172,-9.500192642211914,-0.45250412821769714
1780527091193535000,20.171534912109376,3.9217023849487305,-9.330204010009766,-0.5219359993934631
1780527091203575300,20.1815751953125,3.6391866207122803,-9.169792175292969,-0.768538773059845
1780527091213646000,20.19164599609375,3.251325845718384,-9.148244857788086,-0.9050082564353943
1780527091223716900,20.201716796875,3.0310592651367188,-9.107542991638184,-0.9672574996948242
1780527091243889000,20.221888916015626,3.2130186557769775,-9.497797966003418,-0.9265560507774353
1780527091253990100,20.231990234375,3.5960910320281982,-9.531316757202148,-0.9528923034667969
1780527091264061000,20.24206103515625,3.5865142345428467,-9.20091724395752,-1.2018892765045166
1780527091274162400,20.252162353515626,3.4189200401306152,-8.87051773071289,-1.580173134803772
1780527091284202800,20.26220263671875,3.184288263320923,-8.686163902282715,-1.802833914756775
1780527091294242800,20.272242919921876,3.227383852005005,-8.98543930053711,-1.867477297782898
1780527091304344300,20.28234423828125,3.603273630142212,-9.35654067993164,-1.8842366933822632
1780527091314415000,20.2924150390625,3.931279182434082,-9.821015357971191,-1.8052281141281128
1780527091324486000,20.30248583984375,4.2975921630859375,-9.914389610290527,-1.338358759880066
1780527091334556700,20.312556640625,4.113238334655762,-9.543288230895996,-0.993593692779541
1780527091344658000,20.322657958984376,4.022258758544922,-9.172186851501465,-1.1348515748977661
1780527091354759200,20.33275927734375,3.8762125968933105,-9.402029991149902,-1.5059528350830078
1780527091364830200,20.342830322265623,3.9217023849487305,-9.560047149658203,-1.742978811264038
1780527091374901000,20.35290087890625,3.6990416049957275,-9.619902610778809,-1.7693150043487549
1780527091384971800,20.3629716796875,3.4596214294433594,-9.564835548400879,-2.0638017654418945
