time,seconds_elapsed,z,y,x
1781034510315418000,6.197418212890625,-0.7119749784469604,0.5442249774932861,-0.110275000333786
1781034510334937300,6.216937255859375,-0.658762514591217,0.4830375015735626,-0.1352999955415725
1781034510354460700,6.236460693359375,-0.5864375233650208,0.3990249931812286,-0.1361249983310699
1781034510373988600,6.255988525390625,-0.4896374940872192,0.2905375063419342,-0.0874499976634979
1781034510393512000,6.275511962890625,-0.3620375096797943,0.1578499972820282,0.0203499998897314
1781034510413033500,6.295033447265625,-0.2110625058412552,0.011824999935925,0.1560624986886978
1781034510432556800,6.314556884765625,-0.0470249988138675,-0.1396999955177307,0.2796750068664551
1781034510452085800,6.334085693359375,0.1357125043869018,-0.3073124885559082,0.3942124843597412
1781034510471612700,6.35361279296875,0.3546124994754791,-0.5154874920845032,0.5446375012397766
1781034510491132200,6.373132080078125,0.6126999855041504,-0.7754999995231628,0.7624375224113464
1781034510510650400,6.392650390625,0.877387523651123,-1.0528374910354614,1.0136499404907229
1781034510530168600,6.41216845703125,1.099174976348877,-1.2764124870300293,1.209862470626831
1781034510549687600,6.4316875,1.2351624965667725,-1.3743125200271606,1.2704999446868896
1781034510569208000,6.4512080078125,1.2665125131607056,-1.330862522125244,1.1951500177383425
1781034510588727300,6.470727294921875,1.205875039100647,-1.2080750465393066,1.0610874891281128
1781034510608244500,6.490244384765625,1.0873500108718872,-1.12681245803833,0.976937472820282
1781034510627764700,6.5097646484375,0.9378874897956848,-1.1687500476837158,0.9761124849319458
1781034510647285000,6.529284912109375,0.757349967956543,-1.273800015449524,0.9629124999046326
1781034510666802700,6.548802734375,0.5476624965667725,-1.278337478637695,0.8234875202178955
1781034510686319000,6.568319091796875,0.3328875005245209,-1.024512529373169,0.5130124688148499
1781034510705838600,6.587838623046875,0.1700875014066696,-0.5066875219345093,0.0891000032424926
1781034510725362000,6.60736181640625,0.1194875016808509,0.1319999992847442,-0.3390749990940094
1781034510744883500,6.626883544921875,0.0782374963164329,0.7017999887466431,-0.6111875176429749
1781034510764407800,6.64640771484375,0.1511124968528747,1.067412495613098,-0.67044997215271
1781034510783932200,6.66593212890625,0.33467498421669,1.222100019454956,-0.5874000191688538
1781034510803453000,6.685452880859375,0.3729000091552734,1.2209999561309814,-0.4419249892234802
1781034510822972200,6.70497216796875,0.2414499968290329,1.1357499361038208,-0.329862505197525
1781034510842492200,6.7244921875,-0.0317624993622303,1.0404624938964844,-0.292600005865097
1781034510862014500,6.744014404296875,-0.406312495470047,1.0480250120162964,-0.3837625086307525
1781034510881537300,6.763537353515625,-0.8823375105857849,1.3078999519348145,-0.7030375003814697
1781034510901059000,6.78305908203125,-0.8823375105857849,1.3078999519348145,-0.7030375003814697
1781034510920580400,6.802580322265625,-1.4378374814987185,1.8271000385284424,-1.2428624629974363
1781034510940103200,6.822103271484375,-2.395937442779541,2.898637533187866,-2.184875011444092
1781034510959630600,6.841630615234375,-2.395937442779541,2.898637533187866,-2.184875011444092
1781034510979161900,6.861161865234375,-2.5184500217437744,3.0904500484466557,-2.1531124114990234
1781034510998692900,6.88069287109375,-2.5184500217437744,3.0904500484466557,-2.1531124114990234
1781034511018218200,6.90021826171875,-2.5184500217437744,3.0904500484466557,-2.1531124114990234
1781034511037741600,6.919741455078125,-1.9146875143051147,2.375725030899048,-1.5710749626159668
1781034511057265400,6.939265380859375,-1.4816999435424805,1.790249943733215,-1.1758999824523926
1781034511076789500,6.95878955078125,-1.09051251411438,1.1910250186920166,-0.7998374700546265
1781034511096313600,6.978313720703125,-0.8046500086784363,0.6852999925613403,-0.5168625116348267
1781034511115838200,6.997838134765625,-0.6114624738693237,0.3304125070571899,-0.3492499887943268
1781034511135363600,7.017363525390625,-0.4547125101089477,0.115225002169609,-0.2670249938964844
1781034511154886100,7.03688623046875,-0.2873750030994415,-0.0074249999597668,-0.2410375028848648
1781034511174409000,7.056408935546875,-0.1000999957323074,-0.0808499976992607,-0.2612499892711639
1781034511193934000,7.07593408203125,0.0991374999284744,-0.1507000029087066,-0.3078624904155731
1781034511213454300,7.095454345703125,0.3019500076770782,-0.2518999874591827,-0.355162501335144
1781034511232969500,7.114969482421875,0.511775016784668,-0.403425008058548,-0.3764750063419342
1781034511252488400,7.134488525390625,0.7369999885559082,-0.6085749864578247,-0.3394874930381775
1781034511272009700,7.154009765625,0.980650007724762,-0.8690000176429749,-0.2171124964952469
1781034511291528700,7.17352880859375,1.2295249700546265,-1.181262493133545,-0.0024749999865889
1781034511311044600,7.193044677734375,1.44760000705719,-1.5168999433517456,0.2895750105381012
1781034511330563000,7.21256298828125,1.6029750108718872,-1.8317749500274656,0.6274124979972839
1781034511350084900,7.2320849609375,1.6674624681472778,-2.054112434387207,0.9432500004768372
1781034511369606700,7.251606689453125,1.6142499446868896,-2.0887625217437744,1.129425048828125
1781034511389129000,7.27112890625,1.444712519645691,-1.8807250261306765,1.1015125513076782
1781034511408649500,7.2906494140625,1.1921249628067017,-1.4605250358581543,0.8692749738693237
1781034511428164900,7.310164794921875,0.9066749811172484,-0.9323874711990356,0.5314375162124634
1781034511447681300,7.329681396484375,0.6304374933242798,-0.4169000089168548,0.208587497472763
1781034511467204000,7.3492041015625,0.3818374872207641,0.0114124994724988,-0.0305249989032745
1781034511486731000,7.36873095703125,0.1568875014781952,0.3407250046730041,-0.1870000064373016
1781034511506255400,7.38825537109375,-0.058712501078844,0.5928999781608582,-0.2943874895572662
1781034511525778400,7.4077783203125,-0.2810499966144562,0.80121248960495,-0.3913249969482422
1781034511545303600,7.427303466796875,-0.5091624855995178,0.9743250012397766,-0.4824874997138977
1781034511564829700,7.44682958984375,-0.7251750230789185,1.098075032234192,-0.5476624965667725
1781034511584352300,7.466352294921875,-0.916575014591217,1.170949935913086,-0.582587480545044
1781034511603875000,7.485875,-1.081025004386902,1.204224944114685,-0.6052749752998352
1781034511623400200,7.505400146484375,-1.219212532043457,1.209725022315979,-0.6363499760627747
1781034511642924800,7.5249248046875,-1.314637541770935,1.1842875480651855,-0.6729249954223633
1781034511662450700,7.54445068359375,-1.3424124717712402,1.1177375316619873,-0.6953374743461609
1781034511681977000,7.56397705078125,-1.2941499948501587,1.0052624940872192,-0.6958875060081482
1781034511701504500,7.58350439453125,-1.180299997329712,0.8405374884605408,-0.6813125014305115
1781034511721036800,7.603036865234375,-1.0297374725341797,0.6186124682426453,-0.6539499759674072
1781034511740564700,7.622564697265625,-0.8706499934196472,0.3473249971866607,-0.6001874804496765
1781034511760086800,7.642086669921875,-0.7196750044822693,0.0530750006437301,-0.5068249702453613
1781034511779609000,7.661609130859375,-0.7196750044822693,0.0530750006437301,-0.5068249702453613
1781034511799133400,7.681133544921875,-0.4845499992370605,-0.490325003862381,-0.3163875043392181
1781034511818659800,7.700659912109375,-0.4845499992370605,-0.490325003862381,-0.3163875043392181
1781034511838185200,7.720185302734375,-0.3557125031948089,-0.8020374774932861,-0.234437495470047
1781034511857710000,7.7397099609375,-0.184249997138977,-1.1730124950408936,-0.1105500012636184
1781034511877239300,7.7592392578125,0.0167750008404254,-1.548799991607666,0.0706750005483627
1781034511896770000,7.77877001953125,0.2092749923467636,-1.854187488555908,0.2795374989509582
1781034511916296000,7.7982958984375,0.367125004529953,-2.073499917984009,0.4966500103473663
1781034511935819000,7.817819091796875,0.4729999899864197,-2.237262487411499,0.7151374816894531
1781034511955340500,7.837340576171875,0.512737512588501,-2.3687124252319336,0.9053000211715698
1781034511974862800,7.85686279296875,0.4894999861717224,-2.4894375801086426,1.0363374948501587
1781034511994386400,7.876386474609375,0.4210250079631805,-2.60260009765625,1.0927125215530396
1781034512013910300,7.89591015625,0.3283500075340271,-2.667224884033203,1.067412495613098
1781034512033430500,7.915430419921875,0.3283500075340271,-2.667224884033203,1.067412495613098
1781034512052950000,7.934949951171875,0.1447875052690506,-2.191612482070923,0.555774986743927
1781034512072473300,7.954473388671875,0.0752125009894371,-1.5332624912261963,0.0303875003010034
1781034512091999500,7.97399951171875,0.0138875003904104,-0.7975000143051147,-0.4908750057220459
1781034512111524000,7.993524169921875,-0.0424874983727932,-0.2153249979019165,-0.7970874905586243
1781034512131044900,8.013044921875,-0.080437496304512,0.1416250020265579,-0.8496124744415283
1781034512150563600,8.0325634765625,-0.0863500013947486,0.3619000017642975,-0.7816874980926514
1781034512170083800,8.052083740234375,-0.0611874982714653,0.5902875065803528,-0.7702749967575073
1781034512189605600,8.071605712890625,-0.022962499409914,0.9336249828338624,-0.9187750220298768
1781034512209123600,8.09112353515625,0.0020624999888241,1.379675030708313,-1.1885499954223633
1781034512228642300,8.110642333984375,-0.0043999999761581,1.8589999675750728,-1.480875015258789
1781034512248166400,8.13016650390625,-0.0383624993264675,2.288687467575073,-1.6842374801635742
1781034512267689700,8.149689697265625,-0.0778250023722648,2.598337411880493,-1.7113250494003296
1781034512287213300,8.16921337890625,-0.0989999994635582,2.7429873943328857,-1.547700047492981
1781034512306738700,8.18873876953125,-0.091849997639656,2.701050043106079,-1.2484999895095823
1781034512326263600,8.208263671875,-0.0617375001311302,2.518587589263916,-0.8996624946594238
1781034512345789700,8.227789794921875,-0.0075624999590218,2.2455124855041504,-0.5394124984741211
1781034512365316600,8.247316650390625,0.0793375000357627,1.8932374715805051,-0.1643124967813491
1781034512384839400,8.26683935546875,0.1967625021934509,1.4821125268936155,0.2199999988079071
1781034512404364000,8.286364013671875,0.3321999907493591,1.045549988746643,0.5894625186920166
1781034512423889000,8.305888916015626,0.469837486743927,0.6272749900817871,0.9112125039100648
1781034512443414300,8.325414306640624,0.5909749865531921,0.2773374915122986,1.1386375427246094
1781034512462942700,8.344942626953125,0.681862473487854,0.0349249988794326,1.2346124649047852
1781034512482468600,8.364468505859374,0.7405750155448914,-0.0842875018715858,1.2017500400543213
1781034512501996300,8.383996337890625,0.7794874906539917,-0.0980374962091445,1.0833624601364136
1781034512521530000,8.403530029296874,0.8263750076293945,-0.0576125010848045,0.9464125037193298
1781034512541059000,8.42305908203125,0.8263750076293945,-0.0576125010848045,0.9464125037193298
1781034512560586500,8.44258642578125,0.9143750071525574,-0.0563750006258487,0.8551124930381775
1781034512580115700,8.46211572265625,1.2383249998092651,-0.4450874924659729,0.9373375177383424
1781034512599643000,8.481642822265625,1.2383249998092651,-0.4450874924659729,0.9373375177383424
1781034512619172000,8.501172119140625,1.469462513923645,-0.7917249798774719,1.0685124397277832
1781034512638703000,8.520703125,1.469462513923645,-0.7917249798774719,1.0685124397277832
1781034512658230800,8.540230712890626,1.469462513923645,-0.7917249798774719,1.0685124397277832
1781034512677754000,8.559754150390624,1.2307624816894531,-0.5130124688148499,0.9117624759674072
1781034512697279700,8.57927978515625,0.9946749806404114,-0.3251875042915344,0.80121248960495
1781034512716809200,8.598809326171875,0.7673875093460083,-0.1843875050544738,0.6930000185966492
1781034512736338400,8.61833837890625,0.5501375198364258,-0.0137499999254941,0.5460125207901001
1781034512755864000,8.637864013671875,0.2956250011920929,0.3077250123023987,0.2978250086307525
1781034512775387600,8.6573876953125,-0.0147124994546175,0.7697250247001648,-0.0477125011384487
1781034512794911200,8.6769111328125,-0.3383874893188476,1.2179750204086304,-0.3972375094890594
1781034512814435300,8.696435302734375,-0.5931749939918518,1.476337432861328,-0.6333249807357788
1781034512833958100,8.715958251953126,-0.5931749939918518,1.476337432861328,-0.6333249807357788
1781034512853484000,8.735484130859374,-0.7455250024795532,1.277512550354004,-0.6615124940872192
1781034512873011500,8.755011474609375,-0.699874997138977,1.0000375509262085,-0.5817624926567078
1781034512892537000,8.774537109375,-0.65972501039505,0.7701374888420105,-0.5366625189781189
1781034512912062500,8.7940625,-0.6862624883651733,0.6535375118255615,-0.5317124724388123
1781034512931591000,8.8135908203125,-0.8005250096321106,0.6406124830245972,-0.5207124948501587
1781034512951116500,8.833116455078125,-0.94269996881485,0.6434999704360962,-0.4522374868392944
1781034512970641200,8.85264111328125,-1.0088374614715576,0.5539875030517578,-0.3133625090122223
1781034512990166800,8.872166748046874,-0.9505375027656556,0.3422375023365021,-0.1443749964237213
1781034513009690400,8.8916904296875,-0.8047875165939331,0.0658624991774559,0.0094875004142522
1781034513029213400,8.91121337890625,-0.6467999815940857,-0.1854874938726425,0.1209999993443489
1781034513048741400,8.930741455078126,-0.5376250147819519,-0.3429250121116638,0.1625249981880188
1781034513068268300,8.950268310546875,-0.5073750019073486,-0.3815625011920929,0.1116499975323677
1781034513087790300,8.969790283203125,-0.5428500175476074,-0.3306874930858612,-0.0153999999165534
1781034513107310800,8.989310791015624,-0.593999981880188,-0.2668874859809875,-0.1555124968290329
1781034513126831600,9.00883154296875,-0.6148999929428101,-0.2688125073909759,-0.238425001502037
1781034513146353400,9.028353515625,-0.5887749791145325,-0.371937483549118,-0.2275625020265579
1781034513165878000,9.0478779296875,-0.5105375051498413,-0.5875374674797058,-0.1072499975562095
1781034513185408000,9.067407958984376,-0.3867875039577484,-0.903374969959259,0.1145374998450279
1781034513204936200,9.086936279296877,-0.2490125000476837,-1.2458875179290771,0.3843125104904175
1781034513224458000,9.1064580078125,-0.1419000029563903,-1.4977874755859375,0.6095374822616577
1781034513243983600,9.125983642578126,-0.097350001335144,-1.5548499822616575,0.6921749711036682
1781034513263513000,9.14551318359375,-0.1097249984741211,-1.4088250398635864,0.5992249846458435
1781034513283039700,9.165039794921874,-0.1458874940872192,-1.1374000310897827,0.3734500110149383
1781034513302565000,9.184565185546877,-0.1715999990701675,-0.8255500197410583,0.0893749967217445
1781034513322084000,9.204083984375,-0.1714625060558319,-0.5352874994277954,-0.1876875013113021
1781034513341603800,9.223603759765624,-0.1511124968528747,-0.2939749956130981,-0.4179999828338623
1781034513361131300,9.24313134765625,-0.1511124968528747,-0.2939749956130981,-0.4179999828338623
1781034513380659700,9.26265966796875,-0.1277374923229217,-0.1039500012993812,-0.5843750238418579
1781034513400186600,9.2821865234375,-0.1746249943971634,0.201712504029274,-0.8381999731063843
1781034513419711200,9.301711181640623,-0.1746249943971634,0.201712504029274,-0.8381999731063843
1781034513439236400,9.321236328125,-0.269225001335144,0.3507624864578247,-0.9944000244140624
1781034513458762000,9.340761962890625,-0.4402749836444855,0.4826250076293945,-1.1904749870300293
1781034513478283800,9.36028369140625,-0.4402749836444855,0.4826250076293945,-1.1904749870300293
1781034513497802800,9.379802734375,-0.4463250041007995,0.3968249857425689,-1.130662441253662
1781034513517321500,9.399321533203125,-0.4039750099182129,0.2432374954223632,-0.9840874671936036
1781034513536842500,9.418842529296874,-0.3335750102996826,0.0636624991893768,-0.7870500087738037
1781034513556364300,9.4383642578125,-0.2492875009775161,-0.1287000030279159,-0.5520625114440918
1781034513575889000,9.457888916015625,-0.1625249981880188,-0.3363249897956848,-0.2854500114917755
1781034513595412700,9.477412841796877,-0.0885500013828277,-0.5409250259399414,-0.0248875003308057
1781034513614933800,9.496933837890625,-0.0356125012040138,-0.7169250249862671,0.1896124929189682
1781034513634458400,9.516458251953123,0.0042624999769032,-0.8553875088691711,0.3587374985218048
1781034513653985500,9.535985595703124,0.0439999997615814,-0.9475125074386596,0.5013250112533569
1781034513673511700,9.55551171875,0.0857999995350837,-0.9788625240325928,0.603487491607666
1781034513693035800,9.575035888671875,0.1197625026106834,-0.9399499893188475,0.6247999668121338
1781034513712560600,9.594560546875,0.136537492275238,-0.8401250243186951,0.55673748254776
1781034513732084700,9.614084716796874,0.1350249946117401,-0.7134875059127808,0.4487999975681305
1781034513751606000,9.63360595703125,0.1156374961137771,-0.5913875102996826,0.358599990606308
1781034513771127300,9.653127197265626,0.0791999995708465,-0.4841375052928924,0.3020874857902527
1781034513790654200,9.672654296875,0.0356125012040138,-0.4001249969005584,0.2884750068187713
1781034513810186000,9.69218603515625,0.0024749999865889,-0.3500750064849853,0.3389374911785126
1781034513829714400,9.71171435546875,-0.0148499999195337,-0.3299999833106994,0.4379374980926513
1781034513849239000,9.731239013671876,-0.0280499998480081,-0.3187249898910522,0.5262125134468079
1781034513868764000,9.750763916015623,-0.0463375002145767,-0.3051125109195709,0.5799750089645386
1781034513888295200,9.770295166015623,-0.0628374963998794,-0.2990624904632568,0.645425021648407
1781034513907827000,9.789826904296875,-0.0703999996185302,-0.2953499853610992,0.725724995136261
1781034513927353900,9.809353759765624,-0.0745249986648559,-0.2624875009059906,0.7452499866485596
1781034513946878500,9.82887841796875,-0.0785124972462654,-0.1820500046014785,0.6576625108718872
1781034513966403000,9.848403076171875,-0.073012501001358,-0.0698499977588653,0.510812520980835
1781034513985928200,9.86792822265625,-0.0521125011146068,0.0554125010967254,0.3495250046253204
1781034514005448700,9.88744873046875,-0.0247499998658895,0.1960749924182891,0.1425874978303909
1781034514024969000,9.906968994140623,0.004537499975413,0.3484250009059906,-0.122649997472763
1781034514044487700,9.92648779296875,0.0493624992668628,0.4775374829769134,-0.3647874891757965
1781034514064009500,9.946009521484376,0.1270499974489212,0.5457375049591064,-0.4871625006198883
1781034514083537200,9.965537109375,0.2351250052452087,0.5563250184059143,-0.4882625043392181
1781034514103066400,9.98506640625,0.3508999943733215,0.5447750091552734,-0.4416500031948089
1781034514122589700,10.004589599609377,0.450587511062622,0.5517874956130981,-0.4225375056266784
1781034514142108000,10.02410791015625,0.5182374715805054,0.5924875140190125,-0.4544374942779541
1781034514161633300,10.04363330078125,0.5487625002861023,0.6495500206947327,-0.5091624855995178
1781034514181159400,10.063159423828123,0.5487625002861023,0.6495500206947327,-0.5091624855995178
1781034514200679000,10.082678955078125,0.5487625002861023,0.6931374669075012,-0.549037516117096
1781034514220198700,10.10219873046875,0.5311625003814697,0.5843750238418579,-0.4734124839305877
1781034514239718700,10.12171875,0.5311625003814697,0.5843750238418579,-0.4734124839305877
1781034514259238100,10.141238037109376,0.5480750203132629,0.3903625011444092,-0.3355000019073486
1781034514278759400,10.160759521484374,0.5863000154495239,-0.0989999994635582,-0.0105875004082918
1781034514298283300,10.180283203125,0.5863000154495239,-0.0989999994635582,-0.0105875004082918
1781034514317805800,10.199805908203125,0.5710374712944031,-0.310337483882904,0.1086250022053718
1781034514337327900,10.219327880859376,0.5403749942779541,-0.5025625228881836,0.2391124963760376
1781034514356852200,10.238852294921877,0.5058624744415283,-0.6935499906539917,0.4292750060558319
1781034514376377000,10.258377197265624,0.4609000086784363,-0.8695499897003174,0.6507874727249146
1781034514395898600,10.277898681640623,0.3972375094890594,-0.9993500113487244,0.8267874717712402
1781034514415418400,10.29741845703125,0.318450003862381,-1.0565500259399414,0.9074999690055848
1781034514434937300,10.316937255859376,0.2363625019788742,-1.045412540435791,0.9063999652862548
1781034514454457900,10.336457763671875,0.1629374921321869,-0.987387478351593,0.8617125153541565
1781034514473980200,10.355980224609375,0.1143999993801117,-0.9124500155448914,0.812624990940094
1781034514493497600,10.37549755859375,0.1119249984622001,-0.8640499711036682,0.8140000104904175
1781034514513012200,10.39501220703125,0.1607374995946884,-0.8597875237464905,0.8882499933242798
1781034514532530000,10.414530029296875,0.23938749730587,-0.8739500045776367,0.9938499927520752
1781034514552049200,10.434049072265625,0.3137750029563904,-0.8567624688148499,1.0594375133514404
1781034514571572700,10.45357275390625,0.3625875115394592,-0.7767375111579895,1.0478874444961548
1781034514591099400,10.473099365234376,0.3840374946594238,-0.6345624923706055,0.9637374877929688
1781034514610627600,10.492627685546877,0.3818374872207641,-0.4475624859333038,0.8189499974250793
1781034514630155000,10.512155029296874,0.3602499961853027,-0.2418625056743621,0.6374499797821045
1781034514649676500,10.531676513671876,0.3201000094413757,-0.042212501168251,0.4516874849796295
1781034514669198000,10.551197998046876,0.2615250051021576,0.1449249982833862,0.2777499854564667
1781034514688724500,10.570724365234376,0.1859000027179718,0.3287625014781952,0.1068374961614608
1781034514708252400,10.59025244140625,0.1002374961972236,0.5066875219345093,-0.062424998730421
1781034514727780400,10.6097802734375,0.0152624994516372,0.6674249768257141,-0.2147749960422516
1781034514747304200,10.62930419921875,-0.0633874982595443,0.8084999918937683,-0.3422375023365021
1781034514766825000,10.648824951171877,-0.1387374997138977,0.9447624683380128,-0.4589749872684479
1781034514786350300,10.668350341796875,-0.2117500007152557,1.086662530899048,-0.5721374750137329
1781034514805881300,10.68788134765625,-0.2754124999046325,1.213162541389465,-0.657800018787384
1781034514825415000,10.707414794921876,-0.3236750066280365,1.290024995803833,-0.6951999664306641
1781034514844945400,10.7269453125,-0.3590124845504761,1.288925051689148,-0.6850249767303467
1781034514864467500,10.746467529296876,-0.3884375095367431,1.205187439918518,-0.64638751745224
1781034514883988000,10.765988037109375,-0.4094749987125397,1.0518749952316284,-0.5923500061035156
1781034514903513000,10.78551318359375,-0.40727499127388,0.8368250131607056,-0.5159000158309937
1781034514923032000,10.805031982421877,-0.3726249933242798,0.5684249997138977,-0.4074124991893768
1781034514942546700,10.824546630859375,-0.317900002002716,0.2758249938488006,-0.2814624905586242
1781034514962063000,10.84406298828125,-0.2703250050544739,0.0159499999135732,-0.1868624985218048
1781034514981584000,10.863583984375,-0.2399374991655349,-0.1671999990940094,-0.1560624986886978
1781034515001107700,10.883107666015626,-0.2399374991655349,-0.1671999990940094,-0.1560624986886978
1781034515020634400,10.90263427734375,-0.2048749923706054,-0.2804999947547912,-0.1658249944448471
1781034515040161500,10.92216162109375,-0.0094875004142522,-0.5361124873161316,-0.0759000033140182
1781034515059684000,10.94168408203125,0.1295250058174133,-0.7365875244140625,0.0510125011205673
1781034515079204900,10.961204833984375,0.1295250058174133,-0.7365875244140625,0.0510125011205673
1781034515098725600,10.9807255859375,0.1295250058174133,-0.7365875244140625,0.0510125011205673
1781034515118246400,11.000246337890625,0.2454375028610229,-0.932937502861023,0.077962502837181
1781034515137768700,11.019768798828125,0.1590874940156936,-0.7250375151634216,-0.1817750036716461
1781034515157291300,11.039291259765625,0.0075624999590218,-0.3143250048160553,-0.5615500211715698
1781034515176814600,11.058814697265625,-0.1731124967336654,0.2392500042915344,-0.9747374653816224
1781034515196342000,11.078342041015626,-0.3590124845504761,0.8346250057220459,-1.359737515449524
1781034515215870200,11.0978701171875,-0.6639875173568726,1.720537543296814,-1.888149976730347
1781034515235395000,11.11739501953125,-0.6639875173568726,1.720537543296814,-1.888149976730347
1781034515254923500,11.136923583984377,-0.7320500016212463,1.8823750019073489,-1.9933375120162964
1781034515274449700,11.15644970703125,-0.735212504863739,1.8522624969482424,-2.0009000301361084
1781034515293972000,11.175971923828126,-0.6835125088691711,1.6216750144958496,-1.908087491989136
1781034515313493800,11.19549365234375,-0.6065124869346619,1.2299374341964722,-1.719849944114685
1781034515333014500,11.2150146484375,-0.5416125059127808,0.767662525177002,-1.4554375410079956
1781034515352537900,11.234537841796875,-0.5079249739646912,0.3238124847412109,-1.1292874813079834
1781034515372062000,11.25406201171875,-0.4943124949932098,-0.0736999958753585,-0.7420874834060669
1781034515391585000,11.2735849609375,-0.4839999973773956,-0.4288625121116638,-0.3107500076293945
1781034515411111000,11.29311083984375,-0.4747875034809112,-0.7302625179290771,0.1200374960899353
1781034515430636800,11.31263671875,-0.4697000086307525,-0.97308748960495,0.5123249888420105
1781034515450161200,11.3321611328125,-0.4670875072479248,-1.1587125062942505,0.8476874828338623
1781034515469686000,11.35168603515625,-0.4626874923706054,-1.2951124906539917,1.121862530708313
1781034515489209900,11.3712099609375,-0.4531999826431274,-1.3934249877929688,1.3327875137329102
1781034515508730000,11.390730224609374,-0.4364250004291534,-1.449387550354004,1.463412523269653
1781034515528251000,11.4102509765625,-0.4118124842643738,-1.4588749408721924,1.5090625286102295
1781034515547776800,11.42977685546875,-0.3733125030994415,-1.4262875318527222,1.5005375146865845
1781034515567304000,11.449303955078124,-0.3152875006198883,-1.3124375343322754,1.4451249837875366
1781034515586829300,11.468829345703124,-0.2452999949455261,-1.053112506866455,1.301574945449829
1781034515606352600,11.4883525390625,-0.1802625060081482,-0.6495500206947327,1.042525053024292
1781034515625873000,11.507872802734376,-0.1363999992609024,-0.1574375033378601,0.6850249767303467
1781034515645390800,11.527390869140625,-0.1126125007867813,0.3454000055789947,0.3133625090122223
1781034515664909300,11.546909423828126,-0.0911625027656555,0.7881500124931335,0.022962499409914
1781034515684432600,11.5664326171875,-0.0530750006437301,1.1130625009536743,-0.1307625025510788
1781034515703956200,11.585956298828124,0.0123749999329447,1.2798500061035156,-0.1254000067710876
1781034515723479300,11.605479248046874,0.0933625027537345,1.3381500244140625,-0.0079749999567866
1781034515743004700,11.625004638671877,0.1633500009775161,1.3717000484466553,0.1381874978542328
1781034515762531000,11.644531005859376,0.1880999952554702,1.457087516784668,0.2168374955654144
1781034515782056000,11.664055908203125,0.1528999954462051,1.6354249715805054,0.1868624985218048
1781034515801576400,11.683576416015624,0.098312497138977,1.8424999713897705,0.1277374923229217
1781034515821096200,11.70309619140625,0.0991374999284744,1.9637750387191768,0.1489125043153762
1781034515840617000,11.722616943359377,0.2206874936819076,1.893787503242493,0.3085500001907348
1781034515860141300,11.742141357421875,0.4756124913692474,1.604212522506714,0.5974375009536743
1781034515879669500,11.76166943359375,0.8199124932289124,1.1310750246047974,0.9847750067710876
1781034515899198500,11.781198486328124,0.8199124932289124,1.1310750246047974,0.9847750067710876
1781034515918723000,11.80072314453125,0.8199124932289124,1.1310750246047974,0.9847750067710876
1781034515938246100,11.82024609375,1.4051125049591064,-0.0423500016331672,1.7831000089645386
1781034515957773600,11.839773681640626,1.4613499641418457,-0.4300999939441681,1.9416375160217283
1781034515977296000,11.8592958984375,1.3309999704360962,-0.490325003862381,1.8127999305725095
1781034515996816600,11.878816650390624,1.0546250343322754,-0.1667875051498413,1.4108874797821045
1781034516016338700,11.898338623046875,0.6841999888420105,0.4217124879360199,0.8585500121116638
1781034516035858700,11.917858642578125,0.3027749955654144,1.0025124549865725,0.347599983215332
1781034516055381000,11.937381103515625,0.0452375002205371,1.2641749382019043,0.0482624992728233
1781034516074905300,11.9569052734375,-0.0145749999210238,1.128600001335144,-0.0272249989211559
1781034516094432000,11.976431884765624,0.0642125010490417,0.7814124822616577,0.0020624999888241
1781034516113957400,11.995957275390625,0.1740749925374984,0.42061248421669,0.0391874983906745
1781034516133480700,12.015480712890623,0.2246749997138977,0.1627999991178512,0.0351999998092651
1781034516153005300,12.03500537109375,0.1680250018835067,0.0423500016331672,-0.022962499409914
1781034516172527000,12.054527099609375,0.0094875004142522,0.0310750007629394,-0.1160499975085258
1781034516192045000,12.074045166015624,-0.1960749924182891,0.0653124973177909,-0.2125750035047531
1781034516211562800,12.093562744140623,-0.3723500072956085,0.0782374963164329,-0.2818749845027923
1781034516231082000,12.11308203125,-0.4652999937534332,0.0332750007510185,-0.3082749843597412
1781034516250603000,12.13260302734375,-0.4602124989032745,-0.0642125010490417,-0.2943874895572662
1781034516270122800,12.152122802734375,-0.3797749876976013,-0.1801249980926513,-0.2589125037193298
1781034516289642500,12.171642578125,-0.2769249975681305,-0.2761000096797943,-0.2364999949932098
1781034516309162000,12.191161865234376,-0.1996500045061111,-0.332749992609024,-0.2494249939918518
1781034516328681200,12.21068115234375,-0.170362502336502,-0.3546124994754791,-0.295074999332428
1781034516348202500,12.230202392578123,-0.1859000027179718,-0.3599750101566314,-0.3506250083446502
1781034516367728600,12.249728759765626,-0.2232999950647354,-0.3723500072956085,-0.3817000091075897
1781034516387256600,12.269256591796877,-0.2617999911308288,-0.4041124880313873,-0.370974987745285
1781034516406788400,12.288788330078123,-0.2928749918937683,-0.442062497138977,-0.3254624903202057
1781034516426320100,12.308320068359375,-0.3243624866008758,-0.4507249891757965,-0.2762374877929687
1781034516445849000,12.32784912109375,-0.3712500035762787,-0.4013625085353851,-0.2598749995231628
1781034516465374500,12.34737451171875,-0.4368374943733215,-0.3046999871730804,-0.2858625054359436
1781034516484899000,12.366899169921876,-0.5092999935150146,-0.201162502169609,-0.3302749991416931
1781034516504422700,12.386422607421874,-0.5710374712944031,-0.1255374997854232,-0.3627249896526336
1781034516523945000,12.405945068359374,-0.6153125166893005,-0.0907500013709068,-0.3753750026226043
1781034516543468500,12.425468505859374,-0.6385499835014343,-0.0995500013232231,-0.3723500072956085
1781034516562987300,12.4449873046875,-0.6330500245094299,-0.1489125043153762,-0.3543374836444855
1781034516582499800,12.464499755859377,-0.5982624888420105,-0.2212374955415725,-0.322299987077713
1781034516602015700,12.484015625,-0.5471125245094299,-0.278712511062622,-0.2912249863147735
1781034516621535700,12.50353564453125,-0.5009124875068665,-0.2803624868392944,-0.2851749956607818
1781034516641056500,12.523056396484376,-0.5009124875068665,-0.2803624868392944,-0.2851749956607818
1781034516660582100,12.54258203125,-0.4798749983310699,-0.2092749923467636,-0.3267000019550323
1781034516680102700,12.5621025390625,-0.5275874733924866,0.0063249999657273,-0.5102624893188477
1781034516699618600,12.58161865234375,-0.5275874733924866,0.0063249999657273,-0.5102624893188477
1781034516719137800,12.6011376953125,-0.551925003528595,0.0206249989569187,-0.5627874732017517
1781034516738656800,12.62065673828125,-0.551925003528595,0.0206249989569187,-0.5627874732017517
1781034516758176300,12.64017626953125,-0.519474983215332,-0.0584375001490116,-0.509987473487854
1781034516777695000,12.659695068359374,-0.4629625082015991,-0.171324998140335,-0.4163500070571899
1781034516797212200,12.679212158203123,-0.3976500034332275,-0.2967250049114227,-0.2923249900341034
1781034516816725500,12.6987255859375,-0.2964499890804291,-0.5378999710083008,-0.0204875003546476
1781034516836238600,12.718238525390625,-0.2964499890804291,-0.5378999710083008,-0.0204875003546476
1781034516855755000,12.737755126953124,-0.2593249976634979,-0.6670125126838684,0.1160499975085258
1781034516875274800,12.757274658203125,-0.2256374955177307,-0.784850001335144,0.2369125038385391
1781034516894794200,12.776794189453126,-0.196212500333786,-0.8724374771118164,0.3319250047206878
1781034516914314000,12.79631396484375,-0.170912504196167,-0.915612518787384,0.396274983882904
1781034516933837000,12.815837158203124,-0.1440999954938888,-0.922487497329712,0.4417875111103058
1781034516953357300,12.835357421875,-0.1079374998807907,-0.9084625244140624,0.4816625118255615
1781034516972876000,12.8548759765625,-0.0582999996840953,-0.8794500231742859,0.5160375237464905
1781034516992397800,12.874397705078126,0.0026124999858438,-0.8377875089645386,0.5431249737739563
1781034517011919600,12.893919677734376,0.0686125010251998,-0.7833374738693237,0.5611374974250793
1781034517031438300,12.913438232421877,0.1295250058174133,-0.719124972820282,0.5638874769210815
1781034517050955500,12.93295556640625,0.1720124930143356,-0.6395124793052673,0.5295125246047974
1781034517070475000,12.95247509765625,0.1904374957084655,-0.5310249924659729,0.4497624933719635
1781034517090000400,12.97200048828125,0.1942874938249588,-0.3873375058174133,0.3577750027179718
1781034517109524000,12.99152392578125,0.2004749923944473,-0.2164250016212463,0.3018124997615814
1781034517129047600,13.011047607421874,0.2213750034570694,-0.0331375002861022,0.2993375062942505
1781034517148568600,13.030568603515626,0.2535499930381775,0.1511124968528747,0.317487508058548
1781034517168091400,13.05009130859375,0.2813250124454498,0.3255999982357025,0.3059374988079071
1781034517187616500,13.069616455078124,0.2898499965667724,0.4756124913692474,0.2417249977588653
1781034517207134500,13.089134521484375,0.28022500872612,0.5779125094413757,0.1557874977588653
1781034517226652000,13.10865185546875,0.2690874934196472,0.6190249919891357,0.0995500013232231
1781034517246170600,13.128170654296875,0.2677125036716461,0.6125624775886536,0.0862125009298324
1781034517265689300,13.147689453125,0.272662490606308,0.5966125130653381,0.0809874981641769
1781034517285208300,13.167208251953124,0.2750000059604645,0.604449987411499,0.0437249988317489
1781034517304728800,13.186728759765623,0.2747249901294708,0.6319500207901001,-0.0218624994158744
1781034517324248600,13.20624853515625,0.2842124998569488,0.6447374820709229,-0.0761749967932701
1781034517343765800,13.225765869140623,0.3172124922275543,0.597712516784668,-0.077962502837181
1781034517363286500,13.24528662109375,0.3817000091075897,0.457874983549118,-0.0038499999791383
1781034517382809300,13.264809326171877,0.4833124876022339,0.2199999988079071,0.154412493109703
1781034517402333000,13.2843330078125,0.6194375157356262,-0.0903374999761581,0.3892624974250793
1781034517421857800,13.30385791015625,0.7672500014305115,-0.4204750061035156,0.6550499796867371
1781034517441383700,13.3233837890625,0.8868749737739563,-0.7045499682426453,0.8733999729156494
1781034517460913000,13.342912841796876,0.8868749737739563,-0.7045499682426453,0.8733999729156494
1781034517480439300,13.362439208984377,0.9550749659538268,-0.9047499895095824,1.0038875341415403
1781034517499962400,13.38196240234375,0.9847750067710876,-1.03496253490448,1.0789624452590942
1781034517519485200,13.401485107421877,0.9895874857902528,-1.114712476730347,1.1187000274658203
1781034517539009000,13.421009033203124,0.9208375215530396,-1.098212480545044,0.9572749733924866
1781034517558535400,13.440535400390624,0.9208375215530396,-1.098212480545044,0.9572749733924866
1781034517578057700,13.4600576171875,0.8497499823570251,-0.984499990940094,0.7508875131607056
1781034517597576200,13.479576171875,0.7646374702453613,-0.8186749815940857,0.5189250111579895
1781034517617095200,13.49909521484375,0.5527499914169312,-0.3656125068664551,0.0404249988496303
1781034517636618000,13.518617919921876,0.5527499914169312,-0.3656125068664551,0.0404249988496303
1781034517656146400,13.538146484375,0.4257000088691711,-0.1076624989509582,-0.1875499933958053
1781034517675679200,13.55767919921875,0.2861374914646148,0.1431374996900558,-0.3975124955177307
1781034517695207700,13.577207763671876,0.1331000030040741,0.3834874927997589,-0.5858874917030334
1781034517714726100,13.59672607421875,-0.0244750007987022,0.6070625185966492,-0.731362521648407
1781034517734243300,13.616243408203124,-0.1750375032424926,0.8038250207901001,-0.8168874979019165
1781034517753766400,13.635766357421875,-0.3119874894618988,0.9656624794006348,-0.8410875201225281
1781034517773288400,13.655288330078124,-0.4375250041484833,1.09642493724823,-0.8140000104904175
1781034517792808000,13.674807861328125,-0.558662474155426,1.2122000455856323,-0.757349967956543
1781034517812328400,13.694328369140624,-0.675125002861023,1.3186249732971191,-0.7022125124931335
1781034517831848200,13.71384814453125,-0.7807250022888184,1.4052499532699585,-0.6788374781608582
1781034517851369000,13.733368896484375,-0.8414999842643738,1.4020874500274658,-0.6689375042915344
1781034517870889500,13.752889404296877,-0.8090500235557556,1.2244374752044678,-0.6190249919891357
1781034517890408400,13.772408447265626,-0.6703125238418579,0.877387523651123,-0.5058624744415283
1781034517909928200,13.79192822265625,-0.4646124839782715,0.46543750166893,-0.3686375021934509
1781034517929447200,13.811447265625,-0.2678500115871429,0.1361249983310699,-0.3025000095367431
1781034517948961800,13.8309619140625,-0.1446499973535537,0.0087999999523162,-0.3975124955177307
1781034517968479500,13.8504794921875,-0.1150875017046928,0.1252624988555908,-0.6700375080108643
1781034517987998500,13.86999853515625,-0.1574375033378601,0.4120875000953674,-1.0505000352859497
1781034518007522000,13.88952197265625,-0.2198625057935714,0.6822749972343445,-1.4166624546051023
1781034518027047200,13.909047119140626,-0.234437495470047,0.7280625104904175,-1.641337513923645
1781034518046569500,13.928569580078126,-0.1478125005960464,0.4310624897480011,-1.614799976348877
1781034518066089500,13.94808935546875,0.0409750007092952,-0.1886499971151352,-1.2907124757766724
1781034518085607200,13.967607177734376,0.256850004196167,-0.9660750031471252,-0.7500625252723694
1781034518105128000,13.9871279296875,0.4020499885082245,-1.669800043106079,-0.1670625060796737
1781034518124652500,14.006652587890626,0.4292750060558319,-2.1309750080108643,0.2888875007629394
1781034518144178000,14.026177978515625,0.3564000129699707,-2.2933623790740967,0.527999997138977
1781034518163699700,14.04569970703125,0.2349874973297119,-2.184875011444092,0.5473874807357788
1781034518183222000,14.065221923828124,0.1186624988913536,-1.8970874547958372,0.4135999977588653
1781034518202743000,14.084742919921876,0.0448249988257885,-1.549762487411499,0.2315499931573867
1781034518222260500,14.104260498046877,0.0233750008046627,-1.2309000492095947,0.0745249986648559
1781034518241778400,14.1237783203125,0.0395999997854232,-0.976937472820282,-0.0336874984204769
1781034518261298700,14.143298583984375,0.0655874982476234,-0.7943375110626221,-0.0972125008702278
1781034518280818000,14.16281787109375,0.0715000033378601,-0.6758124828338623,-0.1324124932289123
1781034518300329700,14.182329833984374,0.0433125011622905,-0.609125018119812,-0.1361249983310699
1781034518319846000,14.201845947265625,0.0433125011622905,-0.609125018119812,-0.1361249983310699
1781034518339366100,14.2213662109375,-0.0706750005483627,-0.5292375087738037,-0.0460624992847442
1781034518358878700,14.240878662109376,-0.0706750005483627,-0.5292375087738037,-0.0460624992847442
1781034518378389200,14.26038916015625,-0.0706750005483627,-0.5292375087738037,-0.0460624992847442
1781034518397906400,14.279906494140626,-0.145062506198883,-0.1941500008106231,-0.1802625060081482
1781034518417425200,14.299425048828123,-0.2006125003099441,0.196212500333786,-0.5622375011444092
1781034518436935200,14.31893505859375,-0.2006125003099441,0.196212500333786,-0.5622375011444092
1781034518456446700,14.33844677734375,-0.2316875010728836,0.2322375029325485,-0.605412483215332
1781034518475967200,14.35796728515625,-0.2576749920845032,0.1385999917984008,-0.4831750094890594
1781034518495487700,14.37748779296875,-0.2825624942779541,-0.0609125010669231,-0.243925005197525
1781034518515007200,14.39700732421875,-0.3155624866485595,-0.2807750105857849,-0.0133375003933906
1781034518534532400,14.416532470703125,-0.3660250008106231,-0.3786749839782715,0.0644875019788742
1781034518554057200,14.43605712890625,-0.4338124990463257,-0.1886499971151352,-0.1227874979376792
1781034518573577700,14.45557763671875,-0.509850025177002,0.3143250048160553,-0.5249750018119812
1781034518593095000,14.475094970703124,-0.5748875141143799,0.9381625056266784,-0.9196000099182128
1781034518612613000,14.494613037109374,-0.5659499764442444,1.4491125345230105,-1.1269500255584717
1781034518632131600,14.514131591796875,-0.4705249965190887,1.7525750398635864,-1.1460624933242798
1781034518651650000,14.533650146484376,-0.3929750025272369,1.898324966430664,-1.0823999643325806
1781034518671168500,14.55316845703125,-0.3983374834060669,1.963500022888184,-1.0089750289916992
1781034518690681900,14.572681884765624,-0.2109249979257583,1.9892125129699707,-0.9307374954223632
1781034518710190300,14.5921904296875,0.1394249945878982,1.977662444114685,-0.8252750039100647
1781034518729700600,14.61170068359375,0.3647874891757965,1.9317375421524048,-0.6910749673843384
1781034518749215700,14.6312158203125,0.4929375052452087,1.8636749982833865,-0.5493124723434448
1781034518768728600,14.650728515625,0.558525025844574,1.768525004386902,-0.4050749838352203
1781034518788241000,14.670240966796875,0.6182000041007996,1.5916999578475952,-0.2232999950647354
1781034518807756000,14.689756103515624,0.7590000033378601,1.224025011062622,0.0280499998480081
1781034518827271400,14.709271484375,1.04087495803833,0.6066499948501587,0.330825001001358
1781034518846787000,14.728787109375,1.4081374406814575,-0.1684374958276748,0.6329125165939331
1781034518866305800,14.748305908203124,1.7117375135421753,-0.8599249720573425,0.8758749961853027
1781034518885826000,14.767825927734377,1.7983624935150146,-1.1559624671936035,0.987112522125244
1781034518905345800,14.787345703125,1.602287530899048,-0.8575875163078308,0.906125009059906
1781034518924863000,14.806863037109377,1.1906124353408811,-0.0798875018954277,0.6847500205039978
1781034518944378000,14.826378173828124,0.721875011920929,0.7966749668121338,0.4712125062942505
1781034518963890200,14.84589013671875,0.3553000092506408,1.4279375076293943,0.3707000017166137
1781034518983400700,14.865400634765624,0.1630750000476837,1.712012529373169,0.3840374946594238
1781034519002912800,14.884912841796876,0.1263625025749206,1.7032124996185305,0.4472874999046325
1781034519022428200,14.90442822265625,0.2056999951601028,1.4548875093460083,0.5054500102996826
1781034519041948200,14.9239482421875,0.3672625124454498,1.0173624753952026,0.5418875217437744
1781034519061469700,14.9434697265625,0.5741999745368958,0.5073750019073486,0.5575624704360962
1781034519080994300,14.962994384765626,0.5741999745368958,0.5073750019073486,0.5575624704360962
1781034519100520700,14.982520751953125,0.9330750107765198,-0.1380500048398971,0.4826250076293945
1781034519120048400,15.00204833984375,1.0158499479293823,-0.1809500008821487,0.3815625011920929
1781034519139570400,15.0215703125,1.0158499479293823,-0.1809500008821487,0.3815625011920929
1781034519159090700,15.041090576171875,1.0158499479293823,-0.1809500008821487,0.3815625011920929
1781034519178614500,15.060614501953124,0.9817500114440918,-0.0752125009894371,0.1733874976634979
1781034519198139100,15.08013916015625,0.8960874676704407,-0.1721500009298324,0.1405249983072281
1781034519217659400,15.099659423828124,0.7851250171661377,-0.4185499846935272,0.166374996304512
1781034519237180000,15.119179931640623,0.6652249693870544,-0.7079874873161316,0.220550000667572
1781034519256704500,15.13870458984375,0.5554999709129333,-0.9147874712944032,0.2750000059604645
1781034519276223700,15.1582236328125,0.4640625119209289,-0.991100013256073,0.3181749880313873
1781034519295743000,15.177742919921876,0.3713875114917755,-0.9183624982833862,0.3228499889373779
1781034519315263700,15.197263671875,0.2496999949216842,-0.6763625144958496,0.2551999986171722
1781034519334784300,15.2167841796875,0.0878624990582466,-0.2958999872207641,0.1185249984264373
1781034519354306300,15.236306396484377,-0.1128875017166137,0.1588124930858612,-0.057337500154972
1781034519373824800,15.25582470703125,-0.3361875116825104,0.6043124794960022,-0.2304500043392181
1781034519393342500,15.275342529296877,-0.5491750240325928,0.9552124738693236,-0.3607999980449676
1781034519412864500,15.294864501953125,-0.7136250138282776,1.1511499881744385,-0.4243249893188476
1781034519432386600,15.314386474609377,-0.8188124895095825,1.1914374828338623,-0.4355999827384949
1781034519451905500,15.333905517578126,-0.8815125226974487,1.1185624599456787,-0.4347749948501587
1781034519471424000,15.353424072265623,-0.9172624945640564,0.9656624794006348,-0.4368374943733215
1781034519490944000,15.372944091796874,-0.9238625168800354,0.7251750230789185,-0.4241875112056732
1781034519510464500,15.392464599609376,-0.8879749774932861,0.3731749951839447,-0.3724874854087829
1781034519529989600,15.41198974609375,-0.8175749778747559,-0.0688875019550323,-0.2798124849796295
1781034519549514000,15.431513916015623,-0.7404375076293945,-0.5190625190734863,-0.167337492108345
1781034519569036800,15.451036865234377,-0.6997374892234802,-0.8412249684333801,-0.0771375000476837
1781034519588558800,15.470558837890623,-0.7336999773979187,-0.9220749735832214,-0.0592624992132186
1781034519608084500,15.49008447265625,-0.8358625173568726,-0.7617499828338623,-0.1278750002384185
1781034519627609000,15.509609130859374,-0.9640125036239624,-0.4580124914646148,-0.2571249902248382
1781034519647129900,15.5291298828125,-1.0738749504089355,-0.1220999956130981,-0.4190999865531921
1781034519666649300,15.5486494140625,-1.1529375314712524,0.1900250017642974,-0.6021124720573425
1781034519686174200,15.56817431640625,-1.2065625190734863,0.4494875073432922,-0.7845749855041504
1781034519705704400,15.587704345703123,-1.228837490081787,0.6144874691963196,-0.9229000210762024
1781034519725232400,15.607232421875,-1.214537501335144,0.6605499982833862,-0.98642498254776
1781034519744755000,15.6267548828125,-1.1653125286102295,0.5988125205039978,-0.9754250049591064
1781034519764276000,15.64627587890625,-1.0869375467300415,0.4703874886035919,-0.9083250164985656
1781034519783799800,15.6657998046875,-0.9952250123023988,0.3276624977588653,-0.8179875016212463
1781034519803325000,15.685324951171877,-0.904337465763092,0.2051499933004379,-0.7387874722480774
1781034519822851000,15.70485107421875,-0.8223875164985657,0.111237496137619,-0.6947875022888184
1781034519842379000,15.72437890625,-0.744700014591217,0.0389125011861324,-0.6850249767303467
1781034519861907200,15.7439072265625,-0.656837522983551,-0.0328624993562698,-0.6810374855995178
1781034519881435000,15.763434814453126,-0.5524749755859375,-0.1231999993324279,-0.6586250066757202
1781034519900961800,15.7829619140625,-0.5524749755859375,-0.1231999993324279,-0.6586250066757202
1781034519920483300,15.8024833984375,-0.4431625008583069,-0.2259124964475631,-0.6155874729156494
1781034519940000300,15.822000244140623,-0.3030500113964081,-0.4030124843120575,-0.4882625043392181
1781034519959517000,15.841516845703126,-0.3030500113964081,-0.4030124843120575,-0.4882625043392181
1781034519979036200,15.8610361328125,-0.2656500041484833,-0.599637508392334,-0.227012500166893
1781034519998550800,15.88055078125,-0.2656500041484833,-0.599637508392334,-0.227012500166893
1781034520018062600,15.9000625,-0.1879625022411346,-0.9321125149726868,0.1530375033617019
1781034520037578800,15.919578857421875,-0.1879625022411346,-0.9321125149726868,0.1530375033617019
1781034520057097200,15.93909716796875,-0.1236125007271766,-1.118287444114685,0.3684999942779541
1781034520076618200,15.9586181640625,-0.0549999997019767,-1.269950032234192,0.5729625225067139
1781034520096141600,15.9781416015625,0.0101749999448657,-1.3897124528884888,0.7496500015258789
1781034520115661800,15.997661865234376,0.0646250024437904,-1.4826624393463137,0.8870124816894531
1781034520135180500,16.0171806640625,0.1014750003814697,-1.5426124334335327,0.9809250235557556
1781034520154699500,16.036699462890624,0.1183874979615211,-1.5589749813079834,1.0346875190734863
1781034520174218000,16.056218017578125,0.1196250021457672,-1.5177249908447266,1.0467875003814695
1781034520193735700,16.075735595703126,0.1141249984502792,-1.4177625179290771,1.0096625089645386
1781034520213257500,16.095257568359376,0.1072499975562095,-1.2637624740600586,0.9106624722480774
1781034520232783400,16.114783447265626,0.1039500012993812,-1.0818500518798828,0.7804499864578247
1781034520252307200,16.13430712890625,0.1057374998927116,-0.9074999690055848,0.6876375079154968
1781034520271830500,16.15383056640625,0.1090374961495399,-0.7525374889373779,0.6617875099182129
1781034520291357200,16.173357177734374,0.1101374998688697,-0.5979874730110168,0.6550499796867371
1781034520310881800,16.1928818359375,0.1115124970674514,-0.4299624860286712,0.6111875176429749
1781034520330405600,16.212405517578127,0.1231999993324279,-0.2737624943256378,0.5439500212669373
1781034520349932000,16.23193212890625,0.1497374922037124,-0.1616999953985214,0.4929375052452087
1781034520369459200,16.251459228515625,0.1815000027418136,-0.0906125009059906,0.4575999975204468
1781034520388987600,16.270987548828124,0.2022625058889389,-0.0225499998778104,0.4081000089645386
1781034520408515600,16.290515625,0.202674999833107,0.073012501001358,0.3332999944686889
1781034520428040200,16.310040283203126,0.1876875013113021,0.1880999952554702,0.2624875009059906
1781034520447561200,16.329561279296875,0.1715999990701675,0.2828375101089477,0.2387000024318695
1781034520467078000,16.349077880859376,0.1670625060796737,0.3244999945163727,0.2767874896526336
1781034520486597600,16.36859765625,0.1775124967098236,0.309374988079071,0.3528249859809875
1781034520506122800,16.388122802734376,0.2007499933242797,0.2454375028610229,0.4323000013828277
1781034520525646300,16.407646240234374,0.2367749959230423,0.1347499936819076,0.5048999786376953
1781034520545173500,16.427173583984374,0.2860000133514404,-0.0208999998867511,0.5783249735832214
1781034520564699100,16.44669921875,0.3423750102519989,-0.20363749563694,0.6547750234603882
1781034520584217300,16.46621728515625,0.3968249857425689,-0.3818374872207641,0.7324625253677368
1781034520603739100,16.4857392578125,0.4406875073909759,-0.5218124985694885,0.7999749779701233
1781034520623261400,16.505261474609377,0.467912495136261,-0.5995000004768372,0.8355875015258789
1781034520642780400,16.524780517578126,0.4771249890327453,-0.6118749976158142,0.8263750076293945
1781034520662302200,16.54430224609375,0.4716250002384186,-0.5794249773025513,0.780174970626831
1781034520681827000,16.5638271484375,0.4574624896049499,-0.5370749831199646,0.7210500240325928
1781034520701350000,16.583349853515625,0.4380750060081482,-0.5161749720573425,0.6727874875068665
1781034520720872200,16.6028720703125,0.415800005197525,-0.5389999747276306,0.6572499871253967
1781034520740391700,16.6223916015625,0.415800005197525,-0.5389999747276306,0.6572499871253967
1781034520759910700,16.64191064453125,0.3587374985218048,-0.720087468624115,0.7777000069618225
1781034520779430700,16.6614306640625,0.3587374985218048,-0.720087468624115,0.7777000069618225
1781034520798950000,16.680949951171876,0.2576749920845032,-0.8361374735832214,0.8534625172615051
1781034520818469600,16.7004697265625,0.2576749920845032,-0.8361374735832214,0.8534625172615051
1781034520837987000,16.719987060546874,0.2050125002861023,-0.7723374962806702,0.7515749931335449
1781034520857504300,16.739504150390626,0.1735250055789947,-0.6624749898910522,0.619575023651123
1781034520877027600,16.759027587890625,0.1704999953508377,-0.5638874769210815,0.5467000007629395
1781034520896554200,16.77855419921875,0.1847999989986419,-0.4995374977588653,0.5598999857902527
1781034520916079600,16.79807958984375,0.1951124966144561,-0.4457750022411346,0.6109125018119812
1781034520935606500,16.8176064453125,0.1819124966859817,-0.3635500073432922,0.6308500170707703
1781034520955130400,16.83713037109375,0.1366750001907348,-0.2256374955177307,0.5682874917984009
1781034520974652000,16.85665185546875,0.0686125010251998,-0.0423500016331672,0.4332624971866607
1781034520994174700,16.8761748046875,-0.0034374999813735,0.1507000029087066,0.2785750031471252
1781034521013698000,16.895697998046874,-0.0671000033617019,0.335224986076355,0.1299374997615814
1781034521033218300,16.91521826171875,-0.0671000033617019,0.335224986076355,0.1299374997615814
1781034521052737300,16.9347373046875,-0.198137491941452,0.7466250061988831,-0.2216500043869018
1781034521072260900,16.9542607421875,-0.318450003862381,1.038949966430664,-0.4690124988555908
1781034521091786200,16.9737861328125,-0.4987125098705292,1.4089624881744385,-0.7640874981880188
1781034521111308800,16.993308837890623,-0.7232499718666077,1.8271000385284424,-1.0778625011444092
1781034521130832100,17.01283203125,-0.9470999836921692,2.2088000774383545,-1.3420000076293943
1781034521150354000,17.03235400390625,-1.1044000387191772,2.442962408065796,-1.473312497138977
1781034521169873200,17.051873046875,-1.122825026512146,2.418212413787842,-1.4126750230789185
1781034521189395000,17.07139501953125,-0.9876624941825868,2.1247875690460205,-1.1864874362945557
1781034521208918000,17.09091796875,-0.7665625214576721,1.674612522125244,-0.8960874676704407
1781034521228439600,17.110439453125,-0.5560500025749207,1.2132999897003174,-0.6485875248908997
1781034521247961900,17.1299619140625,-0.4147000014781952,0.8387500047683716,-0.4966500103473663
1781034521267480800,17.149480712890625,-0.334262490272522,0.5561875104904175,-0.4247374832630157
1781034521287001300,17.16900146484375,-0.2777499854564667,0.3297249972820282,-0.4009499847888946
1781034521306524200,17.188524169921877,-0.2191749960184097,0.1284250020980835,-0.403837502002716
1781034521326043400,17.20804345703125,-0.142037495970726,-0.0998250022530555,-0.4001249969005584
1781034521345561300,17.227561279296875,-0.0376750007271766,-0.4074124991893768,-0.3444375097751617
1781034521365079000,17.2470791015625,0.0827749967575073,-0.785812497138977,-0.2169750034809112
1781034521384600000,17.26660009765625,0.1958000063896179,-1.1706750392913818,-0.0334125012159347
1781034521404121300,17.286121337890624,0.2810499966144562,-1.4916000366210938,0.1742125004529953
1781034521423644400,17.30564453125,0.3324750065803528,-1.7271374464035034,0.3811500072479248
1781034521443168500,17.32516845703125,0.3465000092983246,-1.873437523841858,0.5565999746322632
1781034521462687700,17.344687744140625,0.320374995470047,-1.9230749607086184,0.6678375005722046
1781034521482204700,17.36420458984375,0.2616625130176544,-1.8789374828338623,0.697950005531311
1781034521501725200,17.38372509765625,0.1813624948263168,-1.7300249338150024,0.6326375007629395
1781034521521249800,17.403249755859374,0.1813624948263168,-1.7300249338150024,0.6326375007629395
1781034521540772900,17.42277294921875,-0.0435874983668327,-1.098212480545044,0.2074874937534332
1781034521560297000,17.442296875,-0.2136749923229217,-0.6583499908447266,-0.1013374999165535
1781034521579822000,17.461822021484377,-0.2136749923229217,-0.6583499908447266,-0.1013374999165535
1781034521599345700,17.481345703125,-0.5908374786376953,0.1128875017166137,-0.5647125244140625
1781034521618866400,17.500866455078125,-0.5908374786376953,0.1128875017166137,-0.5647125244140625
1781034521638386400,17.520386474609374,-0.7345250248908997,0.370974987745285,-0.6623374819755554
1781034521657906000,17.539906005859375,-0.8282999992370605,0.5531625151634216,-0.6938250064849854
1781034521677425000,17.5594248046875,-0.867900013923645,0.65972501039505,-0.6561499834060669
1781034521696946000,17.57894580078125,-0.8475499749183655,0.6730625033378601,-0.527999997138977
1781034521716471000,17.598470947265625,-0.7661499977111816,0.5847874879837036,-0.3323374986648559
1781034521735997700,17.617997802734376,-0.6311249732971191,0.4064500033855438,-0.1270499974489212
1781034521755524900,17.63752490234375,-0.4592500030994415,0.1754499971866607,0.0478499978780746
1781034521775051800,17.6570517578125,-0.2784374952316284,-0.0500499978661537,0.1945624947547912
1781034521794572500,17.676572509765624,-0.1284250020980835,-0.1775124967098236,0.2912249863147735
1781034521814094600,17.696094482421874,-0.0444125011563301,-0.1165999993681907,0.2642749845981598
1781034521833618200,17.7156181640625,-0.0444125011563301,-0.1165999993681907,0.2642749845981598
1781034521853137000,17.735136962890625,-0.0536249987781047,0.4001249969005584,-0.0097624994814395
1781034521872657700,17.75465771484375,-0.0754875019192695,0.6231499910354614,-0.0107249999418854
1781034521892179500,17.774179443359376,-0.0750750005245208,0.7664250135421753,0.1011999994516372
1781034521911700200,17.7937001953125,-0.0516999997198581,0.8658375144004822,0.228937491774559
1781034521931219200,17.81321923828125,-0.0027499999850988,0.9488874673843384,0.3260124921798706
1781034521950737400,17.8327373046875,0.0747999995946884,1.0326249599456787,0.4008125066757202
1781034521970256000,17.852255859375,0.1724250018596649,1.1197999715805054,0.4560874998569488
1781034521989768700,17.871768798828125,0.2677125036716461,1.2130249738693235,0.4652999937534332
1781034522009288700,17.891288818359374,0.3405874967575073,1.3134000301361084,0.4075500071048736
1781034522028813000,17.91081298828125,0.4050749838352203,1.3983750343322754,0.3280749917030334
1781034522048334300,17.930334228515626,0.495137482881546,1.4269750118255615,0.3012624979019165
1781034522067856100,17.949856201171876,0.6197124719619751,1.3832499980926514,0.3415499925613403
1781034522087381200,17.96938134765625,0.7537750005722046,1.2896125316619873,0.3961375057697296
1781034522106904800,17.98890478515625,0.8625375032424927,1.166962504386902,0.4126375019550323
1781034522126423300,18.00842333984375,0.9444875121116638,1.021899938583374,0.395312488079071
1781034522145943000,18.027943115234372,1.0162625312805176,0.8575875163078308,0.3806000053882599
1781034522165468200,18.04746826171875,1.0836374759674072,0.685575008392334,0.3937999904155731
1781034522184994300,18.066994384765625,1.1384999752044678,0.5308874845504761,0.430649995803833
1781034522204517400,18.08651733398437,1.1610499620437622,0.4184125065803528,0.4596624970436096
1781034522224043000,18.10604296875,1.140837550163269,0.359562486410141,0.4487999975681305
1781034522243568000,18.125568115234376,1.07868754863739,0.3485625088214874,0.3852750062942505
1781034522263089000,18.1450888671875,0.9820249676704408,0.3708375096321106,0.279262512922287
1781034522282611000,18.16461083984375,0.8596500158309937,0.4153875112533569,0.1522125005722046
1781034522302131000,18.184130859375,0.7156875133514404,0.4725874960422516,0.0247499998658895
1781034522321649700,18.20364965820313,0.5684249997138977,0.5277249813079834,-0.0780999958515167
1781034522341168000,18.223168212890624,0.5684249997138977,0.5277249813079834,-0.0780999958515167
1781034522360688000,18.24268823242188,0.3866499960422516,0.5130124688148499,-0.1287000030279159
1781034522380213800,18.2622138671875,0.371937483549118,0.4023250043392181,-0.0926750004291534
1781034522399741200,18.2817412109375,0.371937483549118,0.4023250043392181,-0.0926750004291534
1781034522419266300,18.301266357421877,0.2876499891281128,0.1940124928951263,-0.1192125007510185
1781034522438789600,18.32078955078125,0.2876499891281128,0.1940124928951263,-0.1192125007510185
1781034522458312400,18.3403125,0.2876499891281128,0.1940124928951263,-0.1192125007510185
1781034522477833200,18.359833251953123,-0.0646250024437904,0.3026374876499176,-0.3735874891281128
1781034522497352400,18.3793525390625,-0.2767874896526336,0.4126375019550323,-0.5007749795913696
1781034522516875300,18.398875244140623,-0.4428874850273132,0.4867500066757202,-0.5673249959945679
1781034522536402000,18.41840185546875,-0.5385875105857849,0.5037999749183655,-0.5666375160217285
1781034522555929000,18.43792919921875,-0.5952374935150146,0.4927999973297119,-0.5410624742507935
1781034522575457800,18.45745776367188,-0.6692125201225281,0.5002250075340271,-0.5380374789237976
1781034522594985500,18.4769853515625,-0.7864999771118164,0.5422999858856201,-0.5641624927520752
1781034522614513200,18.49651318359375,-0.9344499707221984,0.6018375158309937,-0.5960624814033508
1781034522634041900,18.516041748046877,-0.9344499707221984,0.6018375158309937,-0.5960624814033508
1781034522653567200,18.53556713867188,-1.2094500064849854,0.686537504196167,-0.5876749753952026
1781034522673090000,18.555090087890623,-1.301300048828125,0.6980875134468079,-0.5310249924659729
1781034522692613400,18.57461328125,-1.3652374744415283,0.693274974822998,-0.4580124914646148
1781034522712137500,18.594137451171875,-1.3965874910354614,0.6632999777793884,-0.3863750100135803
1781034522731666700,18.613666748046874,-1.39205002784729,0.5993624925613403,-0.3240875005722046
1781034522751197700,18.63319775390625,-1.3612500429153442,0.506137490272522,-0.2773374915122986
1781034522770725400,18.652725341796877,-1.3209625482559204,0.3991625010967254,-0.2598749995231628
1781034522790252500,18.67225244140625,-1.2740750312805176,0.2803624868392944,-0.2705999910831451
1781034522809784800,18.691784912109377,-1.19941246509552,0.1287000030279159,-0.2793999910354614
1781034522829319400,18.7113193359375,-1.081162452697754,-0.0780999958515167,-0.255887508392334
1781034522848854800,18.730854736328126,-0.922487497329712,-0.33467498421669,-0.1920875012874603
1781034522868390000,18.750389892578124,-0.7382375001907349,-0.6140750050544739,-0.0963874980807304
1781034522887918300,18.76991845703125,-0.5411999821662903,-0.8896250128746033,0.0226875003427267
1781034522907442400,18.7894423828125,-0.3339875042438507,-1.1478500366210938,0.1680250018835067
1781034522926967800,18.8089677734375,-0.1153625026345253,-1.4011249542236328,0.3583250045776367
1781034522946494500,18.828494384765627,0.1039500012993812,-1.6542625427246094,0.6012874841690063
1781034522966021000,18.84802124023437,0.2939749956130981,-1.8757749795913696,0.8657000064849854
1781034522985547500,18.86754760742188,0.4141499996185303,-2.011625051498413,1.071125030517578
1781034523005076500,18.887076416015624,0.4393124878406524,-2.0198750495910645,1.1325875520706177
1781034523024607500,18.906607421875,0.3832125067710876,-1.910562515258789,1.0383999347686768
1781034523044136400,18.926136474609372,0.2886124849319458,-1.734837532043457,0.860337495803833
1781034523063662300,18.945662353515623,0.203087493777275,-1.5551249980926514,0.7045499682426453
1781034523083183400,18.965183349609376,0.1494625061750412,-1.41349995136261,0.6351125240325928
1781034523102706200,18.9847060546875,0.1211374998092651,-1.3135374784469604,0.6513375043869019
1781034523122235400,19.0042353515625,0.101062498986721,-1.2460249662399292,0.723800003528595
1781034523141762600,19.02376245117188,0.0800250023603439,-1.191575050354004,0.8075374960899353
1781034523161287200,19.043287109375,0.0604999996721744,-1.12681245803833,0.8586875200271606
1781034523180809700,19.062809814453125,0.0604999996721744,-1.12681245803833,0.8586875200271606
1781034523200332000,19.08233203125,0.0254375003278255,-0.8951249718666077,0.7482749819755554
1781034523219857000,19.10185693359375,0.0254375003278255,-0.8951249718666077,0.7482749819755554
1781034523239379000,19.12137890625,-0.0096249999478459,-0.6982250213623047,0.5629249811172485
1781034523258900500,19.140900390625,-0.0907500013709068,-0.233474999666214,0.0724624991416931
1781034523278427000,19.160427001953124,-0.0907500013709068,-0.233474999666214,0.0724624991416931
1781034523297958000,19.1799580078125,-0.1057374998927116,-0.0404249988496303,-0.1457500010728836
1781034523317490000,19.199489990234376,-0.1040875017642974,0.1073874980211258,-0.3082749843597412
1781034523337018000,19.21901806640625,-0.1024374961853027,0.2282499969005584,-0.4112625122070312
1781034523356543700,19.238543701171874,-0.1150875017046928,0.3393499851226806,-0.469837486743927
1781034523376068600,19.258068603515625,-0.1483625024557113,0.4474250078201294,-0.514662504196167
1781034523395592400,19.277592529296875,-0.2008875012397766,0.5411999821662903,-0.5649874806404114
1781034523415116500,19.297116455078125,-0.2657875120639801,0.6088500022888184,-0.6148999929428101
1781034523434640400,19.316640380859376,-0.3355000019073486,0.6558749675750732,-0.6469374895095825
1781034523454167600,19.33616748046875,-0.3965499997138977,0.6870874762535095,-0.6428124904632568
1781034523473696300,19.3556962890625,-0.4339500069618225,0.7012500166893005,-0.6001874804496765
1781034523493221600,19.3752216796875,-0.4419249892234802,0.6968500018119812,-0.5402374863624573
1781034523512743000,19.394742919921875,-0.418687492609024,0.6682500243186951,-0.4727250039577484
1781034523532263400,19.414263427734376,-0.3650625050067901,0.6114624738693237,-0.3788124918937683
1781034523551786500,19.43378637695313,-0.2905375063419342,0.5281375050544739,-0.2492875009775161
1781034523571309300,19.45330932617188,-0.2128500044345855,0.4240500032901764,-0.1091749966144561
1781034523590834000,19.472833984375,-0.1416250020265579,0.3038749992847442,0.0141624994575977
1781034523610361900,19.49236181640625,-0.06751249730587,0.1658249944448471,0.1295250058174133
1781034523629890600,19.511890625,0.0233750008046627,0.006874999962747,0.2668874859809875
1781034523649418000,19.53141796875,0.1321374922990799,-0.1698125004768371,0.4380750060081482
1781034523668940300,19.550940185546875,0.2534124851226806,-0.358049988746643,0.6422625184059143
1781034523688466000,19.5704658203125,0.381974995136261,-0.5505499839782715,0.8683124780654907
1781034523707992300,19.589992431640624,0.5094375014305115,-0.7309499979019165,1.0734624862670898
1781034523727517200,19.60951708984375,0.6338750123977661,-0.8816499710083008,1.2075250148773191
1781034523747046700,19.62904663085937,0.7565249800682068,-0.9773499965667723,1.2274625301361084
1781034523766574800,19.648574951171877,0.8733999729156494,-0.984499990940094,1.106874942779541
1781034523786098200,19.66809814453125,0.980650007724762,-0.8852249979972839,0.8600624799728394
1781034523805623800,19.687623779296874,1.0760749578475952,-0.6972625255584717,0.5440874695777893
1781034523825152300,19.70715234375,1.1642124652862549,-0.480287492275238,0.2407625019550323
1781034523844678400,19.72667846679688,1.2467124462127686,-0.3183124959468841,0.0292875003069639
1781034523864196400,19.7461962890625,1.3230249881744385,-0.2838000059127807,-0.0340999998152256
1781034523883713800,19.7657138671875,1.385450005531311,-0.3954499959945678,0.0556874983012676
1781034523903231700,19.785231689453123,1.405524969100952,-0.6011499762535095,0.2461249977350235
1781034523922752500,19.80475244140625,1.355062484741211,-0.8043749928474426,0.443574994802475
1781034523942280000,19.82428002929688,1.219349980354309,-0.8973249793052673,0.5473874807357788
1781034523961808400,19.843808349609372,1.0005874633789062,-0.8049250245094299,0.4952749907970428
1781034523981337600,19.86333764648437,0.7231125235557556,-0.5237374901771545,0.3004375100135803
1781034524000862700,19.88286279296875,0.7231125235557556,-0.5237374901771545,0.3004375100135803
1781034524020385500,19.90238549804688,0.0771375000476837,0.4666749835014343,-0.3038749992847442
1781034524039910000,19.92190991210937,-0.2780250012874603,1.059849977493286,-0.6267250180244446
1781034524059439400,19.941439453125,-0.2780250012874603,1.059849977493286,-0.6267250180244446
1781034524078972700,19.96097265625,-0.2780250012874603,1.059849977493286,-0.6267250180244446
1781034524098500400,19.980500244140625,-0.8743624687194824,1.901212453842163,-1.0345499515533447
1781034524118023400,20.0000234375,-0.9992125034332277,2.0498499870300293,-1.05421245098114
1781034524137547800,20.0195478515625,-0.9963250160217284,2.070749998092652,-0.9811999797821044
1781034524157077500,20.039077392578125,-0.897599995136261,2.011762380599976,-0.8501625061035156
1781034524176608800,20.05860888671875,-0.7302625179290771,1.8730249404907229,-0.6733375191688538
1781034524196136400,20.078136474609376,-0.5138375163078308,1.6179624795913696,-0.4394499957561493
1781034524215670500,20.09767041015625,-0.2734875082969665,1.1713625192642212,-0.1123374998569488
1781034524235202300,20.117202392578125,-0.0611874982714653,0.5198875069618225,0.3140499889850616
1781034524254728400,20.136728515625,0.0716374963521957,-0.2180749922990799,0.7721999883651733
1781034524274258400,20.15625854492188,0.1164624989032745,-0.8746374845504761,1.1518374681472778
1781034524293790200,20.175790283203124,0.1413500010967254,-1.3462624549865725,1.3583624362945557
1781034524313320700,20.19532080078125,0.2322375029325485,-1.6108125448226929,1.3535499572753906
1781034524332846000,20.21484619140625,0.3935250043869018,-1.643537521362305,1.1270874738693235
1781034524352366600,20.23436669921875,0.5460125207901001,-1.4012625217437744,0.6835125088691711
1781034524371890200,20.25389013671875,0.6137999892234802,-0.9267500042915344,0.1061500012874603
1781034524391417300,20.273417236328125,0.6056874990463257,-0.3859624862670898,-0.442062497138977
1781034524410944300,20.2929443359375,0.5758500099182129,0.0450999997556209,-0.8276125192642212
1781034524430468600,20.31246850585937,0.5487625002861023,0.2937000095844269,-1.0324875116348269
1781034524449989600,20.33198974609375,0.5300624966621399,0.3147374987602234,-1.055999994277954
1781034524469511200,20.35151123046875,0.5094375014305115,0.0569249987602233,-0.8608874678611755
1781034524489029600,20.371029541015623,0.4478375017642975,-0.4235000014305115,-0.4747875034809112
1781034524508548000,20.390548095703124,0.320374995470047,-0.9534249901771544,-0.0266750007867813
1781034524528065800,20.410065673828125,0.1595000028610229,-1.3671624660491943,0.3385249972343445
1781034524547586000,20.4295859375,0.0314874984323978,-1.6047624349594116,0.5553625226020813
1781034524567112000,20.44911181640625,-0.0327249988913536,-1.6660875082015991,0.6182000041007996
1781034524586636500,20.468636474609376,-0.0470249988138675,-1.5628249645233154,0.5440874695777893
1781034524606155000,20.488155029296877,-0.0369874984025955,-1.321375012397766,0.3645125031471252
1781034524625667600,20.50766748046875,-0.0312124993652105,-0.9838125109672546,0.1234750002622604
1781034524645184300,20.527184326171877,-0.0519750006496906,-0.612012505531311,-0.1237500011920929
1781034524664702500,20.546702392578126,-0.1098624989390373,-0.2697750031948089,-0.3366000056266784
1781034524684216000,20.56621606445313,-0.2040500044822693,0.0184249989688396,-0.5208500027656555
1781034524703731500,20.5857314453125,-0.3239499926567077,0.2814624905586242,-0.7207750082015991
1781034524723249000,20.605248779296875,-0.454025000333786,0.5659499764442444,-0.9693750143051147
1781034524742764000,20.624763916015624,-0.5739250183105469,0.8810999989509583,-1.2442375421524048
1781034524762282500,20.644282470703125,-0.6641250252723694,1.1929500102996826,-1.492287516593933
1781034524781800200,20.66380029296875,-0.7144500017166138,1.4547499418258667,-1.6790125370025637
1781034524801319200,20.683319091796875,-0.7211874723434448,1.627174973487854,-1.7873624563217163
1781034524820841700,20.702841796875,-0.7211874723434448,1.627174973487854,-1.7873624563217163
1781034524840359700,20.722359619140622,-0.6418499946594238,1.6933125257492063,-1.731124997138977
1781034524859877600,20.741877685546875,-0.5841000080108643,1.5969250202178955,-1.5204750299453735
1781034524879395800,20.761395751953124,-0.5841000080108643,1.5969250202178955,-1.5204750299453735
1781034524898915800,20.780915771484374,-0.46543750166893,1.264312505722046,-0.7821000218391418
1781034524918438700,20.800438720703124,-0.46543750166893,1.264312505722046,-0.7821000218391418
1781034524937961500,20.81996142578125,-0.4334000051021576,1.2883750200271606,0.0455125011503696
1781034524957484500,20.839484619140624,-0.4334000051021576,1.2883750200271606,0.0455125011503696
1781034524977006600,20.859006591796877,-0.4153875112533569,1.3708750009536743,0.4769875109195709
1781034524996526800,20.87852685546875,-0.3515875041484833,1.3707374334335327,0.9092875123023988
1781034525016050000,20.8980498046875,-0.0283249989151954,1.1145750284194946,1.7136625051498413
1781034525035571700,20.91757177734375,-0.0283249989151954,1.1145750284194946,1.7136625051498413
1781034525055089200,20.937089111328124,0.2437874972820282,0.9191874861717224,2.0504000186920166
1781034525074609700,20.956609619140625,0.5622375011444092,0.7225624918937683,2.3132998943328857
1781034525094136300,20.97613623046875,0.8991125226020813,0.5427125096321106,2.4956250190734863
1781034525113660700,20.99566064453125,1.2038124799728394,0.4147000014781952,2.571387529373169
1781034525133178000,21.01517822265625,1.4200999736785889,0.3975124955177307,2.5020875930786133
1781034525152696600,21.034696533203125,1.5164874792099,0.5088874697685242,2.2796125411987305
1781034525172217300,21.05421728515625,1.5085124969482422,0.6997374892234802,1.9428750276565552
1781034525191737000,21.073737060546875,1.4564000368118286,0.8915500044822693,1.575474977493286
1781034525211254300,21.093254150390624,1.4064874649047852,1.0390875339508057,1.2387374639511108
1781034525230774300,21.112774169921877,1.3800874948501587,1.1393250226974487,0.944350004196167
1781034525250297900,21.1322978515625,1.3782999515533447,1.191712498664856,0.679937481880188
1781034525269820200,21.15182006835937,1.396037459373474,1.195425033569336,0.4456374943256378
1781034525289341700,21.171341796875,1.4243625402450562,1.1581624746322632,0.258774995803833
1781034525308863000,21.190863037109374,1.4216125011444092,1.1035749912261963,0.1237500011920929
1781034525328384300,21.21038427734375,1.3303124904632568,1.0799249410629272,0.0206249989569187
1781034525347904800,21.22990478515625,1.1206250190734863,1.117050051689148,-0.0687500014901161
1781034525367427000,21.249427001953126,0.8282999992370605,1.1874500513076782,-0.1326874941587448
1781034525386950100,21.2689501953125,0.5321249961853027,1.238187551498413,-0.1478125005960464
1781034525406472200,21.28847216796875,0.2727999985218048,1.2456125020980835,-0.1187999993562698
1781034525425997300,21.307997314453125,0.0272249989211559,1.22979998588562,-0.0797500014305114
1781034525445521000,21.32752099609375,-0.2228875011205673,1.2010624408721924,-0.0555500015616416
1781034525465036000,21.3470361328125,-0.4467374980449676,1.1402875185012815,-0.0413874983787536
1781034525484555500,21.366555419921877,-0.6102250218391418,1.037850022315979,-0.0288750007748603
1781034525504076800,21.386076904296875,-0.7250375151634216,0.9169874787330629,-0.0272249989211559
1781034525523598000,21.40559814453125,-0.8458999991416931,0.8216999769210815,-0.0532125011086463
1781034525543121200,21.42512109375,-0.9998999834060668,0.7673875093460083,-0.106562502682209
1781034525562647800,21.444647705078125,-1.1483999490737915,0.7239375114440918,-0.1655499935150146
1781034525582175700,21.46417578125,-1.2517999410629272,0.6665999889373779,-0.2135374993085861
1781034525601700400,21.483700439453123,-1.3358124494552612,0.6175125241279602,-0.2619374990463257
1781034525621229000,21.50322900390625,-1.3358124494552612,0.6175125241279602,-0.2619374990463257
1781034525640753700,21.522753662109373,-1.4707000255584717,0.6238374710083008,-0.3388000130653381
1781034525660272400,21.5422724609375,-1.8453874588012693,0.7449749708175659,-0.5416125059127808
1781034525679794700,21.561794677734376,-1.94768750667572,0.7514374852180481,-0.5975750088691711
1781034525699316700,21.581316650390622,-1.94768750667572,0.7514374852180481,-0.5975750088691711
1781034525718839600,21.600839599609376,-1.94768750667572,0.7514374852180481,-0.5975750088691711
1781034525738364700,21.62036474609375,-1.9108375310897827,0.5733749866485596,-0.5788750052452087
1781034525757887700,21.6398876953125,-1.7693499326705933,0.3356375098228454,-0.5120499730110168
1781034525777411800,21.65941186523437,-1.555675029754639,0.0032999999821186,-0.4195125102996826
1781034525796936700,21.67893676757813,-1.3279750347137451,-0.3431999981403351,-0.3243624866008758
1781034525816462000,21.698462158203125,-1.0136499404907229,-0.8354499936103821,-0.2062499970197677
1781034525835988500,21.717988525390624,-1.0136499404907229,-0.8354499936103821,-0.2062499970197677
1781034525855511000,21.737510986328125,-0.955762505531311,-0.9840874671936036,-0.210099995136261
1781034525875035600,21.75703564453125,-0.9380249977111816,-1.0660375356674194,-0.2529999911785126
1781034525894557400,21.776557373046877,-0.9087374806404114,-1.0928499698638916,-0.3079999983310699
1781034525914078000,21.79607788085937,-0.8450750112533569,-1.0736000537872314,-0.3662999868392944
1781034525933606700,21.815606689453126,-0.7764624953269958,-1.0220375061035156,-0.4516874849796295
1781034525953130500,21.835130615234377,-0.7221499681472778,-0.9645624756813048,-0.5658124685287476
1781034525972650500,21.854650390625,-0.6528499722480774,-0.9374749660491944,-0.6613749861717224
1781034525992171500,21.874171630859376,-0.5458750128746033,-0.9703375101089478,-0.6991875171661377
1781034526011692800,21.89369287109375,-0.4291374981403351,-1.0604000091552734,-0.694100022315979
1781034526031214300,21.91321435546875,-0.3460874855518341,-1.1844249963760376,-0.6829624772071838
1781034526050736000,21.932736083984373,-0.3092375099658966,-1.3112000226974487,-0.6738874912261963
1781034526070256000,21.952256103515627,-0.3025000095367431,-1.416800022125244,-0.6550499796867371
1781034526089775000,21.971775146484376,-0.3023625016212463,-1.4917374849319458,-0.6187499761581421
1781034526109293600,21.99129345703125,-0.2923249900341034,-1.528725028038025,-0.561412513256073
1781034526128814000,22.01081396484375,-0.282150000333786,-1.525012493133545,-0.5026999711990356
1781034526148338700,22.03033862304688,-0.3008500039577484,-1.470425009727478,-0.4851000010967254
1781034526167869200,22.049869140625,-0.3566749989986419,-1.364274978637695,-0.5226374864578247
1781034526187400700,22.069400634765625,-0.4210250079631805,-1.2383249998092651,-0.5740625262260437
1781034526206926800,22.0889267578125,-0.4570499956607818,-1.128600001335144,-0.5857499837875366
1781034526226448600,22.10844873046875,-0.4504500031471252,-1.0478874444961548,-0.5376250147819519
1781034526245972500,22.127972412109376,-0.40191251039505,-0.985462486743927,-0.4281750023365021
1781034526265496300,22.147496337890622,-0.3198249936103821,-0.9277125000953674,-0.2648249864578247
1781034526285017900,22.167017822265624,-0.2282499969005584,-0.8636375069618225,-0.0892374962568283
1781034526304542000,22.1865419921875,-0.1546874940395355,-0.7841625213623047,0.038087498396635
1781034526324069400,22.2060693359375,-0.111237496137619,-0.6964374780654907,0.0923999994993209
1781034526343593700,22.22559375,-0.0875874981284141,-0.6206749677658081,0.104774996638298
1781034526363116300,22.2451162109375,-0.0661375001072883,-0.5702124834060669,0.1220999956130981
1781034526382645800,22.264645751953125,-0.0441375002264976,-0.5396875143051147,0.1491875052452087
1781034526402172000,22.284171875,-0.0287375003099441,-0.5110874772071838,0.1551000028848648
1781034526421693200,22.30369311523437,-0.0170499999076128,-0.4787749946117401,0.1405249983072281
1781034526441216800,22.323216796875,-0.0170499999076128,-0.4787749946117401,0.1405249983072281
1781034526460741000,22.3427412109375,0.0074249999597668,-0.4534749984741211,0.1545500010251999
1781034526480264000,22.362263916015625,0.050875000655651,-0.4450874924659729,0.2275625020265579
1781034526499785200,22.38178515625,0.0988624989986419,-0.453062504529953,0.3265624940395355
1781034526519307500,22.4013076171875,0.0988624989986419,-0.453062504529953,0.3265624940395355
1781034526538827000,22.420826904296877,0.172837495803833,-0.5343250036239624,0.5077875256538391
1781034526558344700,22.4403447265625,0.172837495803833,-0.5343250036239624,0.5077875256538391
1781034526577868300,22.459868408203125,0.2739000022411346,-0.7357624769210815,0.849887490272522
1781034526597397000,22.47939697265625,0.3267000019550323,-0.8137249946594238,0.9963250160217284
1781034526616924000,22.498923828125,0.4081000089645386,-0.805062472820282,0.9945374727249146
1781034526636443100,22.518443115234376,0.4081000089645386,-0.805062472820282,0.9945374727249146
1781034526655958500,22.53795849609375,0.443987488746643,-0.7203624844551086,0.888112485408783
1781034526675477800,22.55747778320313,0.47079998254776,-0.5637499690055847,0.7317749857902527
1781034526695002000,22.577002197265625,0.4754749834537506,-0.2898499965667724,0.4870249927043915
1781034526714525400,22.596525390625,0.4603500068187713,0.0772750005125999,0.1643124967813491
1781034526734050300,22.61605029296875,0.4537499845027923,0.4289999902248382,-0.1489125043153762
1781034526753573000,22.635572998046875,0.488812506198883,0.6335999965667725,-0.3368749916553497
1781034526773086200,22.655086181640623,0.5732374787330627,0.6422625184059143,-0.3522749841213226
1781034526792601300,22.67460131835937,0.6858500242233276,0.4925250113010406,-0.2264624983072281
1781034526812121600,22.69412158203125,0.7950249910354614,0.2296250015497207,0.0005499999970197
1781034526831638800,22.713638671875,0.8758749961853027,-0.1099999994039535,0.304562509059906
1781034526851152600,22.733152587890626,0.9098374843597412,-0.4908750057220459,0.6626124978065491
1781034526870669800,22.752669921875,0.8856375217437744,-0.8680375218391418,1.0298750400543213
1781034526890186500,22.7721865234375,0.8094624876976013,-1.198449969291687,1.3600125312805176
1781034526909700000,22.7917001953125,0.7039999961853027,-1.4529625177383425,1.6307499408721924
1781034526929216800,22.811216796875,0.5935875177383423,-1.6181000471115112,1.8215999603271484
1781034526948734200,22.830734130859376,0.489775002002716,-1.6792874336242676,1.8903499841690063
1781034526968252000,22.850251953125,0.3939374983310699,-1.6341874599456787,1.818300008773804
1781034526987773000,22.86977294921875,0.3070375025272369,-1.5101624727249146,1.6506874561309814
1781034527007292700,22.889292724609376,0.227974995970726,-1.33650004863739,1.4430625438690186
1781034527026813400,22.9088134765625,0.1545500010251999,-1.128600001335144,1.2200374603271484
1781034527046334700,22.92833471679688,0.0903374999761581,-0.8996624946594238,0.9941250085830688
1781034527065853400,22.947853515625,0.0415249988436698,-0.6697624921798706,0.7830625176429749
1781034527085376500,22.96737646484375,0.0097624994814395,-0.4547125101089477,0.5982624888420105
1781034527104897300,22.98689721679688,-0.0119624994695186,-0.2450249940156936,0.4269374907016754
1781034527124413700,23.00641357421875,-0.0368499979376792,-0.0059124999679625,0.2369125038385391
1781034527143931400,23.02593139648437,-0.0812624990940094,0.318450003862381,-0.0114124994724988
1781034527163448600,23.045448486328127,-0.1571625024080276,0.7585874795913696,-0.3312374949455261
1781034527182966300,23.06496630859375,-0.2639999985694885,1.268025040626526,-0.6886000037193298
1781034527202485800,23.08448583984375,-0.3894000053405761,1.7524374723434448,-1.029325008392334
1781034527222002200,23.104002197265626,-0.5148000121116638,2.1360623836517334,-1.311887502670288
1781034527241517600,23.123517578125,-0.6188874840736389,2.3871374130249023,-1.5131875276565552
1781034527261033700,23.14303369140625,-0.6804875135421753,2.5078625679016118,-1.62909996509552
1781034527280549600,23.162549560546875,-0.6876375079154968,2.5110249519348145,-1.6636124849319458
1781034527300067300,23.1820673828125,-0.6876375079154968,2.5110249519348145,-1.6636124849319458
1781034527319587800,23.201587890625,-0.6272749900817871,2.3564748764038086,-1.578225016593933
1781034527339107300,23.221107421875,-0.3533749878406524,1.2689875364303589,-0.7368624806404114
1781034527358631700,23.240631591796877,-0.3533749878406524,1.2689875364303589,-0.7368624806404114
1781034527378157600,23.260157470703124,-0.2385624945163726,0.4361499845981598,-0.0360249988734722
1781034527397676000,23.279676025390625,-0.1919499933719635,-0.3154250085353851,0.5926250219345093
1781034527417192700,23.29919262695313,-0.1735250055789947,-0.843287467956543,0.9693750143051147
1781034527436713500,23.31871337890625,-0.1274625062942505,-1.1433124542236328,1.0648000240325928
1781034527456234500,23.338234375,-0.0433125011622905,-1.2417625188827517,0.9290875196456908
1781034527475755300,23.35775537109375,0.0519750006496906,-1.1338249444961548,0.610087513923645
1781034527495275300,23.377275146484376,0.1275999993085861,-0.8519499897956848,0.1710499972105026
1781034527514794500,23.39679443359375,0.1797125041484832,-0.4967874884605407,-0.2785750031471252
1781034527534313000,23.41631298828125,0.2235749959945678,-0.1960749924182891,-0.6228749752044678
1781034527553828600,23.43582861328125,0.272662490606308,-0.0515624992549419,-0.7900750041007996
1781034527573345500,23.45534545898437,0.3258749842643738,-0.1023000031709671,-0.7690374851226807
1781034527592863000,23.474863037109376,0.3689124882221222,-0.3130874931812286,-0.6007375121116638
1781034527612382700,23.4943828125,0.3834874927997589,-0.5897374749183655,-0.3529624938964844
1781034527631897300,23.5138974609375,0.3565374910831451,-0.8168874979019165,-0.1165999993681907
1781034527651407000,23.53340698242188,0.2897124886512756,-0.8989750146865845,0.0155375003814697
1781034527670921700,23.552921630859377,0.2043250054121017,-0.8170250058174133,0.0112749999389052
1781034527690439400,23.572439453125,0.1288374960422516,-0.6344249844551086,-0.0886875018477439
1781034527709949200,23.59194921875,0.0785124972462654,-0.4338124990463257,-0.2223374992609024
1781034527729460500,23.61146044921875,0.0500499978661537,-0.2668874859809875,-0.3519999980926513
1781034527748974600,23.630974609375,0.0317624993622303,-0.1467124968767166,-0.4589749872684479
1781034527768491800,23.65049169921875,0.0127875003963708,-0.0765874981880188,-0.5182374715805054
1781034527788012500,23.670012451171875,-0.0203499998897314,-0.0464750006794929,-0.5249750018119812
1781034527807530500,23.689530517578124,-0.0851124972105026,-0.0160875003784894,-0.5168625116348267
1781034527827048400,23.70904833984375,-0.1882375031709671,0.0558249987661838,-0.5340499877929688
1781034527846570000,23.72857006835937,-0.3113000094890594,0.1692624986171722,-0.5805249810218811
1781034527866091000,23.748091064453124,-0.4192374944686889,0.2793999910354614,-0.6309875249862671
1781034527885610000,23.76760986328125,-0.4805625081062317,0.3416875004768371,-0.6665999889373779
1781034527905132300,23.78713232421875,-0.4833124876022339,0.3559874892234802,-0.694237470626831
1781034527924653600,23.806653564453125,-0.433537483215332,0.3485625088214874,-0.7053750157356262
1781034527944170000,23.826169921875,-0.3425124883651733,0.340312510728836,-0.6641250252723694
1781034527963684600,23.8456845703125,-0.2226125001907348,0.3430624902248382,-0.5568749904632568
1781034527983203800,23.865203857421875,-0.0932250022888183,0.36616250872612,-0.4163500070571899
1781034528002726000,23.884725830078125,0.0272249989211559,0.4017750024795532,-0.2727999985218048
1781034528022250800,23.904250732421875,0.1379124969244003,0.40727499127388,-0.0914374962449073
1781034528041774000,23.923774169921877,0.246812492609024,0.3434749841690063,0.165412500500679
1781034528061297000,23.943296875,0.3550249934196472,0.2184875011444091,0.4659875035285949
1781034528080819200,23.962819091796877,0.3550249934196472,0.2184875011444091,0.4659875035285949
1781034528100338000,23.982337890625,0.564300000667572,-0.0138875003904104,0.8969125151634216
1781034528119853000,24.00185302734375,0.564300000667572,-0.0138875003904104,0.8969125151634216
1781034528139368700,24.02136865234375,0.808775007724762,0.1597750037908554,0.8215624690055847
1781034528158888000,24.040887939453125,0.808775007724762,0.1597750037908554,0.8215624690055847
1781034528178409000,24.060408935546874,0.808775007724762,0.1597750037908554,0.8215624690055847
1781034528197927000,24.079927001953124,0.8827499747276306,0.8105624914169312,0.5016000270843506
1781034528217441300,24.099441162109372,0.8626750111579895,1.1780999898910522,0.4808374941349029
1781034528236955000,24.118954833984372,0.8626750111579895,1.1780999898910522,0.4808374941349029
1781034528256466400,24.13846655273437,0.8889374732971191,1.1298375129699707,0.5491750240325928
1781034528275979800,24.157979736328127,0.9333499670028688,0.9714375138282776,0.622737467288971
1781034528295496200,24.17749609375,1.0012749433517456,0.7345250248908997,0.6859874725341797
1781034528315013400,24.197013427734376,1.0707124471664429,0.4681875109672546,0.7095000147819519
1781034528334534100,24.2165341796875,1.0988999605178833,0.2653749883174896,0.6675624847412109
1781034528354055700,24.2360556640625,1.0466500520706177,0.2153249979019165,0.5579749941825867
1781034528373576700,24.25557666015625,0.916849970817566,0.3176249861717224,0.4057624936103821
1781034528393096200,24.27509619140625,0.7583125233650208,0.4848249852657318,0.2490125000476837
1781034528412617500,24.294617431640624,0.6252124905586243,0.6165499687194824,0.1237500011920929
1781034528432142000,24.31414208984375,0.5489000082015991,0.6439124941825867,0.0499125011265277
1781034528451662300,24.333662353515624,0.5306124687194824,0.5324000120162964,0.0272249989211559
1781034528471180800,24.353180908203125,0.5468375086784363,0.3000249862670898,0.0390499979257583
1781034528490702600,24.37270263671875,0.5587999820709229,0.0248875003308057,0.0521125011146068
1781034528510224100,24.39222412109375,0.5326749682426453,-0.2023999989032745,0.0331375002861022
1781034528529742000,24.4117421875,0.4705249965190887,-0.3481499850749969,-0.0185624994337558
1781034528549261800,24.43126171875,0.3925625085830688,-0.414837509393692,-0.0754875019192695
1781034528568783600,24.45078369140625,0.2986499965190887,-0.3777124881744385,-0.1307625025510788
1781034528588300800,24.47030078125,0.1684374958276748,-0.2003374993801117,-0.2128500044345855
1781034528607819500,24.489819580078127,-0.0115499999374151,0.1159124970436096,-0.3381125032901764
1781034528627340500,24.50934057617188,-0.2256374955177307,0.5009124875068665,-0.4736874997615814
1781034528646859000,24.52885888671875,-0.4384874999523163,0.8490625023841858,-0.5684249997138977
1781034528666378800,24.54837866210937,-0.6258999705314636,1.092437505722046,-0.6037625074386597
1781034528685896400,24.567896484375,-0.781000018119812,1.219349980354309,-0.5944125056266785
1781034528705412000,24.587412109375,-0.8969125151634216,1.2413499355316162,-0.551925003528595
1781034528724930000,24.606929931640625,-0.9865624904632568,1.217424988746643,-0.4844124913215637
1781034528744447700,24.62644775390625,-1.084874987602234,1.2386000156402588,-0.4102999866008758
1781034528763964700,24.64596459960937,-1.215499997138977,1.3487374782562256,-0.3524124920368194
1781034528783483600,24.665483642578124,-1.374037504196167,1.5120874643325806,-0.318450003862381
1781034528803005200,24.68500512695313,-1.5265250205993652,1.6420249938964844,-0.2899875044822693
1781034528822519800,24.704519775390622,-1.6458749771118164,1.6783249378204346,-0.2444749921560287
1781034528842033200,24.724033203125,-1.7113250494003296,1.5940375328063965,-0.1720124930143356
1781034528861549600,24.743549560546874,-1.7115999460220337,1.391362547874451,-0.0750750005245208
1781034528881065500,24.7630654296875,-1.7115999460220337,1.391362547874451,-0.0750750005245208
1781034528900580000,24.782580078125,-1.5642000436782837,0.7918624877929688,0.139562502503395
1781034528920094200,24.80209423828125,-1.4297250509262085,0.4514124989509582,0.254925012588501
1781034528939610400,24.8216103515625,-1.4297250509262085,0.4514124989509582,0.254925012588501
1781034528959125000,24.841125,-1.0366125106811523,-0.2492875009775161,0.5141124725341797
1781034528978639000,24.86063916015625,-0.7460749745368958,-0.654087483882904,0.6384124755859375
1781034528998151700,24.880151611328124,-0.7460749745368958,-0.654087483882904,0.6384124755859375
1781034529017667600,24.89966748046875,-0.0763124972581863,-1.485550045967102,0.8578624725341797
1781034529037182700,24.9191826171875,-0.0763124972581863,-1.485550045967102,0.8578624725341797
1781034529056696800,24.93869677734375,0.1988250017166137,-1.7392375469207764,0.9322500228881836
1781034529076214800,24.95821484375,0.3939374983310699,-1.8375500440597532,0.9772124886512756
1781034529095734500,24.977734619140627,0.4980250000953674,-1.825999975204468,1.014887452125549
1781034529115251700,24.997251708984376,0.5084750056266785,-1.7445999383926392,1.0623250007629397
1781034529134764800,25.016764892578124,0.443574994802475,-1.6304750442504885,1.112512469291687
1781034529154278100,25.036278076171875,0.3257375061511993,-1.5085124969482422,1.128600001335144
1781034529173791700,25.055791748046875,0.1775124967098236,-1.3880624771118164,1.0947749614715576
1781034529193309200,25.07530908203125,0.0274999998509883,-1.2831499576568604,1.0518749952316284
1781034529212834300,25.094834228515627,-0.0945999994874,-1.205049991607666,1.0661749839782717
1781034529232360400,25.1143603515625,-0.1825999915599823,-1.143725037574768,1.15568745136261
1781034529251880200,25.133880126953127,-0.2528625130653381,-1.0748374462127686,1.2704999446868896
1781034529271392800,25.153392822265623,-0.3242250084877014,-0.9861499667167664,1.3461250066757202
1781034529290910700,25.17291064453125,-0.408237487077713,-0.8828874826431274,1.3329249620437622
1781034529310435000,25.19243505859375,-0.4944500029087066,-0.7734375,1.2178374528884888
1781034529329959000,25.211958984375,-0.5597624778747559,-0.6663249731063843,1.046512484550476
1781034529349479400,25.2314794921875,-0.583549976348877,-0.5612750053405762,0.8808249831199646
1781034529369002200,25.251002197265624,-0.5607249736785889,-0.4475624859333038,0.743737518787384
1781034529388520400,25.2705205078125,-0.5121874809265137,-0.3150124847888946,0.5979874730110168
1781034529408040700,25.29004077148437,-0.4659875035285949,-0.1671999990940094,0.4003999829292297
1781034529427564000,25.30956396484375,-0.4397250115871429,-0.0233750008046627,0.1533125042915344
1781034529447080200,25.329080078125,-0.4358749985694885,0.0914374962449073,-0.1028499975800514
1781034529466593800,25.34859375,-0.4394499957561493,0.1601874977350235,-0.3053874969482422
1781034529486107000,25.36810693359375,-0.4232249855995178,0.1810874938964843,-0.3913249969482422
1781034529505623300,25.387623291015625,-0.3645125031471252,0.1643124967813491,-0.3278000056743622
1781034529525145600,25.4071455078125,-0.272112488746643,0.1287000030279159,-0.1530375033617019
1781034529544668700,25.426668701171877,-0.1882375031709671,0.0915749967098236,0.0254375003278255
1781034529564191200,25.446191162109372,-0.1518000066280365,0.055137500166893,0.1080750003457069
1781034529583715800,25.4657158203125,-0.1643124967813491,0.0089375004172325,0.0791999995708465
1781034529603238100,25.485238037109376,-0.1905750036239624,-0.057337500154972,0.0085249999538064
1781034529622761000,25.50476098632813,-0.1912624984979629,-0.1425874978303909,-0.0185624994337558
1781034529642283500,25.524283447265624,-0.151525005698204,-0.231962502002716,0.0320375002920627
1781034529661806600,25.543806640625,-0.0776875019073486,-0.3121249973773956,0.1430000066757202
1781034529681326800,25.56332690429688,0.017875000834465,-0.381424993276596,0.2766500115394592
1781034529700843300,25.58284326171875,0.017875000834465,-0.381424993276596,0.2766500115394592
1781034529720364300,25.6023642578125,0.1244374960660934,-0.4437125027179718,0.3965499997138977
1781034529739887400,25.62188745117188,0.2459875047206878,-0.5057250261306763,0.4889499843120575
1781034529759405600,25.641405517578125,0.571862518787384,-0.6355249881744385,0.6153125166893005
1781034529778925300,25.66092529296875,0.571862518787384,-0.6355249881744385,0.6153125166893005
1781034529798445800,25.68044580078125,0.571862518787384,-0.6355249881744385,0.6153125166893005
1781034529817963500,25.69996362304688,0.8848124742507935,-0.7298499941825867,0.6371750235557556
1781034529837488600,25.719488525390624,0.9822999835014344,-0.7508875131607056,0.6109125018119812
1781034529857014500,25.7390146484375,1.0448625087738037,-0.7562500238418579,0.5897374749183655
1781034529876534300,25.7585341796875,1.0680999755859375,-0.738099992275238,0.5781875252723694
1781034529896054300,25.77805419921875,1.0528374910354614,-0.6892874836921692,0.5733749866485596
1781034529915573800,25.79757373046875,1.0058125257492063,-0.607337474822998,0.5707625150680542
1781034529935097900,25.817097900390625,0.9394000172615052,-0.4962374866008758,0.5515124797821045
1781034529954627300,25.83662744140625,0.8615750074386597,-0.3565374910831451,0.4712125062942505
1781034529974157300,25.8561572265625,0.7741249799728394,-0.184249997138977,0.2934249937534332
1781034529993689300,25.875689453125,0.6814500093460083,0.0170499999076128,0.0324499979615211
1781034530013217300,25.89521728515625,0.5876749753952026,0.2352624982595443,-0.2649624943733215
1781034530032740900,25.914740966796877,0.4962374866008758,0.4510000050067901,-0.544362485408783
1781034530052265500,25.934265380859376,0.4109874963760376,0.6386874914169312,-0.7539125084877014
1781034530071789600,25.95378955078125,0.332749992609024,0.7855374813079834,-0.8794500231742859
1781034530091311000,25.97331103515625,0.2574000060558319,0.8977375030517578,-0.9553499817848206
1781034530110830800,25.992830810546877,0.178749993443489,0.9807875156402588,-1.0185999870300293
1781034530130351000,26.01235107421875,0.1025749966502189,1.0269875526428225,-1.0584750175476074
1781034530149877200,26.031877197265626,0.045924998819828,1.0133750438690186,-1.0175000429153442
1781034530169406700,26.05140673828125,0.0191124994307756,0.9299125075340272,-0.8644624948501587
1781034530188935700,26.070935791015625,0.0063249999657273,0.8122124671936035,-0.6608250141143799
1781034530208464400,26.09046435546875,-0.0230999998748302,0.7210500240325928,-0.5164499878883362
1781034530227988200,26.10998828125,-0.0819500014185905,0.6980875134468079,-0.4856500029563904
1781034530247514000,26.12951416015625,-0.1593624949455261,0.7378249764442444,-0.5365250110626221
1781034530267040800,26.149040771484376,-0.2370499968528747,0.7917249798774719,-0.5972999930381775
1781034530286567000,26.16856689453125,-0.2993375062942505,0.7870500087738037,-0.5989499688148499
1781034530306093000,26.18809301757813,-0.3196874856948852,0.6393749713897705,-0.4842749834060669
1781034530325619200,26.207619140625,-0.2776125073432922,0.3209249973297119,-0.2501125037670135
1781034530345148400,26.2271484375,-0.1882375031709671,-0.0738374963402748,0.0120999999344348
1781034530364676900,26.2466767578125,-0.0860750004649162,-0.3772999942302704,0.1689874976873397
1781034530384204300,26.266204345703127,0.0016499999910593,-0.4575999975204468,0.1282874941825866
1781034530403730200,26.28573022460937,0.0659999996423721,-0.3016749918460846,-0.1117874979972839
1781034530423254300,26.305254150390624,0.1086250022053718,0.0059124999679625,-0.4778124988079071
1781034530442776300,26.3247763671875,0.135574996471405,0.3404499888420105,-0.8494749665260315
1781034530462297000,26.344297119140624,0.1557874977588653,0.589187502861023,-1.1185624599456787
1781034530481819000,26.36381884765625,0.1658249944448471,0.6980875134468079,-1.2486374378204346
1781034530501343000,26.383343017578124,0.1491875052452087,0.671412467956543,-1.2586749792099
1781034530520871400,26.402871337890623,0.0987249985337257,0.5502749681472778,-1.186900019645691
1781034530540398600,26.422398681640622,0.0262624993920326,0.3859624862670898,-1.066312551498413
1781034530559925800,26.44192578125,-0.0483999997377395,0.2235749959945678,-0.9290875196456908
1781034530579452700,26.46145263671875,-0.0483999997377395,0.2235749959945678,-0.9290875196456908
1781034530598978300,26.48097827148437,-0.1647250056266784,0.0002749999985098,-0.7325999736785889
1781034530618501000,26.500501220703125,-0.2089999914169311,-0.0720499977469444,-0.671412467956543
1781034530638023200,26.52002319335937,-0.2089999914169311,-0.0720499977469444,-0.671412467956543
1781034530657548800,26.539548828125,-0.2483250051736831,-0.1347499936819076,-0.6107749938964844
1781034530677075200,26.5590751953125,-0.2828375101089477,-0.2072124928236007,-0.514662504196167
1781034530696605200,26.578605224609376,-0.3102000057697296,-0.3075875043869018,-0.3451249897480011
1781034530716138000,26.598137939453125,-0.3363249897956848,-0.4218499958515167,-0.1251250058412552
1781034530735666700,26.61766674804688,-0.3764750063419342,-0.4985750019550323,0.0475750006735324
1781034530755189800,26.637189697265622,-0.4366999864578247,-0.4943124949932098,0.0879999995231628
1781034530774713900,26.6567138671875,-0.5044875144958496,-0.4204750061035156,0.016499999910593
1781034530794236200,26.67623608398437,-0.5603125095367432,-0.3238124847412109,-0.0783749967813491
1781034530813761500,26.695761474609377,-0.5906999707221985,-0.2441999912261963,-0.1267749965190887
1781034530833290000,26.7152900390625,-0.5906999707221985,-0.2441999912261963,-0.1267749965190887
1781034530852814300,26.734814453125,-0.5658124685287476,-0.2116124927997589,-0.0364375002682209
1781034530872333000,26.7543330078125,-0.5124624967575073,-0.2628999948501587,0.0445500016212463
1781034530891855000,26.77385522460937,-0.4463250041007995,-0.3332999944686889,0.106562502682209
1781034530911379200,26.793379150390624,-0.3826625049114227,-0.3955875039100647,0.1502874940633773
1781034530930903800,26.81290380859375,-0.3331624865531921,-0.4379374980926513,0.1922249943017959
1781034530950430500,26.832430419921877,-0.2967250049114227,-0.4710749983787536,0.2454375028610229
1781034530969955300,26.851955322265624,-0.2619374990463257,-0.5134249925613403,0.3048374950885772
1781034530989476600,26.8714765625,-0.2167000025510788,-0.5836874842643738,0.358599990606308
1781034531009002000,26.891001953125,-0.1545500010251999,-0.6987749934196472,0.4215750098228454
1781034531028526800,26.91052685546875,-0.084425002336502,-0.8597875237464905,0.5160375237464905
1781034531048051700,26.9300517578125,-0.0276375003159046,-1.037850022315979,0.6375874876976013
1781034531067580200,26.949580078125,0.0004124999977648,-1.199962496757507,0.7922750115394592
1781034531087103700,26.969103759765623,-0.0027499999850988,-1.3243999481201172,1.003749966621399
1781034531106625300,26.988625244140625,-0.0317624993622303,-1.3804999589920044,1.2502875328063965
1781034531126151000,27.00815087890625,-0.0752125009894371,-1.3092750310897827,1.4187250137329102
1781034531145676800,27.0276767578125,-0.116737499833107,-1.0565500259399414,1.371837496757507
1781034531165201700,27.04720166015625,-0.1458874940872192,-0.6186124682426453,1.0645250082015991
1781034531184731100,27.06673120117188,-0.166374996304512,-0.0512874983251094,0.55673748254776
1781034531204261600,27.08626171875,-0.1850749999284744,0.5424374938011169,-0.0189750008285045
1781034531223789600,27.10578955078125,-0.2094125002622604,1.1037124395370483,-0.5733749866485596
1781034531243317200,27.125317138671875,-0.2483250051736831,1.6145249605178833,-1.0757999420166016
1781034531262843000,27.1448427734375,-0.305525004863739,2.0453124046325684,-1.4816999435424805
1781034531282363600,27.16436376953125,-0.3598375022411346,2.3423125743865967,-1.7223249673843384
1781034531301884700,27.183884765625,-0.3711124956607818,2.444887399673462,-1.7514749765396118
1781034531321405700,27.20340576171875,-0.320374995470047,2.3732500076293945,-1.6216750144958496
1781034531340925700,27.22292578125,-0.320374995470047,2.3732500076293945,-1.6216750144958496
1781034531360445200,27.242445068359373,-0.0281875003129243,1.7531249523162842,-1.0714000463485718
1781034531379969500,27.261969482421875,0.2065249979496002,1.1455124616622925,-0.6487249732017517
1781034531399498000,27.281498046875,0.2065249979496002,1.1455124616622925,-0.6487249732017517
1781034531419022800,27.30102294921875,0.2065249979496002,1.1455124616622925,-0.6487249732017517
1781034531438545700,27.320545654296875,0.6657750010490417,-0.2443374991416931,0.2184875011444091
1781034531458068000,27.34006787109375,0.8321499824523926,-0.7387874722480774,0.4529249966144562
1781034531477590000,27.359590087890624,0.956725001335144,-1.0394999980926514,0.5220875144004822
1781034531497116200,27.3791162109375,1.0456874370574951,-1.1976250410079956,0.516587495803833
1781034531516645000,27.39864501953125,1.0975250005722046,-1.2716000080108645,0.5351499915122986
1781034531536169700,27.418169677734376,1.120212435722351,-1.3116124868392944,0.611050009727478
1781034531555689500,27.437689453125,1.1127874851226809,-1.327012538909912,0.7016624808311462
1781034531575213000,27.457213134765624,1.0683749914169312,-1.2970374822616575,0.7401624917984009
1781034531594733300,27.4767333984375,0.9879375100135804,-1.176587462425232,0.6774625182151794
1781034531614246700,27.49624658203125,0.870787501335144,-0.921387493610382,0.5050374865531921
1781034531633763600,27.515763671875,0.870787501335144,-0.921387493610382,0.5050374865531921
1781034531653284400,27.535284423828124,0.5431249737739563,-0.1732500046491623,0.0567874982953071
1781034531672802000,27.554802001953124,0.3603875041007995,0.1347499936819076,-0.089649997651577
1781034531692316400,27.57431640625,0.1963499933481216,0.3449875116348266,-0.1700875014066696
1781034531711836200,27.593836181640626,0.0705375000834465,0.4811125099658966,-0.2116124927997589
1781034531731357000,27.61335693359375,-0.0138875003904104,0.5816249847412109,-0.2431000024080276
1781034531750872300,27.632872314453124,-0.0728750005364418,0.6837875247001648,-0.2862749993801117
1781034531770391000,27.65239111328125,-0.1267749965190887,0.7962625026702881,-0.3431999981403351
1781034531789913300,27.671913330078127,-0.1865874975919723,0.8960874676704407,-0.3982000052928924
1781034531809434400,27.69143432617188,-0.2508000135421753,0.9447624683380128,-0.4273499846458435
1781034531828955000,27.71095483398437,-0.3097875118255615,0.9107999801635742,-0.4076874852180481
1781034531848478500,27.730478515625,-0.3508999943733215,0.7799000144004822,-0.3301374912261963
1781034531868003600,27.75000366210937,-0.3660250008106231,0.561412513256073,-0.2029500007629394
1781034531887525400,27.769525390625,-0.3609375059604645,0.2982375025749206,-0.0556874983012676
1781034531907041800,27.789041748046877,-0.3518624901771545,0.0544499978423118,0.0695749968290329
1781034531926559200,27.808559326171878,-0.3639625012874603,-0.1084875017404556,0.1263625025749206
1781034531946079700,27.828079833984376,-0.4122250080108642,-0.1616999953985214,0.0864875018596649
1781034531965597200,27.84759716796875,-0.4824874997138977,-0.1322750002145767,-0.0175999999046325
1781034531985113600,27.867113525390625,-0.5442249774932861,-0.0820875018835067,-0.1113749966025352
1781034532004633900,27.8866337890625,-0.5758500099182129,-0.0607750006020069,-0.1421750038862228
1781034532024157000,27.90615698242188,-0.5792874693870544,-0.0750750005245208,-0.1138499975204467
1781034532043680300,27.92568017578125,-0.5647125244140625,-0.1050499975681305,-0.0533500015735626
1781034532063200000,27.94519995117188,-0.5399624705314636,-0.1343374997377395,0.0252999998629093
1781034532082726100,27.96472607421875,-0.518512487411499,-0.1482249945402145,0.0893749967217445
1781034532102250000,27.98425,-0.5159000158309937,-0.1296624988317489,0.0847000032663345
1781034532121769200,28.00376928710937,-0.5389999747276306,-0.0699874982237815,-0.0079749999567866
1781034532141290000,28.0232900390625,-0.5761250257492065,0.0214499998837709,-0.1430000066757202
1781034532160812000,28.04281201171875,-0.5761250257492065,0.0214499998837709,-0.1430000066757202
1781034532180335000,28.062335205078124,-0.6032124757766724,0.1192125007510185,-0.245849996805191
1781034532199858700,28.081858642578126,-0.6033499836921692,0.1920875012874603,-0.2703250050544739
1781034532219382800,28.1013828125,-0.6033499836921692,0.1920875012874603,-0.2703250050544739
1781034532238904000,28.12090405273437,-0.5240125060081482,0.1878249943256378,-0.1054624989628791
1781034532258423600,28.140423583984376,-0.5240125060081482,0.1878249943256378,-0.1054624989628791
1781034532277941200,28.159941162109376,-0.4383499920368194,0.0499125011265277,0.057337500154972
1781034532297459200,28.179459228515626,-0.4089249968528747,-0.0273624993860721,0.0917124971747398
1781034532316976000,28.19897607421875,-0.3817000091075897,-0.1023000031709671,0.1111000031232833
1781034532336491300,28.2184912109375,-0.3557125031948089,-0.1677500009536743,0.1076624989509582
1781034532356007200,28.238007080078123,-0.3331624865531921,-0.2146375030279159,0.0752125009894371
1781034532375523300,28.2575234375,-0.3133625090122223,-0.2364999949932098,0.0270875003188848
1781034532395037700,28.27703759765625,-0.2963125109672546,-0.2307250052690506,-0.0211750008165836
1781034532414554400,28.296554443359376,-0.2827000021934509,-0.2035000026226043,-0.0613249987363815
1781034532434074000,28.31607421875,-0.2827000021934509,-0.2035000026226043,-0.0613249987363815
1781034532453593300,28.33559326171875,-0.2604250013828277,-0.1486375033855438,-0.0999625027179718
1781034532473111000,28.355111083984376,-0.245849996805191,-0.1447875052690506,-0.1009249985218048
1781034532492630500,28.374630615234373,-0.2250874936580658,-0.1546874940395355,-0.0915749967098236
1781034532512150500,28.394150634765627,-0.1908500045537948,-0.1692624986171722,-0.0627000033855438
1781034532531673300,28.41367333984375,-0.1390125006437301,-0.178749993443489,-0.0086624994874
1781034532551196700,28.43319677734375,-0.0811249986290931,-0.1685750037431717,0.0328624993562698
1781034532570722000,28.45272216796875,-0.0417999997735023,-0.1274625062942505,-0.0010999999940395
1781034532590243600,28.47224365234375,-0.0298375003039836,-0.0716374963521957,-0.0925374999642372
1781034532609763800,28.491763916015625,-0.0261249989271163,-0.0449624992907047,-0.1258125007152557
1781034532629286000,28.511285888671875,-0.0081124994903802,-0.0787874981760978,-0.0089375004172325
1781034532648806700,28.530806640625,0.024337500333786,-0.159912496805191,0.2231625020503997
1781034532668328000,28.55032788085937,0.056512501090765,-0.2479124963283538,0.4611749947071075
1781034532687850200,28.56985034179688,0.0780999958515167,-0.3073124885559082,0.6184750199317932
1781034532707375400,28.589375244140623,0.0855249986052513,-0.3170749843120575,0.6450124979019165
1781034532726899200,28.60889916992188,0.0829124972224235,-0.2752749919891357,0.5391374826431274
1781034532746419200,28.62841918945313,0.0801625028252601,-0.1988250017166137,0.3557125031948089
1781034532765942000,28.64794189453125,0.0895124971866607,-0.1174250021576881,0.1831499934196472
1781034532785468000,28.667468017578123,0.1171500012278556,-0.05884999781847,0.0912999957799911
1781034532804993300,28.6869931640625,0.1603250056505203,-0.0334125012159347,0.0915749967098236
1781034532824519700,28.706519775390625,0.2106499969959259,-0.0339624993503093,0.1483625024557113
1781034532844044300,28.726044189453123,0.2572624981403351,-0.0478499978780746,0.213125005364418
1781034532863567000,28.745567138671877,0.2958999872207641,-0.0734250023961067,0.2688125073909759
1781034532883086000,28.765086181640623,0.3306874930858612,-0.1212750002741813,0.3269749879837036
1781034532902601200,28.78460131835937,0.3621749877929687,-0.1970375031232834,0.3847250044345855
1781034532922120000,28.80411987304688,0.3847250044345855,-0.296037495136261,0.4160749912261963
1781034532941638700,28.823638671875,0.3918749988079071,-0.4090625047683716,0.4101625084877014
1781034532961155000,28.843155029296877,0.3918749988079071,-0.4090625047683716,0.4101625084877014
1781034532980675300,28.86267529296875,0.3777124881744385,-0.6467999815940857,0.4977499842643738
1781034533000198400,28.882198486328125,0.3777124881744385,-0.6467999815940857,0.4977499842643738
1781034533019723800,28.901723876953124,0.3723500072956085,-0.7229750156402588,0.6391000151634216
1781034533039248600,28.92124853515625,0.3650625050067901,-0.7225624918937683,0.739062488079071
1781034533058773500,28.9407734375,0.3232625126838684,-0.478362500667572,0.5303375124931335
1781034533078297300,28.96029736328125,0.3232625126838684,-0.478362500667572,0.5303375124931335
1781034533097820400,28.9798203125,0.2991999983787536,-0.3264249861240387,0.3455374836921692
1781034533117344000,28.999343994140624,0.2854500114917755,-0.2287999987602234,0.2510749995708465
1781034533136867600,29.01886767578125,0.2873750030994415,-0.2028124928474426,0.2688125073909759
1781034533156388000,29.03838818359375,0.3031874895095825,-0.2188999950885772,0.3335750102996826
1781034533175910000,29.057909912109373,0.3280749917030334,-0.2239875048398971,0.3572250008583069
1781034533195433700,29.077433837890624,0.3581874966621399,-0.170912504196167,0.2873750030994415
1781034533214953200,29.096953125,0.3918749988079071,-0.0515624992549419,0.1424500048160553
1781034533234473200,29.11647314453125,0.4291374981403351,0.1018875017762184,-0.0163624994456768
1781034533253992400,29.135992431640624,0.4637874960899353,0.2404875010251999,-0.1357125043869018
1781034533273513500,29.155513427734373,0.4881249964237213,0.3192749917507171,-0.1882375031709671
1781034533293039000,29.1750390625,0.4996750056743622,0.3118500113487243,-0.1649999916553497
1781034533312562700,29.194562744140622,0.4963749945163727,0.2278375029563903,-0.0930875018239021
1781034533332078600,29.21407861328125,0.4787749946117401,0.1220999956130981,-0.0534874983131885
1781034533351591700,29.233591796875,0.4518249928951263,0.0629749968647956,-0.1225124970078468
1781034533371109000,29.25310913085937,0.4237749874591827,0.0837375000119209,-0.2937000095844269
1781034533390628600,29.272628662109376,0.4042499959468841,0.1623875051736831,-0.4827624857425689
1781034533410153700,29.29215380859375,0.3920125067234039,0.2495625019073486,-0.6104999780654907
1781034533429680400,29.311680419921878,0.3790875077247619,0.2975499927997589,-0.6403374671936035
1781034533449205200,29.331205322265625,0.35708749294281,0.2758249938488006,-0.5625125169754028
1781034533468724000,29.35072387695313,0.3228499889373779,0.1879625022411346,-0.3944875001907348
1781034533488237000,29.370237060546877,0.2810499966144562,0.0669625028967857,-0.1729750037193298
1781034533507755000,29.389755126953126,0.2375999987125396,-0.0437249988317489,0.0577500015497207
1781034533527276000,29.40927612304688,0.1926375031471252,-0.0937749966979026,0.2216500043869018
1781034533546800000,29.428800048828126,0.14011250436306,-0.0466125011444091,0.2322375029325485
1781034533566328600,29.44832861328125,0.0819500014185905,0.0756250023841857,0.1011999994516372
1781034533585854200,29.46785424804688,0.0349249988794326,0.1953874975442886,-0.0426249988377094
1781034533605376500,29.48737646484375,0.0137499999254941,0.2523125112056732,-0.0847000032663345
1781034533624897500,29.5068974609375,0.0133375003933906,0.2560249865055084,-0.0364375002682209
1781034533644423200,29.526423095703127,0.0148499999195337,0.2557500004768371,0.016499999910593
1781034533663952000,29.545951904296874,0.0054999999701976,0.2829749882221222,0.0208999998867511
1781034533683478800,29.565478759765625,-0.0149875003844499,0.3407250046730041,-0.0266750007867813
1781034533703003000,29.5850029296875,-0.0367125011980533,0.4131875038146972,-0.0987249985337257
1781034533722528300,29.6045283203125,-0.0493624992668628,0.4899125099182129,-0.1660999953746795
1781034533742054400,29.624054443359373,-0.0521125011146068,0.5781875252723694,-0.2316875010728836
1781034533761577000,29.643576904296875,-0.054587498307228,0.6868125200271606,-0.3170749843120575
1781034533781099800,29.663099853515625,-0.054587498307228,0.6868125200271606,-0.3170749843120575
1781034533800620000,29.6826201171875,-0.0661375001072883,0.8069875240325928,-0.4214375019073486
1781034533820137200,29.70213720703125,-0.0926750004291534,0.9131374955177308,-0.5170000195503235
1781034533839655200,29.7216552734375,-0.1956624984741211,1.0366125106811523,-0.6395124793052673
1781034533859175200,29.74117504882813,-0.1956624984741211,1.0366125106811523,-0.6395124793052673
1781034533878694100,29.760694091796875,-0.2627624869346618,1.0573749542236328,-0.6898375153541565
1781034533898214400,29.78021435546875,-0.2627624869346618,1.0573749542236328,-0.6898375153541565
1781034533917736000,29.79973583984375,-0.2619374990463257,1.0741499662399292,-0.7272375226020813
1781034533937256400,29.81925634765625,-0.2512125074863434,1.0742875337600708,-0.7761874794960022
1781034533956773600,29.838773681640625,-0.2228875011205673,0.9634624719619752,-0.7756375074386597
1781034533976292600,29.85829272460937,-0.1537249982357025,0.6500999927520752,-0.6624749898910522
1781034533995813600,29.877813720703124,-0.0285999998450279,0.1304875016212463,-0.4343625009059906
1781034534015335700,29.897335693359373,0.3796375095844269,-1.4038749933242798,0.3544749915599823
1781034534034861600,29.916861572265624,0.3796375095844269,-1.4038749933242798,0.3544749915599823
1781034534054387200,29.93638720703125,0.602524995803833,-2.463175058364868,1.023137450218201
1781034534073909200,29.9559091796875,0.7176125049591064,-3.624500036239624,1.8591375350952148
1781034534093428000,29.975427978515626,0.6353874802589417,-4.65698766708374,2.6574625968933105
1781034534112948700,29.99494873046875,0.3951750099658966,-5.210837364196777,2.795650005340576
1781034534132471000,30.014470947265625,0.1163249984383583,-5.038274765014648,2.468400001525879
1781034534151988000,30.03398803710937,-0.0747999995946884,-4.202549934387207,2.024549961090088
1781034534171502600,30.053502685546874,-0.1229249984025955,-3.0079500675201416,1.291949987411499
1781034534191020300,30.073020263671875,-0.0870374962687492,-1.806749939918518,0.5097125172615051
1781034534210543000,30.092543212890625,-0.0177375003695487,-0.7298499941825867,-0.2245374917984008
1781034534230068200,30.112068115234376,0.0631124973297119,0.2700499892234802,-0.9174000024795532
1781034534249590800,30.1315908203125,0.127187505364418,1.2300750017166138,-1.5552624464035034
1781034534269111300,30.151111328125,0.133650004863739,2.138400077819824,-2.101137399673462
1781034534288632300,30.17063232421875,0.0493624992668628,2.9191250801086426,-2.4978249073028564
1781034534308154600,30.190154541015627,-0.1212750002741813,3.45523738861084,-2.6780874729156494
1781034534327684000,30.20968408203125,-0.333712488412857,3.677025079727173,-2.6333999633789062
1781034534347211000,30.2292109375,-0.5274500250816345,3.6051125526428223,-2.425912380218506
1781034534366733300,30.2487333984375,-0.650237500667572,3.296562433242798,-2.126162528991699
1781034534386258700,30.2682587890625,-0.6670125126838684,2.7703499794006348,-1.7626124620437622
1781034534405781200,30.28778125,-0.5700749754905701,2.024275064468384,-1.3326499462127686
1781034534425307000,30.307306884765627,-0.3969624936580658,1.1262625455856323,-0.8483750224113464
1781034534444835000,30.3268349609375,-0.2127124965190887,0.2191749960184097,-0.3445749878883362
1781034534464359200,30.346359130859376,-0.070262499153614,-0.5539875030517578,0.1264999955892563
1781034534483886000,30.365885986328124,0.014024999924004,-1.1138875484466553,0.5084750056266785
1781034534503414000,30.3854140625,0.0533500015735626,-1.377750039100647,0.7244874835014343
1781034534522940400,30.4049404296875,0.1036750003695488,-1.277787446975708,0.7128000259399414
1781034534542468900,30.42446875,0.2301750034093856,-0.8799999952316284,0.5172749757766724
1781034534561997300,30.443997314453124,0.2364999949932098,-0.359562486410141,0.2743124961853027
1781034534581520600,30.463520751953126,0.1511124968528747,0.1454750001430511,0.0892374962568283
1781034534601042200,30.483042236328124,0.1511124968528747,0.1454750001430511,0.0892374962568283
1781034534620565800,30.502565673828126,0.3097875118255615,0.622737467288971,-0.0345125012099742
1781034534640094500,30.522094482421878,0.5685625076293945,1.1650375127792358,-0.1700875014066696
1781034534659620900,30.541620849609377,0.6936874985694885,1.817887544631958,-0.3377000093460083
1781034534679147300,30.56114721679688,0.6773250102996826,2.953774929046631,-0.4303750097751617
1781034534698676200,30.58067626953125,0.6773250102996826,2.953774929046631,-0.4303750097751617
1781034534718200800,30.60020092773437,0.6575250029563904,3.1219375133514404,-0.2804999947547912
