time,seconds_elapsed,z,y,x
1780564876212388900,1.835388916015625,-0.1036269962787628,0.5740000009536743,-1.9055429697036743
1780564876231921200,1.854921142578125,0.0325989983975887,1.144961953163147,-2.733239889144897
1780564876251453700,1.87445361328125,0.0325989983975887,1.144961953163147,-2.733239889144897
1780564876270977500,1.8939775390625,-0.2915810048580169,1.351444959640503,-2.9009571075439453
1780564876290499800,1.913499755859375,-0.2915810048580169,1.351444959640503,-2.9009571075439453
1780564876310027300,1.93302734375,-0.2915810048580169,1.351444959640503,-2.9009571075439453
1780564876329557500,1.9525576171875,0.7175490260124207,1.3259270191192627,-3.498450994491577
1780564876349086700,1.972086669921875,0.7175490260124207,1.3259270191192627,-3.498450994491577
1780564876368615700,1.99161572265625,1.392634034156799,0.644798994064331,-2.982075929641724
1780564876388143000,2.01114306640625,1.392634034156799,0.644798994064331,-2.982075929641724
1780564876407670500,2.03067041015625,1.1619060039520264,-0.0016319999704137,-0.9658830165863036
1780564876427206100,2.0502060546875,1.1619060039520264,-0.0016319999704137,-0.9658830165863036
1780564876446743600,2.06974365234375,0.4001969993114471,-0.1278389990329742,-0.5870230197906494
1780564876466274000,2.089274169921875,0.4001969993114471,-0.1278389990329742,-0.5870230197906494
1780564876485802500,2.108802490234375,-0.4142650067806244,0.0272840000689029,-0.9298160076141356
1780564876505334500,2.12833447265625,-0.4142650067806244,0.0272840000689029,-0.9298160076141356
1780564876524863200,2.14786328125,-1.2255569696426392,0.0790600031614303,-0.8190619945526123
1780564876544390700,2.167390625,-1.2255569696426392,0.0790600031614303,-0.8190619945526123
1780564876563918000,2.18691796875,-1.8346649408340452,-0.1166139990091323,0.2111449986696243
1780564876583444500,2.206444580078125,-1.8346649408340452,-0.1166139990091323,0.2111449986696243
1780564876602973700,2.2259736328125,-1.9982210397720337,-0.2236460000276565,0.9396550059318542
1780564876622503400,2.24550341796875,-1.9982210397720337,-0.2236460000276565,0.9396550059318542
1780564876642029300,2.265029296875,-2.1480960845947266,0.0308379996567964,0.7411940097808838
1780564876661550800,2.28455078125,-2.1480960845947266,0.0308379996567964,0.7411940097808838
1780564876681074400,2.304074462890625,-2.400338888168335,0.578935980796814,-0.1229820027947425
1780564876700601300,2.323601318359375,-2.400338888168335,0.578935980796814,-0.1229820027947425
1780564876720127500,2.34312744140625,-2.397602081298828,1.0533210039138794,-1.123155951499939
1780564876739650600,2.362650634765625,-2.397602081298828,1.0533210039138794,-1.123155951499939
1780564876759173000,2.382173095703125,-1.974637985229492,1.4103540182113647,-2.098942995071411
1780564876778700000,2.401699951171875,-1.974637985229492,1.4103540182113647,-2.098942995071411
1780564876798235000,2.42123486328125,-1.311614990234375,1.839100956916809,-3.0601179599761963
1780564876817772800,2.440772705078125,-1.311614990234375,1.839100956916809,-3.0601179599761963
1780564876837309200,2.46030908203125,-1.0624879598617554,2.0703229904174805,-3.3893039226531982
1780564876856844000,2.479843994140625,-1.0624879598617554,2.0703229904174805,-3.3893039226531982
1780564876876380400,2.49938037109375,-1.254384994506836,2.0874009132385254,-3.1721460819244385
1780564876895915800,2.518915771484375,-1.254384994506836,2.0874009132385254,-3.1721460819244385
1780564876915448000,2.538447998046875,-0.9926900267601012,1.9461090564727783,-2.544632911682129
1780564876934974700,2.557974609375,-0.9926900267601012,1.9461090564727783,-2.544632911682129
1780564876954507300,2.57750732421875,-0.1503410041332245,1.4159079790115356,-0.328601986169815
1780564876974047000,2.597046875,-0.1503410041332245,1.4159079790115356,-0.328601986169815
1780564876993581800,2.616581787109375,0.8177250027656555,1.0073200464248655,0.7870180010795593
1780564877013111300,2.636111328125,0.8177250027656555,1.0073200464248655,0.7870180010795593
1780564877032636700,2.65563671875,0.9192219972610474,0.813552975654602,1.7645339965820312
1780564877052164600,2.67516455078125,0.9192219972610474,0.813552975654602,1.7645339965820312
1780564877071693600,2.694693603515625,0.1224019974470138,0.3258810043334961,3.876718997955322
1780564877091220500,2.714220458984375,0.1224019974470138,0.3258810043334961,3.876718997955322
1780564877110751700,2.733751708984375,-0.3162220120429992,-0.3350340127944946,4.3365797996521
1780564877130284500,2.753284423828125,-0.3162220120429992,-0.3350340127944946,4.3365797996521
1780564877149819400,2.7728193359375,0.2791520059108734,-0.8332080245018005,3.706110954284668
1780564877169358300,2.7923583984375,0.2791520059108734,-0.8332080245018005,3.706110954284668
1780564877188895000,2.81189501953125,0.2791520059108734,-0.8332080245018005,3.706110954284668
1780564877208429300,2.83142919921875,2.9169418811798096,-1.297023057937622,-2.4303719997406006
1780564877227963400,2.85096337890625,2.9169418811798096,-1.297023057937622,-2.4303719997406006
1780564877247496200,2.87049609375,3.849018096923828,-1.851349949836731,-4.314143180847168
1780564877267027500,2.89002734375,3.849018096923828,-1.851349949836731,-4.314143180847168
1780564877286558000,2.909557861328125,3.4887139797210693,-2.3041799068450928,-3.584589958190918
1780564877306092000,2.929092041015625,3.4887139797210693,-2.3041799068450928,-3.584589958190918
1780564877325625300,2.948625244140625,2.479435920715332,-2.401731014251709,-2.8824338912963867
1780564877345156600,2.968156494140625,2.479435920715332,-2.401731014251709,-2.8824338912963867
1780564877364692700,2.987692626953125,2.5711209774017334,-2.7883899211883545,-3.080885887145996
1780564877384225000,3.00722509765625,2.5711209774017334,-2.7883899211883545,-3.080885887145996
1780564877403756000,3.026756103515625,3.422305107116699,-3.255642890930176,-3.0349740982055664
1780564877423288600,3.04628857421875,3.422305107116699,-3.255642890930176,-3.0349740982055664
1780564877442818600,3.065818603515625,3.4508509635925293,-3.2189080715179443,-2.566927909851074
1780564877462350600,3.0853505859375,3.4508509635925293,-3.2189080715179443,-2.566927909851074
1780564877481886500,3.104886474609375,1.0540260076522827,-2.730135917663574,-1.8446340560913088
1780564877501425000,3.1244248046875,1.0540260076522827,-2.730135917663574,-1.8446340560913088
1780564877520959500,3.14395947265625,0.1598740071058273,-2.0929229259490967,-1.0117290019989014
1780564877540493300,3.163493408203125,0.1598740071058273,-2.0929229259490967,-1.0117290019989014
1780564877560030500,3.183030517578125,-0.7281410098075867,-1.3298590183258057,-0.0457689985632896
1780564877579561700,3.202561767578125,-0.7281410098075867,-1.3298590183258057,-0.0457689985632896
1780564877599087000,3.222087158203125,-1.6819250583648682,-0.2978729903697967,0.235381007194519
1780564877618616000,3.241615966796875,-1.6819250583648682,-0.2978729903697967,0.235381007194519
1780564877638146600,3.261146484375,-2.9025349617004395,0.6948720216751099,0.396263986825943
1780564877657675300,3.28067529296875,-2.9025349617004395,0.6948720216751099,0.396263986825943
1780564877677210600,3.300210693359375,-3.4863429069519043,1.3284410238265991,1.5587619543075562
1780564877696751000,3.319751220703125,-3.4863429069519043,1.3284410238265991,1.5587619543075562
1780564877755365600,3.37836572265625,-2.380590915679932,1.948531985282898,-1.380010008811951
1780564877774899700,3.397899658203125,-2.380590915679932,1.948531985282898,-1.380010008811951
1780564877794432800,3.417432861328125,-0.2453809976577758,2.209260940551758,-3.233844995498657
1780564877813964300,3.43696435546875,-0.2453809976577758,2.209260940551758,-3.233844995498657
1780564877833495300,3.456495361328125,0.4410510063171386,2.3191111087799072,-3.791743040084839
1780564877853018400,3.476018310546875,0.4410510063171386,2.3191111087799072,-3.791743040084839
1780564877872540200,3.4955400390625,0.5353519916534424,2.3696749210357666,-3.141278982162476
1780564877892064500,3.515064453125,0.5353519916534424,2.3696749210357666,-3.141278982162476
1780564877911588900,3.5345888671875,0.7928659915924072,2.5841169357299805,-2.552341938018799
1780564877931116000,3.554115966796875,0.7928659915924072,2.5841169357299805,-2.552341938018799
1780564877950645000,3.57364501953125,1.159358024597168,2.6916921138763428,-1.9915189743041992
1780564877970173200,3.593173095703125,1.159358024597168,2.6916921138763428,-1.9915189743041992
1780564877989698000,3.612697998046875,1.159358024597168,2.6916921138763428,-1.9915189743041992
1780564878009224400,3.632224365234375,-1.1117069721221924,2.354422092437744,2.0694210529327397
1780564878028756700,3.6517568359375,-1.1117069721221924,2.354422092437744,2.0694210529327397
1780564878048289800,3.671289794921875,-1.620113968849182,1.5728909969329834,2.792388916015625
1780564878067823000,3.690822998046875,-1.620113968849182,1.5728909969329834,2.792388916015625
1780564878087356200,3.710356201171875,-0.9602620005607604,0.4508619904518127,3.3776021003723145
1780564878106887000,3.729886962890625,-0.9602620005607604,0.4508619904518127,3.3776021003723145
1780564878126417000,3.7494169921875,0.1133560016751289,-0.6193289756774902,3.5118699073791504
1780564878145945000,3.768945068359375,0.1133560016751289,-0.6193289756774902,3.5118699073791504
1780564878165470700,3.788470703125,0.767641007900238,-1.1728719472885132,2.923975944519043
1780564878184989700,3.80798974609375,0.767641007900238,-1.1728719472885132,2.923975944519043
1780564878204513500,3.827513427734375,1.114537000656128,-1.2136050462722778,-0.3182669878005981
1780564878224043500,3.84704345703125,1.114537000656128,-1.2136050462722778,-0.3182669878005981
1780564878243569700,3.866569580078125,1.6336549520492554,-1.1844370365142822,-3.817387104034424
1780564878263097300,3.886097412109375,1.6336549520492554,-1.1844370365142822,-3.817387104034424
1780564878282627800,3.9056279296875,2.5363099575042725,-1.349429965019226,-3.871603012084961
1780564878302158000,3.925157958984375,2.5363099575042725,-1.349429965019226,-3.871603012084961
1780564878321688000,3.94468798828125,3.4980809688568115,-1.405282974243164,-3.748794078826904
1780564878341218600,3.964218505859375,3.4980809688568115,-1.405282974243164,-3.748794078826904
1780564878360746200,3.983746337890625,3.724726915359497,-1.3259530067443848,-3.703118085861206
1780564878380274200,4.003274169921875,3.724726915359497,-1.3259530067443848,-3.703118085861206
1780564878399808300,4.022808349609375,3.1430470943450928,-1.1422330141067505,-2.992000102996826
1780564878419343400,4.04234326171875,3.1430470943450928,-1.1422330141067505,-2.992000102996826
1780564878438873600,4.06187353515625,2.063318967819214,-0.8510509729385376,-2.2139010429382324
1780564878458403300,4.0814033203125,2.063318967819214,-0.8510509729385376,-2.2139010429382324
1780564878477935400,4.100935302734375,0.908685028553009,-0.7048770189285278,-1.3089189529418943
1780564878497467100,4.120467041015625,0.908685028553009,-0.7048770189285278,-1.3089189529418943
1780564878517000000,4.14,0.0898860022425651,-0.6651179790496826,-0.158842995762825
1780564878536533200,4.159533203125,0.0898860022425651,-0.6651179790496826,-0.158842995762825
1780564878556064800,4.179064697265625,-0.56044602394104,-0.621055006980896,0.8449770212173462
1780564878575598300,4.198598388671875,-0.56044602394104,-0.621055006980896,0.8449770212173462
1780564878595132400,4.21813232421875,-1.0233759880065918,-0.5431680083274841,1.4215309619903564
1780564878614666800,4.237666748046875,-1.0233759880065918,-0.5431680083274841,1.4215309619903564
1780564878634199000,4.257198974609375,-1.3572269678115845,-0.4052619934082031,1.6779439449310305
1780564878653729800,4.276729736328125,-1.3572269678115845,-0.4052619934082031,1.6779439449310305
1780564878673261300,4.29626123046875,-1.9697400331497192,-0.0544609986245632,1.707656979560852
1780564878692791300,4.315791259765625,-1.9697400331497192,-0.0544609986245632,1.707656979560852
1780564878712321800,4.33532177734375,-2.614625930786133,0.5519229769706726,1.378039002418518
1780564878731852500,4.3548525390625,-2.614625930786133,0.5519229769706726,1.378039002418518
1780564878751384600,4.374384521484375,-2.375883102416992,1.282608985900879,-0.6527079939842224
1780564878770916600,4.39391650390625,-2.375883102416992,1.282608985900879,-0.6527079939842224
1780564878790451700,4.41345166015625,-1.2277690172195437,2.1385650634765625,-4.456150054931641
1780564878809986800,4.43298681640625,-1.2277690172195437,2.1385650634765625,-4.456150054931641
1780564878829520100,4.45252001953125,-1.2277690172195437,2.1385650634765625,-4.456150054931641
1780564878849055000,4.472054931640625,-2.9413280487060547,2.7204151153564453,-2.9538910388946533
1780564878868587300,4.491587158203125,-2.9413280487060547,2.7204151153564453,-2.9538910388946533
1780564878888119600,4.51111962890625,-2.917941093444824,2.891107082366944,-2.762195110321045
1780564878907650300,4.530650390625,-2.917941093444824,2.891107082366944,-2.762195110321045
1780564878927176000,4.550176025390625,-1.9502990245819087,2.7614550590515137,-2.9419829845428467
1780564878946702300,4.569702392578125,-1.9502990245819087,2.7614550590515137,-2.9419829845428467
1780564878966230800,4.589230712890625,0.4725120067596435,1.8846310377120967,-0.890716016292572
1780564878985760800,4.6087607421875,0.4725120067596435,1.8846310377120967,-0.890716016292572
1780564879005291000,4.628291015625,1.4816360473632812,1.0429450273513794,1.18300199508667
1780564879024816400,4.64781640625,1.4816360473632812,1.0429450273513794,1.18300199508667
1780564879044343800,4.66734375,1.191560983657837,0.5436580181121826,2.174433946609497
1780564879063871200,4.686871337890625,1.191560983657837,0.5436580181121826,2.174433946609497
1780564879083397400,4.7063974609375,0.4860990047454834,-0.0203479994088411,3.067807912826538
1780564879102925000,4.725925048828125,0.4860990047454834,-0.0203479994088411,3.067807912826538
1780564879122455000,4.745455078125,0.0724340006709098,-0.4952920079231262,3.7861390113830566
1780564879141987600,4.764987548828125,0.0724340006709098,-0.4952920079231262,3.7861390113830566
1780564879161519900,4.784519775390625,0.0708749964833259,-0.9257689714431764,3.61657190322876
1780564879181051100,4.804051025390625,0.0708749964833259,-0.9257689714431764,3.61657190322876
1780564879200582100,4.82358203125,2.2325730323791504,-1.4208170175552368,-0.9363139867782592
1780564879220115000,4.843114990234375,2.2325730323791504,-1.4208170175552368,-0.9363139867782592
1780564879239645700,4.862645751953125,4.18453311920166,-1.83029305934906,-3.468625068664551
1780564879259170300,4.88217041015625,4.18453311920166,-1.83029305934906,-3.468625068664551
1780564879278697500,4.901697509765625,4.333940029144287,-2.3683080673217773,-3.376189947128296
1780564879298224400,4.921224365234375,4.333940029144287,-2.3683080673217773,-3.376189947128296
1780564879317749500,4.94074951171875,3.444319009780884,-2.4897611141204834,-2.5420520305633545
1780564879337281000,4.960281005859375,3.444319009780884,-2.4897611141204834,-2.5420520305633545
1780564879356807200,4.97980712890625,2.847191095352173,-1.974483013153076,-2.7912750244140625
1780564879376327400,4.999327392578125,2.847191095352173,-1.974483013153076,-2.7912750244140625
1780564879395848200,5.01884814453125,2.774164915084839,-1.5776679515838623,-2.7368569374084477
1780564879415370500,5.03837060546875,2.774164915084839,-1.5776679515838623,-2.7368569374084477
1780564879434897000,5.05789697265625,2.4253599643707275,-1.337775945663452,-2.468463897705078
1780564879454427600,5.077427734375,2.4253599643707275,-1.337775945663452,-2.468463897705078
1780564879473958000,5.0969580078125,1.4456679821014404,-1.067883014678955,-1.988031029701233
1780564879493486800,5.11648681640625,1.4456679821014404,-1.067883014678955,-1.988031029701233
1780564879513016600,5.1360166015625,0.2610079944133758,-0.7487519979476929,-1.0039780139923096
1780564879532542200,5.155542236328125,0.2610079944133758,-0.7487519979476929,-1.0039780139923096
1780564879552066000,5.175066162109375,-0.6634269952774048,-0.5236189961433411,1.0700639486312866
1780564879571590100,5.194590087890625,-0.6634269952774048,-0.5236189961433411,1.0700639486312866
1780564879591117600,5.21411767578125,-1.397570013999939,-0.3596329987049103,1.8375630378723145
1780564879610646800,5.233646728515625,-1.397570013999939,-0.3596329987049103,1.8375630378723145
1780564879630175700,5.25317578125,-1.397570013999939,-0.3596329987049103,1.8375630378723145
1780564879649710000,5.2727099609375,-2.0087831020355225,-0.04415899887681,2.249483108520508
1780564879669240800,5.29224072265625,-2.1416890621185303,0.2111759930849075,1.942523956298828
1780564879688766200,5.31176611328125,-2.1416890621185303,0.2111759930849075,1.942523956298828
1780564879708290800,5.331290771484375,-2.3864200115203857,0.9312949776649476,-0.3448010087013244
1780564879727817000,5.35081689453125,-2.3864200115203857,0.9312949776649476,-0.3448010087013244
1780564879747348000,5.370347900390625,-2.21272611618042,1.661136031150818,-2.4641239643096924
1780564879766878200,5.389878173828125,-2.21272611618042,1.661136031150818,-2.4641239643096924
1780564879786407400,5.409407470703125,-1.5873409509658811,2.1475939750671387,-3.4970290660858154
1780564879805936400,5.428936279296875,-1.5873409509658811,2.1475939750671387,-3.4970290660858154
1780564879825465900,5.4484658203125,-1.4307260513305664,2.3730618953704834,-3.700135946273804
1780564879844995600,5.46799560546875,-1.4307260513305664,2.3730618953704834,-3.700135946273804
1780564879864528000,5.48752783203125,-1.763429045677185,2.459511995315552,-2.868604898452759
1780564879884058600,5.50705859375,-1.763429045677185,2.459511995315552,-2.868604898452759
1780564879903586600,5.526586669921875,-1.9583899974823,2.5347650051116943,-2.074410915374756
1780564879923116000,5.546115966796875,-1.9583899974823,2.5347650051116943,-2.074410915374756
1780564879942643500,5.5656435546875,-1.2271499633789062,2.399195909500122,-1.6664249897003174
1780564879962167300,5.585167236328125,-1.2271499633789062,2.399195909500122,-1.6664249897003174
1780564879981693400,5.604693359375,0.8449379801750183,1.9861639738082888,-0.874301016330719
1780564880001223400,5.624223388671875,0.8449379801750183,1.9861639738082888,-0.874301016330719
1780564880020753700,5.643753662109375,1.0729080438613892,1.4873930215835571,1.1451890468597412
1780564880040285200,5.66328515625,1.0729080438613892,1.4873930215835571,1.1451890468597412
1780564880059817200,5.682817138671875,0.510316014289856,0.8030719757080078,4.27741289138794
1780564880079350800,5.702350830078125,0.510316014289856,0.8030719757080078,4.27741289138794
1780564880098887400,5.721887451171875,0.2033790051937103,0.1260350048542022,4.909212112426758
1780564880118419200,5.741419189453125,0.2033790051937103,0.1260350048542022,4.909212112426758
1780564880137950000,5.760949951171875,0.6085540056228638,-0.3977580070495605,4.794573783874512
1780564880157484800,5.78048486328125,0.6085540056228638,-0.3977580070495605,4.794573783874512
1780564880177015800,5.800015869140625,1.430448055267334,-0.8254560232162476,1.4478089809417725
1780564880196545500,5.819545654296875,1.430448055267334,-0.8254560232162476,1.4478089809417725
1780564880216074800,5.83907470703125,2.462104082107544,-1.212609052658081,-0.8308280110359192
1780564880235603000,5.85860302734375,2.462104082107544,-1.212609052658081,-0.8308280110359192
1780564880255136000,5.878135986328125,3.2354660034179688,-1.6452269554138184,-2.3315589427948
1780564880274667500,5.89766748046875,3.2354660034179688,-1.6452269554138184,-2.3315589427948
1780564880294194000,5.91719384765625,3.515091896057129,-1.830047965049744,-2.554255962371826
1780564880313718300,5.93671826171875,3.515091896057129,-1.830047965049744,-2.554255962371826
1780564880333241300,5.956241455078125,3.6400959491729736,-1.5423630475997925,-3.4844250679016118
1780564880352767000,5.97576708984375,3.6400959491729736,-1.5423630475997925,-3.4844250679016118
1780564880372292000,5.9952919921875,3.1058669090271,-1.0788370370864868,-3.5429248809814453
1780564880391816700,6.014816650390625,3.1058669090271,-1.0788370370864868,-3.5429248809814453
1780564880411341000,6.034341064453125,0.6243829727172852,-0.5532230138778687,-1.628525972366333
1780564880430866700,6.05386669921875,0.6243829727172852,-0.5532230138778687,-1.628525972366333
1780564880450390800,6.073390869140625,-0.2106049954891204,-0.1079879999160766,-1.2383110523223877
1780564880469916200,6.092916259765625,-0.2106049954891204,-0.1079879999160766,-1.2383110523223877
1780564880489441500,6.112441650390625,-0.2106049954891204,-0.1079879999160766,-1.2383110523223877
1780564880508966000,6.1319658203125,-1.1695829629898071,-0.0497119985520839,-0.2945930063724518
1780564880528491500,6.151491455078125,-1.1695829629898071,-0.0497119985520839,-0.2945930063724518
1780564880548018000,6.171017822265625,-1.326177954673767,-0.2469120025634765,0.5713719725608826
1780564880567546600,6.190546630859375,-1.326177954673767,-0.2469120025634765,0.5713719725608826
1780564880587075000,6.210074951171875,-1.4858789443969729,-0.5857790112495422,1.466271996498108
1780564880606601200,6.229601318359375,-1.4858789443969729,-0.5857790112495422,1.466271996498108
1780564880626129400,6.24912939453125,-1.5617519617080688,-0.7908260226249695,1.9982839822769165
1780564880645659100,6.2686591796875,-1.5617519617080688,-0.7908260226249695,1.9982839822769165
1780564880665185300,6.288185302734375,-1.493446946144104,-0.6752219796180725,1.8558709621429443
1780564880684712400,6.30771240234375,-1.493446946144104,-0.6752219796180725,1.8558709621429443
1780564880704242400,6.327242431640625,-1.5596590042114258,-0.1956419944763183,1.2151659727096558
1780564880723768000,6.34676806640625,-1.5596590042114258,-0.1956419944763183,1.2151659727096558
1780564880743293400,6.36629345703125,-1.6902190446853638,0.6573420166969299,-0.9536970257759094
1780564880762819600,6.385819580078125,-1.6902190446853638,0.6573420166969299,-0.9536970257759094
1780564880782344700,6.4053447265625,-1.797816038131714,1.6266809701919556,-3.114959955215454
1780564880801869600,6.42486962890625,-1.797816038131714,1.6266809701919556,-3.114959955215454
1780564880821397500,6.4443974609375,-2.133328914642334,2.442765951156616,-3.3207480907440186
1780564880840929500,6.463929443359375,-2.133328914642334,2.442765951156616,-3.3207480907440186
1780564880860458500,6.48345849609375,-2.2958240509033203,2.81093692779541,-3.3311870098114014
1780564880879982800,6.50298291015625,-2.2958240509033203,2.81093692779541,-3.3311870098114014
1780564880899510800,6.5225107421875,-1.5082180500030518,2.4884328842163086,-3.186194896697998
1780564880919041500,6.54204150390625,-1.5082180500030518,2.4884328842163086,-3.186194896697998
1780564880938570500,6.561570556640625,1.073712944984436,1.7672690153121948,-2.616353988647461
1780564880958104000,6.58110400390625,1.073712944984436,1.7672690153121948,-2.616353988647461
1780564880977637600,6.6006376953125,1.939208030700684,1.075240969657898,-0.3685370087623596
1780564880997170400,6.62017041015625,1.939208030700684,1.075240969657898,-0.3685370087623596
1780564881016704000,6.6397041015625,1.191277027130127,0.7120810151100159,0.8052780032157898
1780564881036238300,6.65923828125,1.191277027130127,0.7120810151100159,0.8052780032157898
1780564881055769300,6.678769287109375,-0.4748159945011139,0.4903759956359863,2.108330011367798
1780564881075299300,6.69829931640625,-0.4748159945011139,0.4903759956359863,2.108330011367798
1780564881094827500,6.71782763671875,-0.7689899802207947,-0.0368370003998279,4.046008110046387
1780564881114353400,6.737353515625,-0.7689899802207947,-0.0368370003998279,4.046008110046387
1780564881133881000,6.756881103515625,-0.7635390162467957,-0.7964479923248291,4.8921098709106445
1780564881153406200,6.77640625,-0.7635390162467957,-0.7964479923248291,4.8921098709106445
1780564881172931800,6.795931884765625,-0.4543890058994293,-1.281324028968811,4.497742176055908
1780564881192455200,6.815455078125,-0.4543890058994293,-1.281324028968811,4.497742176055908
1780564881211977500,6.8349775390625,0.3682270050048828,-1.237192988395691,0.207734003663063
1780564881231504000,6.85450390625,0.3682270050048828,-1.237192988395691,0.207734003663063
1780564881251030500,6.874030517578125,2.231745958328247,-1.1864999532699585,-3.4779529571533203
1780564881270562000,6.89356201171875,2.231745958328247,-1.1864999532699585,-3.4779529571533203
1780564881290099500,6.913099365234375,2.3730080127716064,-1.1538310050964355,-3.615546941757202
1780564881309635000,6.932635009765625,2.3730080127716064,-1.1538310050964355,-3.615546941757202
1780564881329163500,6.95216357421875,2.3730080127716064,-1.1538310050964355,-3.615546941757202
1780564881348686300,6.971686279296875,2.2219390869140625,-0.475733995437622,-4.104127883911133
1780564881368206800,6.991206787109375,2.2219390869140625,-0.475733995437622,-4.104127883911133
1780564881387733000,7.01073291015625,3.097493886947632,-0.7253509759902954,-4.302900791168213
1780564881407265300,7.030265380859375,3.097493886947632,-0.7253509759902954,-4.302900791168213
1780564881426793200,7.049793212890625,3.44923996925354,-1.567702054977417,-1.1016039848327637
1780564881446318000,7.069318115234375,3.44923996925354,-1.567702054977417,-1.1016039848327637
1780564881465842200,7.08884228515625,2.8871641159057617,-2.16356897354126,-0.1307850033044815
1780564881485366000,7.108365966796875,2.8871641159057617,-2.16356897354126,-0.1307850033044815
1780564881504888600,7.127888671875,1.887568950653076,-2.0277040004730225,0.4344440102577209
1780564881524413200,7.1474130859375,1.887568950653076,-2.0277040004730225,0.4344440102577209
1780564881543937500,7.1669375,0.4301849901676178,-1.5379539728164673,0.8156700134277344
1780564881563463400,7.18646337890625,0.4301849901676178,-1.5379539728164673,0.8156700134277344
1780564881582991600,7.20599169921875,-0.7945219874382019,-1.2607040405273438,1.512205958366394
1780564881602515200,7.22551513671875,-0.7945219874382019,-1.2607040405273438,1.512205958366394
1780564881622037500,7.24503759765625,-1.375188946723938,-1.048326015472412,1.996459007263184
1780564881661089300,7.28408935546875,-1.8094569444656368,-0.7397390007972717,2.000349998474121
1780564881680617500,7.303617431640625,-1.8094569444656368,-0.7397390007972717,2.000349998474121
1780564881700144400,7.323144287109375,-2.286720037460327,-0.4384759962558746,1.3364930152893066
1780564881719671000,7.342671142578125,-2.286720037460327,-0.4384759962558746,1.3364930152893066
1780564881739199200,7.36219921875,-2.0891809463500977,0.2178139984607696,-2.1560580730438232
1780564881758727400,7.3817275390625,-2.0891809463500977,0.2178139984607696,-2.1560580730438232
1780564881778254600,7.401254638671875,-1.3557239770889282,1.1413029432296753,-4.118544101715088
1780564881797784800,7.420784912109375,-1.3557239770889282,1.1413029432296753,-4.118544101715088
1780564881817316600,7.440316650390625,-1.0663490295410156,1.8373500108718872,-4.568786144256592
1780564881836845000,7.459844970703125,-1.0663490295410156,1.8373500108718872,-4.568786144256592
1780564881856370200,7.4793701171875,-1.1433249711990356,2.1069040298461914,-3.9439849853515625
1780564881875894500,7.49889453125,-1.1433249711990356,2.1069040298461914,-3.9439849853515625
1780564881895420000,7.518419921875,-1.2398430109024048,2.254595994949341,-2.7790560722351074
1780564881914944800,7.53794482421875,-1.2398430109024048,2.254595994949341,-2.7790560722351074
1780564881934472000,7.557471923828125,-0.7055389881134033,2.4605441093444824,-2.227778911590576
1780564881953999600,7.57699951171875,-0.7055389881134033,2.4605441093444824,-2.227778911590576
1780564881973528000,7.596528076171875,0.2366839945316314,2.4217309951782227,-1.4507399797439575
1780564881993059600,7.6160595703125,0.2366839945316314,2.4217309951782227,-1.4507399797439575
1780564882012589300,7.63558935546875,0.2016160041093826,2.149688005447388,1.7356220483779907
1780564882032118000,7.655117919921875,0.2016160041093826,2.149688005447388,1.7356220483779907
1780564882051647200,7.674647216796875,-0.5962449908256531,1.606935977935791,3.737035989761353
1780564882071177000,7.694177001953125,-0.5962449908256531,1.606935977935791,3.737035989761353
1780564882090707000,7.71370703125,-1.0627110004425049,0.7275760173797607,4.614074230194092
1780564882110236200,7.733236083984375,-1.0627110004425049,0.7275760173797607,4.614074230194092
1780564882129762600,7.752762451171875,-1.0627110004425049,0.7275760173797607,4.614074230194092
1780564882149289700,7.772289794921875,-0.4833849966526031,-0.6220340132713318,4.7703537940979
1780564882168814000,7.79181396484375,-0.4833849966526031,-0.6220340132713318,4.7703537940979
1780564882188338700,7.811338623046875,1.9368209838867188,-1.4343650341033936,2.7504351139068604
1780564882207870700,7.83087060546875,1.9368209838867188,-1.4343650341033936,2.7504351139068604
1780564882227403300,7.8504033203125,3.900912046432495,-2.197516918182373,0.3701249957084656
1780564882246936600,7.8699365234375,3.900912046432495,-2.197516918182373,0.3701249957084656
1780564882266473000,7.889472900390625,4.420313835144043,-2.799489974975586,-1.534430980682373
1780564882286005200,7.909005126953125,4.420313835144043,-2.799489974975586,-1.534430980682373
1780564882305534200,7.9285341796875,4.003945827484131,-2.647439956665039,-2.155113935470581
1780564882325065700,7.948065673828125,4.003945827484131,-2.647439956665039,-2.155113935470581
1780564882344597800,7.96759765625,3.2078959941864014,-1.884924054145813,-3.1803500652313232
1780564882364125200,7.987125244140625,3.2078959941864014,-1.884924054145813,-3.1803500652313232
1780564882383651800,8.00665185546875,2.639312982559204,-1.2993559837341309,-3.9947350025177
1780564882403177500,8.026177490234375,2.639312982559204,-1.2993559837341309,-3.9947350025177
1780564882422705700,8.04570556640625,2.5081899166107178,-1.1158000230789185,-3.831525087356568
1780564882442235600,8.065235595703125,2.5081899166107178,-1.1158000230789185,-3.831525087356568
1780564882461761800,8.08476171875,2.150228977203369,-1.2004040479660034,-1.577165961265564
1780564882481288200,8.1042880859375,2.150228977203369,-1.2004040479660034,-1.577165961265564
1780564882500813000,8.12381298828125,1.3603999614715576,-1.2280449867248535,0.3544090092182159
1780564882520336000,8.1433359375,1.3603999614715576,-1.2280449867248535,0.3544090092182159
1780564882539859500,8.162859375,0.0757059976458549,-1.042412042617798,1.3863329887390137
1780564882559385900,8.1823857421875,0.0757059976458549,-1.042412042617798,1.3863329887390137
1780564882578917000,8.201917236328125,-1.9700969457626345,-0.7373960018157959,3.098191022872925
1780564882598449700,8.22144970703125,-1.9700969457626345,-0.7373960018157959,3.098191022872925
1780564882617982000,8.24098193359375,-2.765810012817383,-0.317573994398117,3.444775104522705
1780564882637515800,8.260515869140624,-2.765810012817383,-0.317573994398117,3.444775104522705
1780564882657047000,8.280047119140624,-3.1734209060668945,0.1976750046014785,2.874722957611084
1780564882676573700,8.29957373046875,-3.1734209060668945,0.1976750046014785,2.874722957611084
1780564882696101600,8.3191015625,-3.2491888999938965,0.9531739950180054,0.6243410110473633
1780564882715630300,8.33863037109375,-3.2491888999938965,0.9531739950180054,0.6243410110473633
1780564882735156000,8.358156005859374,-3.0163159370422363,2.110662937164306,-3.7472739219665527
1780564882754683100,8.37768310546875,-3.0163159370422363,2.110662937164306,-3.7472739219665527
1780564882774214400,8.39721435546875,-2.366008996963501,2.9585230350494385,-5.256234169006348
1780564882793747500,8.41674755859375,-2.366008996963501,2.9585230350494385,-5.256234169006348
1780564882813278500,8.436278564453126,-1.816970944404602,3.0793979167938232,-3.2184500694274902
1780564882832804000,8.45580419921875,-1.816970944404602,3.0793979167938232,-3.2184500694274902
1780564882852327400,8.475327392578125,-1.901540994644165,3.436047077178955,-2.951730966567993
1780564882871852300,8.494852294921875,-1.901540994644165,3.436047077178955,-2.951730966567993
1780564882891375400,8.514375244140625,-1.93891704082489,3.810152053833008,-3.2418620586395264
1780564882910896600,8.533896728515625,-1.93891704082489,3.810152053833008,-3.2418620586395264
1780564882930415400,8.553415283203124,-0.9351059794425964,3.2959930896759038,-2.692797899246216
1780564882949933000,8.57293310546875,-0.9351059794425964,3.2959930896759038,-2.692797899246216
1780564882969454300,8.592454345703125,-0.9351059794425964,3.2959930896759038,-2.692797899246216
1780564882988971800,8.6119716796875,0.2422399967908859,1.8681730031967163,-0.0723050013184547
1780564883008486400,8.631486328125,0.2422399967908859,1.8681730031967163,-0.0723050013184547
1780564883028006000,8.651005859375,0.0768679976463317,0.8473100066184998,2.2168240547180176
1780564883047527200,8.670527099609375,0.0768679976463317,0.8473100066184998,2.2168240547180176
1780564883067049200,8.69004931640625,-0.2950469851493835,-0.1388649940490722,4.12251615524292
1780564883086573600,8.709573486328125,-0.2950469851493835,-0.1388649940490722,4.12251615524292
1780564883106095900,8.729095947265625,-0.4690630137920379,-0.8433049917221069,4.6596760749816895
1780564883125618200,8.7486181640625,-0.4690630137920379,-0.8433049917221069,4.6596760749816895
1780564883145142300,8.768142333984375,-0.0763040035963058,-1.2614059448242188,4.40463399887085
1780564883164665300,8.787665283203125,-0.0763040035963058,-1.2614059448242188,4.40463399887085
1780564883184190500,8.8071904296875,1.0374339818954468,-1.6340010166168213,2.2314600944519043
1780564883203718700,8.82671875,1.0374339818954468,-1.6340010166168213,2.2314600944519043
1780564883223246800,8.846246826171875,2.9397668838500977,-1.861258029937744,-1.4732019901275637
1780564883242773200,8.865773193359376,2.9397668838500977,-1.861258029937744,-1.4732019901275637
1780564883262298000,8.885298095703124,3.453885078430176,-1.9440460205078125,-2.1446011066436768
1780564883281821700,8.90482177734375,3.453885078430176,-1.9440460205078125,-2.1446011066436768
1780564883301345800,8.924345703125,3.535398006439209,-1.8357579708099363,-2.5799129009246826
1780564883320868600,8.94386865234375,3.535398006439209,-1.8357579708099363,-2.5799129009246826
1780564883340393200,8.963393310546875,3.4009768962860107,-1.4078099727630615,-3.600908041000366
1780564883359922400,8.98292236328125,3.4009768962860107,-1.4078099727630615,-3.600908041000366
1780564883379451600,9.00245166015625,3.168929100036621,-1.0634750127792358,-4.258775234222412
1780564883398979800,9.021979736328126,3.168929100036621,-1.0634750127792358,-4.258775234222412
1780564883418511400,9.041511474609376,2.3596410751342773,-1.0184940099716189,-2.171771049499512
1780564883438041300,9.061041259765624,2.3596410751342773,-1.0184940099716189,-2.171771049499512
1780564883457569800,9.08056982421875,1.218472957611084,-1.116294026374817,-0.1401289999485016
1780564883477099000,9.10009912109375,1.218472957611084,-1.116294026374817,-0.1401289999485016
1780564883496624400,9.119624267578123,0.2322500050067901,-1.1893969774246216,0.65516597032547
1780564883516154600,9.139154541015625,0.2322500050067901,-1.1893969774246216,0.65516597032547
1780564883535690000,9.15868994140625,-0.7388010025024414,-1.145408034324646,1.886819005012512
1780564883555220700,9.178220703125,-0.7388010025024414,-1.145408034324646,1.886819005012512
1780564883574747600,9.19774755859375,-1.726570963859558,-0.9196230173110962,2.664520025253296
1780564883613794000,9.2367939453125,-2.752645969390869,1.0130079984664917,2.277328968048096
1780564883633320400,9.256320556640626,-2.752645969390869,1.0130079984664917,2.277328968048096
1780564883652844500,9.275844482421874,-6.212093830108643,3.2443649768829346,1.2203279733657837
1780564883672365000,9.295364990234376,-6.212093830108643,3.2443649768829346,1.2203279733657837
1780564883691889200,9.31488916015625,-7.531778812408447,3.57224702835083,0.8529580235481262
1780564883711415800,9.334415771484377,-7.531778812408447,3.57224702835083,0.8529580235481262
1780564883730941400,9.35394140625,-1.6588820219039917,2.891494035720825,-1.3700579404830933
1780564883750464300,9.37346435546875,-1.6588820219039917,2.891494035720825,-1.3700579404830933
1780564883769984500,9.392984619140623,3.3290770053863525,2.1895439624786377,-3.54180908203125
1780564883789508000,9.412508056640624,3.3290770053863525,2.1895439624786377,-3.54180908203125
1780564883809031700,9.43203173828125,3.3290770053863525,2.1895439624786377,-3.54180908203125
1780564883828556500,9.451556640625,1.3807049989700315,1.3611199855804443,-4.347940921783447
1780564883848082700,9.471082763671877,1.3807049989700315,1.3611199855804443,-4.347940921783447
1780564883867611400,9.490611328125,-0.5106480121612549,1.7687300443649292,-4.3821868896484375
1780564883887138800,9.510138916015626,-0.5106480121612549,1.7687300443649292,-4.3821868896484375
1780564883906662700,9.52966259765625,-0.8063939809799194,1.8818989992141724,-2.389791965484619
1780564883926185000,9.54918505859375,-0.8063939809799194,1.8818989992141724,-2.389791965484619
1780564883945709800,9.568709716796874,-0.3912779986858368,1.34607195854187,-0.1549600064754486
1780564883965238300,9.58823828125,-0.3912779986858368,1.34607195854187,-0.1549600064754486
1780564883984761000,9.607760986328126,0.0901430025696754,0.7380179762840271,0.8316770195960999
1780564884004281000,9.627281005859375,0.0901430025696754,0.7380179762840271,0.8316770195960999
1780564884023803000,9.646802978515623,-0.1056300029158592,0.1670760065317154,1.9253859519958496
1780564884043328500,9.66632861328125,-0.1056300029158592,0.1670760065317154,1.9253859519958496
1780564884062852400,9.685852294921874,-0.4598279893398285,-0.4176140129566192,3.9821178913116455
1780564884082377200,9.705377197265625,-0.4598279893398285,-0.4176140129566192,3.9821178913116455
1780564884101901600,9.724901611328123,-0.6656360030174255,-1.0651439428329468,4.647777080535889
1780564884121422800,9.7444228515625,-0.6656360030174255,-1.0651439428329468,4.647777080535889
1780564884140942000,9.763942138671876,-0.5668690204620361,-1.539808988571167,4.985229969024658
1780564884160457200,9.783457275390624,-0.5668690204620361,-1.539808988571167,4.985229969024658
1780564884179973000,9.80297314453125,-0.1747850030660629,-1.5397239923477173,3.0963048934936523
1780564884199488800,9.82248876953125,-0.1747850030660629,-1.5397239923477173,3.0963048934936523
1780564884219005700,9.842005615234376,0.3226709961891174,-1.6297160387039185,-0.6484889984130859
1780564884238528500,9.861528564453126,0.3226709961891174,-1.6297160387039185,-0.6484889984130859
1780564884258045700,9.881045654296877,2.657222032546997,-2.300252914428711,-2.74981689453125
1780564884277557200,9.90055712890625,2.657222032546997,-2.300252914428711,-2.74981689453125
1780564884297070000,9.920070068359376,5.6117119789123535,-3.0679750442504883,-3.2071070671081543
1780564884316584400,9.93958447265625,5.6117119789123535,-3.0679750442504883,-3.2071070671081543
1780564884336096000,9.959095947265626,6.178674221038818,-3.349095106124878,-3.362436056137085
1780564884355607300,9.978607177734377,6.178674221038818,-3.349095106124878,-3.362436056137085
1780564884375123500,9.99812353515625,5.993143081665039,-2.979583978652954,-3.672909021377564
1780564884394635500,10.017635498046875,5.993143081665039,-2.979583978652954,-3.672909021377564
1780564884414144800,10.037144775390624,3.5705559253692627,-2.078105926513672,-3.967183113098145
1780564884433655000,10.056655029296875,3.5705559253692627,-2.078105926513672,-3.967183113098145
1780564884453167400,10.07616748046875,-0.1206070035696029,-1.1918400526046753,-2.122102975845337
1780564884472685600,10.095685546875,-0.1206070035696029,-1.1918400526046753,-2.122102975845337
1780564884492204300,10.115204345703123,-0.1206070035696029,-1.1918400526046753,-2.122102975845337
1780564884511720700,10.134720703125,-1.2560410499572754,-0.7342140078544617,0.3635419905185699
1780564884531238400,10.15423828125,-1.487504005432129,-0.590520977973938,0.9293259978294371
1780564884550761500,10.173761474609377,-1.487504005432129,-0.590520977973938,0.9293259978294371
1780564884570285600,10.19328564453125,-1.487504005432129,-0.590520977973938,0.9293259978294371
1780564884589804500,10.212804443359374,-1.9253129959106443,-0.5171080231666565,2.289194107055664
1780564884609319400,10.2323193359375,-1.9253129959106443,-0.5171080231666565,2.289194107055664
1780564884628836900,10.2518369140625,-2.5092320442199707,-0.0881209969520568,2.432737112045288
1780564884648361700,10.27136181640625,-2.5092320442199707,-0.0881209969520568,2.432737112045288
1780564884667885300,10.29088525390625,-2.975969076156616,0.4751479923725128,2.0718610286712646
1780564884687402200,10.31040234375,-2.975969076156616,0.4751479923725128,2.0718610286712646
1780564884706917600,10.329917724609375,-2.762964963912964,1.010025978088379,1.1314990520477295
1780564884726433300,10.349433349609376,-2.762964963912964,1.010025978088379,1.1314990520477295
1780564884745950000,10.368949951171874,-2.268671989440918,1.5317490100860596,-0.8648319840431213
1780564884765469700,10.3884697265625,-2.268671989440918,1.5317490100860596,-0.8648319840431213
1780564884784993500,10.40799365234375,-2.056396007537842,2.0337460041046143,-1.8547680377960205
1780564884804516000,10.42751611328125,-2.056396007537842,2.0337460041046143,-1.8547680377960205
1780564884824038400,10.447038330078126,-2.071949958801269,2.488010883331299,-2.716360092163086
1780564884843561500,10.4665615234375,-2.071949958801269,2.488010883331299,-2.716360092163086
1780564884863076900,10.486076904296874,-1.8544180393218996,2.72763991355896,-3.1527369022369385
1780564884882587000,10.5055869140625,-1.8544180393218996,2.72763991355896,-3.1527369022369385
1780564884902099700,10.525099609375,-1.0666660070419312,2.644813060760498,-3.5468080043792725
1780564884921613000,10.544613037109375,-1.0666660070419312,2.644813060760498,-3.5468080043792725
1780564884941126400,10.56412646484375,0.0740460008382797,2.280410051345825,-3.738276958465576
1780564884960644000,10.58364404296875,0.0740460008382797,2.280410051345825,-3.738276958465576
1780564884980158000,10.603157958984376,0.9998520016670228,1.6933640241622925,-1.5702569484710691
1780564884999674400,10.62267431640625,0.9998520016670228,1.6933640241622925,-1.5702569484710691
1780564885019197700,10.64219775390625,0.8883600234985352,1.0658910274505615,0.8368729948997498
1780564885038720000,10.661719970703125,0.8883600234985352,1.0658910274505615,0.8368729948997498
1780564885058239200,10.6812392578125,0.2267989963293075,0.4828790128231048,1.970837950706482
1780564885077755600,10.700755615234376,0.2267989963293075,0.4828790128231048,1.970837950706482
1780564885097274000,10.720274169921876,-0.013850999996066,-0.1653019934892654,3.088351011276245
1780564885116793900,10.7397939453125,-0.013850999996066,-0.1653019934892654,3.088351011276245
1780564885136315600,10.759315673828125,0.000666000007186,-0.8219529986381531,3.93002200126648
1780564885155837400,10.77883740234375,0.000666000007186,-0.8219529986381531,3.93002200126648
1780564885175354400,10.798354248046875,0.0898829996585846,-1.3392080068588257,4.153345108032227
1780564885194871300,10.817871337890624,0.0898829996585846,-1.3392080068588257,4.153345108032227
1780564885214389200,10.83738916015625,0.795291006565094,-1.5837279558181765,1.5505119562149048
1780564885233908500,10.856908447265624,0.795291006565094,-1.5837279558181765,1.5505119562149048
1780564885253429000,10.876428955078126,2.959364891052246,-1.379768967628479,-2.605535984039306
1780564885272952300,10.895952392578126,2.959364891052246,-1.379768967628479,-2.605535984039306
1780564885292479200,10.915479248046877,3.2508139610290527,-1.2324509620666504,-3.2231218814849854
1780564885312008700,10.9350087890625,3.2508139610290527,-1.2324509620666504,-3.2231218814849854
1780564885331539200,10.954539306640624,2.2412219047546387,-1.1107189655303955,-2.783323049545288
1780564885351066000,10.974066162109375,2.2412219047546387,-1.1107189655303955,-2.783323049545288
1780564885370589700,10.993589599609376,1.9778469800949097,-0.696029007434845,-2.959305047988892
1780564885390114800,11.01311474609375,1.9778469800949097,-0.696029007434845,-2.959305047988892
1780564885409639700,11.0326396484375,1.9778469800949097,-0.696029007434845,-2.959305047988892
1780564885429159200,11.0521591796875,2.708820104598999,-0.8264250159263611,-3.388711929321289
1780564885448682200,11.07168212890625,2.708820104598999,-0.8264250159263611,-3.388711929321289
1780564885468206300,11.091206298828125,2.411536931991577,-1.0223809480667114,-1.2533819675445557
1780564885487730700,11.110730712890623,2.411536931991577,-1.0223809480667114,-1.2533819675445557
1780564885507257600,11.130257568359376,1.4028340578079224,-1.052289962768555,-0.7646530270576477
1780564885526777600,11.149777587890624,1.4028340578079224,-1.052289962768555,-0.7646530270576477
1780564885546294500,11.16929443359375,0.4218829870223999,-0.9827150106430054,-0.2904999852180481
1780564885565817600,11.188817626953124,0.4218829870223999,-0.9827150106430054,-0.2904999852180481
1780564885585345000,11.208344970703124,-0.5168309807777405,-0.8471230268478394,0.4383440017700195
1780564885604870400,11.227870361328126,-0.5168309807777405,-0.8471230268478394,0.4383440017700195
1780564885624394200,11.247394287109374,-1.603024959564209,-0.592494010925293,1.2436480522155762
1780564885643919600,11.266919677734377,-1.603024959564209,-0.592494010925293,1.2436480522155762
1780564885663443200,11.286443115234375,-2.404582023620605,-0.1769549995660781,1.6384259462356567
1780564885682965800,11.3059658203125,-2.404582023620605,-0.1769549995660781,1.6384259462356567
1780564885702494500,11.325494384765625,-2.5724339485168457,0.3256059885025024,1.528756022453308
1780564885722022000,11.34502197265625,-2.5724339485168457,0.3256059885025024,1.528756022453308
1780564885741545500,11.36454541015625,-2.380336046218872,0.744189977645874,1.1327600479125977
1780564885761074400,11.384074462890624,-2.380336046218872,0.744189977645874,1.1327600479125977
1780564885780603400,11.403603271484377,-2.1565630435943604,1.1244029998779297,-1.1043169498443604
1780564885800126500,11.42312646484375,-2.1565630435943604,1.1244029998779297,-1.1043169498443604
1780564885819650600,11.442650634765624,-1.779384970664978,1.715824007987976,-3.080941915512085
1780564885839178200,11.46217822265625,-1.779384970664978,1.715824007987976,-3.080941915512085
1780564885858702800,11.481702880859377,-1.374351978302002,2.362006902694702,-4.962647914886475
1780564885878227500,11.5012275390625,-1.374351978302002,2.362006902694702,-4.962647914886475
1780564885897756700,11.520756591796877,-1.169180989265442,2.629348993301392,-4.859413146972656
1780564885917284400,11.540284423828124,-1.169180989265442,2.629348993301392,-4.859413146972656
1780564885936810800,11.559810791015623,-1.21743905544281,2.709523916244507,-4.022443771362305
1780564885956338000,11.579337890625,-1.21743905544281,2.709523916244507,-4.022443771362305
1780564885975864000,11.598864013671877,-0.9721099734306335,2.5167899131774902,-2.0423920154571533
1780564885995390500,11.618390380859376,-0.9721099734306335,2.5167899131774902,-2.0423920154571533
1780564886014913800,11.637913818359374,0.1149630025029182,1.7660670280456543,-0.0613389983773231
1780564886034439200,11.657439208984377,0.1149630025029182,1.7660670280456543,-0.0613389983773231
1780564886053963500,11.676963623046875,1.0150270462036133,0.7871540188789368,2.3216118812561035
1780564886073483800,11.69648388671875,1.0150270462036133,0.7871540188789368,2.3216118812561035
1780564886093006600,11.716006591796877,1.0916160345077517,-0.1637559980154037,3.139024019241333
1780564886112533000,11.735532958984376,1.0916160345077517,-0.1637559980154037,3.139024019241333
1780564886132059600,11.7550595703125,1.0916160345077517,-0.1637559980154037,3.139024019241333
1780564886151586000,11.7745859375,0.5053070187568665,-0.9960740208625792,4.740302085876465
1780564886171111200,11.794111083984374,0.2485329955816269,-1.1570780277252195,4.815098762512207
1780564886190635800,11.8136357421875,0.2485329955816269,-1.1570780277252195,4.815098762512207
1780564886210160400,11.833160400390623,-0.088079996407032,-1.1165989637374878,2.775454044342041
1780564886229685200,11.852685302734375,-0.088079996407032,-1.1165989637374878,2.775454044342041
1780564886249209000,11.872208984375,-0.088079996407032,-1.1165989637374878,2.775454044342041
1780564886268734500,11.891734375,0.5055519938468933,-0.6374809741973877,-1.7095489501953125
1780564886288263200,11.91126318359375,0.5055519938468933,-0.6374809741973877,-1.7095489501953125
1780564886307785700,11.93078564453125,2.510006904602051,-0.3367460072040558,-3.8383359909057617
1780564886327307000,11.95030712890625,2.510006904602051,-0.3367460072040558,-3.8383359909057617
1780564886346832100,11.96983203125,2.9198269844055176,0.0380130000412464,-4.618823051452637
1780564886366357500,11.989357421875,2.9198269844055176,0.0380130000412464,-4.618823051452637
1780564886385880300,12.00888037109375,2.933733940124512,0.4983350038528442,-4.658063888549805
1780564886405404700,12.02840478515625,2.933733940124512,0.4983350038528442,-4.658063888549805
1780564886424929000,12.047928955078126,3.382340908050537,0.6173719763755798,-4.36642599105835
1780564886444455400,12.067455322265625,3.382340908050537,0.6173719763755798,-4.36642599105835
1780564886463980500,12.08698046875,3.81729793548584,0.181764006614685,-2.0187599658966064
1780564886483500000,12.1065,3.81729793548584,0.181764006614685,-2.0187599658966064
1780564886503025200,12.126025146484375,3.164414882659912,-0.642877995967865,0.223471000790596
1780564886522550500,12.145550537109376,3.164414882659912,-0.642877995967865,0.223471000790596
1780564886542073000,12.165072998046876,2.0610580444335938,-0.9983810186386108,0.5710150003433228
1780564886561598000,12.184597900390624,2.0610580444335938,-0.9983810186386108,0.5710150003433228
1780564886581124600,12.20412451171875,0.8387079834938049,-0.8203970193862915,0.1406929939985275
1780564886600649200,12.223649169921876,0.8387079834938049,-0.8203970193862915,0.1406929939985275
1780564886620174600,12.243174560546874,-0.6073909997940063,-0.7137619853019714,0.540569007396698
1780564886639704000,12.2627041015625,-0.6073909997940063,-0.7137619853019714,0.540569007396698
1780564886659235600,12.282235595703124,-1.4637600183486938,-0.5782589912414551,0.9796850085258484
1780564886678767600,12.301767578125,-1.4637600183486938,-0.5782589912414551,0.9796850085258484
1780564886698297900,12.3212978515625,-1.8288160562515257,-0.3865379989147186,1.0669260025024414
1780564886717824000,12.340823974609377,-1.8288160562515257,-0.3865379989147186,1.0669260025024414
1780564886737347300,12.360347412109377,-2.314784049987793,-0.1775150001049041,1.029999017715454
1780564886756873700,12.379873779296876,-2.314784049987793,-0.1775150001049041,1.029999017715454
1780564886776403000,12.39940283203125,-2.5320990085601807,0.3170819878578186,-0.8691629767417908
1780564886795935200,12.418935302734376,-2.5320990085601807,0.3170819878578186,-0.8691629767417908
1780564886815468800,12.43846875,-2.2692010402679443,0.9348350167274476,-1.841657042503357
1780564886835000600,12.45800048828125,-2.2692010402679443,0.9348350167274476,-1.841657042503357
1780564886854527200,12.47752734375,-2.032068967819214,1.318181037902832,-2.83626389503479
1780564886874052600,12.497052490234376,-2.032068967819214,1.318181037902832,-2.83626389503479
1780564886893579800,12.516579833984377,-1.6967849731445312,1.5208380222320557,-3.46882700920105
1780564886913100800,12.536100830078125,-1.6967849731445312,1.5208380222320557,-3.46882700920105
1780564886932625700,12.555625732421875,-1.2602880001068115,1.5979870557785034,-3.881967067718506
1780564886952153600,12.575153564453124,-1.2602880001068115,1.5979870557785034,-3.881967067718506
1780564886971678200,12.59467822265625,-1.2602880001068115,1.5979870557785034,-3.881967067718506
1780564886991203800,12.614203857421876,-0.4950990080833435,1.7269079685211182,-4.079308986663818
1780564887010732300,12.633732177734377,-0.0216499995440244,1.6191920042037964,-3.600169897079468
1780564887030262000,12.653261962890625,-0.0216499995440244,1.6191920042037964,-3.600169897079468
1780564887049793000,12.67279296875,0.5451310276985168,1.143602967262268,0.1863940060138702
1780564887069327000,12.6923271484375,0.5451310276985168,1.143602967262268,0.1863940060138702
1780564887088855600,12.71185546875,0.5451310276985168,1.143602967262268,0.1863940060138702
1780564887108384800,12.731384765625,0.3076289892196655,0.3694149851799011,4.065408229827881
1780564887127916500,12.75091650390625,0.3076289892196655,0.3694149851799011,4.065408229827881
1780564887147445800,12.77044580078125,-0.195031002163887,-0.1008979976177215,4.927998065948486
1780564887166976800,12.789976806640626,-0.195031002163887,-0.1008979976177215,4.927998065948486
1780564887186512100,12.80951220703125,-0.3052389919757843,-0.3314760029315948,5.3215532302856445
1780564887206046000,12.8290458984375,-0.3052389919757843,-0.3314760029315948,5.3215532302856445
1780564887225576700,12.84857666015625,0.2056860029697418,-0.6226930022239685,4.602556228637695
1780564887245107200,12.868107177734377,0.2056860029697418,-0.6226930022239685,4.602556228637695
1780564887264634400,12.88763427734375,1.273123025894165,-1.1372970342636108,1.1643630266189575
1780564887284159000,12.907158935546876,1.273123025894165,-1.1372970342636108,1.1643630266189575
1780564887303679700,12.9266796875,3.0831549167633057,-1.4803849458694458,-2.327430963516236
1780564887323201500,12.946201416015626,3.0831549167633057,-1.4803849458694458,-2.327430963516236
1780564887342727400,12.9657275390625,3.725611925125122,-1.6387640237808228,-2.419374942779541
1780564887362253800,12.98525390625,3.725611925125122,-1.6387640237808228,-2.419374942779541
1780564887381775400,13.004775390625,3.764394998550415,-1.643584966659546,-1.7891420125961304
1780564887401294800,13.024294921875,3.764394998550415,-1.643584966659546,-1.7891420125961304
1780564887420818000,13.04381787109375,4.180366039276123,-1.224892020225525,-2.0075159072875977
1780564887440336100,13.063336181640626,4.180366039276123,-1.224892020225525,-2.0075159072875977
1780564887459852300,13.082852294921874,4.654112815856934,-0.7196289896965027,-2.8025341033935547
1780564887479370200,13.102370361328123,4.654112815856934,-0.7196289896965027,-2.8025341033935547
1780564887498889500,13.121889404296876,2.5729520320892334,-0.3871729969978332,-2.382986068725586
1780564887518414800,13.141414794921875,2.5729520320892334,-0.3871729969978332,-2.382986068725586
1780564887537941000,13.16094091796875,0.1375979930162429,-0.2652269899845123,-0.4111669957637787
1780564887557464300,13.18046435546875,0.1375979930162429,-0.2652269899845123,-0.4111669957637787
1780564887576984300,13.199984375,-0.6840869784355164,-0.5520709753036499,0.3125
1780564887596502000,13.219501953125,-0.6840869784355164,-0.5520709753036499,0.3125
1780564887616024300,13.2390244140625,-0.3745209872722626,-0.9646660089492798,0.658909022808075
1780564887635551200,13.25855126953125,-0.3745209872722626,-0.9646660089492798,0.658909022808075
1780564887655074000,13.278073974609375,-0.3587920069694519,-1.264333963394165,1.2126330137252808
1780564887674598400,13.297598388671876,-0.3587920069694519,-1.264333963394165,1.2126330137252808
1780564887694122800,13.317122802734374,-0.9310399889945984,-1.2572189569473269,1.7400469779968262
1780564887713647600,13.336647705078123,-0.9310399889945984,-1.2572189569473269,1.7400469779968262
1780564887733175000,13.356175048828124,-1.480260968208313,-0.9084650278091432,1.3984479904174805
1780564887752700200,13.3757001953125,-1.480260968208313,-0.9084650278091432,1.3984479904174805
1780564887772224800,13.395224853515623,-1.480260968208313,-0.9084650278091432,1.3984479904174805
1780564887791751000,13.4147509765625,-1.850234031677246,0.3072620034217834,-3.57214903831482
1780564887811274200,13.434274169921874,-2.038175106048584,0.9378719925880432,-3.8472750186920166
1780564887830796000,13.453796142578126,-2.038175106048584,0.9378719925880432,-3.8472750186920166
1780564887850319400,13.4733193359375,-2.8892030715942383,2.1256089210510254,-4.151532173156738
1780564887869839400,13.49283935546875,-2.8892030715942383,2.1256089210510254,-4.151532173156738
1780564887889356500,13.5123564453125,-2.8892030715942383,2.1256089210510254,-4.151532173156738
1780564887908875500,13.53187548828125,-3.310513973236084,3.679948091506958,-3.7156920433044434
1780564887928397600,13.5513974609375,-3.310513973236084,3.679948091506958,-3.7156920433044434
1780564887947920600,13.570920654296875,-2.487720012664795,3.902367115020752,-3.6252810955047607
1780564887967444700,13.59044482421875,-2.487720012664795,3.902367115020752,-3.6252810955047607
1780564887986969900,13.609969970703125,0.0445870012044906,3.5690300464630127,-3.148231029510498
1780564888006492400,13.629492431640625,0.0445870012044906,3.5690300464630127,-3.148231029510498
1780564888026012200,13.64901220703125,0.6610080003738403,2.9963390827178955,-2.482564926147461
1780564888045534200,13.6685341796875,0.6610080003738403,2.9963390827178955,-2.482564926147461
1780564888065061600,13.6880615234375,0.5810949802398682,2.3568758964538574,-1.5576950311660769
1780564888084593000,13.707593017578125,0.5810949802398682,2.3568758964538574,-1.5576950311660769
1780564888104125400,13.72712548828125,-1.3282469511032104,1.5965369939804075,1.9835360050201416
1780564888123657000,13.746656982421875,-1.3282469511032104,1.5965369939804075,1.9835360050201416
1780564888143185000,13.766184814453124,-1.610416054725647,0.5264099836349487,3.891180038452149
1780564888162707700,13.785707763671876,-1.610416054725647,0.5264099836349487,3.891180038452149
1780564888182228500,13.805228515625,-1.2858610153198242,-0.596900999546051,4.519917964935303
1780564888201753000,13.824753173828125,-1.2858610153198242,-0.596900999546051,4.519917964935303
1780564888221280500,13.844280517578126,-0.144117996096611,-1.3800489902496338,4.338480949401856
1780564888240810800,13.863810791015624,-0.144117996096611,-1.3800489902496338,4.338480949401856
1780564888260343300,13.88334326171875,1.769829034805298,-1.825191020965576,3.3948490619659424
1780564888279873300,13.902873291015624,1.769829034805298,-1.825191020965576,3.3948490619659424
1780564888299398000,13.92239794921875,2.635319948196411,-1.8632450103759768,-0.2902800142765045
1780564888318920700,13.941920654296876,2.635319948196411,-1.8632450103759768,-0.2902800142765045
1780564888338446000,13.961446044921876,3.620349884033203,-1.5802509784698486,-2.815073013305664
1780564888357974500,13.980974609375,3.620349884033203,-1.5802509784698486,-2.815073013305664
1780564888377505000,14.000505126953126,3.888971090316773,-1.2796659469604492,-3.9568309783935542
1780564888397036000,14.0200361328125,3.888971090316773,-1.2796659469604492,-3.9568309783935542
1780564888416564000,14.03956396484375,2.996630907058716,-0.6102060079574585,-4.075788974761963
1780564888436091100,14.059091064453124,2.996630907058716,-0.6102060079574585,-4.075788974761963
1780564888455617300,14.0786171875,2.205638885498047,-0.1060160025954246,-3.299622058868408
1780564888475140600,14.098140625,2.205638885498047,-0.1060160025954246,-3.299622058868408
1780564888494668300,14.117668212890624,2.432929992675781,-0.4065859913825989,-2.205693006515503
1780564888514199600,14.137199462890624,2.432929992675781,-0.4065859913825989,-2.205693006515503
1780564888533723000,14.156722900390625,2.769871950149536,-0.8739290237426758,-1.865090012550354
1780564888553239800,14.17623974609375,2.769871950149536,-0.8739290237426758,-1.865090012550354
1780564888572761600,14.19576171875,2.0582449436187744,-1.0850030183792114,-1.5433770418167114
1780564888592292400,14.215292236328125,2.0582449436187744,-1.0850030183792114,-1.5433770418167114
1780564888611826000,14.234825927734375,0.6767889857292175,-1.017186999320984,-0.9059029817581176
1780564888631357000,14.25435693359375,0.6767889857292175,-1.017186999320984,-0.9059029817581176
1780564888650885600,14.2738857421875,-0.7154920101165771,-0.9017009735107422,0.1528480052947998
1780564888670412800,14.293412841796876,-0.7154920101165771,-0.9017009735107422,0.1528480052947998
1780564888689943300,14.312943359375,-1.7481900453567505,-0.7975829839706421,1.1108460426330566
1780564888709471200,14.33247119140625,-1.7481900453567505,-0.7975829839706421,1.1108460426330566
1780564888728995600,14.35199560546875,-1.7481900453567505,-0.7975829839706421,1.1108460426330566
1780564888748521700,14.371521728515624,-3.110506057739258,0.0044599999673664,1.6234920024871826
1780564888768049000,14.391048828125,-3.110506057739258,0.0044599999673664,1.6234920024871826
1780564888787576000,14.410576171875,-3.574081897735596,0.4617910087108612,1.885849952697754
1780564888807105000,14.43010498046875,-3.574081897735596,0.4617910087108612,1.885849952697754
1780564888826635300,14.44963525390625,-3.161870002746582,0.8475900292396545,-0.4984099864959717
1780564888846162700,14.46916259765625,-3.161870002746582,0.8475900292396545,-0.4984099864959717
1780564888865688800,14.488688720703124,-2.9858100414276123,1.7269469499588013,-2.667937994003296
1780564888885216500,14.508216552734376,-2.9858100414276123,1.7269469499588013,-2.667937994003296
1780564888904748800,14.527748779296877,-3.190771102905273,2.3768789768218994,-3.6061251163482666
1780564888924284200,14.5472841796875,-3.190771102905273,2.3768789768218994,-3.6061251163482666
1780564888943814400,14.566814453125,-2.558581113815308,2.5295979976654053,-3.782325983047485
1780564888963342000,14.586342041015625,-2.558581113815308,2.5295979976654053,-3.782325983047485
1780564888982871800,14.605871826171876,-1.1073440313339231,2.5554370880126958,-3.909830093383789
1780564889002402000,14.625402099609374,-1.1073440313339231,2.5554370880126958,-3.909830093383789
1780564889021933000,14.64493310546875,0.1496849954128265,2.2988169193267822,-3.712759017944336
1780564889041465600,14.664465576171876,0.1496849954128265,2.2988169193267822,-3.712759017944336
1780564889060998100,14.683998046875,1.0944210290908811,1.5156170129776,-1.315714955329895
1780564889080528600,14.703528564453125,1.0944210290908811,1.5156170129776,-1.315714955329895
1780564889100060000,14.723059814453125,1.0962589979171753,0.7228109836578369,1.0609780550003052
1780564889119591000,14.7425908203125,1.0962589979171753,0.7228109836578369,1.0609780550003052
1780564889139118000,14.7621181640625,-0.7137309908866882,0.2387759983539581,3.020989894866944
1780564889158645500,14.7816455078125,-0.7137309908866882,0.2387759983539581,3.020989894866944
1780564889178176300,14.80117626953125,-1.2291899919509888,-0.2679390013217926,3.6526811122894287
1780564889197706800,14.820706787109376,-1.2291899919509888,-0.2679390013217926,3.6526811122894287
1780564889217237200,14.8402373046875,-0.8072220087051392,-0.8953620195388794,3.3044259548187256
1780564889236768800,14.859768798828124,-0.8072220087051392,-0.8953620195388794,3.3044259548187256
1780564889256302600,14.879302490234377,0.2664670050144195,-1.4296430349349976,2.432007074356079
1780564889275831800,14.898831787109376,0.2664670050144195,-1.4296430349349976,2.432007074356079
1780564889295355000,14.91835498046875,1.2827240228652954,-1.654863953590393,1.4177980422973633
1780564889314883300,14.93788330078125,1.2827240228652954,-1.654863953590393,1.4177980422973633
1780564889334414600,14.95741455078125,2.0831849575042725,-1.279837965965271,-2.3451759815216064
1780564889353943300,14.976943359375,2.0831849575042725,-1.279837965965271,-2.3451759815216064
1780564889373471000,14.996470947265625,2.5667340755462646,-0.8389300107955933,-2.968492031097412
1780564889392993300,15.0159931640625,2.5667340755462646,-0.8389300107955933,-2.968492031097412
1780564889412511700,15.03551171875,2.3956549167633057,-0.7043570280075073,-2.750801086425781
1780564889432030200,15.0550302734375,2.3956549167633057,-0.7043570280075073,-2.750801086425781
1780564889451553000,15.074552978515625,2.8816490173339844,-0.5006830096244812,-3.2277700901031494
1780564889471080000,15.094079833984376,2.8816490173339844,-0.5006830096244812,-3.2277700901031494
1780564889490606600,15.113606689453125,4.440114974975586,-0.4510110020637512,-4.051821231842041
1780564889510131000,15.133130859375,4.440114974975586,-0.4510110020637512,-4.051821231842041
1780564889529654300,15.152654296875,4.440114974975586,-0.4510110020637512,-4.051821231842041
1780564889549184000,15.17218408203125,2.0712039470672607,-0.9427589774131776,-0.3459379971027374
1780564889568722400,15.191722412109376,2.0712039470672607,-0.9427589774131776,-0.3459379971027374
1780564889588259000,15.211259033203126,1.315147042274475,-1.001222014427185,0.165362998843193
1780564889607789000,15.2307890625,1.315147042274475,-1.001222014427185,0.165362998843193
1780564889627317000,15.25031689453125,0.6993039846420288,-0.8966699838638306,-0.1450829952955246
1780564889646848300,15.26984814453125,0.6993039846420288,-0.8966699838638306,-0.1450829952955246
1780564889666378200,15.289378173828124,-0.0300910007208585,-0.8151749968528748,0.1244779974222183
1780564889685906200,15.30890625,-0.0300910007208585,-0.8151749968528748,0.1244779974222183
1780564889705435600,15.328435546875,-0.7810350060462952,-0.7116029858589172,0.9297890067100524
1780564889724965400,15.34796533203125,-0.7810350060462952,-0.7116029858589172,0.9297890067100524
1780564889744493600,15.36749365234375,-1.188639998435974,-0.6081290245056152,1.2975749969482422
1780564889764019700,15.387019775390623,-1.188639998435974,-0.6081290245056152,1.2975749969482422
1780564889783546400,15.40654638671875,-1.4970779418945312,-0.3123469948768616,1.304057002067566
1780564889803069200,15.426069091796874,-1.4970779418945312,-0.3123469948768616,1.304057002067566
1780564889822590200,15.445590087890626,-2.033013105392456,0.2030359953641891,0.8805580139160156
1780564889842108200,15.465108154296876,-2.033013105392456,0.2030359953641891,0.8805580139160156
1780564889861626400,15.48462646484375,-2.4137039184570312,0.9576759934425354,-1.1762369871139526
1780564889881143600,15.5041435546875,-2.4137039184570312,0.9576759934425354,-1.1762369871139526
1780564889900661500,15.52366162109375,-2.686645984649658,1.7758309841156006,-3.12352991104126
1780564889920181200,15.54318115234375,-2.686645984649658,1.7758309841156006,-3.12352991104126
1780564889939699200,15.56269921875,-2.5917201042175293,2.0931310653686523,-3.820452928543091
1780564889959216600,15.582216552734376,-2.5917201042175293,2.0931310653686523,-3.820452928543091
1780564889978739000,15.601739013671876,-1.6091259717941284,1.801416039466858,-4.332923889160156
1780564889998268000,15.621267822265626,-1.6091259717941284,1.801416039466858,-4.332923889160156
1780564890017796900,15.640796875,-0.7421010136604309,1.399793028831482,-4.4595561027526855
1780564890037324000,15.660323974609376,-0.7421010136604309,1.399793028831482,-4.4595561027526855
1780564890056849700,15.679849609375,-0.2747229933738708,1.1199769973754885,-3.500922918319702
1780564890076377600,15.699377685546876,-0.2747229933738708,1.1199769973754885,-3.500922918319702
1780564890095907300,15.7189072265625,0.5172730088233948,0.6018419861793518,0.2253630012273788
1780564890115437600,15.7384375,0.5172730088233948,0.6018419861793518,0.2253630012273788
1780564890134968000,15.757968017578126,1.2153819799423218,-0.0992280021309852,1.1783339977264404
1780564890154493700,15.77749365234375,1.2153819799423218,-0.0992280021309852,1.1783339977264404
1780564890174017000,15.79701708984375,1.7352910041809082,-0.0481050014495849,3.213870048522949
1780564890193547800,15.8165478515625,1.7352910041809082,-0.0481050014495849,3.213870048522949
1780564890213083100,15.836083251953124,-0.3877129852771759,0.40208500623703,4.227606773376465
1780564890232614000,15.85561376953125,-0.3877129852771759,0.40208500623703,4.227606773376465
1780564890252143600,15.8751435546875,-2.292618989944458,0.3805400133132934,4.864910125732422
1780564890271670500,15.89467041015625,-2.292618989944458,0.3805400133132934,4.864910125732422
1780564890291191600,15.914191650390626,-1.8668529987335205,-0.2492569983005523,3.150445938110352
1780564890310716400,15.93371630859375,-1.8668529987335205,-0.2492569983005523,3.150445938110352
1780564890330249200,15.953249267578125,1.5277750492095947,-1.1659940481185913,-0.6856399774551392
1780564890349783000,15.972782958984377,1.5277750492095947,-1.1659940481185913,-0.6856399774551392
1780564890369309400,15.992309326171876,1.5277750492095947,-1.1659940481185913,-0.6856399774551392
1780564890388831500,16.01183154296875,6.2583770751953125,-2.6909708976745605,-5.393014907836914
1780564890408355000,16.03135498046875,6.2583770751953125,-2.6909708976745605,-5.393014907836914
1780564890427876600,16.050876708984376,5.900181770324707,-3.2895209789276123,-3.45177698135376
1780564890447398100,16.070398193359374,5.900181770324707,-3.2895209789276123,-3.45177698135376
1780564890466923000,16.089923095703124,3.577543020248413,-2.605025053024292,-3.085192918777466
1780564890486451500,16.109451416015624,3.577543020248413,-2.605025053024292,-3.085192918777466
1780564890505979000,16.128978759765626,2.7232840061187744,-1.5266319513320925,-2.9572229385375977
1780564890525504500,16.14850439453125,2.7232840061187744,-1.5266319513320925,-2.9572229385375977
1780564890545030700,16.16803076171875,1.6216779947280884,-0.7871749997138977,-2.4859631061553955
1780564890564555300,16.18755517578125,1.6216779947280884,-0.7871749997138977,-2.4859631061553955
1780564890584081700,16.20708154296875,0.9065430164337158,-0.4755760133266449,-1.6852829456329346
1780564890603606800,16.226606689453124,0.9065430164337158,-0.4755760133266449,-1.6852829456329346
1780564890623134500,16.246134521484375,0.5939509868621826,-0.5274999737739563,-0.8665670156478882
1780564890642667500,16.26566748046875,0.5939509868621826,-0.5274999737739563,-0.8665670156478882
1780564890662199800,16.28519970703125,0.1587969958782196,-0.6060839891433716,-0.0178779996931552
1780564890681728500,16.304728515625,0.1587969958782196,-0.6060839891433716,-0.0178779996931552
1780564890701257500,16.324257568359375,-0.7393929958343506,-0.4351919889450073,0.9818570017814636
1780564890720788200,16.343788330078127,-0.7393929958343506,-0.4351919889450073,0.9818570017814636
1780564890740318500,16.363318359375,-2.901076078414917,0.5920829772949219,1.482272028923035
1780564890759846000,16.382845947265626,-2.901076078414917,0.5920829772949219,1.482272028923035
1780564890779371800,16.402371826171876,-3.2894270420074463,1.7732720375061035,2.0004260540008545
1780564890798898200,16.421898193359375,-3.2894270420074463,1.7732720375061035,2.0004260540008545
1780564890818430000,16.441429931640624,-2.8342390060424805,2.1748740673065186,1.962317943572998
1780564890837963800,16.4609638671875,-2.8342390060424805,2.1748740673065186,1.962317943572998
1780564890857494000,16.480493896484376,-2.2141950130462646,2.5131618976593018,-2.1176769733428955
1780564890877022200,16.500022216796875,-2.2141950130462646,2.5131618976593018,-2.1176769733428955
1780564890896549600,16.519549560546874,-2.488353967666626,3.625588893890381,-4.7502970695495605
1780564890916078300,16.539078369140626,-2.488353967666626,3.625588893890381,-4.7502970695495605
1780564890935605500,16.55860546875,-4.439601898193359,4.51091194152832,-5.151222229003906
1780564890955133000,16.5781328125,-4.439601898193359,4.51091194152832,-5.151222229003906
1780564890974663700,16.59766357421875,-4.386143207550049,3.9845690727233887,-3.029505968093872
1780564890994193700,16.617193603515624,-4.386143207550049,3.9845690727233887,-3.029505968093872
1780564891013721300,16.636721435546875,-1.7020089626312256,2.518852949142456,-2.6871678829193115
1780564891033251800,16.656251953125,-1.7020089626312256,2.518852949142456,-2.6871678829193115
1780564891052781800,16.67578173828125,2.3478569984436035,1.1808730363845823,-2.4016950130462646
1780564891072310300,16.695310302734374,2.3478569984436035,1.1808730363845823,-2.4016950130462646
1780564891091841000,16.714841064453125,2.3478569984436035,1.1808730363845823,-2.4016950130462646
1780564891111371000,16.73437109375,2.966109037399292,0.1773390024900436,0.2376500070095062
1780564891130899000,16.75389892578125,1.097684025764465,-0.0952479988336563,0.7978469729423523
1780564891150427000,16.773427001953124,1.097684025764465,-0.0952479988336563,0.7978469729423523
1780564891169952500,16.792952392578126,0.2390729933977127,-0.2370949983596801,2.8055639266967773
1780564891189479700,16.812479736328125,0.2390729933977127,-0.2370949983596801,2.8055639266967773
1780564891209006300,16.83200634765625,0.2390729933977127,-0.2370949983596801,2.8055639266967773
1780564891228529000,16.85152880859375,-1.0358870029449463,-0.4309499859809875,5.30455207824707
1780564891248053500,16.871053466796877,-1.0358870029449463,-0.4309499859809875,5.30455207824707
1780564891267578000,16.890578125,-0.6926050186157227,-0.6855409741401672,5.080732822418213
1780564891287102000,16.91010205078125,-0.6926050186157227,-0.6855409741401672,5.080732822418213
1780564891306626000,16.9296259765625,1.6973329782485962,-0.6886280179023743,1.2228269577026367
1780564891326149600,16.949149658203126,1.6973329782485962,-0.6886280179023743,1.2228269577026367
1780564891345673000,16.9686728515625,3.382313966751098,-0.4737469851970672,-3.12795090675354
1780564891365194800,16.98819482421875,3.382313966751098,-0.4737469851970672,-3.12795090675354
1780564891404251600,17.027251708984377,3.2483808994293213,-0.4119679927825928,-3.884704113006592
1780564891423780400,17.0467802734375,3.182446002960205,-0.3646459877490997,-4.045417785644531
1780564891443308300,17.066308349609375,3.182446002960205,-0.3646459877490997,-4.045417785644531
1780564891462838500,17.085838623046875,3.645942926406861,-0.3640849888324737,-3.98127007484436
1780564891482367700,17.10536767578125,3.645942926406861,-0.3640849888324737,-3.98127007484436
1780564891501896400,17.124896484375,3.944801092147827,-0.7012509703636169,-1.875707983970642
1780564891521426000,17.144426025390626,3.944801092147827,-0.7012509703636169,-1.875707983970642
1780564891540956700,17.163956787109374,3.5886669158935547,-1.0514689683914185,-1.453287959098816
1780564891560492300,17.1834921875,3.5886669158935547,-1.0514689683914185,-1.453287959098816
1780564891580025300,17.203025390625,2.495551109313965,-1.090371012687683,-1.650434970855713
1780564891599559700,17.2225595703125,2.495551109313965,-1.090371012687683,-1.650434970855713
1780564891619097600,17.24209765625,1.1242660284042358,-1.0032180547714231,-1.5352250337600708
1780564891638634500,17.261634521484375,1.1242660284042358,-1.0032180547714231,-1.5352250337600708
1780564891658171600,17.281171630859376,-0.1039920002222061,-0.8516259789466858,-0.9210389852523804
1780564891677702400,17.300702392578124,-0.1039920002222061,-0.8516259789466858,-0.9210389852523804
1780564891697232000,17.32023193359375,-0.914550006389618,-0.7853010296821594,-0.0270470008254051
1780564891716767200,17.339767333984376,-0.914550006389618,-0.7853010296821594,-0.0270470008254051
1780564891736298500,17.359298583984376,-1.6326459646224976,-0.3792630136013031,0.5259649753570557
1780564891755828200,17.378828125,-1.6326459646224976,-0.3792630136013031,0.5259649753570557
1780564891775358500,17.3983583984375,-2.5018019676208496,0.5039430260658264,0.7967110276222229
1780564891794884600,17.417884521484375,-2.5018019676208496,0.5039430260658264,0.7967110276222229
1780564891814406400,17.437406494140625,-3.203788995742798,0.97461599111557,1.0239930152893066
1780564891833928400,17.456928466796874,-3.203788995742798,0.97461599111557,1.0239930152893066
1780564891853455000,17.476455078125,-4.025247097015381,1.3169159889221191,0.659841001033783
1780564891872984000,17.495984130859377,-4.025247097015381,1.3169159889221191,0.659841001033783
1780564891892509400,17.515509521484375,-4.381281852722168,2.068120002746582,-1.283383011817932
1780564891912034600,17.53503466796875,-4.381281852722168,2.068120002746582,-1.283383011817932
1780564891931560700,17.554560791015625,-4.381281852722168,2.068120002746582,-1.283383011817932
1780564891951084300,17.574084228515623,-1.9124490022659304,2.298508882522583,-3.733704090118408
1780564891970605300,17.593605224609377,-1.213575005531311,2.1916658878326416,-5.128130912780762
1780564891990128000,17.613128173828127,-1.213575005531311,2.1916658878326416,-5.128130912780762
1780564892009651200,17.632651123046877,0.0896750018000602,2.0876500606536865,-5.647854804992676
1780564892029178600,17.6521787109375,0.0896750018000602,2.0876500606536865,-5.647854804992676
1780564892048710100,17.671710205078124,0.0896750018000602,2.0876500606536865,-5.647854804992676
1780564892068239600,17.691239501953124,1.0173790454864502,1.661497950553894,-4.610307216644287
1780564892087769300,17.710769287109375,1.0173790454864502,1.661497950553894,-4.610307216644287
1780564892107300600,17.730300537109375,0.491685003042221,1.4025349617004397,-1.2709660530090332
1780564892126834400,17.74983447265625,0.491685003042221,1.4025349617004397,-1.2709660530090332
1780564892146372400,17.769372314453125,-1.323009014129639,1.1275229454040527,2.3210699558258057
1780564892165911300,17.788911376953124,-1.323009014129639,1.1275229454040527,2.3210699558258057
1780564892185448400,17.808448486328125,-1.3741220235824585,0.4487839937210083,3.081016063690185
1780564892204983800,17.82798388671875,-1.3741220235824585,0.4487839937210083,3.081016063690185
1780564892224520200,17.847520263671875,-0.5941950082778931,-0.6380040049552917,3.644001007080078
1780564892244053500,17.867053466796875,-0.5941950082778931,-0.6380040049552917,3.644001007080078
1780564892263584300,17.886584228515623,0.6074249744415283,-1.5123790502548218,3.5798261165618896
1780564892283115800,17.90611572265625,0.6074249744415283,-1.5123790502548218,3.5798261165618896
1780564892302645000,17.92564501953125,1.498291015625,-1.8965610265731807,3.102163076400757
1780564892322179000,17.945178955078124,1.498291015625,-1.8965610265731807,3.102163076400757
1780564892341712000,17.9647119140625,1.8773809671401975,-1.6614350080490112,0.9913100004196168
1780564892361242000,17.9842421875,1.8773809671401975,-1.6614350080490112,0.9913100004196168
1780564892380777000,18.00377685546875,2.3609790802001958,-0.8236520290374756,-3.162178039550781
1780564892400308700,18.023308837890625,2.3609790802001958,-0.8236520290374756,-3.162178039550781
1780564892419840000,18.042840087890625,2.494246006011963,-0.2068440020084381,-4.240094184875488
1780564892439374300,18.062374267578125,2.494246006011963,-0.2068440020084381,-4.240094184875488
1780564892458900700,18.081900634765624,1.970041036605835,0.0092829996719956,-3.6691970825195312
1780564892478424300,18.10142431640625,1.970041036605835,0.0092829996719956,-3.6691970825195312
1780564892497948000,18.12094799804688,2.3073298931121826,0.2228199988603592,-3.077631950378418
1780564892517473500,18.1404736328125,2.3073298931121826,0.2228199988603592,-3.077631950378418
1780564892537001500,18.16000146484375,3.192223072052002,-0.0835940018296241,-2.4751710891723637
1780564892556524500,18.179524658203125,3.192223072052002,-0.0835940018296241,-2.4751710891723637
1780564892576047000,18.199047119140623,3.255060911178589,-0.7328100204467773,-1.3631759881973269
1780564892595567900,18.21856787109375,3.255060911178589,-0.7328100204467773,-1.3631759881973269
1780564892615089200,18.23808911132813,2.736150026321411,-1.124966025352478,-0.601410984992981
1780564892634615300,18.257615234375,2.736150026321411,-1.124966025352478,-0.601410984992981
1780564892654144000,18.27714404296875,2.0550179481506348,-1.1517289876937866,-0.712460994720459
1780564892673670000,18.296669921875,2.0550179481506348,-1.1517289876937866,-0.712460994720459
1780564892693194200,18.3161943359375,0.9607849717140198,-0.8528569936752319,-1.1624170541763306
1780564892712722200,18.33572216796875,0.9607849717140198,-0.8528569936752319,-1.1624170541763306
1780564892732246300,18.355246337890627,0.9607849717140198,-0.8528569936752319,-1.1624170541763306
1780564892751768600,18.3747685546875,-0.4127489924430847,-0.3166309893131256,-1.2564300298690796
1780564892771293400,18.39429345703125,-0.7541339993476868,-0.0319229997694492,-1.2286429405212402
1780564892790823400,18.413823486328123,-0.7541339993476868,-0.0319229997694492,-1.2286429405212402
1780564892810357500,18.433357421875,-0.7541339993476868,-0.0319229997694492,-1.2286429405212402
1780564892829890800,18.452890869140624,-2.0459909439086914,0.3001559972763061,-0.7266359925270081
1780564892849418500,18.47241845703125,-2.0459909439086914,0.3001559972763061,-0.7266359925270081
1780564892868942600,18.49194262695313,-3.0542829036712646,0.5083289742469788,-0.3486010134220123
1780564892888468000,18.511468017578125,-3.0542829036712646,0.5083289742469788,-0.3486010134220123
1780564892907994000,18.530994140625,-3.5777699947357178,0.6297770142555237,-0.0718690007925033
1780564892927521300,18.55052124023437,-3.5777699947357178,0.6297770142555237,-0.0718690007925033
1780564892947052800,18.570052734375,-2.9244210720062256,0.5217009782791138,-0.6696149706840515
1780564892966583800,18.58958374023437,-2.9244210720062256,0.5217009782791138,-0.6696149706840515
1780564892986110200,18.609110107421877,-1.6380540132522583,0.397145003080368,-2.643732070922852
1780564893005639400,18.62863940429688,-1.6380540132522583,0.397145003080368,-2.643732070922852
1780564893025172700,18.6481728515625,-0.8886780142784119,0.4449679851531982,-3.0839619636535645
1780564893044705500,18.66770556640625,-0.8886780142784119,0.4449679851531982,-3.0839619636535645
1780564893064234500,18.687234375,-1.077944040298462,0.7479479908943176,-3.60322904586792
1780564893083763000,18.706762939453125,-1.077944040298462,0.7479479908943176,-3.60322904586792
1780564893103291400,18.72629150390625,-1.458251953125,1.203299045562744,-3.92878794670105
1780564893122817800,18.74581787109375,-1.458251953125,1.203299045562744,-3.92878794670105
1780564893142340600,18.76534057617188,-1.282016038894653,1.1528249979019165,-1.4040809869766235
1780564893161868300,18.784868408203124,-1.282016038894653,1.1528249979019165,-1.4040809869766235
1780564893181404000,18.80440380859375,-0.4186359941959381,0.5244429707527161,0.8547340035438538
1780564893200938500,18.8239384765625,-0.4186359941959381,0.5244429707527161,0.8547340035438538
1780564893220471300,18.84347119140625,0.6965479850769043,-0.1280200034379959,1.8848439455032349
1780564893240000000,18.863,0.6965479850769043,-0.1280200034379959,1.8848439455032349
1780564893259527700,18.882527587890625,1.2392410039901731,-0.6873819828033447,2.544229030609131
1780564893279059200,18.90205908203125,1.2392410039901731,-0.6873819828033447,2.544229030609131
1780564893298590000,18.92158984375,1.2396750450134275,-0.9990389943122864,2.80794095993042
1780564893318119000,18.941118896484376,1.2396750450134275,-0.9990389943122864,2.80794095993042
1780564893376714500,18.999714599609376,1.3905949592590332,-0.243367999792099,-1.631072998046875
1780564893396247000,19.0192470703125,1.3905949592590332,-0.243367999792099,-1.631072998046875
1780564893415774200,19.03877416992188,3.537807941436768,0.2742530107498169,-4.165846824645996
1780564893435304000,19.058303955078124,3.537807941436768,0.2742530107498169,-4.165846824645996
1780564893454836000,19.0778359375,4.380006790161133,0.216607004404068,-4.593963146209717
1780564893474365000,19.09736499023437,4.380006790161133,0.216607004404068,-4.593963146209717
1780564893493892400,19.11689233398437,4.45435094833374,0.0327959991991519,-3.691019058227539
1780564893513421600,19.13642163085937,4.45435094833374,0.0327959991991519,-3.691019058227539
1780564893532953900,19.155953857421878,3.828445911407471,0.0734359994530677,-2.607472896575928
1780564893552489700,19.17548974609375,3.828445911407471,0.0734359994530677,-2.607472896575928
1780564893572022000,19.19502197265625,3.008297920227051,0.2415969967842102,-1.710060954093933
1780564893591553000,19.214552978515623,3.008297920227051,0.2415969967842102,-1.710060954093933
1780564893611086800,19.2340869140625,1.949046015739441,0.3252609968185425,-1.4435399770736694
1780564893630621200,19.25362109375,1.949046015739441,0.3252609968185425,-1.4435399770736694
1780564893650154200,19.273154296875,1.0569720268249512,0.1571909934282302,-1.3562400341033936
1780564893669687000,19.29268701171875,1.0569720268249512,0.1571909934282302,-1.3562400341033936
1780564893689219600,19.312219482421877,1.0569720268249512,0.1571909934282302,-1.3562400341033936
1780564893708752600,19.331752685546878,0.3694140017032623,-0.0132699999958276,-1.2501009702682495
1780564893728285200,19.35128515625,0.3694140017032623,-0.0132699999958276,-1.2501009702682495
1780564893747813000,19.370813232421877,-0.3739799857139587,-0.1527110040187835,-0.8913589715957642
1780564893767343000,19.390343017578125,-0.3739799857139587,-0.1527110040187835,-0.8913589715957642
1780564893786873300,19.409873291015625,-1.1129189729690552,-0.3678790032863617,-0.4442459940910339
1780564893806398200,19.429398193359376,-1.1129189729690552,-0.3678790032863617,-0.4442459940910339
1780564893825925600,19.44892553710937,-1.6497809886932373,-0.4392670094966888,-0.0504590012133121
1780564893845459000,19.468458984375,-1.6497809886932373,-0.4392670094966888,-0.0504590012133121
1780564893864992800,19.48799267578125,-2.5730669498443604,-0.1999319940805435,0.4489009976387024
1780564893884524300,19.50752416992188,-2.5730669498443604,-0.1999319940805435,0.4489009976387024
1780564893904054500,19.527054443359376,-4.343891143798828,0.3634029924869537,0.8422840237617493
1780564893923585300,19.546585205078124,-4.343891143798828,0.3634029924869537,0.8422840237617493
1780564893943116000,19.566115966796875,-3.909779071807861,0.8335660099983215,-0.9024069905281068
1780564893962648000,19.58564794921875,-3.909779071807861,0.8335660099983215,-0.9024069905281068
1780564893982177500,19.60517749023437,-2.634232997894287,1.1097650527954102,-2.9735870361328125
1780564894001706500,19.62470654296875,-2.634232997894287,1.1097650527954102,-2.9735870361328125
1780564894021235700,19.64423559570313,-1.8433829545974727,1.3714380264282229,-4.678915023803711
1780564894040761600,19.66376171875,-1.8433829545974727,1.3714380264282229,-4.678915023803711
1780564894060287000,19.683286865234376,-1.3323980569839478,1.4329090118408203,-4.350215911865234
1780564894079814400,19.702814453125,-1.3323980569839478,1.4329090118408203,-4.350215911865234
1780564894099345700,19.722345703125,-1.0670469999313354,1.3018159866333008,-3.114626884460449
1780564894118880500,19.741880615234376,-1.0670469999313354,1.3018159866333008,-3.114626884460449
1780564894138407000,19.761406982421875,-0.189639002084732,1.3029890060424805,-2.277556896209717
1780564894157930000,19.780929931640625,-0.189639002084732,1.3029890060424805,-2.277556896209717
1780564894177457000,19.800456787109376,1.8628530502319336,1.2247029542922974,-2.272156953811645
1780564894196987000,19.81998681640625,1.8628530502319336,1.2247029542922974,-2.272156953811645
1780564894216513500,19.83951342773437,1.626202940940857,0.9193249940872192,-1.72720205783844
1780564894236035800,19.85903588867188,1.626202940940857,0.9193249940872192,-1.72720205783844
1780564894255564000,19.87856396484375,0.6486669778823853,0.5735669732093811,0.5736100077629089
1780564894275092200,19.89809228515625,0.6486669778823853,0.5735669732093811,0.5736100077629089
1780564894294616000,19.917615966796877,0.1312209963798523,0.0463799983263015,2.7784640789031982
1780564894314141700,19.9371416015625,0.1312209963798523,0.0463799983263015,2.7784640789031982
1780564894333670700,19.956670654296875,0.156482994556427,-0.718654990196228,3.476058006286621
1780564894353198600,19.976198486328126,0.156482994556427,-0.718654990196228,3.476058006286621
1780564894372731100,19.995731201171875,0.5277889966964722,-1.2486159801483154,3.050863027572632
1780564894392266500,20.0152666015625,0.5277889966964722,-1.2486159801483154,3.050863027572632
1780564894411798000,20.034798095703124,1.115731954574585,-1.156129002571106,-0.1927880048751831
1780564894431326700,20.05432666015625,1.115731954574585,-1.156129002571106,-0.1927880048751831
1780564894450853600,20.073853515625,3.190217971801758,-0.7629410028457642,-3.5408239364624023
1780564894470380500,20.093380615234373,3.190217971801758,-0.7629410028457642,-3.5408239364624023
1780564894489909000,20.11290893554688,3.190217971801758,-0.7629410028457642,-3.5408239364624023
1780564894509437400,20.1324375,5.414069175720215,-0.5197569727897644,-4.264904022216797
1780564894528966000,20.1519658203125,5.414069175720215,-0.5197569727897644,-4.264904022216797
1780564894548499200,20.171499267578124,4.578533172607422,-0.1644860059022903,-4.193110942840576
1780564894568028000,20.19102783203125,4.578533172607422,-0.1644860059022903,-4.193110942840576
1780564894587551700,20.2105517578125,1.8739579916000368,0.3567549884319305,-0.9470540285110474
1780564894607074300,20.23007421875,1.8739579916000368,0.3567549884319305,-0.9470540285110474
1780564894626598000,20.249597900390626,0.6708660125732422,0.6191310286521912,0.890828013420105
1780564894646124800,20.269124755859377,0.6708660125732422,0.6191310286521912,0.890828013420105
1780564894665650000,20.28864990234375,0.4727739989757538,0.2994489967823028,0.4506619870662689
1780564894685177600,20.30817749023437,0.4727739989757538,0.2994489967823028,0.4506619870662689
1780564894704705300,20.327705322265626,1.0187159776687622,-0.5070350170135498,-1.6387159824371338
1780564894724230700,20.347230712890624,1.0187159776687622,-0.5070350170135498,-1.6387159824371338
1780564894743755800,20.366755859375,1.447693943977356,-1.0599390268325806,-2.1650750637054443
1780564894763280400,20.3862802734375,1.447693943977356,-1.0599390268325806,-2.1650750637054443
1780564894782806300,20.40580615234375,0.7477819919586182,-1.1719759702682495,-1.8219629526138303
1780564894802336000,20.4253359375,0.7477819919586182,-1.1719759702682495,-1.8219629526138303
1780564894821865700,20.44486572265625,-1.3340710401535034,-1.1355750560760498,-1.1100410223007202
1780564894841395200,20.464395263671875,-1.3340710401535034,-1.1355750560760498,-1.1100410223007202
1780564894860919800,20.483919921875,-2.578361988067627,-0.7079160213470459,-1.3187470436096191
1780564894880441000,20.50344116210937,-2.578361988067627,-0.7079160213470459,-1.3187470436096191
1780564894899964700,20.522964599609374,-3.348115921020508,-0.2158540040254593,-0.7849739789962769
1780564894919491300,20.5424912109375,-3.348115921020508,-0.2158540040254593,-0.7849739789962769
1780564894939018200,20.562018310546875,-3.2896270751953125,-0.0088879996910691,0.8578649759292603
1780564894958546000,20.5815458984375,-3.2896270751953125,-0.0088879996910691,0.8578649759292603
1780564894978073300,20.6010732421875,-2.4513039588928223,0.4309970140457153,-0.9956579804420472
1780564894997599000,20.620598876953125,-2.4513039588928223,0.4309970140457153,-0.9956579804420472
1780564895017128700,20.640128662109376,-1.5399359464645386,0.9181860089302064,-3.0368399620056152
1780564895036657700,20.65965771484375,-1.5399359464645386,0.9181860089302064,-3.0368399620056152
1780564895056183800,20.679183837890623,-1.29748797416687,1.1339399814605713,-3.6080191135406494
1780564895075712500,20.69871240234375,-1.29748797416687,1.1339399814605713,-3.6080191135406494
1780564895095241000,20.718240966796877,-1.2974209785461426,1.312790036201477,-3.4296131134033203
1780564895114767400,20.737767333984376,-1.2974209785461426,1.312790036201477,-3.4296131134033203
1780564895134296800,20.757296875,-0.5768839716911316,1.5602689981460571,-3.2208950519561768
1780564895153824500,20.776824462890627,-0.5768839716911316,1.5602689981460571,-3.2208950519561768
1780564895173347300,20.796347412109377,0.7084699869155884,1.739182949066162,-3.0698111057281494
1780564895192875000,20.815875,0.7084699869155884,1.739182949066162,-3.0698111057281494
1780564895212405000,20.83540502929688,1.214521050453186,1.7649569511413574,-0.9770879745483398
1780564895231931400,20.85493139648437,1.214521050453186,1.7649569511413574,-0.9770879745483398
1780564895251459300,20.874459228515622,0.3688220083713531,1.74127197265625,1.018813967704773
1780564895270991600,20.89399169921875,0.3688220083713531,1.74127197265625,1.018813967704773
1780564895329592000,20.952592041015624,-0.9019740223884584,0.972793996334076,3.630696058273315
1780564895349128400,20.97212841796875,-0.9019740223884584,0.972793996334076,3.630696058273315
1780564895368665900,20.99166577148437,-0.1148070022463798,-0.5995110273361206,3.350600004196167
1780564895388203800,21.01120385742188,-0.1148070022463798,-0.5995110273361206,3.350600004196167
1780564895407735800,21.03073583984375,3.240057945251465,-1.26185405254364,-0.3389819860458374
1780564895427269600,21.05026953125,3.240057945251465,-1.26185405254364,-0.3389819860458374
1780564895446806300,21.06980615234375,3.907228946685791,-1.4160150289535522,-2.4007699489593506
1780564895466342100,21.089342041015627,3.907228946685791,-1.4160150289535522,-2.4007699489593506
1780564895485879300,21.10887939453125,3.853007078170776,-0.9596179723739624,-2.900897026062012
1780564895505417700,21.12841772460937,3.853007078170776,-0.9596179723739624,-2.900897026062012
1780564895524952600,21.14795263671875,3.25156307220459,-0.1565510034561157,-3.214010000228882
1780564895544485600,21.167485595703123,3.25156307220459,-0.1565510034561157,-3.214010000228882
1780564895564019700,21.187019775390624,2.9117770195007324,0.7327070236206055,-3.658687114715576
1780564895583549000,21.206548828125,2.9117770195007324,0.7327070236206055,-3.658687114715576
1780564895603078400,21.226078369140627,2.769084930419922,1.169600009918213,-3.7450509071350098
1780564895622611000,21.24561083984375,2.769084930419922,1.169600009918213,-3.7450509071350098
1780564895642141200,21.26514111328125,2.27465295791626,0.7886719703674316,-1.6602100133895874
1780564895661671200,21.284671142578127,2.27465295791626,0.7886719703674316,-1.6602100133895874
1780564895681200600,21.30420068359375,1.4907209873199463,0.3014149963855743,0.1178549975156784
1780564895700727000,21.32372705078125,1.4907209873199463,0.3014149963855743,0.1178549975156784
1780564895720252400,21.34325244140625,1.2281019687652588,0.1304160058498382,-0.399044007062912
1780564895739775000,21.36277490234375,1.2281019687652588,0.1304160058498382,-0.399044007062912
1780564895759301400,21.38230126953125,1.17393696308136,0.0866409987211227,-0.9790419936180116
1780564895778830000,21.401830078125,1.17393696308136,0.0866409987211227,-0.9790419936180116
1780564895798357200,21.42135717773437,0.654043972492218,-0.2307270020246505,1.035423994064331
1780564895817888000,21.440887939453123,0.654043972492218,-0.2307270020246505,1.035423994064331
1780564895837425200,21.460425048828125,-0.1199180036783218,-0.6994320154190063,1.4549490213394165
1780564895856964400,21.47996435546875,-0.1199180036783218,-0.6994320154190063,1.4549490213394165
1780564895876500000,21.4995,-0.946960985660553,-0.916023015975952,1.306177020072937
1780564895896031700,21.51903173828125,-0.946960985660553,-0.916023015975952,1.306177020072937
1780564895915560400,21.538560546875,-1.7842049598693848,-0.6314719915390015,-0.6451590061187744
1780564895935088600,21.558088623046874,-1.7842049598693848,-0.6314719915390015,-0.6451590061187744
1780564895954619100,21.577619140625,-2.48163104057312,0.0568130016326904,-1.7479219436645508
1780564895974151000,21.59715087890625,-2.48163104057312,0.0568130016326904,-1.7479219436645508
1780564895993681000,21.61668090820313,-3.147573947906494,0.6592730283737183,-2.954655885696411
1780564896013214000,21.6362138671875,-3.147573947906494,0.6592730283737183,-2.954655885696411
1780564896032750600,21.65575048828125,-3.2686960697174072,0.9204919934272766,-3.785068988800049
1780564896052284400,21.675284423828124,-3.2686960697174072,0.9204919934272766,-3.785068988800049
1780564896071817700,21.694817626953125,-3.2686960697174072,0.9204919934272766,-3.785068988800049
1780564896091351300,21.714351318359373,-3.571247100830078,1.6303189992904663,-4.892064094543457
1780564896110882000,21.733882080078125,-4.714365005493164,1.9153430461883545,-5.221392154693604
1780564896130409700,21.75340966796875,-4.714365005493164,1.9153430461883545,-5.221392154693604
1780564896149932800,21.77293286132813,-4.409928798675537,2.0886659622192383,-3.252084970474243
1780564896169457200,21.79245703125,-4.409928798675537,2.0886659622192383,-3.252084970474243
1780564896188985000,21.81198510742188,-4.409928798675537,2.0886659622192383,-3.252084970474243
1780564896208509400,21.83150952148437,2.13429594039917,1.3095359802246094,-0.7537879943847656
1780564896228035800,21.851035888671877,2.13429594039917,1.3095359802246094,-0.7537879943847656
1780564896247566600,21.870566650390625,2.40053391456604,0.886027991771698,1.7192169427871704
1780564896267098000,21.89009814453125,2.40053391456604,0.886027991771698,1.7192169427871704
1780564896286626000,21.9096259765625,0.0250700004398822,0.6259589791297913,2.588336944580078
1780564896306150400,21.929150390625,0.0250700004398822,0.6259589791297913,2.588336944580078
1780564896325676800,21.9486767578125,-0.7765790224075317,0.3068599998950958,3.660547971725464
1780564896345205800,21.968205810546877,-0.7765790224075317,0.3068599998950958,3.660547971725464
1780564896364735000,21.98773486328125,-0.4454990029335022,-0.133211001753807,3.718321084976196
1780564896384264400,22.00726440429688,-0.4454990029335022,-0.133211001753807,3.718321084976196
1780564896403794200,22.026794189453124,0.667294979095459,-0.3290289938449859,0.0578299984335899
1780564896423318000,22.04631811523437,0.667294979095459,-0.3290289938449859,0.0578299984335899
1780564896442841300,22.06584130859375,2.606391906738281,0.0245159994810819,-4.053268909454346
1780564896462367500,22.085367431640623,2.606391906738281,0.0245159994810819,-4.053268909454346
1780564896481896000,22.10489599609375,3.556488037109375,0.3094390034675598,-4.687625885009766
1780564896501432300,22.12443237304688,3.556488037109375,0.3094390034675598,-4.687625885009766
1780564896520968000,22.143968017578125,4.10082483291626,0.2153290063142776,-3.951725006103516
1780564896540504600,22.163504638671878,4.10082483291626,0.2153290063142776,-3.951725006103516
1780564896560038400,22.183038330078126,4.648637771606445,0.3072400093078613,-3.499461889266968
1780564896579566600,22.202566650390622,4.648637771606445,0.3072400093078613,-3.499461889266968
1780564896599092500,22.22209252929688,4.7047858238220215,0.4110899865627289,-3.760063886642456
1780564896618619000,22.241618896484376,4.7047858238220215,0.4110899865627289,-3.760063886642456
1780564896638153000,22.26115307617188,3.548715114593506,0.0328009985387325,-1.496824026107788
1780564896657686300,22.28068627929688,3.548715114593506,0.0328009985387325,-1.496824026107788
1780564896677217000,22.300217041015625,2.0725209712982178,-0.500328004360199,-0.6001579761505127
1780564896696743400,22.319743408203124,2.0725209712982178,-0.500328004360199,-0.6001579761505127
1780564896716271900,22.33927197265625,1.188858985900879,-0.8832629919052124,-0.1398880034685135
1780564896735803400,22.358803466796875,1.188858985900879,-0.8832629919052124,-0.1398880034685135
1780564896755334700,22.378334716796875,0.6988270282745361,-1.0369080305099487,-0.4954119920730591
1780564896774867200,22.3978671875,0.6988270282745361,-1.0369080305099487,-0.4954119920730591
1780564896794401000,22.41740112304688,0.361532986164093,-1.1209590435028076,-0.3801890015602112
1780564896813936400,22.43693627929688,0.361532986164093,-1.1209590435028076,-0.3801890015602112
1780564896833469400,22.456469482421877,0.0062779998406767,-1.1623719930648804,0.0958949998021125
1780564896853003500,22.47600341796875,0.0062779998406767,-1.1623719930648804,0.0958949998021125
1780564896872539100,22.4955390625,-0.5357270240783691,-0.8008990287780762,-0.2103939950466156
1780564896892071700,22.51507177734375,-0.5357270240783691,-0.8008990287780762,-0.2103939950466156
1780564896911598800,22.53459887695313,-2.7674710750579834,1.4465190172195437,-1.1407999992370603
1780564896931128600,22.55412866210937,-2.7674710750579834,1.4465190172195437,-1.1407999992370603
1780564896950663700,22.57366357421875,-4.689263820648193,1.920199990272522,-1.084481954574585
1780564896970195700,22.59319580078125,-4.689263820648193,1.920199990272522,-1.084481954574585
1780564896989727700,22.612727783203123,-4.689263820648193,1.920199990272522,-1.084481954574585
1780564897009260300,22.63226025390625,-4.081760883331299,1.6549290418624878,-0.8186240196228027
1780564897028794600,22.651794677734376,-2.4759740829467773,1.4998639822006226,-2.5500059127807617
1780564897048329500,22.67132958984375,-2.4759740829467773,1.4998639822006226,-2.5500059127807617
1780564897067862800,22.69086279296875,-1.3274719715118408,1.1422350406646729,-3.412123918533325
1780564897087397000,22.710397216796878,-1.3274719715118408,1.1422350406646729,-3.412123918533325
1780564897106929700,22.7299296875,-0.7681509852409363,1.0528459548950195,-4.352513790130615
1780564897126462500,22.74946240234375,-0.7681509852409363,1.0528459548950195,-4.352513790130615
1780564897145994500,22.768994384765627,-1.2403090000152588,1.433140993118286,-4.5735697746276855
1780564897165523700,22.788523681640623,-1.2403090000152588,1.433140993118286,-4.5735697746276855
1780564897185056300,22.80805615234375,-0.7467380166053772,1.6700160503387451,-3.606115102767944
1780564897204595000,22.827594970703124,-0.7467380166053772,1.6700160503387451,-3.606115102767944
1780564897224129000,22.84712890625,0.4585529863834381,1.542814016342163,-1.3604060411453247
1780564897243653600,22.866653564453124,0.4585529863834381,1.542814016342163,-1.3604060411453247
1780564897263180500,22.8861806640625,0.1575119942426681,1.2464760541915894,0.6560879945755005
1780564897282707000,22.90570703125,0.1575119942426681,1.2464760541915894,0.6560879945755005
1780564897302233000,22.92523315429688,-0.7159709930419922,0.7803320288658142,1.7733559608459473
1780564897321760000,22.944760009765623,-0.7159709930419922,0.7803320288658142,1.7733559608459473
1780564897341284600,22.96428466796875,-0.6392970085144043,-0.0314630009233951,2.5869710445404053
1780564897360811500,22.9838115234375,-0.6392970085144043,-0.0314630009233951,2.5869710445404053
1780564897380336600,23.003336669921875,0.2600510120391845,-1.0990270376205444,2.95399808883667
1780564897399862000,23.022862060546878,0.2600510120391845,-1.0990270376205444,2.95399808883667
1780564897419388400,23.042388427734377,1.550623059272766,-1.8840579986572263,2.4606170654296875
1780564897438912000,23.061912109375,1.550623059272766,-1.8840579986572263,2.4606170654296875
1780564897458440000,23.08143994140625,3.701649904251098,-1.9229049682617188,-1.6671350002288818
1780564897477972200,23.10097216796875,3.701649904251098,-1.9229049682617188,-1.6671350002288818
1780564897497502000,23.120501953125,4.311095237731934,-1.6718389987945557,-4.014995098114014
1780564897517033000,23.14003295898437,4.311095237731934,-1.6718389987945557,-4.014995098114014
1780564897536565800,23.159565673828126,3.96280288696289,-1.5757379531860352,-3.687006950378418
1780564897556097800,23.179097900390627,3.96280288696289,-1.5757379531860352,-3.687006950378418
1780564897575630800,23.198630859375,1.8446049690246584,-1.1264679431915283,-2.097745895385742
1780564897595161600,23.21816162109375,1.8446049690246584,-1.1264679431915283,-2.097745895385742
1780564897614688800,23.23768872070313,1.8083009719848635,-0.5389710068702698,-2.7196929454803467
1780564897634217200,23.25721728515625,1.8083009719848635,-0.5389710068702698,-2.7196929454803467
1780564897653743900,23.276743896484376,3.4415841102600098,-0.6457359790802002,-3.168812990188598
1780564897673269000,23.29626904296875,3.4415841102600098,-0.6457359790802002,-3.168812990188598
1780564897692797400,23.31579736328125,3.4899230003356934,-1.0901260375976562,-1.3295079469680786
1780564897712327400,23.33532739257813,3.4899230003356934,-1.0901260375976562,-1.3295079469680786
1780564897731853300,23.354853271484377,2.681046962738037,-1.2959870100021362,-0.5686960220336914
1780564897751379000,23.37437890625,2.681046962738037,-1.2959870100021362,-0.5686960220336914
1780564897770912800,23.39391284179688,2.681046962738037,-1.2959870100021362,-0.5686960220336914
1780564897790450200,23.4134501953125,1.2421330213546753,-1.3353420495986938,-0.006091000046581
1780564897809978600,23.432978515625,0.5680559873580933,-1.227455973625183,0.0439760014414787
1780564897829504500,23.45250439453125,0.5680559873580933,-1.227455973625183,0.0439760014414787
1780564897849034000,23.472033935546875,0.5680559873580933,-1.227455973625183,0.0439760014414787
1780564897868566500,23.49156640625,-1.2199350595474243,-1.0266870260238647,0.3366560041904449
1780564897888099600,23.511099609375,-1.2199350595474243,-1.0266870260238647,0.3366560041904449
1780564897907629600,23.53062963867188,-2.3066680431365967,-0.4897499978542328,0.2546060085296631
1780564897927159000,23.550158935546875,-2.3066680431365967,-0.4897499978542328,0.2546060085296631
1780564897946687000,23.56968701171875,-2.936501979827881,0.0764229968190193,0.3457069993019104
1780564897966214400,23.58921435546875,-2.936501979827881,0.0764229968190193,0.3457069993019104
1780564897985739300,23.6087392578125,-2.831084012985229,0.7984089851379395,-1.88304603099823
1780564898005265400,23.62826538085937,-2.831084012985229,0.7984089851379395,-1.88304603099823
1780564898024791800,23.647791748046878,-2.1347360610961914,1.5374319553375244,-5.60952091217041
1780564898044314000,23.667314208984376,-2.1347360610961914,1.5374319553375244,-5.60952091217041
1780564898063838700,23.686838623046874,-1.7599279880523682,1.7554969787597656,-5.431453227996826
1780564898083367000,23.70636694335937,-1.7599279880523682,1.7554969787597656,-5.431453227996826
1780564898102900700,23.725900634765622,-2.28148889541626,1.924893021583557,-4.568154811859131
1780564898122435300,23.74543530273437,-2.28148889541626,1.924893021583557,-4.568154811859131
1780564898141965000,23.764965087890623,-3.136120080947876,2.3303298950195312,-3.7575409412384033
1780564898161492700,23.78449267578125,-3.136120080947876,2.3303298950195312,-3.7575409412384033
1780564898181021700,23.804021728515625,-3.054189920425415,2.4101619720458984,-3.0227670669555664
1780564898200549400,23.82354931640625,-3.054189920425415,2.4101619720458984,-3.0227670669555664
1780564898220071000,23.84307080078125,-0.502170979976654,1.82571804523468,-0.8256250023841858
1780564898239595800,23.862595703125,-0.502170979976654,1.82571804523468,-0.8256250023841858
1780564898259126300,23.882126220703125,1.549739956855774,1.052551031112671,1.3409470319747925
1780564898278652200,23.90165209960937,1.549739956855774,1.052551031112671,1.3409470319747925
1780564898298177300,23.92117724609375,1.7707949876785278,0.4831559956073761,2.14385199546814
1780564898317704200,23.9407041015625,1.7707949876785278,0.4831559956073761,2.14385199546814
1780564898337232100,23.960232177734376,0.9893180131912231,0.0857449993491172,3.159666061401367
1780564898356761900,23.979761962890624,0.9893180131912231,0.0857449993491172,3.159666061401367
1780564898376290000,23.9992900390625,0.0320219993591308,-0.0893590003252029,3.8889000415802
1780564898395813000,24.018813232421877,0.0320219993591308,-0.0893590003252029,3.8889000415802
1780564898415336400,24.03833642578125,-0.6281939744949341,-0.171314999461174,3.835784912109375
1780564898434865400,24.057865478515627,-0.6281939744949341,-0.171314999461174,3.835784912109375
1780564898454397000,24.07739697265625,-0.679980993270874,-0.2474700063467025,1.5596150159835815
1780564898473926700,24.0969267578125,-0.679980993270874,-0.2474700063467025,1.5596150159835815
1780564898493453800,24.116453857421877,1.3415089845657349,-0.1472799926996231,-2.8284571170806885
1780564898512983800,24.13598388671875,1.3415089845657349,-0.1472799926996231,-2.8284571170806885
1780564898532513800,24.155513671875,3.6788430213928223,-0.1798849999904632,-5.674828052520752
1780564898552043300,24.175043212890625,3.6788430213928223,-0.1798849999904632,-5.674828052520752
1780564898571572000,24.194572021484376,3.6788430213928223,-0.1798849999904632,-5.674828052520752
1780564898591102500,24.2141025390625,5.262742042541504,-0.5298720002174377,-5.889540195465088
1780564898610633000,24.233633056640624,5.252955913543701,-0.4444450139999389,-5.573847770690918
1780564898630165000,24.2531650390625,5.252955913543701,-0.4444450139999389,-5.573847770690918
1780564898649698300,24.2726982421875,4.264431953430176,-0.2052399963140487,-3.445686101913452
1780564898669232600,24.292232666015625,4.264431953430176,-0.2052399963140487,-3.445686101913452
1780564898688766700,24.3117666015625,4.264431953430176,-0.2052399963140487,-3.445686101913452
1780564898708298000,24.33129809570313,1.6581850051879885,-0.511792004108429,0.462567001581192
1780564898727828000,24.350827880859374,1.6581850051879885,-0.511792004108429,0.462567001581192
1780564898747359700,24.37035986328125,1.6272599697113037,-0.9662439823150636,0.7656329870223999
1780564898766891000,24.38989111328125,1.6272599697113037,-0.9662439823150636,0.7656329870223999
1780564898786419200,24.409419189453125,1.720123052597046,-1.2665270566940308,0.7158719897270203
1780564898805951000,24.428950927734373,1.720123052597046,-1.2665270566940308,0.7158719897270203
1780564898825483500,24.4484833984375,1.1790889501571655,-1.4707870483398438,1.224308967590332
1780564898845016600,24.4680166015625,1.1790889501571655,-1.4707870483398438,1.224308967590332
1780564898864547000,24.487547119140626,0.350051999092102,-1.577286958694458,1.6394469738006592
1780564898884076800,24.507076904296877,0.350051999092102,-1.577286958694458,1.6394469738006592
1780564898903609600,24.526609619140626,-0.5265849828720093,-1.403730034828186,1.1418509483337402
1780564898923139600,24.5461396484375,-0.5265849828720093,-1.403730034828186,1.1418509483337402
1780564898942667000,24.5656669921875,-1.539005994796753,-0.8241710066795349,-0.8754169940948486
1780564898962195700,24.58519580078125,-1.539005994796753,-0.8241710066795349,-0.8754169940948486
1780564898981726500,24.6047265625,-2.3470499515533447,0.0699530020356178,-1.7918850183486938
1780564899001254100,24.624254150390627,-2.3470499515533447,0.0699530020356178,-1.7918850183486938
1780564899020780800,24.64378076171875,-2.434465885162353,1.002890944480896,-2.897588014602661
1780564899040311000,24.66331103515625,-2.434465885162353,1.002890944480896,-2.897588014602661
1780564899059840300,24.68284033203125,-2.1648800373077397,1.6853539943695068,-3.747787952423096
1780564899079371500,24.70237158203125,-2.1648800373077397,1.6853539943695068,-3.747787952423096
1780564899098901200,24.7219013671875,-2.160888910293579,2.0533719062805176,-3.791140079498291
1780564899118431500,24.741431396484376,-2.160888910293579,2.0533719062805176,-3.791140079498291
1780564899137963000,24.760962890625,-2.570215940475464,2.3725500106811523,-3.3984649181365967
1780564899157491200,24.7804912109375,-2.570215940475464,2.3725500106811523,-3.3984649181365967
1780564899177016300,24.800016357421875,-3.049643039703369,2.6743969917297363,-3.217444896697998
1780564899216067800,24.83906787109375,-2.4164750576019287,2.569721937179565,-2.8839869499206543
1780564899235597600,24.85859765625,-2.4164750576019287,2.569721937179565,-2.8839869499206543
1780564899255121000,24.87812084960937,-0.1130110025405883,1.958407998085022,-0.5451740026473999
1780564899274644000,24.89764404296875,-0.1130110025405883,1.958407998085022,-0.5451740026473999
1780564899294174000,24.917174072265624,0.4262529909610748,1.2402600049972534,1.5441399812698364
1780564899313701400,24.936701416015627,0.4262529909610748,1.2402600049972534,1.5441399812698364
1780564899333225700,24.956225830078125,0.3096930086612701,0.5512380003929138,2.2458178997039795
1780564899352747800,24.97574780273437,0.3096930086612701,0.5512380003929138,2.2458178997039795
1780564899372269800,24.995269775390625,0.275281012058258,-0.0953029990196228,3.008584976196289
1780564899391799600,25.01479956054688,0.275281012058258,-0.0953029990196228,3.008584976196289
1780564899411329800,25.034329833984376,0.4873580038547516,-0.5575680136680603,3.8429009914398193
1780564899430855700,25.053855712890623,0.4873580038547516,-0.5575680136680603,3.8429009914398193
1780564899450382300,25.07338232421875,0.3437280058860779,-0.732420027256012,4.108398914337158
1780564899469910800,25.092910888671877,0.3437280058860779,-0.732420027256012,4.108398914337158
1780564899489436200,25.11243627929688,0.3437280058860779,-0.732420027256012,4.108398914337158
1780564899508960500,25.13196044921875,2.388993978500366,-0.0635330006480217,-3.1133251190185547
1780564899528485600,25.151485595703125,2.388993978500366,-0.0635330006480217,-3.1133251190185547
1780564899548007400,25.17100732421875,4.728618144989014,-0.3344250023365021,-5.546841144561768
1780564899567528700,25.19052880859375,4.728618144989014,-0.3344250023365021,-5.546841144561768
1780564899587053600,25.210053466796875,5.309661865234375,-1.101196050643921,-5.402836799621582
1780564899606578700,25.22957861328125,5.309661865234375,-1.101196050643921,-5.402836799621582
1780564899626105900,25.24910595703125,4.956777095794678,-1.3413009643554688,-5.2312331199646
1780564899645634300,25.26863427734375,4.956777095794678,-1.3413009643554688,-5.2312331199646
1780564899665161500,25.288161376953123,4.081430912017822,-1.4543520212173462,-1.99994695186615
1780564899684687000,25.30768701171875,4.081430912017822,-1.4543520212173462,-1.99994695186615
1780564899704210700,25.327210693359376,3.5805211067199707,-1.5383169651031494,-0.9660810232162476
1780564899723733200,25.346733154296874,3.5805211067199707,-1.5383169651031494,-0.9660810232162476
1780564899743256000,25.366256103515624,2.902134895324707,-1.530527949333191,-0.3691929876804352
1780564899762778600,25.38577856445313,2.902134895324707,-1.530527949333191,-0.3691929876804352
1780564899782304000,25.405303955078125,1.7391209602355957,-1.3463749885559082,-0.3001790046691894
1780564899801834800,25.42483471679688,1.7391209602355957,-1.3463749885559082,-0.3001790046691894
1780564899821365000,25.444364990234376,0.4759750068187713,-1.0249589681625366,-0.4651820063591003
1780564899840891400,25.463891357421875,0.4759750068187713,-1.0249589681625366,-0.4651820063591003
1780564899860417800,25.48341772460937,-0.920544981956482,-0.6749259829521179,-0.1971410065889358
1780564899879944200,25.502944091796877,-0.920544981956482,-0.6749259829521179,-0.1971410065889358
1780564899899475500,25.522475341796877,-2.103415012359619,-0.368149995803833,0.4551289975643158
1780564899919009500,25.54200952148437,-2.103415012359619,-0.368149995803833,0.4551289975643158
1780564899938540300,25.56154028320313,-2.7139389514923096,-0.112304002046585,0.882565975189209
1780564899958071000,25.581071044921877,-2.7139389514923096,-0.112304002046585,0.882565975189209
1780564899977605400,25.60060546875,-2.953718900680542,0.1145690008997917,0.8760430216789246
1780564899997136100,25.62013623046875,-2.953718900680542,0.1145690008997917,0.8760430216789246
1780564900016664300,25.639664306640626,-2.976449012756348,0.4980649948120117,-1.4791009426116943
1780564900036194800,25.65919482421875,-2.976449012756348,0.4980649948120117,-1.4791009426116943
1780564900055723800,25.678723876953125,-2.450122117996216,1.330706000328064,-5.115498065948486
1780564900075252200,25.698252197265624,-2.450122117996216,1.330706000328064,-5.115498065948486
1780564900094782500,25.717782470703124,-2.0362939834594727,2.0326030254364014,-5.231337070465088
1780564900114311200,25.737311279296875,-2.0362939834594727,2.0326030254364014,-5.231337070465088
1780564900133834200,25.756834228515626,-2.0265040397644043,2.437182903289795,-4.280563831329346
1780564900153359400,25.776359375,-2.0265040397644043,2.437182903289795,-4.280563831329346
1780564900172890000,25.79589013671875,-2.298444986343384,3.0452160835266118,-3.2623910903930664
1780564900192421600,25.815421630859376,-2.298444986343384,3.0452160835266118,-3.2623910903930664
1780564900211953400,25.834953369140624,-2.298444986343384,3.0452160835266118,-3.2623910903930664
1780564900231481600,25.854481689453124,-2.898338079452514,3.70336389541626,-1.983273983001709
1780564900251004400,25.87400439453125,-2.4624838829040527,3.426448106765747,-1.3311630487442017
1780564900270532400,25.893532470703125,-2.4624838829040527,3.426448106765747,-1.3311630487442017
1780564900290060800,25.913060791015624,-2.4624838829040527,3.426448106765747,-1.3311630487442017
1780564900309589500,25.932589599609376,-1.428406000137329,2.2430078983306885,1.31804096698761
1780564900329120500,25.95212060546875,-1.428406000137329,2.2430078983306885,1.31804096698761
1780564900348652000,25.971652099609376,-0.8235160112380981,1.159775972366333,2.170639991760254
1780564900368177700,25.991177734375,-0.8235160112380981,1.159775972366333,2.170639991760254
1780564900387703800,26.010703857421877,-0.1644060015678405,0.1086009964346885,2.782654047012329
1780564900407233500,26.030233642578125,-0.1644060015678405,0.1086009964346885,2.782654047012329
1780564900426759000,26.049759033203124,0.6542099714279175,-0.8492389917373657,3.0371739864349365
1780564900446280700,26.06928076171875,0.6542099714279175,-0.8492389917373657,3.0371739864349365
1780564900465801200,26.08880126953125,1.4689229726791382,-1.345973014831543,1.2359100580215454
1780564900485324800,26.10832470703125,1.4689229726791382,-1.345973014831543,1.2359100580215454
1780564900504851200,26.127851318359376,2.28495192527771,-1.0505510568618774,-2.526334047317505
1780564900524379400,26.14737939453125,2.28495192527771,-1.0505510568618774,-2.526334047317505
1780564900543904800,26.16690478515625,3.031019926071167,-0.5851889848709106,-3.598675012588501
1780564900563430000,26.186429931640625,3.031019926071167,-0.5851889848709106,-3.598675012588501
1780564900582959400,26.20595947265625,3.089056968688965,-0.3248119950294494,-3.7472081184387207
1780564900602488000,26.225488037109372,3.089056968688965,-0.3248119950294494,-3.7472081184387207
1780564900622011600,26.24501171875,2.470187902450561,0.1505710035562515,-3.4862539768218994
1780564900641534000,26.26453393554688,2.470187902450561,0.1505710035562515,-3.4862539768218994
1780564900661061600,26.2840615234375,2.139164924621582,0.6530860066413879,-3.6344869136810303
1780564900680592600,26.303592529296875,2.139164924621582,0.6530860066413879,-3.6344869136810303
1780564900700116200,26.3231162109375,2.505942106246948,0.6325049996376038,-3.1514809131622314
1780564900719642600,26.342642578125,2.505942106246948,0.6325049996376038,-3.1514809131622314
1780564900739171800,26.362171875,2.754940986633301,0.1457509994506836,-0.8898289799690247
1780564900758701300,26.381701416015623,2.754940986633301,0.1457509994506836,-0.8898289799690247
1780564900778227500,26.4012275390625,2.1842401027679443,-0.4279249906539917,1.0262839794158936
1780564900797748700,26.42074877929688,2.1842401027679443,-0.4279249906539917,1.0262839794158936
1780564900817273300,26.4402734375,1.7058579921722412,-0.886559009552002,1.307384967803955
1780564900836798700,26.459798828125,1.7058579921722412,-0.886559009552002,1.307384967803955
1780564900856321800,26.47932177734375,1.7657259702682495,-1.2045090198516846,0.9935539960861206
1780564900875845000,26.49884521484375,1.7657259702682495,-1.2045090198516846,0.9935539960861206
1780564900895370200,26.518370361328124,1.597012996673584,-1.4397720098495483,1.0748870372772217
1780564900914896100,26.53789624023437,1.597012996673584,-1.4397720098495483,1.0748870372772217
1780564900934424000,26.557424072265626,0.7407510280609131,-1.538193941116333,1.36877703666687
1780564900953953500,26.57695361328125,0.7407510280609131,-1.538193941116333,1.36877703666687
1780564900973479000,26.59647900390625,-1.8094990253448489,-1.3766850233078003,1.4950759410858154
1780564900993002800,26.616002685546874,-1.8094990253448489,-1.3766850233078003,1.4950759410858154
1780564901012525000,26.635525146484376,-2.3980069160461426,-0.8588690161705017,1.0627249479293823
1780564901032049000,26.655048828125,-2.3980069160461426,-0.8588690161705017,1.0627249479293823
1780564901051578000,26.674578125,-2.6233808994293213,0.043878998607397,-2.6284449100494385
