time,seconds_elapsed,z,y,x
1780563276412593200,-0.07040673828125,-0.08524999767541885,-0.13433749973773956,0.27445000410079956
1780563276955058400,0.472058349609375,0.37716248631477356,0.07328750193119049,0.11715000122785568
1780563276964817000,0.48181689453125,0.6411625146865845,0.12952500581741333,-0.09322500228881836
1780563276984337700,0.501337646484375,0.7321875095367432,0.14643749594688416,-0.3081375062465668
1780563277003859700,0.520859619140625,0.6852999925613403,0.1424500048160553,-0.4526500105857849
1780563277023378000,0.5403779296875,0.5750250220298767,0.13832500576972961,-0.5186499953269958
1780563277042899500,0.5598994140625,0.43174999952316284,0.14217500388622284,-0.5377625226974487
1780563277062426000,0.579426025390625,0.29631251096725464,0.15441249310970306,-0.5400999784469604
1780563277081953800,0.598953857421875,0.20295000076293945,0.17173749208450317,-0.549037516117096
1780563277101482500,0.618482421875,0.1508374959230423,0.18947499990463257,-0.5687000155448914
1780563277121011000,0.638010986328125,0.12127500027418137,0.20308749377727509,-0.5820375084877014
1780563277140541000,0.657541015625,0.11247500032186508,0.20954999327659607,-0.5658124685287476
1780563277160069000,0.677069091796875,0.1447875052690506,0.20666250586509705,-0.5149375200271606
1780563277179591400,0.69659130859375,0.21326249837875366,0.195250004529953,-0.44673749804496765
1780563277199115500,0.716115478515625,0.2730749845504761,0.17765000462532043,-0.38981249928474426
1780563277218643200,0.735643310546875,0.28737500309944153,0.15592500567436218,-0.36588749289512634
1780563277238170000,0.755170166015625,0.2626250088214874,0.13158750534057617,-0.3782624900341034
1780563277257695700,0.77469580078125,0.23182499408721924,0.10711249709129333,-0.41126251220703125
1780563277277219000,0.794218994140625,0.2149125039577484,0.08937499672174454,-0.43683749437332153
1780563277296743200,0.8137431640625,0.210099995136261,0.09226249903440475,-0.42239999771118164
1780563277316271900,0.83327197265625,0.20569999516010284,0.12815000116825104,-0.34677499532699585
1780563277335798500,0.852798583984375,0.19318750500679016,0.19772499799728394,-0.20954999327659607
1780563277355320000,0.872320068359375,0.17297500371932983,0.2862749993801117,-0.03203750029206276
1780563277374848000,0.891847900390625,0.1625249981880188,0.367125004529953,0.15289999544620514
1780563277394381600,0.911381591796875,0.19181250035762787,0.4133250117301941,0.3114374876022339
1780563277413912300,0.930912353515625,0.2704625129699707,0.41346248984336853,0.41456249356269836
1780563277433441500,0.950441650390625,0.35708749294281006,0.37991249561309814,0.4259749948978424
1780563277452975900,0.969975830078125,0.381012499332428,0.3390749990940094,0.3152875006198883
1780563277472513300,0.98951318359375,0.29534998536109924,0.31501248478889465,0.10615000128746033
1780563277492045300,1.00904541015625,0.10793749988079071,0.319412499666214,-0.11990000307559967
1780563277511574000,1.028573974609375,-0.12430000305175781,0.34759998321533203,-0.28132501244544983
1780563277531100400,1.048100341796875,-0.32999998331069946,0.382937490940094,-0.35694998502731323
1780563277550625300,1.067625244140625,-0.45237499475479126,0.4104374945163727,-0.37014999985694885
1780563277570150400,1.087150390625,-0.4727250039577484,0.4244624972343445,-0.3485625088214874
1780563277589677000,1.106677001953125,-0.4254249930381775,0.4248749911785126,-0.3111625015735626
1780563277609203700,1.12620361328125,-0.4254249930381775,0.4248749911785126,-0.3111625015735626
1780563277628725000,1.14572509765625,-0.3630000054836273,0.41318750381469727,-0.26592499017715454
1780563277648242700,1.16524267578125,-0.3040125072002411,0.39448750019073486,-0.2079000025987625
1780563277667763700,1.184763671875,-0.1368124932050705,0.36217498779296875,-0.045787498354911804
1780563277687286300,1.204286376953125,-0.1368124932050705,0.36217498779296875,-0.045787498354911804
1780563277706808600,1.22380859375,-0.04166249930858612,0.3488374948501587,0.03217500075697899
1780563277726336300,1.243336181640625,0.03341250121593475,0.3199625015258789,0.08401250094175339
1780563277745868000,1.262867919921875,0.09446249902248383,0.2525874972343445,0.10188750177621841
1780563277765396200,1.282396240234375,0.15867500007152557,0.14354999363422394,0.09267500042915344
1780563277784922000,1.301922119140625,0.2400749921798706,0.01993750035762787,0.07301250100135803
1780563277804449000,1.321448974609375,0.33412501215934753,-0.07947500050067902,0.06228749826550484
1780563277823975400,1.340975341796875,0.43133750557899475,-0.14093749225139618,0.06641250103712082
1780563277843499300,1.360499267578125,0.5351499915122986,-0.1825999915599823,0.07383749634027481
1780563277863020000,1.38002001953125,0.65972501039505,-0.2307250052690506,0.06764999777078629
1780563277882542300,1.399542236328125,0.806024968624115,-0.2975499927997589,0.03863750025629997
1780563277902068700,1.41906884765625,0.9470999836921692,-0.3712500035762787,-0.007424999959766865
1780563277921598700,1.4385986328125,1.0489875078201294,-0.42941248416900635,-0.05843750014901161
1780563277941125600,1.458125732421875,1.090649962425232,-0.45567500591278076,-0.1036750003695488
1780563277960648400,1.4776484375,1.0642499923706055,-0.4478375017642975,-0.13186250627040863
1780563277980170800,1.497170654296875,0.9704750180244446,-0.4129124879837036,-0.1284250020980835
1780563277999692300,1.5166923828125,0.8254125118255615,-0.3606624901294708,-0.08277499675750732
1780563278019216100,1.536216064453125,0.6499624848365784,-0.2946625053882599,0.002749999985098839
1780563278038741800,1.55574169921875,0.453062504529953,-0.2087250053882599,0.1120624989271164
1780563278058272300,1.575272216796875,0.23732499778270721,-0.0999625027179718,0.22027499973773956
1780563278077800400,1.594800537109375,0.020624998956918716,0.011962499469518661,0.2947999835014343
1780563278097325000,1.614324951171875,-0.15908749401569366,0.09088750183582306,0.30250000953674316
1780563278116849400,1.633849365234375,-0.2677125036716461,0.11082500219345093,0.22769999504089355
1780563278136375600,1.65337548828125,-0.2961750030517578,0.07576250284910202,0.08689999580383301
1780563278155907300,1.6729072265625,-0.2624875009059906,0.012924999929964542,-0.07562500238418579
1780563278175434500,1.6924345703125,-0.1872749924659729,-0.0494999997317791,-0.21381250023841858
1780563278194963200,1.711963134765625,-0.08744999766349792,-0.09322500228881836,-0.29548749327659607
1780563278214497300,1.731497314453125,0.025712499395012856,-0.11219999939203262,-0.3081375062465668
1780563278234026500,1.751026611328125,0.14354999363422394,-0.10944999754428864,-0.25987499952316284
1780563278253552600,1.770552734375,0.24268749356269836,-0.08896250277757645,-0.17311249673366547
1780563278273082000,1.79008203125,0.28654998540878296,-0.05252499878406525,-0.07741250097751617
1780563278292608300,1.809608154296875,0.2609750032424927,-0.002474999986588955,-0.005362499970942736
1780563278312135200,1.82913525390625,0.19813749194145203,0.05403750017285347,0.012787500396370888
1780563278331664600,1.84866455078125,0.13859999179840088,0.10284999758005142,-0.03739999979734421
1780563278351190500,1.8681904296875,0.09638749808073044,0.1289750039577484,-0.14547500014305115
1780563278370718700,1.88771875,0.07301250100135803,0.12457499653100967,-0.2796750068664551
1780563278390246000,1.907245849609375,0.07397499680519104,0.0952875018119812,-0.4017750024795532
1780563278409767000,1.926766845703125,0.07397499680519104,0.0952875018119812,-0.4017750024795532
1780563278429284000,1.9462841796875,0.0635249987244606,0.052662499248981476,-0.47795000672340393
1780563278448806400,1.965806396484375,-0.06077500060200691,0.10326249897480011,-0.39352500438690186
1780563278468332800,1.985332763671875,-0.06077500060200691,0.10326249897480011,-0.39352500438690186
1780563278487852300,2.004852294921875,-0.40411248803138733,0.2733500003814697,-0.09927500039339066
1780563278507370000,2.024369873046875,-0.40411248803138733,0.2733500003814697,-0.09927500039339066
1780563278526896000,2.043896240234375,-0.3843125104904175,0.2593249976634979,0.009624999947845936
1780563278546426000,2.063426025390625,-0.23333749175071716,0.15578749775886536,0.060499999672174454
1780563278565950700,2.08295068359375,-0.0695749968290329,0.008662499487400055,0.057750001549720764
1780563278585471700,2.1024716796875,0.04179999977350235,-0.14162500202655792,0.009349999949336052
1780563278604995600,2.12199560546875,0.11453749984502792,-0.27486249804496765,-0.06875000149011612
1780563278624520200,2.141520263671875,0.18232500553131104,-0.3768875002861023,-0.15028749406337738
1780563278644047600,2.161047607421875,0.2652375102043152,-0.4479750096797943,-0.2092749923467636
1780563278663573000,2.180572998046875,0.3568125069141388,-0.5053125023841858,-0.23086249828338623
1780563278683097300,2.200097412109375,0.4156624972820282,-0.5631999969482422,-0.21188749372959137
1780563278702625800,2.219625732421875,0.4045250117778778,-0.6209499835968018,-0.16376249492168427
1780563278722155300,2.2391552734375,0.3232625126838684,-0.6617875099182129,-0.1060125008225441
1780563278741684200,2.258684326171875,0.20487499237060547,-0.669487476348877,-0.05004999786615372
1780563278761211400,2.27821142578125,0.07727500051259995,-0.6434999704360962,0.0085249999538064
1780563278780735500,2.297735595703125,-0.05348749831318855,-0.5982624888420105,0.07631249725818634
1780563278800258000,2.317258056640625,-0.19813749194145203,-0.5491750240325928,0.1480875015258789
1780563278819780600,2.336780517578125,-0.37757501006126404,-0.4996750056743622,0.2073500007390976
1780563278839306500,2.356306396484375,-0.5927624702453613,-0.44618749618530273,0.24034999310970306
1780563278858832400,2.375832275390625,-0.810699999332428,-0.39160001277923584,0.2470874935388565
1780563278878354700,2.395354736328125,-0.9802374839782715,-0.3502124845981598,0.2363625019788742
1780563278897873200,2.414873046875,-1.0740125179290771,-0.3371500074863434,0.21848750114440918
1780563278917392400,2.434392333984375,-1.0958750247955322,-0.3535124957561493,0.19744999706745148
1780563278936914400,2.45391455078125,-1.0613625049591064,-0.38472500443458557,0.171875
1780563278956430800,2.473430908203125,-0.9948124885559082,-0.41126251220703125,0.14162500202655792
1780563278975943400,2.492943359375,-0.9260625243186951,-0.4199250042438507,0.11316250264644623
1780563278998386700,2.51538671875,-0.9260625243186951,-0.4199250042438507,0.11316250264644623
1780563279024737300,2.5417373046875,-0.8416374921798706,-0.38087499141693115,0.13612499833106995
1780563279044258300,2.56125830078125,-0.7794874906539917,-0.3443000018596649,0.23622499406337738
1780563279063782000,2.580781982421875,-0.6802124977111816,-0.31212499737739563,0.37991249561309814
1780563279083299600,2.600299560546875,-0.48179998993873596,-0.32161250710487366,0.509024977684021
1780563279102815700,2.619815673828125,-0.04124999791383743,-0.43738749623298645,0.5792874693870544
1780563279122340600,2.639340576171875,0.7474499940872192,-0.6888750195503235,0.6043124794960022
1780563279141866500,2.658866455078125,1.8063374757766724,-1.021762490272522,0.6404749751091003
1780563279161392000,2.67839208984375,2.911287546157837,-1.34089994430542,0.740024983882904
1780563279180918800,2.697918701171875,3.85756254196167,-1.5855125188827515,0.9275749921798706
1780563279200448500,2.717448486328125,4.532549858093262,-1.7511999607086182,1.1988625526428223
1780563279219979800,2.736979736328125,4.829687595367432,-1.8480000495910645,1.5083750486373901
1780563279239506200,2.756506103515625,4.673075199127197,-1.8775625228881836,1.7698999643325806
1780563279259029800,2.77602978515625,4.101075172424316,-1.826550006866455,1.8941999673843384
1780563279278553600,2.7955537109375,3.264387369155884,-1.6773624420166016,1.836037516593933
1780563279298075400,2.815075439453125,2.365412473678589,-1.4399000406265259,1.6102625131607056
1780563279317595600,2.834595703125,1.5464625358581543,-1.1449625492095947,1.2551000118255615
1780563279337120300,2.854120361328125,0.852774977684021,-0.8244500160217285,0.8098750114440918
1780563279356645600,2.873645751953125,0.25093749165534973,-0.507099986076355,0.32133749127388
1780563279376170000,2.893169921875,-0.2780250012874603,-0.22756250202655792,-0.142037495970726
1780563279395696400,2.9126962890625,-0.6920375227928162,-0.013887500390410423,-0.5076500177383423
1780563279415221000,2.932220947265625,-0.9575499892234802,0.1303499937057495,-0.7448375225067139
1780563279434747000,2.951746826171875,-1.0685124397277832,0.21656249463558197,-0.8629499673843384
1780563279454273800,2.971273681640625,-1.0240999460220337,0.26001250743865967,-0.8850874900817871
1780563279473800700,2.99080078125,-0.8485124707221985,0.2784374952316284,-0.8416374921798706
1780563279493328000,3.010327880859375,-0.6188874840736389,0.2862749993801117,-0.7713750004768372
1780563279512852700,3.029852783203125,-0.4404124915599823,0.29438748955726624,-0.7137625217437744
1780563279532378400,3.04937841796875,-0.37193748354911804,0.3133625090122223,-0.694237470626831
1780563279551904500,3.068904541015625,-0.3876124918460846,0.3485625088214874,-0.7163749933242798
1780563279571429400,3.088429443359375,-0.41538751125335693,0.3965499997138977,-0.7726125121116638
1780563279590953000,3.107952880859375,-0.4094749987125397,0.4478375017642975,-0.8581374883651733
1780563279610475800,3.127475830078125,-0.3778499960899353,0.49390000104904175,-0.9707499742507935
1780563279630004500,3.14700439453125,-0.3778499960899353,0.49390000104904175,-0.9707499742507935
1780563279649533400,3.166533447265625,-0.3474625051021576,0.5299249887466431,-1.0932625532150269
1780563279669059600,3.1860595703125,-0.3227125108242035,0.5508249998092651,-1.1864874362945557
1780563279688588800,3.2055888671875,-0.18191249668598175,0.5383124947547913,-1.1495000123977661
1780563279708114000,3.225114013671875,-0.18191249668598175,0.5383124947547913,-1.1495000123977661
1780563279727635200,3.24463525390625,0.06929999589920044,0.5021499991416931,-0.8769749999046326
1780563279747156700,3.26415673828125,0.06929999589920044,0.5021499991416931,-0.8769749999046326
1780563279766679300,3.28367919921875,0.11082500219345093,0.5084750056266785,-0.7335624694824219
1780563279786200300,3.303200439453125,0.027499999850988388,0.545324981212616,-0.6191624999046326
1780563279805724400,3.322724365234375,-0.1816374957561493,0.6180624961853027,-0.5442249774932861
1780563279825249000,3.3422490234375,-0.4754749834537506,0.7195374965667725,-0.5077875256538391
1780563279844774700,3.361774658203125,-0.7942000031471252,0.8373749852180481,-0.4970625042915344
1780563279864302600,3.381302490234375,-1.0715374946594238,0.950124979019165,-0.4950000047683716
1780563279883830500,3.40083056640625,-1.256887435913086,1.0367499589920044,-0.49334999918937683
1780563279903355400,3.42035546875,-1.359874963760376,1.0965625047683716,-0.4945875108242035
1780563279922880300,3.43988037109375,-1.4151500463485718,1.1413874626159668,-0.49293750524520874
1780563279942403800,3.45940380859375,-1.441137433052063,1.182224988937378,-0.46268749237060547
1780563279961924600,3.478924560546875,-1.4574999809265137,1.2196249961853027,-0.37853750586509705
1780563279981450800,3.49845068359375,-1.4816999435424805,1.2442375421524048,-0.2441999912261963
1780563280000978000,3.51797802734375,-1.5192375183105469,1.2493250370025635,-0.09679999947547913
1780563280020506000,3.537506103515625,-1.5299625396728516,1.2384624481201172,0.0193875003606081
1780563280040033500,3.557033447265625,-1.4386625289916992,1.215499997138977,0.08579999953508377
1780563280059556400,3.576556396484375,-1.2251249551773071,1.1767250299453735,0.11522500216960907
1780563280079078100,3.596078125,-0.9530124664306641,1.1119624376296997,0.13186250627040863
1780563280098602800,3.615602783203125,-0.7155500054359436,1.016950011253357,0.15138749778270721
1780563280118129700,3.635129638671875,-0.5539875030517578,0.9028249979019165,0.1751749962568283
1780563280137658400,3.654658447265625,-0.44756248593330383,0.7889750003814697,0.19786250591278076
1780563280157186600,3.6741865234375,-0.36258751153945923,0.6920375227928162,0.21834999322891235
1780563280176708000,3.6937080078125,-0.28283751010894775,0.6158624887466431,0.23801249265670776
1780563280196229000,3.71322900390625,-0.21367499232292175,0.5568749904632568,0.2569875121116638
1780563280215755300,3.73275537109375,-0.1722874939441681,0.5148000121116638,0.2741749882698059
1780563280235282200,3.7522822265625,-0.17723749577999115,0.494174987077713,0.28847500681877136
1780563280254809600,3.7718095703125,-0.195250004529953,0.4918375015258789,0.2937000095844269
1780563280274338800,3.7913388671875,-0.15537500381469727,0.49390000104904175,0.27953749895095825
1780563280293865000,3.810864990234375,-0.050599999725818634,0.49018749594688416,0.2484624981880188
1780563280313396500,3.830396484375,0.03932499885559082,0.4820750057697296,0.22151249647140503
1780563280332931600,3.849931640625,0.030112499371170998,0.4739624857902527,0.22110000252723694
1780563280352457500,3.86945751953125,-0.06201250106096268,0.46351251006126404,0.2447499930858612
1780563280371986700,3.888986572265625,-0.14368750154972076,0.4450874924659729,0.267300009727478
1780563280391520300,3.908520263671875,-0.14794999361038208,0.4193750023841858,0.26881250739097595
1780563280411054300,3.928054443359375,-0.08744999766349792,0.3917374908924103,0.25093749165534973
1780563280430590200,3.947590087890625,-0.023649999871850014,0.36506250500679016,0.2297624945640564
1780563280450123500,3.96712353515625,-0.0006874999962747097,0.33660000562667847,0.21615000069141388
1780563280469659000,3.986658935546875,-0.0006874999962747097,0.33660000562667847,0.21615000069141388
1780563280489193500,4.006193359375,-0.025162499397993088,0.2648249864578247,0.202674999833107
1780563280508722200,4.02572216796875,0.025299999862909317,0.227012500166893,0.18947499990463257
1780563280528251600,4.045251708984375,0.025299999862909317,0.227012500166893,0.18947499990463257
1780563280547780000,4.064780029296875,0.31363749504089355,0.1685750037431717,0.13942499458789825
1780563280567306000,4.084305908203125,0.31363749504089355,0.1685750037431717,0.13942499458789825
1780563280586832400,4.103832275390625,0.4067249894142151,0.15386250615119934,0.12484999746084213
1780563280606360000,4.123360107421875,0.4111250042915344,0.14918750524520874,0.12677499651908875
1780563280625891800,4.142891845703125,0.3774375021457672,0.15344999730587006,0.13846249878406525
1780563280645426200,4.16242626953125,0.35241249203681946,0.1652749925851822,0.1564749926328659
1780563280664960300,4.181960205078125,0.33742499351501465,0.18383750319480896,0.18782499432563782
1780563280684494600,4.20149462890625,0.32615000009536743,0.20363749563694,0.23086249828338623
1780563280704024600,4.221024658203125,0.3394874930381775,0.2172500044107437,0.26826250553131104
1780563280723548400,4.24054833984375,0.39586248993873596,0.2209624946117401,0.2825624942779541
1780563280743071200,4.2600712890625,0.46736249327659607,0.21463750302791595,0.27348750829696655
1780563280762597400,4.279597412109375,0.494174987077713,0.20116250216960907,0.25575000047683716
1780563280782123000,4.299123046875,0.4384874999523163,0.1845249980688095,0.24117499589920044
1780563280801650700,4.318650634765625,0.31597501039505005,0.16885000467300415,0.2303124964237213
1780563280821179600,4.3381796875,0.17998750507831573,0.15565000474452972,0.2171124964952469
1780563280840708000,4.3577080078125,0.08579999953508377,0.14396250247955322,0.19580000638961792
1780563280860237800,4.37723779296875,0.05678749829530716,0.1313125044107437,0.16885000467300415
1780563280879772700,4.396772705078125,0.07122500240802765,0.11604999750852585,0.14836250245571136
1780563280899309300,4.416309326171875,0.08910000324249268,0.09927500039339066,0.14409999549388885
1780563280918838800,4.4358388671875,0.0906125009059906,0.08442500233650208,0.15152500569820404
1780563280938367700,4.45536767578125,0.0742499977350235,0.07590000331401825,0.1564749926328659
1780563280957894000,4.474893798828125,0.0340999998152256,0.07686249911785126,0.15138749778270721
1780563280977417200,4.494417236328125,-0.04207500070333481,0.08937499672174454,0.14066250622272491
1780563280996942000,4.513942138671875,-0.1588124930858612,0.11591249704360962,0.1358499974012375
1780563281016469200,4.53346923828125,-0.3086875081062317,0.15757499635219574,0.14904999732971191
1780563281035996700,4.55299658203125,-0.4745124876499176,0.21119999885559082,0.18892499804496765
1780563281055519500,4.57251953125,-0.6360750198364258,0.2689499855041504,0.2586374878883362
1780563281075043800,4.5920439453125,-0.7788000106811523,0.32202500104904175,0.35530000925064087
1780563281094571300,4.6115712890625,-0.9013124704360962,0.36629998683929443,0.47079998254776
1780563281114100200,4.631100341796875,-1.0059499740600586,0.4047999978065491,0.5915250182151794
1780563281133623600,4.65062353515625,-1.0854250192642212,0.4446749985218048,0.7000125050544739
1780563281153137200,4.67013720703125,-1.130387544631958,0.48963749408721924,0.7822374701499939
1780563281172657400,4.689657470703125,-1.1406999826431274,0.5388625264167786,0.8331124782562256
1780563281192187100,4.709187255859375,-1.127774953842163,0.5898749828338623,0.8578624725341797
1780563281211720700,4.728720703125,-1.1148500442504883,0.6440500020980835,0.8721625208854675
1780563281231256300,4.74825634765625,-1.1193875074386597,0.7037249803543091,0.8912749886512756
1780563281250785500,4.76778564453125,-1.1320375204086304,0.7682124972343445,0.9153375029563904
1780563281270312400,4.7873125,-1.1166374683380127,0.8300874829292297,0.9255124926567078
1780563281289836500,4.80683642578125,-1.1166374683380127,0.8300874829292297,0.9255124926567078
1780563281309361000,4.82636083984375,-0.8831624984741211,0.8806874752044678,0.8222500085830688
1780563281328888600,4.845888671875,-0.8831624984741211,0.8806874752044678,0.8222500085830688
1780563281348414500,4.86541455078125,-0.6912124752998352,0.824037492275238,0.7284749746322632
1780563281367942700,4.884942626953125,-0.43188750743865967,0.5715875029563904,0.5874000191688538
1780563281387470600,4.904470703125,-0.43188750743865967,0.5715875029563904,0.5874000191688538
1780563281406994400,4.923994384765625,-0.43188750743865967,0.5715875029563904,0.5874000191688538
1780563281426520600,4.9435205078125,-0.37331250309944153,0.28503748774528503,0.42143750190734863
1780563281446046000,4.9630458984375,-0.10793749988079071,-0.01993750035762787,0.23512500524520874
1780563281465570300,4.9825703125,0.4166249930858612,-0.46915000677108765,-0.018699999898672104
1780563281485098000,5.002097900390625,1.042799949645996,-0.9281250238418579,-0.2807750105857849
1780563281504625000,5.021625,1.4975124597549438,-1.2516624927520752,-0.5091624855995178
1780563281524154400,5.041154296875,1.619612455368042,-1.4272500276565552,-0.7436000108718872
1780563281543687700,5.060687744140625,1.3960374593734741,-1.513737440109253,-1.0601249933242798
1780563281563220200,5.08022021484375,0.8860499858856201,-1.5379375219345093,-1.4605250358581543
1780563281582745600,5.09974560546875,0.22921249270439148,-1.4957250356674194,-1.823662519454956
1780563281602268000,5.119267822265625,-0.3104749917984009,-1.3831125497817993,-1.9608874320983887
1780563281621794800,5.138794921875,-0.3562625050544739,-1.2358499765396118,-1.7498250007629395
1780563281641323000,5.158322998046875,0.2694999873638153,-1.0957374572753906,-1.2062875032424927
1780563281660850700,5.1778505859375,1.2383249998092651,-0.9425625205039978,-0.4599374830722809
1780563281680383500,5.197383544921875,1.9911375045776367,-0.738099992275238,0.29534998536109924
1780563281699914500,5.21691455078125,2.224062442779541,-0.4982999861240387,0.8640499711036682
1780563281719445200,5.2364453125,1.9864624738693237,-0.27582499384880066,1.1129250526428223
1780563281738975700,5.255975830078125,1.474412441253662,-0.11288750171661377,1.0097999572753906
1780563281758506800,5.2755068359375,0.8949875235557556,-0.040562499314546585,0.6066499948501587
1780563281778038300,5.295038330078125,0.4246000051498413,-0.06902500241994858,0.03437500074505806
1780563281797566500,5.31456640625,0.14176249504089355,-0.16637499630451202,-0.5357000231742859
1780563281817092400,5.33409228515625,0.028875000774860382,-0.2769249975681305,-0.9531499743461609
1780563281836620500,5.35362060546875,0.02474999986588955,-0.34540000557899475,-1.1273624897003174
1780563281856149200,5.373149169921875,0.09129999577999115,-0.3478749990463257,-1.0524250268936157
1780563281875679500,5.392679443359375,0.20006249845027924,-0.2853125035762787,-0.7860875129699707
1780563281895210000,5.4122099609375,0.29809999465942383,-0.17159999907016754,-0.4263874888420105
1780563281914742500,5.431742431640625,0.36162498593330383,-0.045237500220537186,-0.07961250096559525
1780563281934276400,5.4512763671875,0.4006749987602234,0.048124998807907104,0.16926249861717224
1780563281953808000,5.470807861328125,0.4362874925136566,0.07796250283718109,0.2782999873161316
1780563281973337600,5.490337646484375,0.48399999737739563,0.03712499886751175,0.25382500886917114
1780563281992865300,5.509865234375,0.5310249924659729,-0.059950001537799835,0.1280124932527542
1780563282012390700,5.529390625,0.5394124984741211,-0.1845249980688095,-0.047987498342990875
1780563282031917600,5.54891748046875,0.4624125063419342,-0.29686251282691956,-0.2149125039577484
1780563282051446500,5.568446533203125,0.2877874970436096,-0.3605250120162964,-0.3254624903202057
1780563282070974000,5.587973876953125,0.057612501084804535,-0.3675374984741211,-0.35846251249313354
1780563282090504200,5.607504150390625,-0.16775000095367432,-0.3372874855995178,-0.318450003862381
1780563282110034200,5.6270341796875,-0.16775000095367432,-0.3372874855995178,-0.318450003862381
1780563282129564200,5.646564208984375,-0.3419624865055084,-0.2965874969959259,-0.23237499594688416
1780563282149096400,5.666096435546875,-0.506137490272522,-0.24832500517368317,-0.055687498301267624
1780563282168628200,5.685628173828125,-0.5559124946594238,-0.254925012588501,0.002337499987334013
1780563282188155000,5.70515478515625,-0.5559124946594238,-0.254925012588501,0.002337499987334013
1780563282207681500,5.724681640625,-0.6133875250816345,-0.33082500100135803,0.07259999960660934
1780563282227208700,5.744208740234375,-0.6133875250816345,-0.33082500100135803,0.07259999960660934
1780563282246734800,5.76373486328125,-0.509850025177002,-0.41167500615119934,0.08992499858140945
1780563282266257400,5.78325732421875,-0.3287625014781952,-0.5081999897956848,0.09611249715089798
1780563282285779000,5.802779052734375,-0.16843749582767487,-0.5869874954223633,0.08662500232458115
1780563282305301800,5.8223017578125,-0.10106249898672104,-0.6219124794006348,0.05596249923110008
1780563282324827600,5.84182763671875,-0.11041250079870224,-0.6177874803543091,0.004124999977648258
1780563282344354000,5.86135400390625,-0.14506250619888306,-0.5909749865531921,-0.05843750014901161
1780563282363877600,5.880877685546875,-0.17874999344348907,-0.552887499332428,-0.12086249887943268
1780563282383401200,5.900401123046875,-0.20611250400543213,-0.5110874772071838,-0.17710000276565552
1780563282402927900,5.919927978515625,-0.2232999950647354,-0.46722498536109924,-0.21972499787807465
1780563282422452000,5.939451904296875,-0.21889999508857727,-0.42336249351501465,-0.23787499964237213
1780563282441973200,5.95897314453125,-0.16568750143051147,-0.38967499136924744,-0.2223374992609024
1780563282461497000,5.9784970703125,0.03918749839067459,-0.40466248989105225,-0.17173749208450317
1780563282481018600,5.9980185546875,0.5372124910354614,-0.5306124687194824,-0.08799999952316284
1780563282500538600,6.01753857421875,1.3505250215530396,-0.7882875204086304,0.036024998873472214
1780563282520061200,6.037061279296875,2.37146258354187,-1.1309374570846558,0.21738749742507935
1780563282539586000,6.0565859375,3.4386000633239746,-1.4788124561309814,0.46997499465942383
1780563282559106000,6.07610595703125,4.3726372718811035,-1.7637125253677368,0.785812497138977
1780563282578623700,6.095623779296875,4.942850112915039,-1.9346250295639038,1.107699990272522
1780563282598146300,6.115146240234375,4.950412273406982,-1.9458999633789062,1.3382874727249146
1780563282617670700,6.134670654296875,4.392849922180176,-1.7740249633789062,1.393149971961975
1780563282637196000,6.154196044921875,3.438737392425537,-1.435362458229065,1.2445124387741089
1780563282656717300,6.17371728515625,2.3130249977111816,-0.9927499890327454,0.9245499968528748
1780563282676238300,6.19323828125,1.2094500064849854,-0.5286874771118164,0.5007749795913696
1780563282695762700,6.2127626953125,0.26083749532699585,-0.11879999935626984,0.050324998795986176
1780563282715288000,6.2322880859375,-0.492249995470047,0.20006249845027924,-0.3702875077724457
1780563282734813200,6.251813232421875,-1.0477499961853027,0.42528748512268066,-0.7173374891281128
1780563282754336800,6.271336669921875,-1.3828375339508057,0.5619624853134155,-0.9531499743461609
1780563282773863200,6.29086328125,-1.4793624877929688,0.6215000152587891,-1.0630124807357788
1780563282793391000,6.31039111328125,-1.3554749488830566,0.6183375120162964,-1.0592999458312988
1780563282812920800,6.3299208984375,-1.085837483406067,0.5730999708175659,-0.9761124849319458
1780563282832451800,6.349451904296875,-0.7759125232696533,0.509850025177002,-0.8541499972343445
1780563282851982000,6.368982177734375,-0.5240125060081482,0.4507249891757965,-0.7299875020980835
1780563282871515000,6.388514892578125,-0.37578749656677246,0.41029998660087585,-0.6285125017166138
1780563282891047000,6.408046875,-0.30607500672340393,0.39311251044273376,-0.559624969959259
1780563282910573800,6.42757373046875,-0.2475000023841858,0.3922874927520752,-0.5237374901771545
1780563282930101200,6.447101318359375,-0.15565000474452972,0.39531248807907104,-0.516587495803833
1780563282949630500,6.46663037109375,-0.15565000474452972,0.39531248807907104,-0.516587495803833
1780563282969161500,6.486161376953125,-0.04138749837875366,0.3951750099658966,-0.5281375050544739
1780563282988691000,6.50569091796875,0.07878749817609787,0.41029998660087585,-0.5478000044822693
1780563283008222700,6.52522265625,0.07878749817609787,0.41029998660087585,-0.5478000044822693
1780563283027754800,6.544754638671875,-0.037950001657009125,0.45801249146461487,-0.5196124911308289
1780563283047284200,6.5642841796875,-0.037950001657009125,0.45801249146461487,-0.5196124911308289
1780563283066816500,6.58381640625,-0.1522125005722046,0.4739624857902527,-0.49321249127388
1780563283086345500,6.603345458984375,-0.23801249265670776,0.4782249927520752,-0.4534749984741211
1780563283105871400,6.622871337890625,-0.25712499022483826,0.47478750348091125,-0.39489999413490295
1780563283125398300,6.642398193359375,-0.23430000245571136,0.47066250443458557,-0.32711249589920044
1780563283144922000,6.661922119140625,-0.24076250195503235,0.47478750348091125,-0.2784374952316284
1780563283164446000,6.681446044921875,-0.31776249408721924,0.48881250619888306,-0.27252501249313354
1780563283183973600,6.7009736328125,-0.4357374906539917,0.5075125098228455,-0.30428749322891235
1780563283203503400,6.72050341796875,-0.5315750241279602,0.5253875255584717,-0.3465000092983246
1780563283223032800,6.74003271484375,-0.5762624740600586,0.5407875180244446,-0.3760625123977661
1780563283242559700,6.759559814453125,-0.595924973487854,0.56045001745224,-0.38651248812675476
1780563283262087700,6.779087646484375,-0.6393749713897705,0.5982624888420105,-0.3807374835014343
1780563283281617700,6.79861767578125,-0.7382375001907349,0.6649500131607056,-0.3577750027179718
1780563283301144300,6.818144287109375,-0.8823375105857849,0.7548750042915344,-0.30937498807907104
1780563283320671000,6.8376708984375,-1.022724986076355,0.8421875238418579,-0.23375000059604645
1780563283340201200,6.857201171875,-1.1072875261306763,0.8969125151634216,-0.14739999175071716
1780563283359734500,6.876734619140625,-1.124887466430664,0.9095624685287476,-0.07535000145435333
1780563283379257900,6.8962578125,-1.0966999530792236,0.8963624835014343,-0.028187500312924385
1780563283398774300,6.915774169921875,-1.0324875116348267,0.8758749961853027,0.0028874999843537807
1780563283418292700,6.935292724609375,-0.9255124926567078,0.8514000177383423,0.03258749842643738
1780563283437812000,6.95481201171875,-0.7953000068664551,0.8181250095367432,0.06751249730587006
1780563283457329000,6.974328857421875,-0.6939625144004822,0.7786625027656555,0.10546249896287918
1780563283476844000,6.993843994140625,-0.6637125015258789,0.7463499903678894,0.14011250436306
1780563283496360700,7.013360595703125,-0.7011125087738037,0.7331500053405762,0.1671999990940094
1780563283515882000,7.032882080078125,-0.7609249949455261,0.7350749969482422,0.18878750503063202
1780563283535410400,7.052410400390625,-0.8009374737739563,0.7367249727249146,0.20817500352859497
1780563283554940200,7.071940185546875,-0.8111125230789185,0.7232499718666077,0.22206249833106995
1780563283574468400,7.09146826171875,-0.8086374998092651,0.6936874985694885,0.22068749368190765
1780563283593994200,7.110994140625,-0.8036875128746033,0.6564249992370605,0.19634999334812164
1780563283613516000,7.13051611328125,-0.776324987411499,0.6161375045776367,0.1527625024318695
1780563283633042200,7.150042236328125,-0.7023500204086304,0.5711749792098999,0.1060125008225441
1780563283652571000,7.16957080078125,-0.5828624963760376,0.5190625190734863,0.07727500051259995
1780563283672100900,7.189100830078125,-0.4536125063896179,0.46392500400543213,0.08139999955892563
1780563283691631900,7.2086318359375,-0.36134999990463257,0.41690000891685486,0.1214125007390976
1780563283711159800,7.228159912109375,-0.3372874855995178,0.3910500109195709,0.1882375031709671
1780563283730687700,7.247687744140625,-0.3782624900341034,0.39256250858306885,0.26592499017715454
1780563283750214400,7.26721435546875,-0.4493499994277954,0.41731250286102295,0.3381125032901764
1780563283769742600,7.28674267578125,-0.4493499994277954,0.41731250286102295,0.3381125032901764
1780563283789276000,7.30627587890625,-0.546287477016449,0.48881250619888306,0.432574987411499
1780563283808811500,7.3258115234375,-0.546287477016449,0.48881250619888306,0.432574987411499
1780563283828346600,7.3453466796875,-0.38733750581741333,0.5131499767303467,0.46131250262260437
1780563283847881500,7.364881591796875,-0.38733750581741333,0.5131499767303467,0.46131250262260437
1780563283867412500,7.38441259765625,-0.38733750581741333,0.5131499767303467,0.46131250262260437
1780563283886942000,7.40394189453125,-0.06311249732971191,0.4661250114440918,0.46584999561309814
1780563283906471400,7.423471435546875,0.09446249902248383,0.4221250116825104,0.46117499470710754
1780563283925998000,7.442998046875,0.25107499957084656,0.36932501196861267,0.4402749836444855
1780563283945526500,7.462526611328125,0.40851250290870667,0.3123999834060669,0.3984749913215637
1780563283965055700,7.4820556640625,0.5449125170707703,0.25423750281333923,0.34347498416900635
1780563283984586200,7.501586181640625,0.6330500245094299,0.19456249475479126,0.2932874858379364
1780563284004117000,7.521116943359375,0.6708624958992004,0.13392500579357147,0.2626250088214874
1780563284023646000,7.54064599609375,0.6819999814033508,0.07631249725818634,0.2546499967575073
1780563284043179000,7.560178955078125,0.6796625256538391,0.02736249938607216,0.2689499855041504
1780563284062712300,7.57971240234375,0.6440500020980835,-0.010037500411272049,0.30428749322891235
1780563284082245600,7.59924560546875,0.5702124834060669,-0.037950001657009125,0.34540000557899475
1780563284101774800,7.61877490234375,0.4890874922275543,-0.0611874982714653,0.36492499709129333
1780563284121299500,7.638299560546875,0.4349125027656555,-0.08236250281333923,0.3441624939441681
1780563284140824600,7.657824462890625,0.41029998660087585,-0.10009999573230743,0.2877874970436096
1780563284160351700,7.677351806640625,0.39311251044273376,-0.10958749800920486,0.21793749928474426
1780563284179874300,7.696874267578125,0.3614875078201294,-0.10449999570846558,0.1568875014781952
1780563284199390500,7.716390380859375,0.29631251096725464,-0.08057499676942825,0.12127500027418137
1780563284218907100,7.7359072265625,0.18273749947547913,-0.03726249933242798,0.12113749980926514
1780563284238432300,7.755432373046875,0.02213750034570694,0.02227500081062317,0.15839999914169312
1780563284257954800,7.774954833984375,-0.16664999723434448,0.09377499669790268,0.22398750483989716
1780563284277475000,7.79447509765625,-0.35667499899864197,0.17118750512599945,0.29919999837875366
1780563284296998400,7.813998291015625,-0.5248374938964844,0.24296249449253082,0.3628624975681305
1780563284316521200,7.833521240234375,-0.6488624811172485,0.29534998536109924,0.3979249894618988
1780563284336043800,7.853043701171875,-0.7049624919891357,0.3195500075817108,0.3959999978542328
1780563284355566300,7.87256640625,-0.6892874836921692,0.3188624978065491,0.3628624975681305
1780563284375092000,7.892092041015625,-0.6319500207901001,0.30566251277923584,0.319412499666214
1780563284394615800,7.91161572265625,-0.5779125094413757,0.2928749918937683,0.29067498445510864
1780563284414141200,7.93114111328125,-0.5439500212669373,0.2864125072956085,0.2876499891281128
1780563284433666800,7.950666748046875,-0.5066875219345093,0.28380000591278076,0.30140000581741333
1780563284453192700,7.970192626953125,-0.44302499294281006,0.2807750105857849,0.31735000014305115
1780563284472720100,7.98972021484375,-0.3686375021934509,0.27994999289512634,0.3312374949455261
1780563284492243000,8.009242919921874,-0.33096250891685486,0.2905375063419342,0.3511750102043152
1780563284511765200,8.02876513671875,-0.3638249933719635,0.3195500075817108,0.38499999046325684
1780563284531288000,8.0482880859375,-0.4497624933719635,0.36588749289512634,0.4265249967575073
1780563284550810000,8.06781005859375,-0.5351499915122986,0.4184125065803528,0.45787498354911804
1780563284570328800,8.087328857421875,-0.5821750164031982,0.4641999900341034,0.46915000677108765
1780563284589846300,8.10684619140625,-0.5821750164031982,0.4641999900341034,0.46915000677108765
1780563284609368600,8.12636865234375,-0.5975750088691711,0.527999997138977,0.46956250071525574
1780563284628891000,8.145890869140626,-0.5975750088691711,0.527999997138977,0.46956250071525574
1780563284648411100,8.1654111328125,-0.6164125204086304,0.5702124834060669,0.4885374903678894
1780563284667935500,8.184935546875,-0.6164125204086304,0.5702124834060669,0.4885374903678894
1780563284687458800,8.204458740234376,-0.7515749931335449,0.7048249840736389,0.5875374674797058
1780563284706978800,8.223978759765625,-0.8694124817848206,0.7988749742507935,0.6624749898910522
1780563284726498300,8.243498291015625,-0.9666249752044678,0.9037874937057495,0.7279250025749207
1780563284746020000,8.26302001953125,-1.0001749992370605,1.0187374353408813,0.768625020980835
1780563284765545000,8.282544921875,-0.9761124849319458,1.1501874923706055,0.7954375147819519
1780563284785068800,8.30206884765625,-0.9281250238418579,1.3000625371932983,0.8320124745368958
1780563284804591000,8.321591064453125,-0.8194999694824219,1.3824249505996704,0.8434249758720398
1780563284824113200,8.341113037109375,-0.544362485408783,1.2105499505996704,0.7265499830245972
1780563284843637500,8.360637451171876,-0.06324999779462814,0.6425374746322632,0.3863750100135803
1780563284863164200,8.3801640625,0.5365250110626221,-0.28228750824928284,-0.21601249277591705
1780563284882691300,8.39969140625,1.0857000350952148,-1.3021249771118164,-1.0004500150680542
1780563284902217700,8.4192177734375,1.4203749895095825,-2.0722625255584717,-1.7469375133514404
1780563284921746400,8.438746337890626,1.4678125381469727,-2.3806750774383545,-2.198349952697754
1780563284941271600,8.458271484375,1.2412124872207642,-2.233412504196167,-2.235337495803833
1780563284960799000,8.477799072265626,0.7979124784469604,-1.7879124879837036,-1.9482375383377075
1780563284980324400,8.497324462890624,0.21889999508857727,-1.2285624742507935,-1.5190999507904053
1780563284999843300,8.51684326171875,-0.3392125070095062,-0.7117000222206116,-1.091612458229065
1780563285019364900,8.53636474609375,-0.6169624924659729,-0.36492499709129333,-0.7308124899864197
1780563285038885000,8.555885009765625,-0.4651624858379364,-0.23539999127388,-0.4419249892234802
1780563285058403600,8.575403564453126,-0.016362499445676804,-0.2572624981403351,-0.20762500166893005
1780563285077926100,8.594926025390626,0.4599374830722809,-0.3242250084877014,-0.023512499406933784
1780563285097447400,8.614447509765625,0.8006625175476074,-0.3749625086784363,0.09748750180006027
1780563285116965400,8.63396533203125,0.9780374765396118,-0.40424999594688416,0.14272500574588776
1780563285136483000,8.653483154296875,1.0051250457763672,-0.42528748512268066,0.11371249705553055
1780563285155999500,8.67299951171875,0.9169874787330627,-0.4474250078201294,0.026262499392032623
1780563285175513600,8.692513671875,0.7669749855995178,-0.47286251187324524,-0.09707500040531158
1780563285195031800,8.71203173828125,0.6106374859809875,-0.49816250801086426,-0.2303124964237213
1780563285214551800,8.7315517578125,0.48826250433921814,-0.518512487411499,-0.34485000371932983
1780563285234065400,8.7510654296875,0.4230875074863434,-0.525112509727478,-0.4133250117301941
1780563285253583400,8.770583251953125,0.42666250467300415,-0.511775016784668,-0.4204750061035156
1780563285273102300,8.790102294921875,0.4809750020503998,-0.4731374979019165,-0.36602500081062317
1780563285292617500,8.809617431640625,0.5352874994277954,-0.40246251225471497,-0.26413750648498535
1780563285312137000,8.829136962890624,0.5330874919891357,-0.2985124886035919,-0.14135000109672546
1780563285331662800,8.848662841796875,0.45704999566078186,-0.18012499809265137,-0.02928750030696392
1780563285351185400,8.868185302734375,0.34443750977516174,-0.08277499675750732,0.0448249988257885
1780563285370702800,8.887702880859376,0.24392500519752502,-0.035612501204013824,0.06847500056028366
1780563285390222800,8.907222900390625,0.17820000648498535,-0.04881250113248825,0.04963750019669533
1780563285409745400,8.926745361328125,0.17820000648498535,-0.04881250113248825,0.04963750019669533
1780563285429267700,8.946267822265625,0.15070000290870667,-0.11646249890327454,0.010312499478459358
1780563285448793300,8.96579345703125,0.3016749918460846,-0.3590124845504761,0.005087499972432852
1780563285468320800,8.98532080078125,0.3016749918460846,-0.3590124845504761,0.005087499972432852
1780563285487849500,9.004849365234374,0.7231125235557556,-0.6348375082015991,0.1775124967098236
1780563285507377200,9.024377197265625,0.7231125235557556,-0.6348375082015991,0.1775124967098236
1780563285526901800,9.04390185546875,0.7231125235557556,-0.6348375082015991,0.1775124967098236
1780563285546424000,9.063424072265626,1.0231374502182007,-0.8637750148773193,0.25905001163482666
1780563285565950700,9.08295068359375,1.0844625234603882,-0.9304624795913696,0.1989624947309494
1780563285585478000,9.102477783203126,1.0646624565124512,-0.9479249715805054,0.09693749994039536
1780563285605001700,9.122001708984374,0.9483374953269958,-0.9218000173568726,-0.01347499992698431
1780563285624527600,9.141527587890625,0.7567999958992004,-0.8716124892234802,-0.11715000122785568
1780563285644055000,9.161054931640624,0.5352874994277954,-0.8149625062942505,-0.22439999878406525
1780563285663579600,9.18057958984375,0.33467498421669006,-0.7640874981880188,-0.3484250009059906
1780563285683104300,9.200104248046875,0.16733749210834503,-0.7243499755859375,-0.4866124987602234
1780563285702630700,9.219630615234376,0.0035749999806284904,-0.6906625032424927,-0.6252124905586243
1780563285722160400,9.239160400390626,-0.17036250233650208,-0.6499624848365784,-0.7407125234603882
1780563285741693000,9.25869287109375,-0.32243749499320984,-0.5926250219345093,-0.8032749891281128
1780563285761222700,9.27822265625,-0.3554374873638153,-0.5335000157356262,-0.7623000144958496
1780563285780754000,9.29775390625,-0.0929500013589859,-0.5377625226974487,-0.5713124871253967
1780563285800286200,9.3172861328125,0.6239749789237976,-0.6978124976158142,-0.24695000052452087
1780563285819817500,9.3368173828125,1.7109124660491943,-1.0221749544143677,0.13103750348091125
1780563285839344400,9.356344482421875,2.7968873977661133,-1.3877874612808228,0.468874990940094
1780563285858870000,9.3758701171875,3.487412452697754,-1.6416125297546387,0.6973999738693237
1780563285878398200,9.395398193359375,3.637974977493286,-1.7113250494003296,0.7785249948501587
1780563285897925400,9.41492529296875,3.334787368774414,-1.601599931716919,0.7108749747276306
1780563285917451000,9.434450927734375,2.7304749488830566,-1.3454375267028809,0.5333625078201294
1780563285936977000,9.453976806640625,1.995674967765808,-1.0070500373840332,0.3077250123023987
1780563285956509200,9.47350927734375,1.3047374486923218,-0.6732000112533569,0.09391249716281891
1780563285976042200,9.493042236328124,0.7833374738693237,-0.40658751130104065,-0.07328750193119049
1780563285995572500,9.512572509765626,0.44811248779296875,-0.20707499980926514,-0.19786250591278076
1780563286015104000,9.53210400390625,0.2293500006198883,-0.04097500070929527,-0.3086875081062317
1780563286034635800,9.5516357421875,0.03423750028014183,0.12182500213384628,-0.43463748693466187
1780563286054168600,9.57116845703125,-0.2102375030517578,0.29864999651908875,-0.5874000191688538
1780563286073698300,9.5906982421875,-0.5092999935150146,0.4846875071525574,-0.7530875205993652
1780563286093228500,9.610228515625,-0.7957124710083008,0.6536750197410583,-0.8988375067710876
1780563286112757800,9.6297578125,-0.9785875082015991,0.7698624730110168,-0.9928874969482422
1780563286132283400,9.649283447265624,-1.0118625164031982,0.806850016117096,-1.022587537765503
1780563286151810800,9.668810791015625,-0.91753751039505,0.7609249949455261,-0.9957749843597412
1780563286171338800,9.6883388671875,-0.7510250210762024,0.6527125239372253,-0.92826247215271
1780563286190868000,9.707867919921876,-0.5520625114440918,0.5149375200271606,-0.8338000178337097
1780563286210393900,9.727393798828125,-0.34375,0.3783999979496002,-0.7243499755859375
1780563286229920000,9.746919921875,-0.34375,0.3783999979496002,-0.7243499755859375
1780563286249451000,9.766450927734375,-0.16967499256134033,0.2690874934196472,-0.6161375045776367
1780563286268977200,9.78597705078125,-0.09033749997615814,0.21133749186992645,-0.5264874696731567
1780563286288499700,9.805499755859374,-0.2605625092983246,0.2700499892234802,-0.41964998841285706
1780563286308023000,9.82502294921875,-0.2605625092983246,0.2700499892234802,-0.41964998841285706
1780563286327548200,9.844548095703125,-0.37331250309944153,0.34773749113082886,-0.32766249775886536
1780563286347073800,9.86407373046875,-0.37331250309944153,0.34773749113082886,-0.32766249775886536
1780563286366600700,9.8836005859375,-0.32807499170303345,0.34347498416900635,-0.26138749718666077
1780563286386129000,9.90312890625,-0.2798124849796295,0.32903748750686646,-0.19167499244213104
1780563286405661200,9.9226611328125,-0.2433750033378601,0.3110249936580658,-0.14272500574588776
1780563286425197000,9.942197021484375,-0.1919499933719635,0.28366249799728394,-0.13571250438690186
1780563286444726800,9.961726806640625,-0.113987497985363,0.24433749914169312,-0.17572499811649323
1780563286464253200,9.981253173828126,-0.037812501192092896,0.20350000262260437,-0.2569875121116638
1780563286483783000,10.000782958984376,-0.008937500417232513,0.17971250414848328,-0.37441250681877136
1780563286503314200,10.020314208984376,-0.07356250286102295,0.1970375031232834,-0.509024977684021
1780563286522848000,10.039847900390624,-0.26358750462532043,0.2747249901294708,-0.6201249957084656
1780563286542382300,10.05938232421875,-0.5647125244140625,0.4100250005722046,-0.67044997215271
1780563286561917200,10.078917236328126,-0.90420001745224,0.5696625113487244,-0.6546375155448914
1780563286581451300,10.098451171875,-1.1862125396728516,0.7052375078201294,-0.5997750163078308
1780563286600983300,10.1179833984375,-1.3534125089645386,0.7840250134468079,-0.5351499915122986
1780563286620509400,10.137509521484375,-1.3963124752044678,0.7977749705314636,-0.4683249890804291
1780563286640034300,10.157034423828126,-1.3199999332427979,0.7504749894142151,-0.3737249970436096
1780563286659562800,10.176562744140625,-1.135200023651123,0.6539499759674072,-0.21931250393390656
1780563286679090400,10.19609033203125,-0.893750011920929,0.5389999747276306,-0.01746249943971634
1780563286698616600,10.215616455078125,-0.6906625032424927,0.4483875036239624,0.17476250231266022
1780563286718144300,10.235144287109375,-0.5868499875068665,0.4012250006198883,0.3030500113964081
1780563286737670400,10.25467041015625,-0.5440874695777893,0.37716248631477356,0.35749998688697815
1780563286757197300,10.274197265625,-0.4879874885082245,0.3503499925136566,0.36121249198913574
1780563286776724500,10.293724365234375,-0.4361499845981598,0.33783748745918274,0.3433375060558319
1780563286796246500,10.31324658203125,-0.48551249504089355,0.38266250491142273,0.3328875005245209
1780563286815771100,10.332771240234376,-0.6752625107765198,0.49252501130104065,0.3503499925136566
1780563286835296800,10.352296875,-0.9234499931335449,0.6176499724388123,0.3964124917984009
1780563286854817300,10.3718173828125,-1.1213124990463257,0.7012500166893005,0.4516874849796295
1780563286874338000,10.391338134765626,-1.2275999784469604,0.7303999662399292,0.49472498893737793
1780563286893858800,10.41085888671875,-1.2535874843597412,0.7301250100135803,0.5208500027656555
1780563286913382700,10.430382568359375,-1.2295249700546265,0.7309499979019165,0.5455999970436096
1780563286932904400,10.449904541015625,-1.1687500476837158,0.7412624955177307,0.58451247215271
1780563286952423400,10.46942333984375,-1.055999994277954,0.7453874945640564,0.6367624998092651
1780563286971944400,10.4889443359375,-0.889074981212616,0.7275124788284302,0.6887375116348267
1780563286991468000,10.508468017578124,-0.7158250212669373,0.6881874799728394,0.731362521648407
1780563287010991000,10.5279912109375,-0.5806624889373779,0.6323624849319458,0.7613375186920166
1780563287030510300,10.54751025390625,-0.4567750096321106,0.5564625263214111,0.7708249688148499
1780563287050029300,10.567029296875,-0.4567750096321106,0.5564625263214111,0.7708249688148499
1780563287069555200,10.58655517578125,-0.2942500114440918,0.4600749909877777,0.7500625252723694
1780563287089083000,10.606082763671875,0.09350000321865082,0.26881250739097595,0.6505125164985657
1780563287108608300,10.625608154296875,0.1966249942779541,0.2069374918937683,0.6115999817848206
1780563287128135000,10.645135009765625,0.1966249942779541,0.2069374918937683,0.6115999817848206
1780563287147660500,10.66466064453125,0.1966249942779541,0.2069374918937683,0.6115999817848206
1780563287167185000,10.684184814453126,0.2147749960422516,0.147537499666214,0.5732374787330627
1780563287186708500,10.70370849609375,0.29589998722076416,0.1303499937057495,0.5505499839782715
1780563287206232000,10.723232177734374,0.4512749910354614,0.11783749610185623,0.5191999673843384
1780563287225755100,10.742755126953124,0.5849249958992004,0.1153625026345253,0.48358750343322754
1780563287245276700,10.762276611328126,0.6061000227928162,0.12553749978542328,0.4474250078201294
1780563287264795100,10.781795166015625,0.5132874846458435,0.14602500200271606,0.4142875075340271
1780563287284317000,10.80131689453125,0.3653374910354614,0.17063750326633453,0.38513749837875366
1780563287303842300,10.82084228515625,0.21656249463558197,0.19483749568462372,0.3583250045776367
1780563287323367200,10.8403671875,0.09927500039339066,0.21889999508857727,0.3326124846935272
1780563287342893000,10.85989306640625,0.026399999856948853,0.24076250195503235,0.3092375099658966
1780563287362419000,10.8794189453125,-0.006049999967217445,0.25519999861717224,0.29686251282691956
1780563287381943000,10.898943115234376,-0.006049999967217445,0.2576749920845032,0.30717501044273376
1780563287401469200,10.91846923828125,0.0387750007212162,0.24860000610351562,0.341825008392334
1780563287420994000,10.937994140625,0.1471250057220459,0.2326499968767166,0.3870624899864197
1780563287440519700,10.957519775390624,0.2985124886035919,0.2149125039577484,0.4259749948978424
1780563287460047600,10.977047607421875,0.44343748688697815,0.1985500007867813,0.44769999384880066
1780563287479576000,10.996576171875,0.5450500249862671,0.18466250598430634,0.44591251015663147
1780563287499105800,11.016105712890624,0.5900124907493591,0.17366249859333038,0.4147000014781952
1780563287518634000,11.035634033203126,0.5839625000953674,0.16417500376701355,0.3485625088214874
1780563287538161000,11.055160888671875,0.5608624815940857,0.15331250429153442,0.24433749914169312
1780563287557689000,11.074689208984376,0.5660874843597412,0.1387374997138977,0.1106875017285347
1780563287577216300,11.09421630859375,0.5964750051498413,0.11824999749660492,-0.023924998939037323
1780563287596742000,11.113741943359376,0.6022499799728394,0.0906125009059906,-0.12484999746084213
1780563287616267000,11.13326708984375,0.5607249736785889,0.057475000619888306,-0.17599999904632568
1780563287635794200,11.152794189453125,0.4945875108242035,0.022687500342726707,-0.18314999341964722
1780563287655322400,11.172322265625,0.42570000886917114,-0.011137500405311584,-0.15757499635219574
1780563287674852900,11.191852783203124,0.36616250872612,-0.04138749837875366,-0.113987497985363
1780563287694380800,11.211380859375,0.33316248655319214,-0.0648999959230423,-0.0719124972820282
1780563287713907200,11.2309072265625,0.3265624940395355,-0.08016250282526016,-0.04592499881982803
1780563287733433600,11.25043359375,0.3111625015735626,-0.08786249905824661,-0.037675000727176666
1780563287752959200,11.269959228515624,0.25066250562667847,-0.08937499672174454,-0.03932499885559082
1780563287772491500,11.289491455078124,0.14011250436306,-0.0835999995470047,-0.04097500070929527
1780563287792025300,11.309025390625,-0.0015124999918043613,-0.06875000149011612,-0.03437500074505806
1780563287811553300,11.32855322265625,-0.14038750529289246,-0.045512501150369644,-0.01718750037252903
1780563287831076900,11.348076904296875,-0.23292499780654907,-0.018699999898672104,0.003987499978393316
1780563287850597600,11.36759765625,-0.24860000610351562,0.0031624999828636646,0.01993750035762787
1780563287870123000,11.387123046875,-0.1872749924659729,0.011412499472498894,0.025162499397993088
1780563287889652000,11.40665185546875,-0.1872749924659729,0.011412499472498894,0.025162499397993088
1780563287909179600,11.4261796875,0.05197500064969063,-0.010587500408291817,0.014299999922513962
1780563287928710400,11.44571044921875,0.15262499451637268,-0.014574999921023846,0.016087500378489494
1780563287948242200,11.4652421875,0.15262499451637268,-0.014574999921023846,0.016087500378489494
1780563287967771400,11.484771484375,0.1868624985218048,0.04262499883770943,0.04977500066161156
1780563287987301000,11.504301025390625,0.04867500066757202,0.10779999941587448,0.07947500050067902
1780563288006829600,11.52382958984375,0.04867500066757202,0.10779999941587448,0.07947500050067902
1780563288026356200,11.543356201171875,-0.18466250598430634,0.18796250224113464,0.11618749797344208
1780563288045884700,11.562884765625,-0.43972501158714294,0.2722499966621399,0.16169999539852142
1780563288065409300,11.5824091796875,-0.6419875025749207,0.3559874892234802,0.22261250019073486
1780563288084932400,11.601932373046875,-0.7551500201225281,0.4358749985694885,0.3007124960422516
1780563288104456700,11.621456787109375,-0.7754999995231628,0.5050374865531921,0.38554999232292175
1780563288123981800,11.64098193359375,-0.730537474155426,0.5570124983787537,0.4609000086784363
1780563288143505000,11.6605048828125,-0.6767749786376953,0.5978500247001648,0.5202999711036682
1780563288163030500,11.680030517578125,-0.6591749787330627,0.6389625072479248,0.5645750164985657
1780563288182558500,11.699558349609376,-0.6890124678611755,0.6868125200271606,0.5935875177383423
1780563288202083800,11.719083740234375,-0.7536374926567078,0.7414000034332275,0.6102250218391418
1780563288221605400,11.73860546875,-0.825962483882904,0.7983250021934509,0.6187499761581421
1780563288241127400,11.75812744140625,-0.8838499784469604,0.8514000177383423,0.6230124831199646
1780563288260651500,11.777651611328125,-0.9233124852180481,0.8971874713897705,0.6246625185012817
1780563288280175900,11.79717578125,-0.9550749659538269,0.9363750219345093,0.6258999705314636
1780563288299701200,11.816701171875,-0.9908249974250793,0.9719874858856201,0.6304374933242798
1780563288319228400,11.836228515625,-1.0262999534606934,1.0049874782562256,0.6408874988555908
1780563288338756600,11.855756591796874,-1.0382624864578247,1.0324875116348267,0.653124988079071
1780563288358278400,11.8752783203125,-1.0019625425338745,1.0513249635696411,0.6572499871253967
1780563288377797600,11.894797607421875,-0.9246875047683716,1.0740125179290771,0.6579374670982361
1780563288397327000,11.9143271484375,-0.8438374996185303,1.1263999938964844,0.675125002861023
1780563288416857000,11.933857177734374,-0.791450023651123,1.216599941253662,0.7163749933242798
1780563288436381000,11.953380859375,-0.7565249800682068,1.2997875213623047,0.7407125234603882
1780563288455899600,11.972899658203126,-0.6708624958992004,1.2619750499725342,0.6524375081062317
1780563288475418600,11.992418701171875,-0.42253750562667847,0.9464125037193298,0.34952500462532043
1780563288494943200,12.011943115234375,0.07204999774694443,0.2626250088214874,-0.2134000062942505
1780563288514468600,12.031468505859374,0.7833374738693237,-0.6668750047683716,-0.9564499855041504
1780563288533991200,12.0509912109375,1.534637451171875,-1.5367000102996826,-1.6773624420166016
1780563288553515300,12.070515380859375,2.023175001144409,-2.0517749786376953,-2.1509125232696533
1780563288573041000,12.090041015625,2.012037515640259,-2.1034750938415527,-2.2686123847961426
1780563288592563500,12.1095634765625,1.5285874605178833,-1.777187466621399,-2.078312397003174
1780563288612085500,12.12908544921875,0.843287467956543,-1.2566125392913818,-1.696062445640564
1780563288631608300,12.1486083984375,0.2928749918937683,-0.7473124861717224,-1.2406624555587769
1780563288651132700,12.168132568359376,0.06751249730587006,-0.37812501192092896,-0.7907624840736389
1780563288670657300,12.1876572265625,0.12911249697208405,-0.1652749925851822,-0.3870624899864197
1780563288690184200,12.20718408203125,0.3254624903202057,-0.06806249916553497,-0.06503749638795853
1780563288709709800,12.226709716796876,0.5740625262260437,-0.07686249911785126,0.10752499848604202
1780563288729236000,12.246236083984375,0.8685874938964844,-0.19222499430179596,0.0845625028014183
1780563288748758300,12.26575830078125,1.1318999528884888,-0.3623124957084656,-0.1046374961733818
1780563288768277200,12.28527734375,1.1318999528884888,-0.3623124957084656,-0.1046374961733818
1780563288787798000,12.304798095703125,1.117050051689148,-0.5883625149726868,-0.6373124718666077
1780563288807321900,12.32432177734375,1.117050051689148,-0.5883625149726868,-0.6373124718666077
1780563288826852900,12.343852783203126,0.8111125230789185,-0.5564625263214111,-0.7882875204086304
1780563288846384600,12.363384521484376,0.40796250104904175,-0.4362874925136566,-0.8038250207901001
1780563288865915000,12.382914794921875,0.009212499484419823,-0.2708750069141388,-0.7004249691963196
1780563288885442000,12.402442138671875,-0.2652375102043152,-0.11990000307559967,-0.5234624743461609
1780563288904963300,12.42196337890625,-0.3573625087738037,-0.01924999989569187,-0.318450003862381
1780563288924482600,12.441482666015625,-0.3040125072002411,0.02213750034570694,-0.1264999955892563
1780563288944000800,12.461000732421875,-0.1746249943971634,0.009487500414252281,0.018699999898672104
1780563288963519200,12.480519287109376,-0.009349999949336052,-0.0494999997317791,0.08951249718666077
1780563288983037700,12.50003759765625,0.17861250042915344,-0.14959999918937683,0.07301250100135803
1780563289002557700,12.5195576171875,0.3485625088214874,-0.27059999108314514,-0.009349999949336052
1780563289022079700,12.539079833984376,0.445499986410141,-0.38926249742507935,-0.11879999935626984
1780563289041602600,12.5586025390625,0.4408249855041504,-0.4963749945163727,-0.22165000438690186
1780563289061128000,12.5781279296875,0.3536500036716461,-0.5928999781608582,-0.2938374876976013
1780563289080653800,12.59765380859375,0.2330625057220459,-0.6759499907493591,-0.3162499964237213
1780563289100180200,12.61718017578125,0.11935000121593475,-0.7375500202178955,-0.2755500078201294
1780563289119706000,12.6367060546875,0.04097500070929527,-0.7770124673843384,-0.17215000092983246
1780563289139229700,12.656229736328125,0.025575000792741776,-0.8023124933242798,-0.021037500351667404
1780563289158749700,12.675749755859375,0.0943249985575676,-0.8243125081062317,0.1522125005722046
1780563289178266000,12.69526611328125,0.22728750109672546,-0.8463125228881836,0.31817498803138733
1780563289197784000,12.7147841796875,0.3482874929904938,-0.8617125153541565,0.45237499475479126
1780563289217307000,12.734306884765624,0.3862375020980835,-0.8628125190734863,0.5315750241279602
1780563289236829000,12.753828857421874,0.3377000093460083,-0.8522250056266785,0.5362499952316284
1780563289256344600,12.773344482421875,0.24406249821186066,-0.8408125042915344,0.46626248955726624
1780563289275861000,12.792861083984375,0.12553749978542328,-0.8376500010490417,0.3502124845981598
1780563289295379500,12.81237939453125,-0.021724998950958252,-0.8425999879837036,0.22893749177455902
1780563289314900700,12.831900634765624,-0.18177500367164612,-0.8496124744415283,0.1293874979019165
1780563289334425300,12.85142529296875,-0.3020874857902527,-0.8530499935150146,0.05389999970793724
1780563289353948000,12.870947998046875,-0.3291749954223633,-0.8557999730110168,-0.010862499475479126
1780563289373471000,12.890470947265625,-0.2540999948978424,-0.866937518119812,-0.08346249908208847
1780563289392993800,12.909993896484375,-0.10807500034570694,-0.8941624760627747,-0.17723749577999115
1780563289412513000,12.929512939453126,0.06187500059604645,-0.940500020980835,-0.29067498445510864
1780563289432032300,12.9490322265625,0.27486249804496765,-1.0267125368118286,-0.40039998292922974
1780563289451554600,12.968554443359375,0.6973999738693237,-1.2057374715805054,-0.45333749055862427
1780563289471075800,12.988075927734375,1.5097500085830688,-1.510849952697754,-0.37578749656677246
1780563289490601200,13.007601318359375,2.6603500843048096,-1.8966749906539917,-0.11824999749660492
1780563289510128000,13.027128173828125,3.827587366104126,-2.2625625133514404,0.2877874970436096
1780563289529652700,13.04665283203125,4.667299747467041,-2.527524948120117,0.7499250173568726
1780563289549182000,13.066181884765625,5.004037380218506,-2.6600749492645264,1.175624966621399
1780563289568709000,13.085709228515626,4.788300037384033,-2.6459124088287354,1.4838999509811401
1780563289588229400,13.1052294921875,4.788300037384033,-2.6459124088287354,1.4838999509811401
1780563289607752700,13.124752685546875,3.1711623668670654,-2.2004125118255615,1.5695624351501465
1780563289627277600,13.144277587890626,3.1711623668670654,-2.2004125118255615,1.5695624351501465
1780563289646799600,13.163799560546876,2.203850030899048,-1.8295749425888062,1.377062439918518
1780563289666324500,13.183324462890624,1.3340250253677368,-1.402500033378601,1.0674124956130981
1780563289685851600,13.2028515625,0.5982624888420105,-0.9245499968528748,0.6374499797821045
1780563289705382700,13.222382568359375,-0.01966249942779541,-0.4156624972820282,0.11027500033378601
1780563289724913200,13.2419130859375,-0.5744749903678894,0.07727500051259995,-0.4489375054836273
1780563289744440600,13.261440673828124,-1.095324993133545,0.4908750057220459,-0.9407749772071838
1780563289763967500,13.280967529296875,-1.5560874938964844,0.7942000031471252,-1.2964874505996704
1780563289783490800,13.30049072265625,-1.8882875442504883,0.9916499853134155,-1.4933874607086182
1780563289803015700,13.320015625,-2.0272998809814453,1.0885875225067139,-1.5331250429153442
1780563289822540000,13.3395400390625,-1.9830249547958374,1.105774998664856,-1.4586000442504883
1780563289842065400,13.3590654296875,-1.8206374645233154,1.0760749578475952,-1.3283874988555908
1780563289861589000,13.378589111328125,-1.617550015449524,1.0308375358581543,-1.188825011253357
1780563289881107500,13.398107421875,-1.4311000108718872,0.9865624904632568,-1.0643874406814575
1780563289900630300,13.41763037109375,-1.2791625261306763,0.943387508392334,-0.9594749808311462
1780563289920155400,13.4371552734375,-1.1517000198364258,0.893750011920929,-0.8702374696731567
1780563289939679000,13.456678955078125,-1.0366125106811523,0.8353124856948853,-0.792412519454956
1780563289959204900,13.476204833984376,-0.9168499708175659,0.7712374925613403,-0.7187125086784363
1780563289978730500,13.49573046875,-0.7708249688148499,0.7063375115394592,-0.6419875025749207
1780563289998257400,13.51525732421875,-0.6103624701499939,0.6443250179290771,-0.5644375085830688
1780563290017785900,13.534785888671875,-0.4867500066757202,0.5890499949455261,-0.4992625117301941
1780563290037314300,13.554314208984374,-0.43326249718666077,0.5427125096321106,-0.4567750096321106
1780563290056845600,13.573845458984374,-0.4129124879837036,0.5016000270843506,-0.43188750743865967
1780563290076380400,13.59338037109375,-0.3568125069141388,0.46131250262260437,-0.40933749079704285
1780563290095911400,13.612911376953125,-0.24695000052452087,0.42528748512268066,-0.3777124881744385
1780563290115438000,13.63243798828125,-0.12856249511241913,0.40149998664855957,-0.33605000376701355
1780563290134963500,13.65196337890625,-0.050599999725818634,0.392425000667572,-0.2910875082015991
1780563290154494000,13.671493896484375,-0.010037500411272049,0.38926249742507935,-0.2475000023841858
1780563290174021600,13.691021728515626,0.026537500321865082,0.38417500257492065,-0.20281249284744263
1780563290193544400,13.71054443359375,0.04441250115633011,0.38596248626708984,-0.15248750150203705
1780563290213070800,13.73007080078125,-0.012787500396370888,0.4142875075340271,-0.0976250022649765
1780563290232599800,13.749599853515624,-0.1629374921321869,0.47423750162124634,-0.050599999725818634
1780563290252128000,13.7691279296875,-0.3400374948978424,0.5504124760627747,-0.030112499371170998
1780563290271655000,13.788655029296875,-0.4721750020980835,0.6283749938011169,-0.04743750020861626
1780563290291181300,13.808181396484375,-0.5730999708175659,0.7140374779701233,-0.09597499668598175
1780563290310702800,13.827702880859375,-0.7006999850273132,0.8177124857902527,-0.11962500214576721
1780563290330225200,13.84722509765625,-0.8672124743461609,0.9290875196456909,-0.1447875052690506
1780563290349751000,13.8667509765625,-0.8672124743461609,0.9290875196456909,-0.1447875052690506
1780563290369272600,13.8862724609375,-1.1412500143051147,1.0686500072479248,-0.2171124964952469
1780563290388791000,13.905791015625,-1.200374960899353,1.0833624601364136,-0.14877499639987946
1780563290408312000,13.92531201171875,-1.200374960899353,1.0833624601364136,-0.14877499639987946
1780563290427834400,13.94483447265625,-1.200374960899353,1.0833624601364136,-0.14877499639987946
1780563290447358500,13.9643583984375,-1.2623875141143799,0.9851874709129333,0.30002498626708984
1780563290466882300,13.98388232421875,-1.2623875141143799,0.9851874709129333,0.30002498626708984
1780563290486408700,14.00340869140625,-1.1911624670028687,0.8867374658584595,0.346637487411499
1780563290505932000,14.02293212890625,-1.0517375469207764,0.7731624841690063,0.3596999943256378
1780563290525455600,14.04245556640625,-0.8731250166893005,0.6667374968528748,0.38596248626708984
1780563290544985300,14.0619853515625,-0.6620625257492065,0.5703499913215637,0.44247499108314514
1780563290564512300,14.08151220703125,-0.41690000891685486,0.47657498717308044,0.5058624744415283
1780563290584034600,14.10103466796875,-0.16802500188350677,0.38733750581741333,0.5389999747276306
1780563290603555800,14.120555908203125,0.007012499962002039,0.3218874931335449,0.5322625041007996
1780563290623080000,14.140079833984375,0.028462499380111694,0.304562509059906,0.5105375051498413
1780563290642608000,14.159608154296874,-0.09556250274181366,0.33742499351501465,0.5003625154495239
1780563290662135600,14.179135498046875,-0.25423750281333923,0.3946250081062317,0.5058624744415283
1780563290681660000,14.198659912109376,-0.34375,0.4442625045776367,0.5130124688148499
1780563290701182000,14.218181884765626,-0.34966251254081726,0.46818751096725464,0.5102624893188477
1780563290720705000,14.237705078125,-0.30855000019073486,0.4643374979496002,0.49953749775886536
1780563290740233200,14.257233154296875,-0.23746250569820404,0.43683749437332153,0.489362508058548
1780563290759762000,14.276761962890625,-0.14231249690055847,0.390500009059906,0.4846875071525574
1780563290779282200,14.2962822265625,-0.05197500064969063,0.3310999870300293,0.4875749945640564
1780563290798803700,14.3158037109375,-0.0008249999955296516,0.2666124999523163,0.4965125024318695
1780563290818328600,14.33532861328125,0.01347499992698431,0.20721249282360077,0.5053125023841858
1780563290837853400,14.354853515625,0.025712499395012856,0.16376249492168427,0.5066875219345093
1780563290857380900,14.374380859375,0.060087498277425766,0.142037495970726,0.49912500381469727
1780563290876902700,14.393902587890626,0.10491249710321426,0.13832500576972961,0.4907374978065491
1780563290896420400,14.41342041015625,0.14121249318122864,0.14327499270439148,0.4914250075817108
1780563290915942000,14.43294189453125,0.18342499434947968,0.148499995470047,0.49912500381469727
1780563290935459600,14.45245947265625,0.26496249437332153,0.1508374959230423,0.49994999170303345
1780563290954982100,14.471982177734375,0.3922874927520752,0.1508374959230423,0.47808748483657837
1780563290974511900,14.491511962890625,0.5274500250816345,0.14822499454021454,0.42996248602867126
1780563290994039000,14.5110390625,0.6367624998092651,0.14300000667572021,0.3636874854564667
1780563291013565700,14.530565673828125,0.724762499332428,0.1363999992609024,0.2905375063419342
1780563291033094000,14.550093994140624,0.7936499714851379,0.13048750162124634,0.22384999692440033
1780563291052624600,14.569624755859374,0.8113874793052673,0.12388750165700912,0.1746249943971634
1780563291072156200,14.58915625,0.7407125234603882,0.1143999993801117,0.1471250057220459
1780563291091688200,14.608688232421875,0.5915250182151794,0.10271249711513519,0.13791249692440033
1780563291111217200,14.628217041015626,0.4162124991416931,0.09212499856948853,0.141075000166893
1780563291130741800,14.64774169921875,0.26881250739097595,0.08470000326633453,0.15125000476837158
1780563291150268200,14.66726806640625,0.1839749962091446,0.08304999768733978,0.16005000472068787
1780563291169798400,14.68679833984375,0.1839749962091446,0.08304999768733978,0.16005000472068787
1780563291189324300,14.70632421875,0.1621125042438507,0.08978749811649323,0.15826250612735748
1780563291208847400,14.725847412109376,0.17778749763965607,0.12319999933242798,0.11329999566078186
1780563291228370200,14.7453701171875,0.17778749763965607,0.12319999933242798,0.11329999566078186
1780563291247893500,14.7648935546875,0.19415000081062317,0.15234999358654022,0.03671250119805336
1780563291267419600,14.784419677734375,0.19415000081062317,0.15234999358654022,0.03671250119805336
1780563291286947300,14.803947265625,0.18287499248981476,0.14602500200271606,0.013062499463558197
1780563291306473200,14.82347314453125,0.14121249318122864,0.12072499841451645,0.00976249948143959
1780563291325995000,14.8429951171875,0.1060125008225441,0.08579999953508377,0.018149999901652336
1780563291345521000,14.86252099609375,0.11522500216960907,0.05321250110864639,0.02694999985396862
1780563291365050000,14.882050048828125,0.15358750522136688,0.02736249938607216,0.03368749842047691
1780563291384576800,14.90157666015625,0.17476250231266022,0.007562499959021807,0.040699999779462814
1780563291404100400,14.921100341796874,0.16073749959468842,-0.006049999967217445,0.04647500067949295
1780563291423622400,14.940622314453124,0.1237500011920929,-0.01209999993443489,0.04922499880194664
1780563291443145000,14.96014501953125,0.07823749631643295,-0.008937500417232513,0.05073750019073486
1780563291462669000,14.9796689453125,0.03272499889135361,0.0042624999769032,0.05623750016093254
1780563291482195500,14.999195556640625,-0.018424998968839645,0.02681249938905239,0.07108750194311142
1780563291501721600,15.0187216796875,-0.08799999952316284,0.05555000156164169,0.09624999761581421
1780563291521247000,15.0382470703125,-0.17476250231266022,0.08786249905824661,0.12526249885559082
1780563291540771000,15.05777099609375,-0.25616249442100525,0.12223749607801437,0.14767499268054962
1780563291560297700,15.077297607421874,-0.30524998903274536,0.15702499449253082,0.15729999542236328
1780563291579828000,15.096827880859376,-0.3172124922275543,0.1882375031709671,0.15674999356269836
1780563291599357000,15.11635693359375,-0.3114374876022339,0.2116124927997589,0.15289999544620514
1780563291618881000,15.135881103515626,-0.317487508058548,0.2237125039100647,0.15207499265670776
1780563291638399700,15.155399658203125,-0.35887500643730164,0.22495000064373016,0.15606249868869781
1780563291657919200,15.174919189453124,-0.43738749623298645,0.2186249941587448,0.16321249306201935
1780563291677447200,15.194447265625,-0.5341874957084656,0.21078750491142273,0.17242500185966492
1780563291696978200,15.213978271484375,-0.6198499798774719,0.2092749923467636,0.18383750319480896
1780563291716500700,15.233500732421875,-0.6752625107765198,0.22247499227523804,0.1989624947309494
1780563291736019000,15.25301904296875,-0.7177500128746033,0.25616249442100525,0.22481249272823334
1780563291755539200,15.272539306640626,-0.7913125157356262,0.3119874894618988,0.2722499966621399
1780563291775062000,15.29206201171875,-0.9196000099182129,0.3881624937057495,0.345674991607666
1780563291794585900,15.3115859375,-1.0731874704360962,0.4820750057697296,0.43408748507499695
1780563291814106600,15.331106689453126,-1.1980375051498413,0.5868499875068665,0.5181000232696533
1780563291833632500,15.350632568359375,-1.2743500471115112,0.6890124678611755,0.589187502861023
1780563291853164500,15.37016455078125,-1.3209625482559204,0.7761874794960022,0.6534000039100647
1780563291872688000,15.389688232421875,-1.3549250364303589,0.849887490272522,0.7173374891281128
1780563291892208600,15.409208740234375,-1.3690874576568604,0.9259250164031982,0.7788000106811523
1780563291911735000,15.428735107421875,-1.3490124940872192,1.019012451171875,0.8302249908447266
1780563291931263700,15.448263671875,-1.29868745803833,1.1254374980926514,0.8680375218391418
1780563291950793000,15.46779296875,-1.2357125282287598,1.2253999710083008,0.8938875198364258
1780563291970317600,15.487317626953125,-1.1728750467300415,1.2989624738693237,0.9098374843597412
1780563291989838000,15.506838134765625,-1.1101750135421753,1.3466750383377075,0.9189124703407288
1780563292009362700,15.52636279296875,-1.036887526512146,1.3853124380111694,0.9186375141143799
1780563292028889000,15.54588916015625,-0.9174000024795532,1.3782999515533447,0.8732625246047974
1780563292048413400,15.565413330078124,-0.9174000024795532,1.3782999515533447,0.8732625246047974
1780563292067939600,15.584939697265625,-0.2670249938964844,0.6877750158309937,0.3375625014305115
1780563292087464200,15.604464111328125,-0.2670249938964844,0.6877750158309937,0.3375625014305115
1780563292106992400,15.623992431640625,-0.2670249938964844,0.6877750158309937,0.3375625014305115
1780563292126525700,15.643525634765625,0.8754624724388123,-0.9934374690055847,-0.9653875231742859
1780563292146052900,15.663052978515625,1.2645875215530396,-1.5376625061035156,-1.4999874830245972
1780563292165577200,15.6825771484375,1.3538249731063843,-1.6535749435424805,-1.7047250270843506
1780563292185100000,15.70210009765625,1.2289749383926392,-1.465749979019165,-1.5928000211715698
1780563292204621600,15.72162158203125,1.041837453842163,-1.1566499471664429,-1.279574990272522
1780563292224144600,15.74114453125,0.8346250057220459,-0.8167499899864197,-0.8670749664306641
1780563292243667500,15.76066748046875,0.5956500172615051,-0.4918375015258789,-0.4548499882221222
1780563292263191000,15.78019091796875,0.38513749837875366,-0.24722500145435333,-0.13956250250339508
1780563292282716000,15.7997158203125,0.28888750076293945,-0.1522125005722046,0.014024999924004078
1780563292302240800,15.81924072265625,0.3482874929904938,-0.2391124963760376,-0.01677500084042549
1780563292321767400,15.838767333984375,0.5288249850273132,-0.4670875072479248,-0.20377500355243683
1780563292341289500,15.85828955078125,0.7302625179290771,-0.7358999848365784,-0.4758875072002411
1780563292360808700,15.87780859375,0.8567624688148499,-0.9517750144004822,-0.7478625178337097
1780563292380331000,15.8973310546875,0.8809624910354614,-1.0702999830245972,-0.9516375064849854
1780563292399857200,15.916857177734375,0.8571749925613403,-1.093537449836731,-1.0533875226974487
1780563292419386600,15.93638671875,0.862262487411499,-1.044450044631958,-1.0452749729156494
1780563292438915300,15.955915283203124,0.9150624871253967,-0.9458624720573425,-0.9304624795913696
1780563292458446000,15.975446044921876,0.9702000021934509,-0.81454998254776,-0.7221499681472778
1780563292477976000,15.99497607421875,0.976937472820282,-0.6624749898910522,-0.45471251010894775
1780563292497499400,16.01449951171875,0.9268875122070312,-0.4984374940395355,-0.17902499437332153
1780563292517026300,16.0340263671875,0.8373749852180481,-0.3312374949455261,0.06187500059604645
1780563292536555500,16.053555419921874,0.7374125123023987,-0.17833749949932098,0.23526249825954437
1780563292556085500,16.07308544921875,0.6674249768257141,-0.0672374963760376,0.31267499923706055
1780563292575614700,16.09261474609375,0.6545000076293945,-0.031212499365210533,0.2700499892234802
1780563292595145500,16.1121455078125,0.6936874985694885,-0.08318749815225601,0.10986249893903732
1780563292614680000,16.13168017578125,0.7493749856948853,-0.19401249289512634,-0.12278749793767929
1780563292634209800,16.151209716796874,0.7818250060081482,-0.3111625015735626,-0.3606624901294708
1780563292653735000,16.17073486328125,0.7680749893188477,-0.39668750762939453,-0.5494499802589417
1780563292673261300,16.19026123046875,0.705512523651123,-0.44398748874664307,-0.6699000000953674
1780563292692790000,16.2097900390625,0.6069250106811523,-0.46309998631477356,-0.7360374927520752
1780563292712319700,16.22931982421875,0.48413750529289246,-0.46584999561309814,-0.7732999920845032
1780563292731849000,16.248848876953126,0.3377000093460083,-0.46268749237060547,-0.7937874794006348
1780563292751379200,16.268379150390626,0.1662375032901764,-0.4585624933242798,-0.782925009727478
1780563292770909700,16.28790966796875,-0.008387500420212746,-0.45416250824928284,-0.7108749747276306
1780563292790438000,16.30743798828125,-0.1363999992609024,-0.45471251010894775,-0.5691124796867371
1780563292809965600,16.326965576171876,-0.1363999992609024,-0.45471251010894775,-0.5691124796867371
1780563292829492200,16.3464921875,-0.20391249656677246,-0.49816250801086426,-0.21078750491142273
1780563292849017000,16.36601708984375,-0.23966249823570251,-0.5284125208854675,-0.08318749815225601
1780563292868540400,16.38554052734375,-0.23966249823570251,-0.5284125208854675,-0.08318749815225601
1780563292888069400,16.4050693359375,-0.32573750615119934,-0.5446375012397766,-0.012649999931454659
1780563292907597300,16.424597412109375,-0.5498625040054321,-0.5361124873161316,-0.03464999794960022
1780563292927122000,16.444121826171877,-0.5498625040054321,-0.5361124873161316,-0.03464999794960022
1780563292946649000,16.463649169921876,-0.6330500245094299,-0.527999997138977,-0.10889999568462372
1780563292966176300,16.48317626953125,-0.6705874800682068,-0.5271750092506409,-0.19085000455379486
1780563292985702400,16.502702392578126,-0.638824999332428,-0.5504124760627747,-0.25423750281333923
1780563293005227800,16.522227783203125,-0.5193374752998352,-0.6146249771118164,-0.29163751006126404
1780563293024751600,16.541751708984375,-0.30951249599456787,-0.7254499793052673,-0.3077250123023987
1780563293044273400,16.5612734375,-0.03272499889135361,-0.866112470626831,-0.3068999946117401
1780563293063791600,16.58079150390625,0.2774749994277954,-1.013100028038025,-0.29493749141693115
1780563293083311900,16.600311767578123,0.6041749715805054,-1.1569249629974365,-0.2759625017642975
1780563293102836200,16.619836181640625,1.0183249711990356,-1.3286625146865845,-0.23388749361038208
1780563293122363100,16.639363037109376,1.6596249341964722,-1.5839999914169312,-0.12031249701976776
1780563293141891800,16.658891845703124,2.630237579345703,-1.9523625373840332,0.13956250250339508
1780563293161419300,16.678419189453123,3.8209874629974365,-2.3886499404907227,0.5871250033378601
1780563293180943000,16.697943115234374,4.789949893951416,-2.7616875171661377,1.138087511062622
1780563293200468500,16.717468505859376,5.03181266784668,-2.919674873352051,1.5872999429702759
1780563293219995100,16.7369951171875,4.439324855804443,-2.7801125049591064,1.7630250453948975
1780563293239521000,16.75652099609375,3.3569250106811523,-2.3864500522613525,1.6528874635696411
1780563293259044900,16.776044921875,2.220900058746338,-1.8633999824523926,1.3347125053405762
1780563293278568400,16.795568359375,1.3187625408172607,-1.3327875137329102,0.890999972820282
1780563293298092300,16.81509228515625,0.7253124713897705,-0.8599249720573425,0.4002625048160553
1780563293317613800,16.83461376953125,0.3240875005722046,-0.4423374831676483,-0.07782500237226486
1780563293337135400,16.85413525390625,-0.06984999775886536,-0.047849997878074646,-0.5087500214576721
1780563293356660000,16.873659912109375,-0.5424374938011169,0.32725000381469727,-0.8687250018119812
1780563293376184300,16.893184326171873,-1.0353749990463257,0.6418499946594238,-1.1261249780654907
1780563293395709700,16.912709716796876,-1.437150001525879,0.8529124855995178,-1.255924940109253
1780563293415238100,16.932238037109375,-1.694137454032898,0.9627749919891357,-1.2733875513076782
1780563293434766800,16.951766845703126,-1.7994624376296997,0.9994875192642212,-1.2080750465393066
1780563293454297000,16.971297119140626,-1.7487249374389648,0.9798250198364258,-1.0832250118255615
1780563293473824300,16.99082421875,-1.5817999839782715,0.9153375029563904,-0.9362375140190125
1780563293493344800,17.0103447265625,-1.3743125200271606,0.8186749815940857,-0.8093249797821045
1780563293512868000,17.0298681640625,-1.181262493133545,0.7057874798774719,-0.7232499718666077
1780563293532396000,17.04939599609375,-0.9982500076293945,0.5898749828338623,-0.6652249693870544
1780563293551923000,17.0689228515625,-0.7947499752044678,0.47657498717308044,-0.6104999780654907
1780563293571451400,17.088451416015626,-0.553849995136261,0.36629998683929443,-0.5420249700546265
1780563293590985200,17.107985107421875,-0.2788499891757965,0.25946250557899475,-0.4548499882221222
1780563293610511600,17.12751171875,-0.011137500405311584,0.16266250610351562,-0.3601124882698059
1780563293630034400,17.147034423828124,-0.011137500405311584,0.16266250610351562,-0.3601124882698059
1780563293649563400,17.1665634765625,0.17833749949932098,0.08978749811649323,-0.2796750068664551
1780563293669095400,17.186095458984376,0.35997501015663147,0.03519999980926514,-0.13722500205039978
1780563293688623600,17.20562353515625,0.47808748483657837,0.03849999979138374,-0.03959999978542328
1780563293708147500,17.2251474609375,0.47808748483657837,0.03849999979138374,-0.03959999978542328
1780563293727675100,17.244675048828125,0.47808748483657837,0.03849999979138374,-0.03959999978542328
1780563293747200500,17.264200439453123,0.5670499801635742,0.1073874980211258,0.07864999771118164
1780563293766725600,17.2837255859375,0.3975124955177307,0.2046000063419342,0.03973750025033951
1780563293786250200,17.303250244140624,0.12925000488758087,0.3357749879360199,-0.040562499314546585
1780563293805771500,17.322771484375,-0.15248750150203705,0.4676375091075897,-0.12402500212192535
1780563293825293300,17.342293212890624,-0.3806000053882599,0.5703499913215637,-0.18466250598430634
1780563293844816400,17.36181640625,-0.5446375012397766,0.6443250179290771,-0.2213750034570694
1780563293864338400,17.38133837890625,-0.6414374709129333,0.696987509727478,-0.23925000429153442
1780563293883863000,17.400863037109374,-0.6580749750137329,0.733287513256073,-0.24557499587535858
1780563293903392800,17.420392822265626,-0.6271374821662903,0.7704125046730042,-0.25850000977516174
1780563293922923300,17.43992333984375,-0.608162522315979,0.8247249722480774,-0.2923249900341034
1780563293942452500,17.459452392578125,-0.6311249732971191,0.8949875235557556,-0.3443000018596649
1780563293961978600,17.478978515625,-0.6635749936103821,0.9581000208854675,-0.3993000090122223
1780563293981502000,17.498501953125,-0.6642624735832214,0.9935749769210815,-0.4470124840736389
1780563294001026300,17.5180263671875,-0.6450124979019165,1.0048500299453735,-0.48510000109672546
1780563294020552000,17.537552001953124,-0.6476249694824219,1.0118625164031982,-0.5059999823570251
1780563294040075500,17.557075439453126,-0.6675624847412109,1.0201125144958496,-0.4955500066280365
1780563294059598800,17.576598876953124,-0.6437749862670898,1.0096625089645386,-0.4501749873161316
1780563294079124200,17.596124267578126,-0.55673748254776,0.9675874710083008,-0.3885749876499176
1780563294098644500,17.61564453125,-0.4657124876976013,0.9084625244140625,-0.33605000376701355
1780563294118165500,17.63516552734375,-0.4489375054836273,0.8596500158309937,-0.3003000020980835
1780563294137693400,17.654693359375,-0.5126000046730042,0.8270624876022339,-0.26922500133514404
1780563294157217500,17.674217529296875,-0.5867124795913696,0.7906249761581421,-0.22866250574588776
1780563294176735200,17.6937353515625,-0.6102250218391418,0.7328749895095825,-0.17572499811649323
1780563294196254700,17.713254638671874,-0.583549976348877,0.6617875099182129,-0.11618749797344208
1780563294215773700,17.732773681640627,-0.5654000043869019,0.6088500022888184,-0.055137500166893005
1780563294235292000,17.7522919921875,-0.6069250106811523,0.5995000004768372,0.007012499962002039
1780563294254811100,17.77181103515625,-0.7149999737739563,0.6342874765396118,0.07411249727010727
1780563294274330600,17.79133056640625,-0.8834375143051147,0.6991875171661377,0.14932499825954437
1780563294293850400,17.810850341796876,-1.0983500480651855,0.7766000032424927,0.23017500340938568
1780563294313370400,17.830370361328125,-1.2973124980926514,0.8424624800682068,0.30291250348091125
1780563294332890600,17.849890625,-1.3965874910354614,0.8742250204086304,0.3488374948501587
1780563294352410400,17.869410400390624,-1.372249960899353,0.8677625060081482,0.3614875078201294
1780563294371930000,17.88893017578125,-1.2623875141143799,0.8338000178337097,0.3521375060081482
1780563294391448800,17.90844873046875,-1.0837750434875488,0.774399995803833,0.3386625051498413
1780563294410971600,17.9279716796875,-0.8156499862670898,0.6797999739646912,0.3310999870300293
1780563294430495000,17.947494873046875,-0.48042500019073486,0.5505499839782715,0.33192500472068787
1780563294450015200,17.96701513671875,-0.48042500019073486,0.5505499839782715,0.33192500472068787
1780563294469540600,17.98654052734375,-0.164450004696846,0.4096125066280365,0.34306249022483826
1780563294489066800,18.006066650390625,0.07535000145435333,0.28228750824928284,0.3667125105857849
1780563294508590000,18.025590087890624,0.2704625129699707,0.17943750321865082,0.40273749828338623
1780563294528114000,18.045114013671874,0.47244998812675476,0.10326249897480011,0.44907498359680176
1780563294547633700,18.064633544921875,0.47244998812675476,0.10326249897480011,0.44907498359680176
1780563294567149600,18.084149658203124,0.7588624954223633,0.06283749639987946,0.5608624815940857
1780563294586671900,18.103671875,0.7350749969482422,0.10546249896287918,0.6104999780654907
1780563294606203600,18.12320361328125,0.635937511920929,0.16554999351501465,0.6391000151634216
1780563294625735000,18.14273486328125,0.5131499767303467,0.2204124927520752,0.6443250179290771
1780563294645257500,18.162257568359376,0.392425000667572,0.26028749346733093,0.6330500245094299
1780563294664785200,18.18178515625,0.2825624942779541,0.28806251287460327,0.6177874803543091
1780563294684319000,18.201319091796876,0.18988749384880066,0.3078624904155731,0.604449987411499
1780563294703846000,18.220845947265627,0.11508750170469284,0.32106250524520874,0.5887749791145325
1780563294723371500,18.24037158203125,0.05348749831318855,0.3293125033378601,0.5655375123023987
1780563294742896600,18.259896728515624,0.0012374999932944775,0.3335750102996826,0.533637523651123
1780563294762423600,18.279423583984375,-0.045787498354911804,0.3316499888896942,0.49912500381469727
1780563294781950500,18.298950439453126,-0.07933750003576279,0.31927499175071716,0.46639999747276306
1780563294801477400,18.318477294921873,-0.0658624991774559,0.29356250166893005,0.428725004196167
1780563294821008000,18.3380078125,0.026262499392032623,0.25671249628067017,0.37331250309944153
1780563294840537600,18.35753759765625,0.1849374920129776,0.21449999511241913,0.2961750030517578
1780563294860066000,18.377066162109376,0.3389374911785126,0.171875,0.21449999511241913
1780563294879593200,18.39659326171875,0.40603750944137573,0.13062499463558197,0.15578749775886536
1780563294899116000,18.416115966796873,0.37070000171661377,0.09239999949932098,0.13296249508857727
1780563294918643700,18.435643798828124,0.28792500495910645,0.06063750013709068,0.13626250624656677
1780563294938175200,18.45517529296875,0.22357499599456787,0.0387750007212162,0.14657500386238098
1780563294957701000,18.474701171875,0.19827499985694885,0.02736249938607216,0.1531749963760376
1780563294977227800,18.494227783203126,0.20295000076293945,0.02433750033378601,0.15303750336170197
1780563294996753000,18.5137529296875,0.23154999315738678,0.026537500321865082,0.1461624950170517
1780563295016275700,18.533275634765626,0.26138749718666077,0.030112499371170998,0.13928750157356262
1780563295035801000,18.552801025390625,0.25905001163482666,0.030249999836087227,0.14354999363422394
1780563295055328000,18.572327880859376,0.22398750483989716,0.02447500079870224,0.16060000658035278
1780563295074853400,18.591853271484375,0.19841249287128448,0.014162499457597733,0.17847499251365662
1780563295094374400,18.61137451171875,0.20817500352859497,0.002062499988824129,0.1863124966621399
1780563295113894400,18.630894287109374,0.22673749923706055,-0.010312499478459358,0.18741250038146973
1780563295133417500,18.65041748046875,0.21917499601840973,-0.02199999988079071,0.19181250035762787
1780563295152941300,18.66994140625,0.19139999151229858,-0.029975000768899918,0.20336249470710754
1780563295172463000,18.689463134765624,0.1769624948501587,-0.030937500298023224,0.21642500162124634
1780563295191987700,18.70898779296875,0.19181250035762787,-0.024062499403953552,0.22288750112056732
1780563295211515600,18.728515625,0.2190375030040741,-0.011687500402331352,0.219587504863739
1780563295231045400,18.74804541015625,0.22481249272823334,0.0016499999910593033,0.2092749923467636
1780563295250568000,18.76756787109375,0.18754999339580536,0.01209999993443489,0.19813749194145203
1780563295270091800,18.787091796875,0.11976250261068344,0.0193875003606081,0.18672500550746918
1780563295289618000,18.806617919921877,0.11976250261068344,0.0193875003606081,0.18672500550746918
1780563295309144300,18.826144287109376,-0.004674999974668026,0.02914999984204769,0.14932499825954437
1780563295328674300,18.84567431640625,-0.05156249925494194,0.03148749843239784,0.12086249887943268
1780563295348206300,18.865206298828124,-0.05156249925494194,0.03148749843239784,0.12086249887943268
1780563295367733200,18.884733154296875,-0.15895000100135803,0.030387500301003456,0.0644875019788742
1780563295387252000,18.904251953125,-0.15895000100135803,0.030387500301003456,0.0644875019788742
1780563295406775000,18.923775146484374,-0.2073500007390976,0.03671250119805336,0.036024998873472214
1780563295426296300,18.94329638671875,-0.22921249270439148,0.05692499876022339,0.0028874999843537807
1780563295445817900,18.96281787109375,-0.22536249458789825,0.09679999947547913,-0.030662499368190765
1780563295465345300,18.98234521484375,-0.22550000250339508,0.1545500010251999,-0.052799999713897705
1780563295484873500,19.00187353515625,-0.2670249938964844,0.22316250205039978,-0.054999999701976776
1780563295504400100,19.021400146484375,-0.358599990606308,0.2919124960899353,-0.03684999793767929
1780563295523926800,19.0409267578125,-0.4769875109195709,0.35227498412132263,-0.0017874999903142452
1780563295543447800,19.06044775390625,-0.6037625074386597,0.39957499504089355,0.05252499878406525
1780563295562966300,19.07996630859375,-0.7353500127792358,0.42941248416900635,0.13255000114440918
1780563295582493200,19.0994931640625,-0.8559374809265137,0.4452250003814697,0.23086249828338623
1780563295602023000,19.11902294921875,-0.9402250051498413,0.4582875072956085,0.3231250047683716
1780563295621551600,19.138551513671874,-0.9836750030517578,0.48042500019073486,0.38830000162124634
1780563295641082600,19.15808251953125,-1.0129624605178833,0.5167250037193298,0.426800012588501
1780563295660609300,19.177609375,-1.0405999422073364,0.566224992275238,0.4489375054836273
1780563295680133000,19.197133056640624,-1.042662501335144,0.6265875101089478,0.4599374830722809
1780563295699655400,19.216655517578126,-1.0126874446868896,0.694100022315979,0.46956250071525574
1780563295719174000,19.236173828125,-0.987387478351593,0.7671124935150146,0.49623748660087585
1780563295738695400,19.2556953125,-1.0020999908447266,0.8475499749183655,0.5505499839782715
1780563295758219800,19.2752197265625,-1.045412540435791,0.9383000135421753,0.6217749714851379
1780563295777743400,19.294743408203125,-1.0766249895095825,1.0328999757766724,0.6861249804496765
1780563295797270800,19.314270751953124,-1.0668624639511108,1.112512469291687,0.725724995136261
1780563295816797200,19.333797119140623,-1.0115875005722046,1.1562374830245972,0.7349374890327454
1780563295836321300,19.3533212890625,-0.9235875010490417,1.1561000347137451,0.718162477016449
1780563295855851800,19.372851806640625,-0.819225013256073,1.1158125400543213,0.6815875172615051
1780563295875386400,19.392386474609374,-0.681862473487854,1.0091124773025513,0.6030749678611755
1780563295894918400,19.41191845703125,-0.4507249891757965,0.7624375224113464,0.42844998836517334
1780563295914447000,19.431447021484374,-0.057337500154972076,0.29864999651908875,0.10298749804496765
1780563295933973000,19.450972900390624,0.5215374827384949,-0.369049996137619,-0.3727625012397766
1780563295953496800,19.470496826171875,1.20683753490448,-1.0813000202178955,-0.8986999988555908
1780563295973024000,19.49002392578125,1.8137625455856323,-1.6288249492645264,-1.312849998474121
1780563295992553200,19.50955322265625,2.1377124786376953,-1.884850025177002,-1.4942125082015991
1780563296012082700,19.529082763671877,2.1080124378204346,-1.847037434577942,-1.436187505722046
1780563296031611000,19.54861083984375,1.817887544631958,-1.5878499746322632,-1.2095874547958374
1780563296051136300,19.56813623046875,1.4114375114440918,-1.2075250148773193,-0.896637499332428
1780563296070662400,19.587662353515626,0.9960500001907349,-0.8189499974250793,-0.5710374712944031
1780563296090190300,19.6071904296875,0.635937511920929,-0.5191999673843384,-0.3018124997615814
1780563296109722000,19.62672216796875,0.635937511920929,-0.5191999673843384,-0.3018124997615814
1780563296129252000,19.646252197265625,0.32573750615119934,-0.3746874928474426,-0.1527625024318695
1780563296148780500,19.665780517578124,0.41497498750686646,-0.4899125099182129,-0.26496249437332153
1780563296168312600,19.6853125,0.41497498750686646,-0.4899125099182129,-0.26496249437332153
1780563296187841500,19.704841552734376,0.6313999891281128,-0.6982250213623047,-0.4786374866962433
1780563296207367700,19.72436767578125,0.6313999891281128,-0.6982250213623047,-0.4786374866962433
1780563296226890200,19.74389013671875,0.6313999891281128,-0.6982250213623047,-0.4786374866962433
1780563296246415400,19.763415283203123,0.46997499465942383,-0.6217749714851379,-0.4291374981403351
1780563296265945900,19.78294580078125,0.38513749837875366,-0.5368000268936157,-0.33934998512268066
1780563296285473500,19.8024736328125,0.3558500111103058,-0.45553749799728394,-0.22577500343322754
1780563296305001000,19.8220009765625,0.34581249952316284,-0.37331250309944153,-0.09226249903440475
1780563296324527900,19.84152783203125,0.31776249408721924,-0.284074991941452,0.05142499879002571
1780563296344049000,19.861048828125,0.2782999873161316,-0.19813749194145203,0.18177500367164612
1780563296363568400,19.880568359375,0.24901250004768372,-0.13791249692440033,0.26028749346733093
1780563296383092700,19.9000927734375,0.22852499783039093,-0.11715000122785568,0.2536875009536743
1780563296402620000,19.919619873046877,0.2147749960422516,-0.1274625062942505,0.15468749403953552
1780563296422144300,19.939144287109375,0.22247499227523804,-0.14561249315738678,-0.01718750037252903
1780563296441673000,19.9586728515625,0.2569875121116638,-0.15207499265670776,-0.22357499599456787
1780563296461202000,19.978201904296874,0.2829749882221222,-0.14836250245571136,-0.4184125065803528
1780563296480726000,19.99772607421875,0.256850004196167,-0.15001249313354492,-0.5644375085830688
1780563296500249900,20.017249755859375,0.19689999520778656,-0.17008750140666962,-0.6450124979019165
1780563296519773200,20.036773193359377,0.17434999346733093,-0.21381250023841858,-0.6631624698638916
1780563296539298000,20.056298095703124,0.23663750290870667,-0.27857500314712524,-0.6323624849319458
1780563296558828000,20.075828125,0.3513124883174896,-0.3544749915599823,-0.5684249997138977
1780563296578356500,20.0953564453125,0.44481250643730164,-0.4310624897480011,-0.4881249964237213
1780563296597884000,20.1148837890625,0.47808748483657837,-0.504212498664856,-0.40466248989105225
1780563296617413400,20.134413330078125,0.4548499882221222,-0.5714499950408936,-0.32010000944137573
1780563296636939300,20.153939208984376,0.39544999599456787,-0.6290624737739563,-0.23485000431537628
1780563296656460800,20.173460693359374,0.3161124885082245,-0.6730625033378601,-0.15853749215602875
1780563296675985700,20.192985595703124,0.2120250016450882,-0.7027624845504761,-0.1083500012755394
1780563296695510800,20.2125107421875,0.0695749968290329,-0.722837507724762,-0.09968750178813934
1780563296715034000,20.2320341796875,-0.11082500219345093,-0.7350749969482422,-0.1396999955177307
1780563296734556000,20.251555908203127,-0.3143250048160553,-0.7350749969482422,-0.22398750483989716
1780563296754075100,20.2710751953125,-0.526075005531311,-0.7165125012397766,-0.34031251072883606
1780563296773601800,20.290601806640623,-0.7369999885559082,-0.6765000224113464,-0.47011250257492065
1780563296793127400,20.31012744140625,-0.9171249866485596,-0.6210874915122986,-0.5879499912261963
1780563296812646700,20.329646728515623,-1.0185999870300293,-0.5651249885559082,-0.6604124903678894
1780563296832166100,20.349166259765624,-0.9926124811172485,-0.5286874771118164,-0.6576625108718872
1780563296851686700,20.368686767578126,-0.8001124858856201,-0.5259374976158142,-0.5700749754905701
1780563296871209500,20.38820947265625,-0.4482499957084656,-0.5526124835014343,-0.4137375056743622
1780563296890734600,20.407734619140626,-0.015124999918043613,-0.5832750201225281,-0.21986250579357147
1780563296910263000,20.427262939453126,0.42143750190734863,-0.600600004196167,-0.13805000483989716
1780563296929792800,20.446792724609374,0.42143750190734863,-0.600600004196167,-0.13805000483989716
1780563296949320200,20.4663203125,0.9246875047683716,-0.6527125239372253,-0.04922499880194664
1780563296968847600,20.48584765625,2.7488999366760254,-1.2544125318527222,0.2424124926328659
1780563296988372500,20.50537255859375,2.7488999366760254,-1.2544125318527222,0.2424124926328659
1780563297007899100,20.524899169921873,2.7488999366760254,-1.2544125318527222,0.2424124926328659
1780563297027424800,20.5444248046875,4.458162307739258,-2.092474937438965,0.46598750352859497
1780563297046947800,20.56394775390625,4.458162307739258,-2.092474937438965,0.46598750352859497
1780563297066471000,20.583470947265624,3.6887125968933105,-2.0134124755859375,0.6982250213623047
1780563297085994500,20.602994384765626,2.8496875762939453,-1.717924952507019,0.7279250025749207
1780563297105521700,20.622521728515625,2.0748748779296875,-1.381737470626831,0.6721000075340271
1780563297125052000,20.642052001953125,1.4407249689102173,-1.0477499961853027,0.5515124797821045
1780563297144578300,20.661578369140624,0.8949875235557556,-0.7073000073432922,0.38403749465942383
1780563297164105500,20.68110546875,0.3657499849796295,-0.3345375061035156,0.1438249945640564
1780563297183635000,20.700635009765627,-0.1568875014781952,0.057887498289346695,-0.18095000088214874
1780563297203159000,20.720158935546873,-0.6177874803543091,0.41222500801086426,-0.5335000157356262
1780563297222682000,20.73968212890625,-0.9646999835968018,0.6807624697685242,-0.8248624801635742
1780563297242207200,20.759207275390626,-1.179474949836731,0.8494749665260315,-0.993025004863739
1780563297261732900,20.77873291015625,-1.295662522315979,0.9310125112533569,-1.0422500371932983
1780563297281261600,20.798261474609376,-1.38462495803833,0.9565874934196472,-1.01419997215271
1780563297300788700,20.817788818359375,-1.471524953842163,0.953837513923645,-0.9380249977111816
1780563297320315600,20.837315673828126,-1.4973750114440918,0.9303249716758728,-0.8278874754905701
1780563297339846100,20.85684619140625,-1.3985124826431274,0.8839874863624573,-0.6987749934196472
1780563297359374000,20.8763740234375,-1.1998250484466553,0.824037492275238,-0.5766749978065491
1780563297378897700,20.895897705078124,-0.9894499778747559,0.7702749967575073,-0.48688748478889465
1780563297398425300,20.91542529296875,-0.8194999694824219,0.7349374890327454,-0.4334000051021576
1780563297417951700,20.93495166015625,-0.6905249953269958,0.7155500054359436,-0.40012499690055847
1780563297437473000,20.95447314453125,-0.5814874768257141,0.6978124976158142,-0.367125004529953
1780563297456995600,20.97399560546875,-0.4558124840259552,0.6602749824523926,-0.3260124921798706
1780563297476518100,20.99351806640625,-0.2745875120162964,0.58451247215271,-0.28228750824928284
1780563297496037600,21.01303759765625,-0.04702499881386757,0.4716250002384186,-0.2447499930858612
1780563297515558400,21.032558349609374,0.15248750150203705,0.346637487411499,-0.21518750488758087
1780563297535083800,21.052083740234377,0.2536875009536743,0.23897500336170197,-0.1891999989748001
1780563297554609400,21.071609375,0.26633748412132263,0.15853749215602875,-0.1611499935388565
1780563297574134500,21.091134521484374,0.2652375102043152,0.09336250275373459,-0.12622499465942383
1780563297593659400,21.110659423828125,0.31033748388290405,0.02708750031888485,-0.07713750004768372
1780563297613183700,21.130183837890623,0.41359999775886536,-0.04647500067949295,-0.009074999950826168
1780563297632704800,21.149704833984377,0.5420249700546265,-0.11797499656677246,0.07150000333786011
1780563297652221400,21.169221435546874,0.6272749900817871,-0.16403749585151672,0.14533749222755432
1780563297671739000,21.18873876953125,0.6052749752998352,-0.16005000472068787,0.19401249289512634
1780563297691261400,21.208261474609376,0.4622749984264374,-0.0966624990105629,0.21656249463558197
1780563297710788600,21.22778857421875,0.24131250381469727,0.01347499992698431,0.22591249644756317
1780563297730319000,21.247319091796875,0.0028874999843537807,0.14327499270439148,0.23086249828338623
1780563297749843200,21.26684326171875,0.0028874999843537807,0.14327499270439148,0.23086249828338623
1780563297769362000,21.28636181640625,-0.22357499599456787,0.26977500319480896,0.22990000247955322
1780563297788881700,21.305881591796876,-0.45100000500679016,0.3891249895095825,0.21821250021457672
1780563297808403700,21.32540380859375,-0.6936874985694885,0.5083374977111816,0.1979999989271164
1780563297827925800,21.34492578125,-1.1770000457763672,0.7488250136375427,0.13942499458789825
1780563297847446000,21.364446044921873,-1.1770000457763672,0.7488250136375427,0.13942499458789825
1780563297866969000,21.383968994140623,-1.1770000457763672,0.7488250136375427,0.13942499458789825
1780563297886493400,21.403493408203126,-1.517449975013733,0.9366499781608582,0.07356250286102295
1780563297906016500,21.4230166015625,-1.609162449836731,1.001824975013733,0.08415000140666962
1780563297925540900,21.442540771484374,-1.726449966430664,1.056962490081787,0.1909874975681305
1780563297945070000,21.462070068359374,-1.726449966430664,1.056962490081787,0.1909874975681305
1780563297964599300,21.481599365234374,-1.6901500225067139,1.011312484741211,0.22151249647140503
1780563297984129500,21.501129638671873,-1.5369750261306763,0.9208375215530396,0.2241249978542328
1780563298003657200,21.5206572265625,-1.3001999855041504,0.8194999694824219,0.23127499222755432
1780563298023181800,21.540181884765627,-1.0412875413894653,0.733287513256073,0.2704625129699707
1780563298042707000,21.55970703125,-0.7811374664306641,0.6635749936103821,0.33467498421669006
1780563298062232300,21.579232421875,-0.5240125060081482,0.6023874878883362,0.39022499322891235
1780563298081762300,21.59876220703125,-0.3081375062465668,0.5531625151634216,0.41318750381469727
1780563298101296600,21.618296630859376,-0.18314999341964722,0.5267624855041504,0.405349999666214
1780563298120831000,21.6378310546875,-0.142037495970726,0.5256624817848206,0.3772999942302704
1780563298140358400,21.6573583984375,-0.11756250262260437,0.5400999784469604,0.33219999074935913
1780563298159884000,21.676884033203127,-0.0635249987244606,0.559624969959259,0.2727999985218048
1780563298179412700,21.696412841796874,0.004537499975413084,0.5783249735832214,0.210099995136261
1780563298198939400,21.715939453125,0.04138749837875366,0.593037486076355,0.16197499632835388
1780563298218463700,21.735463623046876,0.03244999796152115,0.5989499688148499,0.13956250250339508
1780563298237987300,21.7549873046875,0.016224998980760574,0.5916625261306763,0.1358499974012375
1780563298257512000,21.774511962890625,0.04166249930858612,0.5730999708175659,0.13048750162124634
1780563298277034500,21.794034423828126,0.10023749619722366,0.552887499332428,0.11275000125169754
1780563298296555800,21.8135556640625,0.1311749964952469,0.5422999858856201,0.09267500042915344
1780563298316080600,21.83308056640625,0.09652499854564667,0.5427125096321106,0.08799999952316284
1780563298335603200,21.852603271484377,0.03753750026226044,0.5455999970436096,0.0999625027179718
1780563298355124000,21.8721240234375,0.023924998939037323,0.5417500138282776,0.113987497985363
1780563298374651000,21.89165087890625,0.062424998730421066,0.5315750241279602,0.12086249887943268
1780563298394180900,21.911180908203125,0.09473749995231628,0.522362470626831,0.12691250443458557
1780563298413704000,21.930703857421875,0.06627500057220459,0.5190625190734863,0.14451250433921814
1780563298433223200,21.95022314453125,-0.004124999977648258,0.5182374715805054,0.17572499811649323
1780563298452745000,21.969744873046874,-0.04867500066757202,0.5115000009536743,0.20803749561309814
1780563298472270000,21.98927001953125,-0.021175000816583633,0.490325003862381,0.22618749737739563
1780563298491796000,22.0087958984375,0.07466249912977219,0.44756248593330383,0.22220000624656677
1780563298511322000,22.028322021484374,0.19965000450611115,0.3796375095844269,0.20061250030994415
1780563298530849800,22.047849853515626,0.3152875006198883,0.2910875082015991,0.1751749962568283
1780563298550377000,22.067376953125,0.42102500796318054,0.1956624984741211,0.15207499265670776
1780563298569905200,22.0869052734375,0.42102500796318054,0.1956624984741211,0.15207499265670776
1780563298589429800,22.1064296875,0.5391374826431274,0.10917499661445618,0.1266375035047531
1780563298608951600,22.12595166015625,0.6645374894142151,0.04097500070929527,0.09693749994039536
1780563298628476200,22.14547607421875,0.7613375186920166,-0.05128749832510948,0.0668250024318695
1780563298648001000,22.1650009765625,0.7613375186920166,-0.05128749832510948,0.0668250024318695
1780563298667524900,22.18452490234375,0.7613375186920166,-0.05128749832510948,0.0668250024318695
1780563298687051500,22.204051513671875,0.6385499835014343,-0.11715000122785568,0.08057499676942825
1780563298706576400,22.223576416015625,0.5689749717712402,-0.13791249692440033,0.08689999580383301
1780563298726102000,22.24310205078125,0.5020124912261963,-0.14918750524520874,0.09377499669790268
1780563298745629400,22.26262939453125,0.41909998655319214,-0.1541374921798706,0.11151249706745148
1780563298765154300,22.282154296875,0.3110249936580658,-0.1568875014781952,0.14877499639987946
1780563298784679400,22.301679443359376,0.19965000450611115,-0.16197499632835388,0.2069374918937683
1780563298804208000,22.3212080078125,0.12182500213384628,-0.1699499934911728,0.2747249901294708
1780563298823736000,22.340736083984375,0.09473749995231628,-0.17531250417232513,0.3348124921321869
1780563298843261400,22.360261474609374,0.10395000129938126,-0.17242500185966492,0.37523749470710754
1780563298862786000,22.3797861328125,0.12540000677108765,-0.1588124930858612,0.38981249928474426
1780563298882314800,22.399314697265623,0.1498750001192093,-0.13667500019073486,0.37441250681877136
1780563298901849300,22.418849365234376,0.18246249854564667,-0.11110000312328339,0.32752498984336853
1780563298921380000,22.438380126953124,0.21326249837875366,-0.09019999951124191,0.2576749920845032
1780563298940905000,22.457905029296874,0.21615000069141388,-0.08236250281333923,0.18438750505447388
1780563298960433400,22.477433349609374,0.18108749389648438,-0.09129999577999115,0.12402500212192535
1780563298979961600,22.496961669921873,0.13103750348091125,-0.11275000125169754,0.08195000141859055
1780563298999485400,22.5164853515625,0.10986249893903732,-0.13626250624656677,0.053075000643730164
1780563299019004200,22.536004150390625,0.15138749778270721,-0.1508374959230423,0.028462499380111694
1780563299038525000,22.55552490234375,0.2576749920845032,-0.15015000104904175,0.0006874999962747097
1780563299058053000,22.57505322265625,0.3777124881744385,-0.1358499974012375,-0.028049999848008156
1780563299077578800,22.594578857421876,0.42858749628067017,-0.11646249890327454,-0.047987498342990875
1780563299097100300,22.614100341796874,0.3689124882221222,-0.09941250085830688,-0.05664999783039093
1780563299116624600,22.633624755859376,0.22714999318122864,-0.08676250278949738,-0.06283749639987946
1780563299136147500,22.6531474609375,0.04963750019669533,-0.0752125009894371,-0.07177499681711197
1780563299155669000,22.6726689453125,-0.15234999358654022,-0.05816249921917915,-0.07397499680519104
1780563299175195100,22.692195068359375,-0.37564998865127563,-0.026399999856948853,-0.055687498301267624
1780563299194724900,22.711724853515626,-0.593037486076355,0.02736249938607216,-0.010449999943375587
1780563299214249200,22.731249267578125,-0.7642250061035156,0.10037499666213989,0.05912499874830246
1780563299233766400,22.750766357421874,-0.8654249906539917,0.1779250055551529,0.14506250619888306
1780563299253283000,22.770282958984374,-0.8969125151634216,0.2433750033378601,0.2330625057220459
1780563299272803600,22.789803466796876,-0.8751875162124634,0.28929999470710754,0.30662500858306885
1780563299292329000,22.809328857421875,-0.8309124708175659,0.32133749127388,0.35942500829696655
1780563299311854300,22.828854248046873,-0.7913125157356262,0.3525499999523163,0.3987500071525574
1780563299331376000,22.848376220703123,-0.768762469291687,0.3951750099658966,0.4384874999523163
1780563299350898400,22.8678984375,-0.7660124897956848,0.4526500105857849,0.4879874885082245
1780563299370425000,22.887425048828124,-0.7870500087738037,0.5161749720573425,0.5483499765396118
1780563299389954300,22.906954345703124,-0.7870500087738037,0.5161749720573425,0.5483499765396118
1780563299409484500,22.926484619140624,-0.8350374698638916,0.5704874992370605,0.6133875250816345
1780563299429012000,22.946011962890626,-0.9578250050544739,0.6389625072479248,0.7251750230789185
1780563299448536800,22.965536865234377,-0.9898625016212463,0.6725124716758728,0.7621625065803528
1780563299468063500,22.9850634765625,-0.9898625016212463,0.6725124716758728,0.7621625065803528
1780563299487594000,23.004593994140624,-0.9898625016212463,0.6725124716758728,0.7621625065803528
1780563299507123000,23.024123046875,-0.9912375211715698,0.7548750042915344,0.8062999844551086
1780563299526648300,23.0436484375,-1.0026500225067139,0.8280249834060669,0.8328375220298767
1780563299546173400,23.06317333984375,-1.0195624828338623,0.9271624684333801,0.8636375069618225
1780563299565696000,23.082696044921875,-1.019700050354004,1.0309749841690063,0.8914124965667725
1780563299585218300,23.10221826171875,-0.9935749769210815,1.1302499771118164,0.9197375178337097
1780563299604744000,23.121743896484375,-0.9589250087738037,1.2535874843597412,0.9699249863624573
1780563299624266200,23.141266357421873,-0.9305999875068665,1.4081374406814575,1.039775013923645
1780563299643782700,23.16078271484375,-0.8848124742507935,1.5123624801635742,1.0631500482559204
1780563299663299600,23.180299560546874,-0.7471749782562256,1.3857250213623047,0.9138249754905701
1780563299682822000,23.19982177734375,-0.42748749256134033,0.8520874977111816,0.4772624969482422
1780563299702346800,23.2193466796875,0.11467500030994415,-0.06751249730587006,-0.23842500150203705
1780563299721867000,23.238866943359376,0.8144124746322632,-1.0869375467300415,-1.0537999868392944
1780563299741386500,23.258386474609374,1.4756499528884888,-1.8370000123977661,-1.703624963760376
1780563299760911000,23.2779111328125,1.8632625341415405,-2.127537488937378,-2.007499933242798
1780563299780434700,23.2974345703125,1.8686250448226929,-2.020012378692627,-1.9599249362945557
1780563299799956700,23.316956787109376,1.5938999652862549,-1.7099499702453613,-1.6820374727249146
1780563299819477500,23.3364775390625,1.259637475013733,-1.3803625106811523,-1.326050043106079
1780563299839001000,23.3560009765625,1.015162467956543,-1.1178749799728394,-1.0025124549865723
1780563299858528000,23.375528076171875,0.8623999953269958,-0.9240000247955322,-0.7578999996185303
1780563299878054700,23.3950546875,0.7244874835014343,-0.769587516784668,-0.5953750014305115
1780563299897581300,23.414581298828125,0.5465624928474426,-0.6413000226020813,-0.5025625228881836
1780563299917108500,23.4341083984375,0.3278000056743622,-0.5403749942779541,-0.45801249146461487
1780563299936633900,23.4536337890625,0.10381250083446503,-0.46488749980926514,-0.4380750060081482
1780563299956160000,23.473159912109374,-0.05719999969005585,-0.40988749265670776,-0.4263874888420105
1780563299975684000,23.49268408203125,-0.09459999948740005,-0.367125004529953,-0.4064500033855438
1780563299995206400,23.512206298828126,-0.0005499999970197678,-0.3301374912261963,-0.35516250133514404
1780563300014731500,23.5317314453125,0.18768750131130219,-0.30387499928474426,-0.2576749920845032
1780563300034255600,23.551255615234375,0.4105750024318695,-0.30057498812675476,-0.1274625062942505
1780563300053782000,23.570781982421874,0.5992249846458435,-0.31679999828338623,0.0012374999932944775
1780563300073309700,23.590309814453125,0.6982250213623047,-0.33137500286102295,0.09707500040531158
1780563300092839700,23.609839599609376,0.6792500019073486,-0.31913748383522034,0.1447875052690506
1780563300112371000,23.629370849609376,0.5597624778747559,-0.2727999985218048,0.1405249983072281
1780563300131897000,23.64889697265625,0.39476248621940613,-0.21175000071525574,0.08084999769926071
1780563300151419000,23.6684189453125,0.24406249821186066,-0.1652749925851822,-0.030112499371170998
1780563300170937900,23.687937744140626,0.1354375034570694,-0.15056249499320984,-0.16843749582767487
1780563300190452000,23.707451904296875,0.04661250114440918,-0.15619999170303345,-0.2895750105381012
1780563300209969700,23.7269697265625,0.04661250114440918,-0.15619999170303345,-0.2895750105381012
1780563300229491500,23.746491455078125,-0.10587500035762787,-0.1574375033378601,-0.345674991607666
1780563300249011700,23.76601171875,-0.09624999761581421,-0.16376249492168427,-0.2755500078201294
1780563300268535800,23.785535888671873,-0.09624999761581421,-0.16376249492168427,-0.2755500078201294
1780563300288059600,23.8050595703125,-0.03891250118613243,-0.19208750128746033,-0.16664999723434448
1780563300307581000,23.824580810546873,0.13722500205039978,-0.3651999831199646,-0.0056374999694526196
1780563300327101200,23.84410107421875,0.13722500205039978,-0.3651999831199646,-0.0056374999694526196
1780563300346618000,23.8636181640625,0.2601499855518341,-0.4978874921798706,-0.007287499960511923
1780563300366139000,23.883138916015625,0.34869998693466187,-0.6161375045776367,-0.05238749831914902
1780563300385659600,23.90265966796875,0.3431999981403351,-0.6993250250816345,-0.1387374997138977
1780563300405181000,23.922180908203124,0.24639999866485596,-0.7536374926567078,-0.26633748412132263
1780563300424706600,23.94170654296875,0.09226249903440475,-0.7925499677658081,-0.4204750061035156
1780563300444231000,23.96123095703125,-0.09157499670982361,-0.8162000179290771,-0.5695250034332275
1780563300463749000,23.9807490234375,-0.2886124849319458,-0.8196374773979187,-0.6925874948501587
1780563300483263500,24.000263427734374,-0.49334999918937683,-0.8014875054359436,-0.7837499976158142
1780563300502782500,24.019782470703124,-0.6980875134468079,-0.7592750191688538,-0.828712522983551
1780563300522307600,24.0393076171875,-0.8640499711036682,-0.6951999664306641,-0.7836124897003174
1780563300541826000,24.058825927734375,-0.9296374917030334,-0.6223250031471252,-0.6026625037193298
1780563300561343200,24.07834326171875,-0.8600624799728394,-0.56045001745224,-0.30469998717308044
1780563300580864000,24.097864013671874,-0.6800749897956848,-0.5215374827384949,0.02722499892115593
1780563300600381700,24.117381591796875,-0.4483875036239624,-0.5013250112533569,0.3096500039100647
1780563300619902000,24.13690185546875,-0.1985500007867813,-0.4877125024795532,0.5153499841690063
1780563300639421400,24.15642138671875,0.057887498289346695,-0.4717625081539154,0.6539499759674072
1780563300658943200,24.175943115234375,0.3004375100135803,-0.4548499882221222,0.7299875020980835
1780563300678470400,24.195470458984374,0.5205749869346619,-0.4538874924182892,0.738099992275238
1780563300697992000,24.214991943359376,0.7735750079154968,-0.5077875256538391,0.6721000075340271
1780563300717510100,24.23451025390625,1.1969374418258667,-0.6718249917030334,0.5464249849319458
1780563300737030700,24.25403076171875,1.8841625452041626,-0.9638749957084656,0.40658751130104065
1780563300756554200,24.27355419921875,2.7524750232696533,-1.3271499872207642,0.306487500667572
1780563300776080600,24.29308056640625,3.5953500270843506,-1.664162516593933,0.27527499198913574
1780563300795605500,24.31260546875,4.236374855041504,-1.9042375087738037,0.3176249861717224
1780563300815127300,24.332127197265624,4.577237606048584,-2.0246875286102295,0.4255625009536743
1780563300834642200,24.35164208984375,4.5178375244140625,-2.003512382507324,0.5609999895095825
1780563300854155500,24.371155517578124,4.011012554168701,-1.8130749464035034,0.6518874764442444
1780563300873678800,24.390678955078126,3.171299934387207,-1.472487449645996,0.6433625221252441
1780563300893205500,24.41020556640625,2.2197999954223633,-1.0557249784469604,0.5135625004768372
1780563300912727800,24.429727783203123,1.3516249656677246,-0.6347000002861023,0.26317501068115234
1780563300932249600,24.44924951171875,0.634149968624115,-0.2307250052690506,-0.0775500014424324
1780563300951775000,24.46877490234375,0.04152499884366989,0.15606249868869781,-0.444537490606308
1780563300971302700,24.488302734375,-0.4449499845504761,0.49623748660087585,-0.7590000033378601
1780563300990832400,24.507832275390626,-0.8056125044822693,0.7438749670982361,-0.9822999835014343
1780563301010358300,24.527358154296873,-1.0287749767303467,0.8816499710083008,-1.1177375316619873
1780563301029882000,24.546882080078124,-1.0287749767303467,0.8816499710083008,-1.1177375316619873
1780563301049405000,24.566405029296874,-1.1360249519348145,0.9250999689102173,-1.177412509918213
1780563301068925200,24.58592529296875,-1.1574749946594238,0.9028249979019165,-1.1694375276565552
