time,seconds_elapsed,z,y,x
1781030526133293600,-0.00370654296875,-1.9404189586639404,-0.8390089869499207,-1.1023399829864502
1781030526595396000,0.45839599609375,-2.0248351097106934,3.268678903579712,-0.744933009147644
1781030526605163800,0.468163818359375,-1.7409729957580566,-1.5293539762496948,0.9364020228385925
1781030526624694300,0.4876943359375,-0.2968690097332001,-2.080122947692871,1.003208041191101
1781030526644224500,0.507224609375,-0.03803100064396858,-3.9491019248962402,1.1374130249023438
1781030526663756300,0.52675634765625,0.004825999960303307,-4.467129230499268,1.3205300569534302
1781030526683285200,0.54628515625,-0.24574999511241913,-4.994475841522217,1.4377449750900269
1781030526702811600,0.565811767578125,-0.8058609962463379,-5.386415958404541,1.4573650360107422
1781030526722339000,0.585339111328125,-2.3362679481506348,-5.698307991027832,1.3172780275344849
1781030526741868000,0.604867919921875,-2.7877159118652344,-6.066938877105713,1.0962079763412476
1781030526761394700,0.624394775390625,-3.293199062347412,-7.640629768371582,0.8970280289649963
1781030526780919000,0.6439189453125,-3.5406739711761475,-7.759365081787109,0.7024109959602356
1781030526800440600,0.663440673828125,-3.3837881088256836,-8.071681022644043,0.4677479863166809
1781030526819962400,0.68296240234375,-3.011981964111328,-8.32083511352539,0.20610399544239044
1781030526839482400,0.702482421875,-2.7416059970855713,-8.442370414733887,-0.009872999973595142
1781030526859001000,0.7220009765625,-2.8612420558929443,-8.411331176757812,-0.10822500288486481
1781030526878524000,0.74152392578125,-3.2483320236206055,-8.373720169067383,-0.10533100366592407
1781030526898053600,0.7610537109375,-3.2403130531311035,-8.355502128601074,0.0134680001065135
1781030526917583400,0.780583251953125,-2.8625059127807617,-8.277694702148438,0.29296499490737915
1781030526937104100,0.800104248046875,-2.223033905029297,-7.847632884979248,0.6048949956893921
1781030526956626700,0.819626708984375,-1.7463749647140503,-7.097307205200195,1.003501057624817
1781030526976153000,0.839153076171875,-1.9954890012741089,-6.173236846923828,1.3921420574188232
1781030526995672800,0.8586728515625,-3.3370890617370605,-4.3630290031433105,1.5295469760894775
1781030527015189000,0.87818896484375,-3.371232032775879,-3.9093620777130127,1.4902739524841309
1781030527034708700,0.897708740234375,-3.0238280296325684,-3.4876561164855957,1.2389390468597412
1781030527054233900,0.91723388671875,-2.5044429302215576,-3.076677083969116,0.8831210136413574
1781030527073757200,0.936757080078125,-2.0925090312957764,-2.718334913253784,0.6039299964904785
1781030527093278000,0.95627783203125,-1.905392050743103,-2.309375047683716,0.4096890091896057
1781030527112800300,0.97580029296875,-1.8217159509658813,-1.845900058746338,0.3226889967918396
1781030527132327700,0.99532763671875,-1.6898809671401978,-1.2920520305633545,0.29416701197624207
1781030527151853800,1.014853759765625,-1.5350639820098877,-0.7267330288887024,0.25719699263572693
1781030527171373600,1.03437353515625,-1.423941969871521,-0.19863000512123108,0.19938600063323975
1781030527190888400,1.053888427734375,-1.423941969871521,-0.19863000512123108,0.19938600063323975
1781030527210406400,1.073406494140625,-1.6847009658813477,0.5376750230789185,0.20486000180244446
1781030527229931000,1.092930908203125,-1.4730219841003418,0.8839139938354492,0.15956300497055054
1781030527249451800,1.11245166015625,-0.9256070256233215,1.282546043395996,0.002687999978661537
1781030527268970800,1.131970703125,-0.9256070256233215,1.282546043395996,0.002687999978661537
1781030527288491500,1.151491455078125,-0.9256070256233215,1.282546043395996,0.002687999978661537
1781030527308014000,1.17101416015625,0.7268210053443909,0.9150750041007996,-0.997331976890564
1781030527327539500,1.19053955078125,1.0634679794311523,0.7715169787406921,-1.3235599994659424
1781030527347064600,1.210064697265625,1.2559720277786255,0.8457480072975159,-1.6062530279159546
1781030527366590000,1.22958984375,1.3098080158233643,1.2046630382537842,-1.8025829792022705
1781030527386113800,1.24911376953125,1.3485970497131348,3.0101308822631836,-1.8817230463027954
1781030527405634600,1.268634521484375,1.4363290071487427,3.2304389476776123,-1.9163219928741455
1781030527425159400,1.288159423828125,1.4780700206756592,3.4202170372009277,-1.8654860258102417
1781030527444689400,1.307689453125,1.4301379919052124,3.3878190517425537,-1.7153569459915161
1781030527464218000,1.327218017578125,1.4575639963150024,3.052345037460327,-1.493607997894287
1781030527483747800,1.346747802734375,1.4869389533996582,2.5412631034851074,-1.3064780235290527
1781030527503281200,1.36628125,1.2742609977722168,1.9886239767074585,-1.2691919803619385
1781030527522816000,1.38581591796875,0.7309610247612,1.4911129474639893,-1.4141550064086914
1781030527542346200,1.40534619140625,0.038943998515605927,0.9761430025100708,-1.7785890102386475
1781030527561874000,1.4248740234375,-0.4545919895172119,0.4866270124912262,-2.2779879570007324
1781030527581398800,1.444398681640625,-0.5672780275344849,0.2895149886608124,-2.7639729976654053
1781030527600923100,1.463923095703125,-0.4538840055465698,0.3758170008659363,-2.9296889305114746
1781030527620450300,1.4834501953125,-0.25955599546432495,0.8369600176811218,-2.6297988891601562
1781030527639971800,1.502971923828125,-0.16394299268722534,2.198837995529175,-1.9551509618759155
1781030527659493400,1.522493408203125,-0.25989198684692383,2.1336638927459717,-0.19069600105285645
1781030527679017700,1.542017822265625,-0.4112989902496338,1.7193340063095093,0.2940489947795868
1781030527698540500,1.56154052734375,-0.7120040059089661,0.0839110016822815,0.703328013420105
1781030527718061600,1.5810615234375,-0.845570981502533,-0.5668100118637085,0.940904974937439
1781030527737579800,1.600579833984375,-0.6139050126075745,-1.0917019844055176,0.9296320080757141
1781030527757096000,1.620095947265625,-0.2468090057373047,-1.3141679763793945,0.7613189816474915
1781030527776620000,1.6396201171875,0.07417699694633484,-1.1286109685897827,0.6230520009994507
1781030527796146400,1.659146484375,0.10954499989748001,-0.7149180173873901,0.6834949851036072
1781030527815669500,1.67866943359375,-0.12288200110197067,-0.4524320065975189,1.0650629997253418
1781030527835193300,1.698193359375,-0.49261701107025146,-0.3267030119895935,1.5564409494400024
1781030527854719500,1.717719482421875,-0.7478600144386292,-0.34475600719451904,1.9499520063400269
1781030527874243800,1.737243896484375,-0.7764189839363098,-0.4903939962387085,2.1150760650634766
1781030527893769700,1.756769775390625,-0.6527159810066223,-0.5050600171089172,1.8815569877624512
1781030527913298200,1.776298095703125,-0.3458299934864044,-0.4668239951133728,1.6451419591903687
1781030527932827600,1.79582763671875,-0.14728400111198425,-0.31655699014663696,1.569936990737915
1781030527952354300,1.815354248046875,-0.11457899957895279,-0.07139299809932709,1.5877410173416138
1781030527971879400,1.83487939453125,-0.1726830005645752,0.15014800429344177,1.6440000534057617
1781030527991407600,1.85440771484375,-0.3945290148258209,0.39223599433898926,1.5099760293960571
1781030528010938000,1.873938232421875,-0.5987949967384338,0.49552199244499207,1.2994509935379028
1781030528030467000,1.893467041015625,-0.5987949967384338,0.49552199244499207,1.2994509935379028
1781030528049991700,1.91299169921875,-0.7807250022888184,0.15668100118637085,1.38727605342865
1781030528069518000,1.93251806640625,-0.7807250022888184,0.15668100118637085,1.38727605342865
1781030528089046300,1.95204638671875,-0.0730310007929802,-0.263482004404068,1.734112024307251
1781030528108569000,1.971569091796875,-0.0730310007929802,-0.263482004404068,1.734112024307251
1781030528128089600,1.991089599609375,-0.0730310007929802,-0.263482004404068,1.734112024307251
1781030528147612700,2.01061279296875,-0.08888500183820724,-0.016634000465273857,1.4821020364761353
1781030528167131600,2.030131591796875,-0.2225160002708435,-0.11349199712276459,1.3184889554977417
1781030528186652400,2.04965234375,0.11745999753475189,-0.24884499609470367,1.0841139554977417
1781030528206178600,2.069178466796875,0.6170560121536255,-0.2899399995803833,0.9518229961395264
1781030528225705200,2.088705322265625,0.6170560121536255,-0.2899399995803833,0.9518229961395264
1781030528245237200,2.1082373046875,0.9416329860687256,0.41149699687957764,0.9610599875450134
1781030528264768800,2.127768798828125,0.7246450185775757,0.7091529965400696,0.8991389870643616
1781030528284297200,2.147297119140625,0.3669799864292145,0.8387849926948547,0.7181699872016907
1781030528303822800,2.16682275390625,0.16088199615478516,0.7799370288848877,0.3303309977054596
1781030528323347700,2.18634765625,-0.040091000497341156,0.7393730282783508,-0.20855699479579926
1781030528342870800,2.205870849609375,-0.1450989991426468,0.7335770130157471,-0.6644189953804016
1781030528362393300,2.225393310546875,-0.06336800009012222,0.6387990117073059,-0.9870049953460693
1781030528381918200,2.244918212890625,0.21406200528144836,0.5696730017662048,-1.1783909797668457
1781030528401445600,2.264445556640625,0.5712500214576721,0.5485649704933167,-1.1790080070495605
1781030528420977000,2.283976806640625,0.8597679734230042,0.5970420241355896,-1.2519240379333496
1781030528440503000,2.3035029296875,0.8901299834251404,0.6597489714622498,-1.2848149538040161
1781030528460029400,2.323029541015625,0.7176219820976257,0.6520050168037415,-1.2317169904708862
1781030528479557400,2.342557373046875,0.5936869978904724,0.6649450063705444,-1.2530009746551514
1781030528499083800,2.362083740234375,0.43184900283813477,0.7458270192146301,-1.2209999561309814
1781030528518613500,2.381613525390625,0.3692379891872406,0.8246729969978333,-1.298387050628662
1781030528538146800,2.401146728515625,0.4766109883785248,0.9134590029716492,-1.36416494846344
1781030528557676000,2.420676025390625,0.4790019989013672,0.9746969938278198,-1.2522000074386597
1781030528577207000,2.44020703125,0.5298500061035156,0.9561470150947571,-1.0914640426635742
1781030528596741600,2.45974169921875,0.5851089954376221,1.0260159969329834,-0.9263539910316467
1781030528616272600,2.479272705078125,0.5292710065841675,1.0607000589370728,-0.794090986251831
1781030528635798800,2.498798828125,0.45070600509643555,0.9707800149917603,-0.6803759932518005
1781030528655326000,2.518325927734375,0.3716529905796051,0.8077160120010376,-0.5392270088195801
1781030528674855700,2.537855712890625,0.29805898666381836,0.639178991317749,-0.3474169969558716
1781030528694383000,2.557383056640625,0.21992500126361847,0.5182440280914307,-0.14176000654697418
1781030528713905700,2.57690576171875,0.22582900524139404,0.4058220088481903,0.076384998857975
1781030528733428500,2.596428466796875,0.22718000411987305,0.29051798582077026,0.3033429980278015
1781030528752955400,2.615955322265625,0.2454880028963089,0.1905129998922348,0.5177929997444153
1781030528772486000,2.63548583984375,0.3243440091609955,0.09240300208330154,0.6909180283546448
1781030528792016000,2.655015869140625,0.3661220073699951,-0.022630000486969948,0.8527489900588989
1781030528811551500,2.674551513671875,0.3808799982070923,-0.08638899773359299,1.0028409957885742
1781030528831084300,2.694084228515625,0.3922579884529114,-0.1574060022830963,1.1569980382919312
1781030528850608400,2.7136083984375,0.3922579884529114,-0.1574060022830963,1.1569980382919312
1781030528870133200,2.73313330078125,-0.13580599427223206,-0.20078100264072418,1.6788380146026611
1781030528889657900,2.752657958984375,-0.3844209909439087,-0.21747300028800964,1.9201109409332275
1781030528909182000,2.772181884765625,-0.3844209909439087,-0.21747300028800964,1.9201109409332275
1781030528928707600,2.79170751953125,-0.3844209909439087,-0.21747300028800964,1.9201109409332275
1781030528948231000,2.81123095703125,-0.6804749965667725,-0.3599039912223816,2.144357919692993
1781030528967754800,2.830754638671875,-0.7462069988250732,-0.4190419912338257,1.9386470317840576
1781030528987280100,2.850280029296875,-0.7586069703102112,-0.5226079821586609,1.701321005821228
1781030529006800100,2.869800048828125,-0.67842698097229,-0.743261992931366,1.4900799989700317
1781030529026321000,2.88932080078125,-0.5269740223884583,-0.9477959871292114,1.2231910228729248
1781030529045842000,2.908842041015625,-0.3531549870967865,-0.9677839875221252,0.9982749819755554
1781030529065364000,2.928364013671875,-0.3032679855823517,-0.789089024066925,0.7298660278320312
1781030529084890600,2.947890625,-0.37708500027656555,-0.48104700446128845,0.41582798957824707
1781030529104419800,2.967419921875,-0.4937390089035034,-0.15741099417209625,0.15125100314617157
1781030529123946000,2.986946044921875,-0.6314449906349182,0.0800589993596077,-0.1340540051460266
1781030529143468000,3.006468017578125,-0.6750169992446899,0.23525400459766388,-0.4488599896430969
1781030529162986500,3.025986572265625,-0.62077397108078,0.3828139901161194,-0.8185610175132751
1781030529182508500,3.045508544921875,-0.5135080218315125,0.5432389974594116,-1.232679009437561
1781030529202035500,3.065035400390625,-0.44683998823165894,0.746288001537323,-1.6285580396652222
1781030529221557200,3.08455712890625,-0.44071999192237854,0.9551669955253601,-2.0455009937286377
1781030529241082600,3.10408251953125,-0.457861989736557,1.1848230361938477,-2.4752159118652344
1781030529260613600,3.123613525390625,-0.5093740224838257,1.3864949941635132,-2.927212953567505
1781030529280138500,3.143138427734375,-0.5168930292129517,1.5489879846572876,-3.3858659267425537
1781030529299658800,3.16265869140625,-0.41585400700569153,1.733214020729065,-3.805121898651123
1781030529319180800,3.182180908203125,-0.34661999344825745,1.9428789615631104,-4.258480072021484
1781030529338703000,3.201703125,-0.3110460042953491,2.097111940383911,-4.701284885406494
1781030529358227500,3.2212275390625,-0.23302799463272095,2.077181100845337,-4.9619221687316895
1781030529377755100,3.240755126953125,-0.014437999576330185,2.069124937057495,-5.148781776428223
1781030529397283800,3.260283935546875,0.18386000394821167,2.038908004760742,-5.208471775054932
1781030529416813600,3.2798134765625,0.22612999379634857,2.1506309509277344,-5.221806049346924
1781030529436343600,3.299343505859375,-0.03248399868607521,2.4490950107574463,-5.351102828979492
1781030529455872300,3.318872314453125,-1.8535900115966797,2.5333340167999268,-5.305897235870361
1781030529475394800,3.338394775390625,-2.093055009841919,2.416520118713379,-4.860086917877197
1781030529494919700,3.357919677734375,-2.2194509506225586,2.1175129413604736,-4.213572978973389
1781030529514449700,3.37744970703125,-2.0094668865203857,1.7175999879837036,-3.500951051712036
1781030529533980200,3.396980224609375,-1.6769349575042725,1.4321409463882446,-2.869981050491333
1781030529553512200,3.41651220703125,-1.3709779977798462,1.2643660306930542,-2.3142879009246826
1781030529573046300,3.43604638671875,-1.2799060344696045,1.0276219844818115,-1.544118046760559
1781030529592581400,3.455581298828125,-1.5863759517669678,0.8293889760971069,-0.8517130017280579
1781030529612113700,3.47511376953125,-1.766759991645813,0.6041060090065002,1.3739620447158813
1781030529631643000,3.494642822265625,-1.9014439582824707,0.2757430076599121,1.9220830202102661
1781030529651170800,3.5141708984375,-2.060549020767212,-0.09752900153398514,2.5158090591430664
1781030529670698800,3.53369873046875,-2.060549020767212,-0.09752900153398514,2.5158090591430664
1781030529690228000,3.55322802734375,-1.4344550371170044,-2.1919400691986084,6.182153224945068
1781030529709756000,3.572755859375,-0.9012749791145325,-2.7897369861602783,6.560531139373779
1781030529729279200,3.592279296875,-0.9012749791145325,-2.7897369861602783,6.560531139373779
1781030529748803000,3.611802978515625,-0.9012749791145325,-2.7897369861602783,6.560531139373779
1781030529768335000,3.631335205078125,1.2639080286026,-6.084880828857422,7.51145076751709
1781030529787869000,3.650868896484375,1.2639080286026,-6.084880828857422,7.51145076751709
1781030529807404000,3.670404052734375,1.1116089820861816,-5.950362205505371,7.043696880340576
1781030529826940700,3.689940673828125,0.7376689910888672,-5.531826019287109,6.603880882263184
1781030529846470700,3.709470703125,0.30601999163627625,-4.952159881591797,4.712213039398193
1781030529865997600,3.72899755859375,0.23055599629878998,-4.469845771789551,4.195529937744141
1781030529885525800,3.74852587890625,0.29161399602890015,-3.843130111694336,2.358207941055298
1781030529905058600,3.76805859375,0.2779029905796051,-3.2211759090423584,1.8699020147323608
1781030529924593400,3.787593505859375,0.17813700437545776,-2.6248130798339844,1.3391679525375366
1781030529944125200,3.807125244140625,0.1059970036149025,-2.2706298828125,0.9865419864654541
1781030529963655200,3.8266552734375,0.1330139935016632,-2.077115058898926,0.9130929708480835
1781030529983183600,3.84618359375,0.30841299891471863,-2.0604569911956787,1.1117299795150757
1781030530002713300,3.86571337890625,0.6310610175132751,-2.123608112335205,1.5045499801635742
1781030530022244400,3.885244384765625,0.8446869850158691,-2.016627073287964,1.9118130207061768
1781030530041772800,3.904772705078125,0.9191160202026367,-1.9379639625549316,2.269256114959717
1781030530061301500,3.924301513671875,0.9403979778289795,-1.9606579542160034,2.484010934829712
1781030530080829700,3.94382958984375,1.0550739765167236,-2.0864219665527344,2.5413219928741455
1781030530100360200,3.963360107421875,1.2158730030059814,-2.266817092895508,2.4399468898773193
1781030530119890000,3.982889892578125,1.2441179752349854,-2.44576096534729,2.33270001411438
1781030530139419100,4.002419189453125,0.9775850176811218,-2.4275410175323486,2.3270070552825928
1781030530158948600,4.021948486328125,0.5294470191001892,-2.111254930496216,2.3167150020599365
1781030530178474000,4.041473876953125,0.08029600232839584,-1.5288399457931519,2.2275888919830322
1781030530198002700,4.061002685546875,-0.1817999929189682,0.23319900035858154,1.8905960321426392
1781030530217531100,4.08053125,-0.25037500262260437,0.4999539852142334,1.327481985092163
1781030530237056800,4.100056884765625,-0.44661399722099304,0.8305429816246033,0.6340500116348267
1781030530256584200,4.119584228515625,-0.6711220145225525,0.9487509727478027,-0.007540999911725521
1781030530276108800,4.13910888671875,-0.827593982219696,0.9315860271453857,-0.494733989238739
1781030530295629000,4.158629150390625,-0.8630710244178772,0.8979629874229431,-1.1338540315628052
1781030530315148500,4.1781484375,-0.620818018913269,0.955689013004303,-2.8018128871917725
1781030530334671000,4.197671142578125,-0.29175201058387756,1.2051329612731934,-4.536832809448242
1781030530354190600,4.217190673828125,-0.12983499467372894,1.474334955215454,-6.257382869720459
1781030530373709800,4.236709716796875,-0.1966640055179596,1.765354037284851,-6.568044185638428
1781030530393232000,4.25623193359375,-0.20590800046920776,2.2310950756073,-7.852279186248779
1781030530412759800,4.275759765625,-0.10935100167989731,2.6880340576171875,-8.151823043823242
1781030530432289500,4.29528955078125,0.1706250011920929,4.3114237785339355,-9.617392539978027
1781030530451816700,4.314816650390625,0.6147739887237549,4.571369171142578,-9.638938903808594
1781030530471345200,4.33434521484375,0.743818998336792,4.727518081665039,-9.916661262512207
1781030530490873600,4.35387353515625,0.544435977935791,4.864871978759766,-10.988954544067383
1781030530510394000,4.37339404296875,0.3161599934101105,4.790779113769531,-10.709627151489258
1781030530529913600,4.39291357421875,0.3161599934101105,4.790779113769531,-10.709627151489258
1781030530549439700,4.412439697265625,0.16004100441932678,3.9857540130615234,-7.795007228851318
1781030530568966700,4.431966552734375,0.16004100441932678,3.9857540130615234,-7.795007228851318
1781030530588489500,4.451489501953125,0.16004100441932678,3.9857540130615234,-7.795007228851318
1781030530608012500,4.471012451171875,-0.1842689961194992,2.971924066543579,-3.3577089309692383
1781030530627535000,4.49053515625,-0.4840959906578064,2.6961770057678223,-2.491036891937256
1781030530647054000,4.51005419921875,-0.8739460110664368,2.416377067565918,-1.5940539836883545
1781030530666576100,4.529576171875,-1.4285149574279785,2.0894761085510254,-0.8361330032348633
1781030530686100000,4.549099853515625,-1.8802499771118164,1.9640569686889648,1.1454119682312012
1781030530705621000,4.56862109375,-2.1008200645446777,1.6163549423217773,3.584023952484131
1781030530725143800,4.588143798828125,-2.3589930534362793,0.9553530216217041,4.122014999389648
1781030530744670700,4.607670654296875,-0.8239610195159912,-1.0452749729156494,4.82845401763916
1781030530764199000,4.627198974609375,-0.4878529906272888,-2.715816020965576,6.807174205780029
1781030530783725600,4.6467255859375,-0.3191460072994232,-3.1360011100769043,6.964148998260498
1781030530803254300,4.666254150390625,0.23144400119781494,-4.821797847747803,7.369093894958496
1781030530822783200,4.685783203125,0.7251409888267517,-5.002370834350586,8.834040641784668
1781030530842315300,4.705315185546875,1.1536149978637695,-5.078423976898193,8.9791898727417
1781030530861849600,4.724849609375,3.0120980739593506,-5.127366065979004,9.09546947479248
1781030530881376000,4.7443759765625,3.219697952270508,-4.913444995880127,8.897762298583984
1781030530900898300,4.763898193359375,3.2783689498901367,-4.61288595199585,8.263936996459961
1781030530920424000,4.783423828125,3.1725380420684814,-4.3071489334106445,6.196328163146973
1781030530939954400,4.802954345703125,2.816709041595459,-3.775214910507202,4.484641075134277
1781030530959483400,4.8224833984375,1.1604360342025757,-3.2292098999023438,3.6783039569854736
1781030530979013600,4.842013671875,0.8740599751472473,-2.772465944290161,2.885983943939209
1781030530998546200,4.861546142578125,0.48625999689102173,-2.4566240310668945,2.255790948867798
1781030531018076200,4.881076171875,0.2687140107154846,-2.4224109649658203,1.8763220310211182
1781030531037602000,4.90060205078125,0.29945099353790283,-2.5011250972747803,1.7363250255584717
1781030531057126000,4.9201259765625,0.5601109862327576,-2.542180061340332,1.7941670417785645
1781030531076646700,4.939646728515625,0.9299920201301575,-2.329026937484741,1.9564599990844727
1781030531096168400,4.95916845703125,1.1476490497589111,-1.9846069812774658,2.0271949768066406
1781030531115695400,4.9786953125,1.4188090562820435,-1.8866209983825684,2.09922194480896
1781030531135221500,4.998221435546875,1.607936978340149,-1.8919520378112793,2.1483349800109863
1781030531154745900,5.017745849609375,1.5090999603271484,-2.124605894088745,2.1809349060058594
1781030531174271500,5.037271484375,1.3956290483474731,-2.369908094406128,2.2909419536590576
1781030531193794000,5.0567939453125,1.288804054260254,-2.132581949234009,2.1686980724334717
1781030531213315000,5.076315185546875,1.231402039527893,-1.6467880010604858,1.943953037261963
1781030531232839400,5.09583935546875,0.9950839877128601,0.08891600370407104,1.6708300113677979
1781030531252368000,5.115367919921875,-0.823173999786377,0.4202739894390106,1.1369960308074951
1781030531271894300,5.134894287109375,-0.9702460169792175,0.4981510043144226,0.537451982498169
1781030531291420700,5.154420654296875,-1.183987021446228,0.41125500202178955,-0.1540219932794571
1781030531310945300,5.1739453125,-1.1968070268630981,0.45000600814819336,-1.6734310388565063
1781030531330465500,5.193465576171875,-0.99378502368927,0.46605798602104187,-2.0007920265197754
1781030531349986300,5.212986328125,-1.161309003829956,0.45252999663352966,-3.584275960922241
1781030531369499600,5.232499755859375,-1.161309003829956,0.45252999663352966,-3.584275960922241
1781030531389012500,5.252012451171875,-1.161309003829956,0.45252999663352966,-3.584275960922241
1781030531408528600,5.271528564453125,-1.109508991241455,0.6635950207710266,-7.578824043273926
1781030531428048600,5.291048583984375,-1.109508991241455,0.6635950207710266,-7.578824043273926
1781030531447573500,5.310573486328125,1.1286009550094604,2.7003040313720703,-9.517247200012207
1781030531467095600,5.330095458984375,1.3629440069198608,3.1759839057922363,-10.67854118347168
1781030531486621700,5.34962158203125,1.3938219547271729,4.974771022796631,-10.605287551879883
1781030531506146300,5.369146240234375,1.1089979410171509,6.627924919128418,-10.552382469177246
1781030531525668600,5.388668701171875,-0.843949019908905,6.916327953338623,-10.666605949401855
1781030531545191400,5.40819140625,-1.1985150575637817,7.22159481048584,-10.836991310119629
1781030531564713200,5.427713134765625,-1.6569080352783203,7.228662014007568,-10.643729209899902
1781030531584237600,5.447237548828125,-1.9557479619979858,6.750204086303711,-9.831116676330566
1781030531603759000,5.466759033203125,-1.9154969453811646,5.988256931304932,-7.286325931549072
1781030531623280400,5.4862802734375,-1.8199210166931152,4.21002721786499,-4.384282112121582
1781030531642803500,5.505803466796875,-1.524662971496582,3.453305959701538,-1.8339049816131592
1781030531662329600,5.52532958984375,-1.1109960079193115,1.6307770013809204,-1.112596035003662
1781030531681857500,5.544857421875,-0.9565070271492004,1.0240859985351562,-0.49496400356292725
1781030531701380400,5.56438037109375,-0.8930820226669312,0.4025070071220398,0.18489499390125275
1781030531720902400,5.58390234375,-1.0144699811935425,0.11584199965000153,2.3716819286346436
1781030531740422100,5.603422119140625,-1.3452320098876953,-0.08122800290584564,4.580020904541016
1781030531759940400,5.6229404296875,-1.3493419885635376,-0.4588190019130707,6.684654235839844
1781030531779461000,5.642461181640625,-0.9651259779930115,-2.157773017883301,7.258840084075928
1781030531798983400,5.6619833984375,-0.4309389889240265,-3.969773054122925,8.800705909729004
1781030531818510600,5.681510498046875,1.4111969470977783,-4.523412227630615,9.287623405456543
1781030531838037200,5.701037353515625,2.068125009536743,-6.151163101196289,9.633033752441406
1781030531857566200,5.720566162109375,2.71235990524292,-6.325342178344727,9.557076454162598
1781030531877096000,5.740095947265625,4.161886215209961,-6.281688213348389,9.07444953918457
1781030531896620500,5.75962060546875,4.07496976852417,-5.824447154998779,7.087748050689697
1781030531916143600,5.7791435546875,3.682889938354492,-5.104375839233398,6.505730152130127
1781030531935668500,5.79866845703125,3.2419309616088867,-4.437439918518066,4.623207092285156
1781030531955195000,5.81819482421875,2.6585559844970703,-3.832736015319824,4.227299213409424
1781030531974719200,5.83771923828125,2.120021104812622,-3.332942008972168,3.6542670726776123
1781030531994239200,5.8572392578125,1.667786955833435,-3.0956990718841553,3.147252082824707
1781030532013762000,5.876761962890625,1.3064930438995361,-3.005614995956421,2.7047369480133057
1781030532033285400,5.896285400390625,1.1481759548187256,-2.9891269207000732,2.443237066268921
1781030532052803800,5.915803955078125,1.1469099521636963,-2.950974941253662,2.4121859073638916
1781030532072322800,5.93532275390625,1.312047004699707,-2.7480599880218506,2.5707950592041016
1781030532091841300,5.95484130859375,1.5126899480819702,-2.2519121170043945,2.778691053390503
1781030532111360000,5.974360107421875,1.6446559429168701,-1.7640440464019775,2.8157711029052734
1781030532130880800,5.993880859375,1.7147539854049683,-1.5004750490188599,2.6597061157226562
1781030532150403300,6.0134033203125,1.6755460500717163,-1.449031949043274,2.299812078475952
1781030532169931500,6.032931640625,1.4435479640960693,-1.823930025100708,1.942167043685913
1781030532189459500,6.05245947265625,1.4435479640960693,-1.823930025100708,1.942167043685913
1781030532208979700,6.071979736328125,1.4435479640960693,-1.823930025100708,1.942167043685913
1781030532228499700,6.091499755859375,0.7643060088157654,-1.703165054321289,1.4124319553375244
1781030532248019200,6.111019287109375,0.7643060088157654,-1.703165054321289,1.4124319553375244
1781030532267537400,6.130537353515625,0.23462800681591034,0.29765400290489197,1.0027689933776855
1781030532287053000,6.150052978515625,-1.6165679693222046,0.5713880062103271,0.5794479846954346
1781030532306567400,6.1695673828125,-1.7586630582809448,0.484948992729187,-0.12232299894094467
1781030532326089000,6.1890888671875,-1.8453840017318726,0.18553400039672852,-0.8694319725036621
1781030532345610800,6.20861083984375,-1.7701879739761353,0.01547200046479702,-2.72981595993042
1781030532365134300,6.22813427734375,-1.4867750406265259,0.06260699778795242,-3.3058528900146484
1781030532384660200,6.24766015625,-1.4976760149002075,0.09078600257635117,-3.8714818954467773
1781030532404181200,6.26718115234375,-1.5275959968566895,0.24740499258041382,-5.388228893280029
1781030532423702800,6.286702880859375,-1.250349998474121,0.3791170120239258,-5.819622039794922
1781030532443221800,6.3062216796875,-0.7702919840812683,0.5866929888725281,-7.099935054779053
1781030532462742800,6.32574267578125,0.8593710064888,2.6020090579986572,-7.407901763916016
1781030532482265900,6.345265869140625,1.445876955986023,3.0221879482269287,-8.904176712036133
1781030532501790200,6.364790283203125,1.83439302444458,4.971333980560303,-9.120821952819824
1781030532521315800,6.38431591796875,1.618116021156311,5.402966022491455,-10.478105545043945
1781030532540836000,6.403836181640625,-0.07482799887657166,6.810978889465332,-10.348773002624512
1781030532560355300,6.423355224609375,-1.7815669775009155,6.800037860870361,-10.278166770935059
1781030532579876000,6.4428759765625,-2.2094640731811523,6.787843227386475,-9.988322257995605
1781030532599393500,6.4623935546875,-2.4657111167907715,6.329960823059082,-9.177577018737793
1781030532618912000,6.481912109375,-2.2614951133728027,4.501189231872559,-7.012405872344971
1781030532638429200,6.50142919921875,-1.7949559688568115,2.517335891723633,-5.007737159729004
1781030532657943000,6.520943115234375,-1.318490982055664,1.9977740049362183,-3.038907051086426
1781030532677462000,6.5404619140625,-0.8845019936561584,1.4052499532699585,-2.1604340076446533
1781030532696981000,6.55998095703125,-0.8489159941673279,0.8901020288467407,-0.3655650019645691
1781030532716498200,6.579498291015625,-1.20094895362854,0.506147027015686,0.311149001121521
1781030532736012000,6.599011962890625,-1.650496006011963,0.2477400004863739,2.163105010986328
1781030532755529700,6.61852978515625,-1.9250969886779785,0.024108000099658966,2.688883066177368
1781030532775054300,6.638054443359375,-1.8475680351257324,-0.15424799919128418,4.615904808044434
1781030532794575400,6.657575439453125,-1.5414249897003174,-0.5100679993629456,6.305261135101318
1781030532814094600,6.677094482421875,-1.191552996635437,-2.564399003982544,6.929619789123535
1781030532833615600,6.69661572265625,-0.8335360288619995,-4.261475086212158,8.650148391723633
1781030532853137400,6.716137451171875,0.8826879858970642,-5.824913024902344,9.086628913879395
1781030532872659500,6.735659423828125,1.286005973815918,-6.163154125213623,9.504966735839844
1781030532892184300,6.755184326171875,3.08070707321167,-6.470634937286377,9.744446754455566
1781030532911711000,6.7747109375,3.249006986618042,-6.481689929962158,9.731039047241211
1781030532931234600,6.794234619140625,3.1806600093841553,-6.066065788269043,9.426108360290527
1781030532950755300,6.81375537109375,2.916757106781006,-5.363103866577148,7.650598049163818
1781030532970278400,6.8332783203125,2.916757106781006,-5.363103866577148,7.650598049163818
1781030532989803500,6.852803466796875,2.3375959396362305,-3.066298007965088,4.8717851638793945
1781030533009328600,6.87232861328125,2.1010758876800537,-2.7939560413360596,4.110689163208008
1781030533028852000,6.89185205078125,2.1010758876800537,-2.7939560413360596,4.110689163208008
1781030533048379400,6.91137939453125,2.1010758876800537,-2.7939560413360596,4.110689163208008
1781030533067909000,6.9309091796875,1.3085949420928955,-2.3044068813323975,2.800848960876465
1781030533087438000,6.95043798828125,1.1432709693908691,-2.435343027114868,2.6117899417877197
1781030533106965200,6.96996533203125,1.1147539615631104,-2.513335943222046,2.5210959911346436
1781030533126491100,6.9894912109375,1.1580779552459717,-2.5142641067504883,2.572767972946167
1781030533146014200,7.00901416015625,1.204982042312622,-2.3277978897094727,2.725816011428833
1781030533165535700,7.02853564453125,1.1824779510498047,-2.0793399810791016,2.8881258964538574
1781030533185056500,7.048056396484375,1.1519960165023804,-1.9006719589233398,2.954624891281128
1781030533204576800,7.06757666015625,1.0696380138397217,-1.7448740005493164,2.8067100048065186
1781030533224096800,7.0870966796875,1.0330170392990112,-1.753175973892212,2.5287539958953857
1781030533243618000,7.1066181640625,1.0873810052871704,-1.632280945777893,2.177349090576172
1781030533263143000,7.126142822265625,1.162703037261963,-1.3384939432144165,1.8020100593566895
1781030533282662700,7.14566259765625,1.067929983139038,-0.9893720149993896,1.5853559970855713
1781030533302182100,7.16518212890625,0.6103410124778748,-0.503288984298706,1.3568600416183472
1781030533321704400,7.184704345703125,-1.0233240127563477,-0.18301799893379211,0.9553040266036987
1781030533341223200,7.20422314453125,-1.229854941368103,-0.11204099655151367,0.3264729976654053
1781030533360740600,7.22374072265625,-1.2325129508972168,-0.05413699895143509,-1.5326210260391235
1781030533380260600,7.243260498046875,-1.1020690202713013,0.13990400731563568,-2.228559970855713
1781030533399782000,7.262781982421875,-1.0072640180587769,0.39052000641822815,-2.936832904815674
1781030533419302100,7.28230224609375,-1.150771975517273,0.5704950094223022,-4.386054039001465
1781030533438823200,7.3018232421875,-1.2630740404129028,0.7657920122146606,-4.778206825256348
1781030533458347300,7.32134716796875,-1.0109169483184814,0.9572290182113647,-6.248518943786621
1781030533477869600,7.34086962890625,-0.43937501311302185,1.3084180355072021,-7.747124195098877
1781030533497392400,7.360392333984375,1.120568037033081,2.997436046600342,-9.204014778137207
1781030533516915000,7.3799150390625,1.2947479486465454,4.438457012176514,-10.671079635620117
1781030533536435500,7.399435546875,1.2406200170516968,4.767683982849121,-10.742161750793457
1781030533555953000,7.418952880859375,1.0149019956588745,6.437662124633789,-10.965895652770996
1781030533575470800,7.438470947265625,0.6170070171356201,6.453098773956299,-11.177067756652832
1781030533594992400,7.457992431640625,0.13989199697971344,6.349946022033691,-11.280183792114258
1781030533614511400,7.477511474609375,-0.2944360077381134,5.992784023284912,-11.012415885925293
1781030533634031000,7.497031005859375,-0.608253002166748,5.350974082946777,-10.330760955810547
1781030533653558800,7.516558837890625,-0.8529809713363647,3.32207989692688,-7.716958999633789
1781030533673083000,7.536082763671875,-1.0748339891433716,2.906946897506714,-5.406016826629639
1781030533692600800,7.555600830078125,-1.14553701877594,2.6154680252075195,-3.2245559692382812
1781030533712118800,7.575118896484375,-1.198928952217102,2.3578999042510986,-1.0933589935302734
1781030533731643600,7.5946435546875,-1.4243340492248535,2.112196922302246,-0.5001729726791382
1781030533751171300,7.61417138671875,-1.772426962852478,1.8307149410247803,0.27887800335884094
1781030533770697200,7.633697265625,-1.772426962852478,1.8307149410247803,0.27887800335884094
1781030533790225000,7.653224853515625,-2.0314290523529053,0.6884170174598694,4.330965995788574
1781030533809752300,7.67275244140625,-2.0801429748535156,-0.012563000433146954,6.5291829109191895
1781030533829278500,7.692278564453125,-2.0801429748535156,-0.012563000433146954,6.5291829109191895
1781030533848799500,7.711799560546875,-2.0801429748535156,-0.012563000433146954,6.5291829109191895
1781030533868319000,7.731319091796875,0.26419100165367126,-5.107472896575928,10.653888702392578
1781030533887844400,7.75084423828125,2.7373619079589844,-6.912974834442139,10.966435432434082
1781030533907366100,7.7703662109375,3.1191670894622803,-6.982760906219482,11.337470054626465
1781030533926888000,7.789887939453125,3.2026290893554688,-6.672789096832275,10.995647430419922
1781030533946410800,7.80941064453125,3.2026290893554688,-6.672789096832275,10.995647430419922
1781030533965926700,7.8289267578125,3.3106400966644287,-5.596381187438965,8.252330780029297
1781030533985443300,7.848443359375,2.948223114013672,-3.9500889778137207,6.436470985412598
1781030534004966000,7.8679658203125,2.5465710163116455,-3.6214370727539062,4.472978115081787
1781030534024487000,7.88748681640625,2.212217092514038,-3.2482640743255615,3.9705278873443604
1781030534044007400,7.90700732421875,1.892300009727478,-2.9854280948638916,3.469575881958008
1781030534063523800,7.92652392578125,1.451738953590393,-3.1362929344177246,3.2012600898742676
1781030534083037400,7.946037353515625,1.236685037612915,-3.3618180751800537,3.1332950592041016
1781030534102555600,7.9655556640625,1.2823439836502075,-3.4088571071624756,3.1927781105041504
1781030534122075100,7.9850751953125,1.3434289693832397,-3.2958340644836426,3.4178121089935303
1781030534141595400,8.004595458984374,1.4126900434494019,-2.8997089862823486,3.692915916442871
1781030534161113600,8.024113525390625,1.4738889932632446,-2.3895668983459473,3.8530120849609375
1781030534180631600,8.043631591796874,1.4713239669799805,-2.02885103225708,3.7875568866729736
1781030534200148000,8.06314794921875,1.4318699836730957,-1.8466269969940186,3.4694581031799316
1781030534219663400,8.082663330078125,1.3038309812545776,-1.7516330480575562,2.973104953765869
1781030534239179800,8.1021796875,1.0226529836654663,-1.656411051750183,2.437129020690918
1781030534258699000,8.121698974609375,0.7295169830322266,-1.3218239545822144,1.9336570501327515
1781030534278221800,8.141221923828125,0.4688259959220886,-0.6732760071754456,1.538221001625061
1781030534297746000,8.160745849609375,0.1572750061750412,0.029691999778151512,1.2669379711151123
1781030534317270500,8.1802705078125,-0.3708530068397522,0.4654650092124939,0.9218980073928833
1781030534336796400,8.19979638671875,-1.7410379648208618,0.4735569953918457,0.3813450038433075
1781030534356327200,8.2193271484375,-1.886849045753479,0.21112999320030212,-0.3568339943885803
1781030534375859700,8.238859619140625,-1.9948320388793945,-0.03615200147032738,-2.243933916091919
1781030534395388400,8.258388427734374,-1.9473919868469238,-0.20315499603748322,-4.297185897827148
1781030534414916000,8.277916015625,-1.9001319408416748,-0.18274399638175964,-4.730246067047119
1781030534434443500,8.297443603515624,-1.7009780406951904,-0.1629599928855896,-6.220468997955322
1781030534453976000,8.31697607421875,-1.1248730421066284,-0.2253739982843399,-6.692845821380615
1781030534473506600,8.336506591796875,0.6507419943809509,0.01508999988436699,-7.965611934661865
1781030534493035800,8.356035888671874,2.2068870067596436,1.909932017326355,-9.303132057189941
1781030534512562000,8.37556201171875,2.7175700664520264,3.5649120807647705,-9.48629093170166
1781030534532083700,8.395083740234375,2.8404529094696045,4.053305149078369,-10.939024925231934
1781030534551607600,8.414607666015625,2.3135130405426025,5.66668176651001,-12.358485221862793
1781030534571131000,8.434130859375,0.10325799882411957,5.873648166656494,-12.09598159790039
1781030534590651400,8.4536513671875,0.10325799882411957,5.873648166656494,-12.09598159790039
1781030534610171000,8.4731708984375,-0.9820740222930908,5.404901027679443,-11.256908416748047
1781030534629688300,8.492688232421875,-1.2458800077438354,4.8466057777404785,-8.922443389892578
1781030534649203200,8.512203125,-1.2458800077438354,4.8466057777404785,-8.922443389892578
1781030534668721700,8.5317216796875,-1.2458800077438354,4.8466057777404785,-8.922443389892578
1781030534688247800,8.551247802734375,-1.3579050302505493,2.2157280445098877,-3.9352779388427734
1781030534707773400,8.5707734375,-1.1776440143585205,1.9066270589828491,-1.9176180362701416
1781030534727298300,8.59029833984375,-1.020058035850525,1.671064019203186,0.2111559957265854
1781030534746823200,8.6098232421875,-0.9024549722671509,1.6218019723892212,2.200645923614502
1781030534766344400,8.629344482421875,-1.0205140113830566,1.3883179426193237,2.9156219959259033
1781030534785869000,8.648869140625,-1.2360639572143555,0.9201560020446777,4.676947116851807
1781030534805396200,8.668396240234374,-1.2798099517822266,0.24941900372505188,6.577112197875977
1781030534824919800,8.687919921875,-0.8439469933509827,-1.4901859760284424,6.84963321685791
1781030534844443100,8.707443115234375,1.3792109489440918,-3.538827896118164,7.367001056671143
1781030534863965200,8.726965087890624,3.225461959838867,-3.841099977493286,7.873041152954102
1781030534883483400,8.7464833984375,3.6773059368133545,-4.141158103942871,7.951414108276367
1781030534903002000,8.766002197265625,4.035274028778076,-4.380868911743164,7.936223030090332
1781030534922522000,8.785522216796876,4.0389251708984375,-4.192513942718506,7.545077800750732
1781030534942043600,8.805043701171876,3.895603895187378,-3.8145060539245605,6.83056116104126
1781030534961565400,8.8245654296875,3.7757949829101562,-3.427216053009033,5.038027763366699
1781030534981085000,8.8440849609375,3.5479860305786133,-2.9262940883636475,4.528809070587158
1781030535000606700,8.863606689453125,3.1426899433135986,-2.5060598850250244,2.926074981689453
1781030535020132600,8.883132568359375,2.6892030239105225,-2.1959590911865234,2.495389938354492
1781030535039657200,8.9026572265625,2.2631430625915527,-1.9044640064239502,2.1223831176757812
1781030535059178000,8.922177978515625,1.856997013092041,-1.8319940567016602,1.9454809427261353
1781030535078702000,8.9417021484375,1.550750970840454,-1.9738130569458008,2.01358699798584
1781030535098229200,8.961229248046875,1.454064965248108,-2.169179916381836,2.223436117172241
1781030535117753300,8.98075341796875,1.5029250383377075,-2.275484085083008,2.5038070678710938
1781030535137274600,9.000274658203125,1.5760630369186401,-2.279370069503784,2.7776598930358887
1781030535156794000,9.019794189453124,1.6611850261688232,-2.1959550380706787,2.9639248847961426
1781030535176318000,9.03931787109375,1.7043770551681519,-2.1312050819396973,2.9675300121307373
1781030535195841500,9.058841552734375,1.5408010482788086,-2.1230030059814453,2.7445929050445557
1781030535215364600,9.078364501953125,1.3982470035552979,-2.232342004776001,2.3381600379943848
1781030535234885600,9.0978857421875,1.4654920101165771,-2.159404993057251,1.959373950958252
1781030535254407400,9.117407470703125,1.296746015548706,-1.5632749795913696,1.5867619514465332
1781030535273931500,9.136931640625,1.0984630584716797,-0.9296339750289917,1.3979259729385376
1781030535293459200,9.156459228515626,0.7150710225105286,0.6117309927940369,1.3255980014801025
1781030535312988200,9.17598828125,-1.2713290452957153,0.8339179754257202,1.0613089799880981
1781030535332515300,9.195515380859375,-1.7467780113220215,0.6543740034103394,0.640330970287323
1781030535352041200,9.215041259765625,-1.958940029144287,0.5424169898033142,-1.266860008239746
1781030535371567400,9.2345673828125,-1.865020990371704,0.5124179720878601,-3.1338140964508057
1781030535391095800,9.254095703125,-1.865020990371704,0.5124179720878601,-3.1338140964508057
1781030535430159600,9.29315966796875,-2.168437957763672,-0.1412239968776703,-6.786189079284668
1781030535449689600,9.312689697265625,-2.168437957763672,-0.1412239968776703,-6.786189079284668
1781030535469212700,9.332212646484376,-0.5832759737968445,-0.6666210293769836,-7.6003642082214355
1781030535488735500,9.351735595703126,1.8855290412902832,0.9984390139579773,-8.795857429504395
1781030535508260600,9.371260498046874,1.8855290412902832,0.9984390139579773,-8.795857429504395
1781030535527786800,9.390786865234375,1.8855290412902832,0.9984390139579773,-8.795857429504395
1781030535547316500,9.41031640625,1.171023964881897,6.369288921356201,-9.652605056762695
1781030535566848300,9.42984814453125,-1.341562032699585,6.641572952270508,-9.824506759643555
1781030535586377500,9.44937744140625,-3.349776029586792,7.112724781036377,-10.060113906860352
1781030535605903600,9.468903564453125,-3.793191909790039,7.581542015075684,-10.98379135131836
1781030535625431600,9.488431640625,-4.020793914794922,7.739692211151123,-10.299333572387695
1781030535644966700,9.507966552734375,-3.8072290420532227,7.344971179962158,-7.72348690032959
1781030535664500000,9.5275,-3.251107931137085,5.385054111480713,-4.980882167816162
1781030535684030700,9.54703076171875,-1.729464054107666,3.348433017730713,-1.8274799585342407
1781030535703567000,9.566567138671875,-1.5929069519042969,1.190364956855774,0.8090810179710388
1781030535723104300,9.586104248046874,-1.6673699617385864,-0.5097939968109131,1.3301539421081543
1781030535742635300,9.60563525390625,-1.5434479713439941,-1.0116289854049683,1.983747959136963
1781030535762166000,9.625166015625,-1.24282705783844,-1.521131992340088,3.7046520709991455
1781030535781693700,9.644693603515625,-1.0780980587005615,-1.5846920013427734,3.9809958934783936
1781030535801216300,9.66421630859375,-0.9405739903450012,-1.4847919940948486,6.049365043640137
1781030535820739600,9.683739501953125,-1.1189420223236084,-1.4468400478363037,6.668275833129883
1781030535840261600,9.70326171875,-1.398777961730957,-1.7472269535064697,8.36318588256836
1781030535859788000,9.7227880859375,-1.0252079963684082,-3.3800220489501953,10.41337776184082
1781030535879314000,9.74231396484375,0.9306979775428772,-5.2549848556518555,10.743605613708496
1781030535898841000,9.761841064453124,2.475774049758911,-5.638358116149902,11.066515922546387
1781030535918371000,9.78137109375,2.978121042251587,-6.084130764007568,11.043208122253418
1781030535937898000,9.80089794921875,3.334989070892334,-6.231444835662842,10.551689147949219
1781030535957422800,9.8204228515625,3.3002541065216064,-5.957074165344238,8.287057876586914
1781030535976949000,9.839948974609374,2.9972519874572754,-5.325164794921875,7.581374168395996
1781030535996473600,9.8594736328125,2.497844934463501,-3.596842050552368,5.449089050292969
1781030536015995600,9.87899560546875,1.8723640441894531,-3.085592031478882,4.601484775543213
1781030536055044400,9.91804443359375,1.3196899890899658,-2.504465103149414,3.223733901977539
1781030536074569500,9.937569580078126,1.2431199550628662,-2.4429430961608887,2.8851120471954346
1781030536094097000,9.957096923828125,1.21737802028656,-2.4222168922424316,2.7346930503845215
1781030536113626600,9.976626708984375,1.0304960012435913,-2.4583449363708496,2.699774980545044
1781030536133152500,9.996152587890625,0.8254150152206421,-2.4227941036224365,2.6294538974761963
1781030536152673500,10.015673583984375,0.8450260162353516,-2.2019989490509033,2.3399620056152344
1781030536172195800,10.03519580078125,1.0788819789886475,-1.9726359844207764,1.9520260095596313
1781030536191721200,10.05472119140625,1.354403018951416,-1.5888090133666992,1.454367995262146
1781030536211248600,10.07424853515625,1.489611029624939,-1.1960010528564453,1.0238189697265625
1781030536230774500,10.0937744140625,1.489611029624939,-1.1960010528564453,1.0238189697265625
1781030536250299000,10.113298828125,0.9001060128211975,-1.0720839500427246,0.7819839715957642
1781030536269822500,10.132822509765624,0.8044880032539368,-0.9769110083580017,0.010735999792814255
1781030536289345300,10.15234521484375,0.8044880032539368,-0.9769110083580017,0.010735999792814255
1781030536308870400,10.171870361328125,0.829010009765625,-0.2544359862804413,-0.5746639966964722
1781030536328400000,10.19139990234375,0.829010009765625,-0.2544359862804413,-0.5746639966964722
1781030536347930600,10.2109306640625,0.829010009765625,-0.2544359862804413,-0.5746639966964722
1781030536367462000,10.2304619140625,-1.6858049631118774,0.7665489912033081,-1.0100610256195068
1781030536386991900,10.249991943359374,-1.411890983581543,0.6108540296554565,-2.9506170749664307
1781030536406521300,10.269521240234376,-0.8495299816131592,0.4611259996891022,-3.3809709548950195
1781030536426048300,10.28904833984375,-0.20090000331401825,0.6467700004577637,-3.9869320392608643
1781030536445574400,10.308574462890626,0.08135300129652023,0.9210050106048584,-4.498921871185303
1781030536465098800,10.3280986328125,-0.2738940119743347,0.9075570106506348,-6.244672775268555
1781030536484623000,10.347623046875,-0.5657060146331787,0.8456709980964661,-6.4582672119140625
1781030536504153000,10.367153076171874,-0.3090110123157501,1.0485539436340332,-8.165918350219727
1781030536523680800,10.3866806640625,0.16020600497722626,1.5225789546966553,-8.18719482421875
1781030536543207000,10.40620703125,0.7325909733772278,3.312570095062256,-8.296426773071289
1781030536562738400,10.425738525390624,0.9460279941558838,4.754763126373291,-8.471785545349121
1781030536582271200,10.445271240234375,-0.8626499772071838,5.245291233062744,-9.926873207092285
1781030536601801700,10.4648017578125,-2.76226806640625,6.64701509475708,-11.029701232910156
1781030536621330200,10.484330078125,-3.2009239196777344,6.935695171356201,-11.06203842163086
1781030536640855600,10.50385546875,-3.572350025177002,7.143726825714111,-11.135364532470703
1781030536660382200,10.52338232421875,-3.6038529872894287,7.047452926635742,-10.716094970703125
1781030536679913700,10.542913818359375,-3.3595619201660156,6.441510200500488,-8.11544132232666
1781030536699446000,10.562446044921876,-2.8565139770507812,4.390376091003418,-5.1432881355285645
1781030536718980600,10.581980712890624,-2.370105028152466,2.420844078063965,-2.9513800144195557
1781030536738518500,10.6015185546875,-1.8700740337371826,1.9602789878845215,-2.1721880435943604
1781030536758053000,10.62105322265625,-1.481369972229004,1.3366940021514893,-1.2259999513626099
1781030536777581600,10.64058154296875,-1.3012720346450806,0.8842059969902039,0.7387409806251526
1781030536797109500,10.660109619140625,-1.2217919826507568,0.6290709972381592,1.4816570281982422
1781030536816637200,10.67963720703125,-1.2683370113372803,0.3841949999332428,3.5979249477386475
1781030536836161500,10.69916162109375,-1.2745139598846436,0.07400599867105484,5.582118034362793
1781030536855689000,10.71868896484375,-1.0591109991073608,-0.49396899342536926,7.506246089935303
1781030536875218200,10.73821826171875,-0.6322609782218933,-2.067878007888794,8.128722190856934
1781030536894748000,10.757747802734375,-0.04704299941658974,-3.7072079181671143,9.986045837402344
1781030536914280200,10.7772802734375,1.7282359600067139,-4.1791558265686035,12.063383102416992
1781030536933812000,10.79681201171875,2.162601947784424,-5.653878211975098,12.289491653442383
1781030536953339100,10.816339111328125,2.630009889602661,-5.952034950256348,12.3750581741333
1781030536972864300,10.8358642578125,4.20375919342041,-6.253532886505127,12.052623748779297
1781030536992388600,10.855388671875,4.157282829284668,-6.060794830322266,9.772939682006836
1781030537011913000,10.874912841796874,3.8348751068115234,-5.412262916564941,7.700119972229004
1781030537031435500,10.894435546875,3.2942709922790527,-4.660611152648926,6.89704704284668
1781030537050956800,10.913956787109376,2.5995020866394043,-2.860279083251953,5.005835056304932
1781030537070481700,10.933481689453124,2.5995020866394043,-2.860279083251953,5.005835056304932
1781030537090011000,10.953010986328126,1.0806269645690918,-2.856564998626709,3.9696569442749023
1781030537109539000,10.9725390625,1.2545809745788574,-2.9690029621124268,3.4251909255981445
1781030537129064700,10.992064697265626,1.2324999570846558,-3.053283929824829,2.8976941108703613
1781030537148593200,11.01159326171875,1.2324999570846558,-3.053283929824829,2.8976941108703613
1781030537168120800,11.031120849609374,1.2324999570846558,-3.053283929824829,2.8976941108703613
1781030537187644400,11.05064453125,0.9205909967422485,-3.098444938659668,3.5443010330200195
1781030537207174000,11.070173828125,0.9660099744796753,-2.6963460445404053,3.617889881134033
1781030537226705700,11.08970556640625,1.112697958946228,-2.241736888885498,3.5700950622558594
1781030537246230800,11.109230712890625,1.166077971458435,-1.780081033706665,3.3507819175720215
1781030537265755100,11.128755126953125,1.0541269779205322,-1.5497610569000244,2.9687559604644775
1781030537285282300,11.1482822265625,1.0772360563278198,-1.5578049421310425,2.4631190299987793
1781030537304809700,11.167809814453125,1.236307978630066,-1.535444974899292,1.891178011894226
1781030537324337700,11.187337646484375,1.236307978630066,-1.535444974899292,1.891178011894226
1781030537343867100,11.2068671875,1.2117149829864502,-0.879082977771759,0.9467210173606873
1781030537363396000,11.22639599609375,-0.3190799951553345,0.5955629944801331,0.6258059740066528
1781030537382924300,11.24592431640625,-1.9686670303344727,0.6485419869422913,0.17824199795722961
1781030537402454300,11.265454345703125,-1.9774030447006226,0.37893199920654297,-0.5221959948539734
1781030537421983200,11.284983154296874,-1.7130210399627686,0.14237500727176666,-2.5940608978271484
1781030537441508000,11.304508056640625,-1.2824510335922241,0.022304000332951546,-4.371828079223633
1781030537461028600,11.324028564453124,-0.9355019927024841,0.22042499482631683,-6.490758895874023
1781030537480549400,11.34354931640625,-1.053712010383606,0.6643080115318298,-6.906828880310059
1781030537500072400,11.363072509765624,-1.3639839887619019,0.9568279981613159,-8.657292366027832
1781030537519598000,11.38259814453125,-1.455786943435669,1.165382981300354,-8.886002540588379
1781030537539128000,11.402128173828125,-1.1666760444641113,1.5306440591812134,-10.165472984313965
1781030537558656800,11.42165673828125,0.8299270272254944,3.0896849632263184,-10.178393363952637
1781030537578181600,11.441181640625,1.2316969633102417,4.9479660987854,-10.214418411254883
1781030537597707300,11.460707275390625,1.771649956703186,6.829072952270508,-10.065078735351562
1781030537617233000,11.48023291015625,1.9247970581054688,8.471610069274902,-9.734546661376953
1781030537636762000,11.49976220703125,-0.4411199986934662,10.088418006896973,-9.572007179260254
1781030537656289300,11.519289306640625,-2.859339952468872,10.224714279174805,-9.652349472045898
1781030537675813000,11.538813232421875,-4.553617000579834,10.438627243041992,-10.571390151977539
1781030537695341800,11.558341796875,-4.791398048400879,10.322853088378906,-10.020223617553711
1781030537714870000,11.5778701171875,-4.656554222106934,9.772704124450684,-7.203125953674316
1781030537734401000,11.597401123046875,-4.168211936950684,7.758258819580078,-3.7455239295959473
1781030537753932800,11.616932861328126,-3.548780918121338,4.993844032287598,-0.38092300295829773
1781030537773461800,11.636461669921875,-2.0846850872039795,2.279681921005249,0.5716480016708374
1781030537792991200,11.6559912109375,-1.7073520421981812,-0.4747940003871918,1.5137840509414673
1781030537812521700,11.675521728515625,-1.0869829654693604,-2.4970130920410156,2.3151679039001465
1781030537832052000,11.695052001953124,-0.6776350140571594,-3.0048000812530518,3.043328046798706
1781030537851581000,11.714580810546876,-0.5392910242080688,-3.157291889190674,5.183267116546631
1781030537871110700,11.734110595703125,-0.4859029948711395,-2.9886019229888916,6.9199090003967285
1781030537890640000,11.753639892578125,-0.4859029948711395,-2.9886019229888916,6.9199090003967285
1781030537910166800,11.773166748046876,-0.32094600796699524,-2.832092046737671,10.275713920593262
1781030537929697300,11.792697265625,0.2551499903202057,-3.348172903060913,11.86819076538086
1781030537949230600,11.812230712890624,0.2551499903202057,-3.348172903060913,11.86819076538086
1781030537968763400,11.831763427734375,3.9729459285736084,-5.840459823608398,12.344388008117676
1781030537988295700,11.851295654296875,5.503713130950928,-6.318360805511475,10.35401725769043
1781030538007827000,11.870826904296875,5.3172478675842285,-6.3297600746154785,7.928164958953857
1781030538027358000,11.89035791015625,3.20306396484375,-5.855017185211182,6.023766994476318
1781030538046886700,11.90988671875,2.7182888984680176,-3.915482997894287,5.539240837097168
1781030538066415400,11.929415283203125,2.7182888984680176,-3.915482997894287,5.539240837097168
1781030538085946000,11.948946044921875,1.9830520153045654,-3.257056951522827,4.69643497467041
1781030538105475300,11.968475341796875,1.990170955657959,-3.1608829498291016,4.29900598526001
1781030538125000400,11.98800048828125,1.8414620161056519,-3.3767340183258057,3.8821609020233154
1781030538144527400,12.00752734375,1.54156494140625,-3.579463005065918,3.635978937149048
1781030538164056600,12.027056640625,1.2013039588928223,-3.5951619148254395,3.595608949661255
1781030538183583500,12.04658349609375,0.9831839799880981,-3.248253107070923,3.694524049758911
1781030538203107800,12.06610791015625,0.8634179830551147,-2.6079061031341553,3.8136889934539795
1781030538222631400,12.08563134765625,0.6935629844665527,-2.184051036834717,3.857862949371338
1781030538242161200,12.1051611328125,0.6433299779891968,-2.149250030517578,3.750746011734009
1781030538261692400,12.1246923828125,0.7084019780158997,-2.3590269088745117,3.354418992996216
1781030538281218000,12.144218017578124,0.8667799830436707,-2.632967948913574,2.712759017944336
1781030538300742000,12.163741943359375,1.2305370569229126,-2.568552017211914,1.9915460348129272
1781030538320268800,12.183268798828125,1.4269740581512451,-1.9854660034179688,1.3959009647369385
1781030538339795700,12.202795654296875,1.1337380409240723,0.09164199978113174,1.1502330303192139
1781030538359321600,12.222321533203125,-0.8172860145568848,0.6058340072631836,1.1315540075302124
1781030538378848800,12.241848876953124,-2.445107936859131,0.8965209722518921,0.8977760076522827
1781030538398378200,12.261378173828126,-2.2117719650268555,0.47976699471473694,0.3433069884777069
1781030538417908000,12.280907958984375,-1.8304250240325928,0.0851060003042221,-0.41611599922180176
1781030538437436200,12.300436279296875,-1.359853982925415,-0.22165900468826294,-2.2308080196380615
1781030538456964900,12.31996484375,-0.9082509875297546,-0.24797900021076202,-2.719839096069336
1781030538476493300,12.339493408203126,-1.168355941772461,0.061817001551389694,-3.2601969242095947
1781030538496020000,12.35902001953125,-1.4703660011291504,0.2686460018157959,-4.894717216491699
1781030538515547400,12.37854736328125,-1.111564040184021,0.4691849946975708,-5.333059787750244
1781030538535075300,12.398075439453125,0.5599139928817749,0.9105259776115417,-7.073936939239502
1781030538554604500,12.4176044921875,0.8214970231056213,2.6978719234466553,-7.271699905395508
1781030538574135000,12.437135009765624,1.1289570331573486,4.357273101806641,-8.627679824829102
1781030538593663700,12.456663818359376,1.0783820152282715,4.558775901794434,-8.691898345947266
1781030538613194800,12.47619482421875,0.6865910291671753,4.9321417808532715,-10.019083023071289
1781030538632729300,12.495729248046874,0.20149900019168854,5.3577470779418945,-10.189534187316895
1781030538652259800,12.515259765625,-0.1421789973974228,5.6093010902404785,-11.466423988342285
1781030538671783400,12.534783447265625,-0.455720990896225,5.616569995880127,-11.130677223205566
1781030538691307800,12.554307861328125,-0.814454972743988,5.266898155212402,-10.398273468017578
1781030538710831400,12.573831298828125,-1.0685739517211914,4.646399974822998,-8.174306869506836
1781030538730356200,12.593356201171876,-1.1815390586853027,3.8958640098571777,-7.3208842277526855
1781030538749886700,12.61288671875,-1.135179042816162,3.073577880859375,-5.198160171508789
1781030538769412900,12.632412841796874,-1.135179042816162,3.073577880859375,-5.198160171508789
1781030538788936400,12.6519365234375,-1.0633920431137085,1.861464023590088,-2.0599820613861084
1781030538808465400,12.67146533203125,-1.0633920431137085,1.861464023590088,-2.0599820613861084
1781030538827997700,12.690997802734374,-1.0633920431137085,1.861464023590088,-2.0599820613861084
1781030538847528200,12.710528076171874,-1.9925340414047241,0.34837600588798523,4.421780109405518
1781030538867050800,12.73005078125,-1.9678720235824585,-0.16721899807453156,4.775294780731201
1781030538886571300,12.7495712890625,-1.4830230474472046,-0.5537149906158447,6.94637393951416
1781030538906093800,12.76909375,-0.9574049711227417,-1.1208750009536743,7.614785194396973
1781030538925617700,12.78861767578125,-0.520451009273529,-1.7624109983444214,8.20849609375
1781030538945143000,12.80814306640625,1.2673779726028442,-3.583307981491089,10.167214393615723
1781030538964666400,12.827666259765625,3.1935579776763916,-3.8926429748535156,10.47060775756836
1781030538984189000,12.84718896484375,3.5974130630493164,-4.121427059173584,10.27570915222168
1781030539003712300,12.866712158203125,4.015804767608643,-4.172298908233643,9.91239070892334
1781030539023237000,12.886237060546875,4.043788909912109,-3.9522929191589355,9.288816452026367
1781030539042764500,12.9057646484375,3.6415200233459473,-3.7656140327453613,7.144233226776123
1781030539062289000,12.925288818359375,3.064892053604126,-3.607232093811035,5.3704729080200195
1781030539081816600,12.944816650390624,2.6370038986206055,-3.381139039993286,4.665633201599121
1781030539101350000,12.964349853515625,2.1316680908203125,-3.2060739994049072,2.903657913208008
1781030539120882200,12.983882080078125,1.5440109968185425,-3.038784980773926,2.4168059825897217
1781030539140413000,13.003412841796875,0.9705219864845276,-2.92598295211792,2.1188440322875977
1781030539159939000,13.02293896484375,0.486625999212265,-2.9742889404296875,1.9971519708633423
1781030539179461000,13.042461181640626,0.3891429901123047,-3.138413906097412,2.023266077041626
1781030539198987000,13.061987060546874,0.6142789721488953,-3.256201982498169,2.26357102394104
1781030539218512100,13.08151220703125,1.0396970510482788,-3.1056571006774902,3.753835916519165
1781030539238034000,13.101033935546875,1.5412989854812622,-2.5631120204925537,3.7317559719085693
1781030539257558000,13.12055810546875,1.7939729690551758,-1.9026410579681396,3.8305039405822754
1781030539277081600,13.14008154296875,1.6914509534835815,-1.4305249452590942,3.8800079822540283
1781030539296603600,13.159603759765625,1.4114799499511719,-1.312952995300293,3.712773084640503
1781030539316123100,13.179123046875,1.142130970954895,-1.5172109603881836,3.364840030670166
1781030539335649000,13.19864892578125,0.9628409743309021,-1.722409963607788,2.9133501052856445
1781030539355174700,13.218174560546874,1.105180025100708,-1.6055959463119507,2.411607027053833
1781030539374696400,13.237696533203126,0.9955019950866699,-1.1579090356826782,1.8733530044555664
1781030539394221300,13.25722119140625,-0.6060879826545715,-0.7466880083084106,1.197975993156433
1781030539413746200,13.27674609375,-0.797540009021759,-0.4584159851074219,0.4870010018348694
1781030539433270500,13.2962705078125,-2.4508659839630127,-0.17994900047779083,-1.3794209957122803
1781030539452796200,13.315796142578124,-2.6306700706481934,-0.25467899441719055,-1.756203055381775
1781030539472325400,13.335325439453126,-2.644118070602417,-0.3449540138244629,-2.327483892440796
1781030539491855600,13.354855712890625,-2.6081290245056152,-0.24537700414657593,-4.1539812088012695
1781030539511382000,13.374382080078124,-2.5132429599761963,-0.4226360023021698,-5.704224109649658
1781030539530910500,13.393910400390626,-2.5132429599761963,-0.4226360023021698,-5.704224109649658
1781030539550436400,13.413436279296874,-0.49764901399612427,-0.14139199256896973,-8.970657348632812
1781030539569964300,13.43296435546875,1.3519840240478516,0.4049769937992096,-9.283319473266602
1781030539589498400,13.452498291015624,1.3519840240478516,0.4049769937992096,-9.283319473266602
1781030539609029000,13.472029052734374,2.023844003677368,3.745481014251709,-10.339881896972656
1781030539628557600,13.4915576171875,2.023844003677368,3.745481014251709,-10.339881896972656
1781030539648087300,13.51108740234375,2.023844003677368,3.745481014251709,-10.339881896972656
1781030539667617500,13.530617431640625,-0.5505920052528381,7.677692890167236,-13.847358703613281
1781030539687149300,13.5501494140625,-0.5505920052528381,7.677692890167236,-13.847358703613281
1781030539706686200,13.569686279296874,-1.8156429529190063,7.59675407409668,-12.787447929382324
1781030539726221300,13.58922119140625,-2.027672052383423,6.925440788269043,-8.882831573486328
1781030539745747200,13.608747314453124,-1.8863470554351807,4.293478012084961,-4.684010982513428
1781030539765270800,13.628270751953124,-1.6610490083694458,1.9845010042190552,-1.2683260440826416
1781030539784797400,13.64779736328125,-1.3185720443725586,-0.06884799897670746,-0.40192699432373047
1781030539804325600,13.66732568359375,-1.164971947669983,-0.5238339900970459,0.3320609927177429
1781030539823855900,13.68685595703125,-1.401278018951416,-0.683085024356842,0.6734579801559448
1781030539843387000,13.706386962890624,-1.6486910581588745,-0.40397000312805176,1.157014012336731
1781030539862914800,13.725914794921875,-1.8177059888839722,-0.1363310068845749,3.257369041442871
1781030539882441700,13.745441650390624,-1.8627320528030396,-0.11908400058746338,6.917022228240967
1781030539901970400,13.764970458984376,-1.4064619541168213,-1.6866400241851807,9.3600435256958
1781030539921500200,13.784500244140625,0.45304399728775024,-3.518101930618286,11.098779678344727
1781030539941028600,13.804028564453125,1.0138130187988281,-3.9520668983459473,11.32151985168457
1781030539960554800,13.8235546875,2.6995460987091064,-5.777340888977051,11.09065055847168
1781030539980081400,13.843081298828125,4.648014068603516,-6.079090118408203,10.652689933776855
1781030539999607800,13.86260791015625,4.320602893829346,-6.184770107269287,8.780738830566406
1781030540019135500,13.882135498046875,3.8534250259399414,-5.854238033294678,6.7593231201171875
1781030540038663700,13.90166357421875,3.6917738914489746,-5.371748924255371,6.393505096435547
1781030540058186200,13.921186279296874,2.028578042984009,-3.3420519828796387,4.144378185272217
1781030540077705500,13.94070556640625,1.807507038116455,-2.7812609672546387,3.568593978881836
1781030540097229600,13.9602294921875,1.729686975479126,-2.7338991165161133,3.0786919593811035
1781030540116755000,13.9797548828125,1.5194239616394043,-2.7532529830932617,2.6753780841827393
1781030540136277500,13.999277587890624,1.4237489700317383,-2.9452641010284424,2.544964075088501
1781030540155801900,14.0188017578125,1.331307053565979,-3.218928098678589,2.7441649436950684
1781030540175327700,14.03832763671875,1.3629239797592163,-3.1371591091156006,3.1033220291137695
1781030540194850000,14.05785009765625,1.03752601146698,-2.872859001159668,3.408051013946533
1781030540214374700,14.077374755859376,0.857574999332428,-2.646509885787964,3.4599719047546387
1781030540233897000,14.09689697265625,1.2546279430389404,-2.4134769439697266,3.302016019821167
1781030540253419300,14.116419189453126,1.4248559474945068,-2.1964359283447266,2.9578640460968018
1781030540272946200,14.1359462890625,1.4879070520401,-2.118803024291992,2.5850939750671387
1781030540292472300,14.155472412109376,1.3608789443969727,-2.047358989715576,2.2799999713897705
1781030540311998700,14.174998779296875,0.9039469957351685,-1.6695760488510132,1.8509939908981323
1781030540331523800,14.19452392578125,0.7400640249252319,-1.2388770580291748,1.3916449546813965
1781030540351047700,14.214047607421875,0.7216560244560242,-0.6456699967384338,0.8780959844589233
1781030540370576400,14.233576416015625,0.7216560244560242,-0.6456699967384338,0.8780959844589233
1781030540390105000,14.25310498046875,-1.1829830408096313,0.2809480130672455,-1.8942279815673828
1781030540409632300,14.27263232421875,-1.3939870595932007,0.3466159999370575,-2.331048011779785
1781030540429158100,14.292158203125,-1.3939870595932007,0.3466159999370575,-2.331048011779785
1781030540448681200,14.31168115234375,-1.7752399444580078,0.01234699971973896,-4.964962959289551
1781030540468202800,14.33120263671875,-1.7752399444580078,0.01234699971973896,-4.964962959289551
1781030540487724800,14.350724853515626,-1.3719680309295654,0.511326014995575,-7.519239902496338
1781030540507250400,14.37025048828125,-1.3851300477981567,0.7038149833679199,-9.116665840148926
1781030540526776000,14.389776123046875,-1.1937919855117798,0.9717730283737183,-10.499165534973145
1781030540546302000,14.409302001953124,0.43971601128578186,1.4258559942245483,-10.687912940979004
1781030540565830400,14.428830322265625,2.7091429233551025,3.4529879093170166,-10.731335639953613
1781030540585357800,14.44835791015625,3.1969900131225586,7.220745086669922,-10.277095794677734
1781030540604884200,14.46788427734375,3.009320020675659,9.935068130493164,-8.069740295410156
1781030540624407300,14.4874072265625,-0.3352479934692383,11.469738960266113,-7.5063958168029785
1781030540643927800,14.506927734375,-3.827502965927124,11.13519287109375,-8.613308906555176
1781030540663451400,14.526451416015625,-5.700557231903076,10.984947204589844,-11.357176780700684
1781030540682979800,14.545979736328125,-5.938887119293213,10.831561088562012,-12.781484603881836
1781030540702507000,14.565507080078126,-5.937718868255615,10.388970375061035,-12.07228946685791
1781030540722029000,14.585029052734376,-4.010570049285889,10.123159408569336,-7.959178924560547
1781030540741546800,14.604546630859375,-2.0960700511932373,7.429728984832764,-2.297416925430298
1781030540761067500,14.624067626953124,-1.843587040901184,3.776189088821411,2.08734393119812
1781030540780590000,14.643590087890624,-1.9015179872512817,0.08243399858474731,4.130216121673584
1781030540800110600,14.663110595703126,-1.9969539642333984,-3.5759170055389404,4.4861249923706055
1781030540819635000,14.682635009765624,-1.9371880292892456,-5.404094219207764,4.398270130157471
1781030540839160000,14.70216015625,-1.5353009700775146,-5.672056198120117,4.230885982513428
1781030540858685000,14.721684814453125,0.04747899994254112,-5.6726508140563965,4.720440864562988
1781030540878203400,14.741203369140624,0.4120819866657257,-3.7302310466766357,7.194733142852783
1781030540897726200,14.760726318359374,0.3609060049057007,-3.6202540397644043,10.920175552368164
1781030540917256200,14.780256103515624,0.18034900724887848,-3.780734062194824,12.948986053466797
1781030540936781300,14.79978125,0.3667890131473541,-5.593457221984863,13.052927017211914
1781030540956307000,14.819306884765625,2.1583659648895264,-7.6051530838012695,12.746082305908203
1781030540975832800,14.838832763671874,4.2510600090026855,-7.728810787200928,10.677324295043945
1781030540995354400,14.858354248046876,4.440374851226807,-7.5646867752075195,8.565043449401855
1781030541014875600,14.877875732421876,4.079491138458252,-5.47609281539917,6.070016860961914
1781030541034401300,14.8974013671875,2.0270779132843018,-4.94937801361084,5.446045875549316
1781030541053931500,14.916931640625,0.1793300062417984,-4.244388103485107,3.4966681003570557
1781030541073464000,14.936464111328124,0.25265800952911377,-3.7108500003814697,3.059324026107788
1781030541092995000,14.9559951171875,0.6692190170288086,-3.5895190238952637,2.9293251037597656
1781030541112520400,14.9755205078125,1.0606820583343506,-3.566102981567383,3.118462085723877
1781030541132046600,14.995046630859376,1.2818050384521484,-3.7130239009857178,3.4568839073181152
1781030541151571500,15.014571533203124,1.1945589780807495,-3.7901229858398438,3.723331928253174
1781030541171099000,15.034098876953125,1.2340749502182007,-3.7982289791107178,3.7822558879852295
1781030541190629600,15.053629638671875,1.2340749502182007,-3.7982289791107178,3.7822558879852295
1781030541210161400,15.073161376953125,1.952288031578064,-3.28006911277771,3.891179084777832
1781030541229694700,15.09269482421875,1.952288031578064,-3.28006911277771,3.891179084777832
1781030541249227500,15.1122275390625,1.6386330127716064,-2.5224220752716064,4.45605993270874
1781030541268755000,15.1317548828125,0.1567620038986206,-1.9923540353775024,3.7078840732574463
1781030541288280800,15.15128076171875,0.1567620038986206,-1.9923540353775024,3.7078840732574463
1781030541307802600,15.170802734375,-0.09647700190544128,-1.718945026397705,2.836599111557007
1781030541327315700,15.190315673828126,0.13330599665641785,-1.116068959236145,2.090341091156006
1781030541346836000,15.2098359375,-0.10066100209951401,-0.370728999376297,1.2975870370864868
1781030541366362000,15.229362060546874,-1.5447289943695068,-0.06094000115990639,-0.6946189999580383
1781030541385886000,15.248885986328125,-1.5706590414047241,0.055403999984264374,-1.3362400531768799
1781030541405408000,15.268407958984374,-1.63303804397583,0.19195500016212463,-3.3607919216156006
1781030541424933600,15.28793359375,-1.5873980522155762,0.29899001121520996,-5.33592414855957
1781030541444459300,15.307459228515626,-1.4294110536575317,0.8065580129623413,-6.938601970672607
1781030541463984000,15.326984130859374,-1.2298829555511475,1.396267056465149,-8.74077033996582
1781030541483510800,15.3465107421875,-0.7548750042915344,1.7626539468765259,-9.062117576599121
1781030541503040300,15.366040283203125,1.1156879663467407,2.249269962310791,-10.611967086791992
1781030541522572300,15.385572265625,1.7195130586624146,4.0405778884887695,-12.069750785827637
1781030541542102000,15.40510205078125,2.046097993850708,5.903192043304443,-13.59300708770752
1781030541561627100,15.424627197265625,1.7753709554672241,7.537236213684082,-13.468162536621094
1781030541581153800,15.44415380859375,-0.02990799956023693,9.184701919555664,-13.478734970092773
1781030541600684500,15.4636845703125,-0.38518500328063965,9.000937461853027,-13.3721923828125
1781030541620213200,15.483213134765625,-0.9049080014228821,7.172057151794434,-12.954668045043945
1781030541639738600,15.502738525390624,-1.2857929468154907,6.742088794708252,-10.916143417358398
1781030541659263000,15.522262939453125,-1.1882100105285645,6.070237159729004,-6.996580123901367
1781030541678785800,15.541785888671875,-0.8636710047721863,4.165046215057373,-4.44926118850708
1781030541698308600,15.56130859375,-0.7659180164337158,3.4367759227752686,-1.9400349855422974
1781030541717833200,15.580833251953125,-0.9657649993896484,1.4177219867706299,-0.13961000740528107
1781030541737355800,15.600355712890625,-1.4965920448303223,0.9649819731712341,0.37193599343299866
1781030541756875800,15.619875732421875,-2.0115909576416016,0.619271993637085,2.722862958908081
1781030541776397000,15.63939697265625,-2.0652730464935303,0.4772549867630005,4.617218017578125
1781030541795920600,15.658920654296875,-1.582190990447998,0.1842450052499771,7.396477222442627
1781030541815446500,15.678446533203125,-0.9784939885139465,-0.4473879933357239,9.596166610717773
1781030541834972400,15.697972412109374,0.9529860019683838,-2.6368141174316406,10.163641929626465
1781030541854495500,15.71749560546875,2.3822360038757324,-4.880669116973877,10.771045684814453
1781030541874015200,15.73701513671875,2.7835450172424316,-5.505652904510498,10.996861457824707
1781030541893538800,15.756538818359376,4.543952941894531,-5.864480972290039,11.012662887573242
1781030541913064200,15.776064208984375,4.307094097137451,-5.63084077835083,10.78338623046875
1781030541932586800,15.795586669921875,3.6917929649353027,-5.056410789489746,10.161075592041016
1781030541952106800,15.815106689453126,3.0597989559173584,-4.701448917388916,8.369475364685059
1781030541971626200,15.834626220703125,2.5143818855285645,-4.658966064453125,7.758155822753906
1781030541991154700,15.85415478515625,2.601914882659912,-4.679434776306152,5.832420825958252
1781030542010688500,15.8736884765625,3.0097570419311523,-4.538535118103027,5.046802043914795
1781030542030218800,15.89321875,3.0097570419311523,-4.538535118103027,5.046802043914795
1781030542049746700,15.91274658203125,2.714543104171753,-3.7898590564727783,3.9419078826904297
1781030542069273600,15.932273681640625,2.714543104171753,-3.7898590564727783,3.9419078826904297
1781030542088801000,15.951801025390624,0.4720480144023895,-3.368849992752075,3.7182021141052246
1781030542108330500,15.97133056640625,0.4720480144023895,-3.368849992752075,3.7182021141052246
1781030542127860700,15.99086083984375,0.5851119756698608,-3.2632060050964355,4.149473190307617
1781030542147386000,16.01038623046875,0.8309230208396912,-3.167984962463379,4.308395862579346
1781030542166911500,16.029911376953127,0.8715860247612,-3.015444040298462,4.462225914001465
1781030542186442200,16.049442138671875,0.8715860247612,-3.015444040298462,4.462225914001465
1781030542205970700,16.068970703125,0.3006719946861267,-2.9177699089050293,4.175875186920166
1781030542225498000,16.088498046875,0.12416800111532211,-2.474721908569336,3.6132149696350098
1781030542245027300,16.10802734375,0.11818599700927734,-1.8984750509262085,2.691257953643799
1781030542264555300,16.12755517578125,-0.0036619999445974827,-1.3100719451904297,1.7507669925689697
1781030542284080400,16.147080322265627,-0.42052701115608215,-0.9230129718780518,0.9084770083427429
1781030542303604200,16.166604248046873,-1.8891509771347046,-0.9129949808120728,-0.04685499891638756
1781030542323133000,16.1861328125,-2.0640649795532227,-0.8098049759864807,-1.9563390016555786
1781030542342667000,16.2056669921875,-2.0220229625701904,-0.5810920000076294,-4.038441181182861
1781030542362199300,16.22519921875,-1.7214850187301636,-0.27470898628234863,-4.618799209594727
1781030542381727200,16.244727294921876,-1.472445011138916,-0.06425199657678604,-5.236079216003418
1781030542401256700,16.264256591796876,-1.2344269752502441,-0.2563270032405853,-5.655625820159912
1781030542420790300,16.283790283203125,-0.9721360206604004,-0.7366160154342651,-6.105882167816162
1781030542440325400,16.303325439453126,-0.9083600044250488,-1.2133079767227173,-6.567607879638672
1781030542459857400,16.322857421875,-1.1923350095748901,-1.2151750326156616,-6.9251298904418945
1781030542479388200,16.34238818359375,-1.7932050228118896,-0.691091001033783,-7.086831092834473
1781030542498920700,16.361920654296874,-2.131927967071533,0.8902000188827515,-6.8902268409729
1781030542518449700,16.38144970703125,-1.6906330585479736,2.900331974029541,-6.392352104187012
1781030542537976600,16.4009765625,-0.11535300314426422,3.0636489391326904,-5.571828842163086
1781030542557506300,16.42050634765625,0.12424799799919128,3.1387269496917725,-4.606095790863037
1781030542577040000,16.440039794921876,-0.05130400136113167,3.0443859100341797,-2.81998610496521
1781030542596568300,16.459568359375,-0.3527059853076935,2.5724129676818848,-2.2767460346221924
1781030542616093400,16.479093505859375,1.3107329607009888,2.1064798831939697,-2.0505220890045166
1781030542635626800,16.498626708984375,8.059758186340332,2.274946928024292,-7.506062984466553
1781030542655159300,16.5181591796875,3.0445570945739746,4.716832160949707,-10.207100868225098
1781030542674683600,16.53768359375,-4.006136894226074,2.540700912475586,-8.041341781616211
1781030542694215000,16.55721484375,-3.66133189201355,2.258538007736206,-12.466998100280762
1781030542713746400,16.576746337890626,-5.89287805557251,0.5428599715232849,-9.802079200744629
1781030542733276000,16.59627587890625,-1.508316993713379,0.09254299849271774,-7.137486934661865
1781030542752810000,16.61581005859375,1.0049420595169067,2.2974109649658203,-7.092929840087891
1781030542772338000,16.635337890625,-4.4856672286987305,2.5173020362854004,-0.40230798721313477
1781030542791863600,16.654863525390624,-9.117634773254395,2.444066047668457,6.091176986694336
1781030542811393500,16.6743935546875,-8.809836387634277,0.7355660200119019,11.680927276611328
1781030542830927000,16.693927001953124,-3.1391520500183105,0.4355599880218506,15.36099910736084
1781030542850466800,16.713466796875,-3.1391520500183105,0.4355599880218506,15.36099910736084
1781030542870010400,16.73301025390625,-2.2207019329071045,-3.368772029876709,21.2666015625
1781030542889553200,16.75255322265625,-2.0418949127197266,-3.5488460063934326,21.327835083007812
1781030542909089500,16.772089599609377,-2.2945570945739746,-3.4650790691375732,18.088966369628906
1781030542928624600,16.791624755859374,-2.2945570945739746,-3.4650790691375732,18.088966369628906
1781030542948163800,16.811163818359375,-2.2945570945739746,-3.4650790691375732,18.088966369628906
1781030542967705000,16.830705078125,-1.9539610147476196,-1.2628710269927979,8.496785163879395
1781030542987247000,16.8502470703125,-2.1677350997924805,-1.1073700189590454,7.814639091491699
1781030543006786300,16.869786376953126,-2.2067110538482666,-1.2881159782409668,7.899961948394775
1781030543026325800,16.88932568359375,-1.8246129751205444,-1.484017014503479,9.097031593322754
1781030543045865700,16.90886572265625,-1.3843660354614258,-1.5287480354309082,8.76547908782959
1781030543065401600,16.928401611328123,-1.3489949703216553,-1.3393199443817139,8.190912246704102
1781030543084939300,16.947939208984376,-3.152045965194702,-1.0905519723892212,7.71221399307251
1781030543104480500,16.96748046875,-2.983449935913086,-0.7114070057868958,7.496356964111328
1781030543124022500,16.9870224609375,-2.3519299030303955,-0.07451999932527542,7.31336784362793
1781030543143561000,17.00656103515625,-1.6489410400390625,0.5371509790420532,8.47638988494873
1781030543163098400,17.026098388671876,-1.0338579416275024,1.105963945388794,8.062100410461426
1781030543182633200,17.04563330078125,-0.918720006942749,1.446463942527771,7.326336860656738
1781030543202160600,17.06516064453125,-1.1297509670257568,1.405061960220337,6.296751022338867
1781030543221692700,17.084692626953125,-1.07915198802948,1.1696449518203735,4.011997222900391
1781030543241225200,17.10422509765625,-0.5416849851608276,0.911641001701355,3.0261330604553223
1781030543260758300,17.12375830078125,0.12948599457740784,0.5594769716262817,2.0435891151428223
1781030543280300800,17.14330078125,0.1702760010957718,-1.3225619792938232,0.05760499835014343
1781030543299846000,17.162845947265627,-1.2374030351638794,-1.9618079662322998,-1.8802180290222168
1781030543319390700,17.182390625,-1.180446982383728,-3.471414089202881,-3.888957977294922
1781030543338930400,17.201930419921876,-0.6711969971656799,-3.5614919662475586,-5.72585916519165
1781030543358465000,17.221465087890625,1.0141769647598267,-2.093822956085205,-7.830016136169434
1781030543378000100,17.241000244140626,1.2323659658432007,-0.08627299964427948,-9.430458068847656
1781030543397539300,17.260539306640624,1.2710720300674438,0.12222100049257278,-9.75075912475586
1781030543417079300,17.280079345703125,0.9460430145263672,0.29534998536109924,-10.183289527893066
1781030543436617000,17.299616943359375,2.723115921020508,0.8409259915351868,-10.123393058776855
1781030543456155000,17.31915478515625,5.540022850036621,2.7880349159240723,-9.701155662536621
1781030543475692300,17.3386923828125,5.809078216552734,4.65850305557251,-9.60374641418457
1781030543495233000,17.35823291015625,5.773719787597656,7.391788959503174,-9.723334312438965
1781030543514775000,17.377775146484375,3.7925260066986084,8.146739959716797,-10.946730613708496
1781030543534319900,17.39731982421875,3.5164079666137695,8.598053932189941,-12.249853134155273
1781030543553868500,17.41686865234375,3.7006309032440186,8.671292304992676,-13.556479454040527
1781030543573416700,17.436416748046874,4.64611291885376,8.627436637878418,-15.584516525268555
1781030543592960500,17.45596044921875,3.9568769931793213,6.928925037384033,-15.477032661437988
1781030543612501500,17.47550146484375,1.6657049655914307,4.8427300453186035,-14.634313583374023
1781030543632041700,17.495041748046877,0.9848480224609375,1.722733974456787,-11.784793853759766
1781030543651583500,17.51458349609375,0.5969859957695007,-0.279338002204895,-7.375448226928711
1781030543671127300,17.534127197265626,0.8044080138206482,-1.9956409931182861,-4.639080047607422
1781030543690669300,17.55366943359375,0.8044080138206482,-1.9956409931182861,-4.639080047607422
1781030543710212400,17.57321240234375,-1.2537879943847656,-0.19014599919319153,-2.9828848838806152
1781030543729753000,17.592753173828125,-1.7040009498596191,0.18389999866485596,-0.5671330094337463
1781030543749289000,17.6122890625,-3.541425943374634,1.6739050149917603,0.46845901012420654
1781030543768824000,17.631823974609375,-4.042562961578369,2.021075963973999,3.0155320167541504
1781030543788361700,17.65136181640625,-4.042562961578369,2.021075963973999,3.0155320167541504
1781030543807901200,17.670901123046875,-4.372591018676758,1.7700270414352417,10.29655647277832
1781030543827434000,17.69043408203125,-2.660768985748291,1.2005430459976196,12.213167190551758
1781030543846960000,17.709960205078126,-2.660768985748291,1.2005430459976196,12.213167190551758
1781030543866488800,17.72948876953125,-1.8523969650268555,0.41025999188423157,15.9337797164917
1781030543886018000,17.74901806640625,-1.8175439834594727,0.6063550114631653,15.885016441345215
1781030543905555700,17.7685556640625,-1.9022630453109741,0.9363769888877869,15.66077995300293
1781030543925098800,17.7880986328125,-2.069040060043335,0.9371200203895569,15.13643741607666
1781030543944632600,17.807632568359374,-1.9270490407943726,0.7107459902763367,12.849871635437012
1781030543964165600,17.82716552734375,-1.5123670101165771,0.27263298630714417,10.746916770935059
1781030543983697400,17.846697509765626,-1.425307035446167,-0.395906001329422,8.568740844726562
1781030544003228200,17.866228271484374,-1.7256499528884888,-1.9160579442977905,7.61530876159668
1781030544022762500,17.885762451171875,-2.208287000656128,-2.231987953186035,6.5495147705078125
1781030544042296000,17.905296142578123,-2.584005117416382,-2.5770680904388428,5.7474517822265625
1781030544061827000,17.9248271484375,-2.4477341175079346,-2.763835906982422,5.27897310256958
1781030544081361400,17.944361328125,-2.0323939323425293,-2.681535005569458,5.1275811195373535
1781030544100901000,17.963901123046874,-1.6758960485458374,-2.40802001953125,5.249443054199219
1781030544120445000,17.98344482421875,-1.53221595287323,-1.9135359525680542,5.371397018432617
1781030544139985200,18.002985107421875,-1.5751839876174927,-1.3775030374526978,5.562012195587158
1781030544159522600,18.0225224609375,-1.4863799810409546,-0.9622470140457153,5.705389976501465
1781030544179057700,18.0420576171875,-1.0690330266952515,-0.7126250267028809,5.605154991149902
1781030544198593000,18.061593017578126,-0.5104380249977112,-0.6726869940757751,5.327814102172852
1781030544218132500,18.081132568359376,-0.04262299835681915,-0.7258309721946716,4.6737871170043945
1781030544237670400,18.10067041015625,0.15282100439071655,-0.7310699820518494,2.2522599697113037
1781030544257208600,18.12020849609375,0.3872169852256775,-0.5269870162010193,-0.0030759999062865973
1781030544276751000,18.139751220703126,0.6366369724273682,-0.3431130051612854,-0.8295019865036011
1781030544296291600,18.15929150390625,0.47613000869750977,-0.29270100593566895,-2.793144941329956
1781030544315827000,18.178826904296876,-1.191370964050293,-0.42337000370025635,-3.5945401191711426
1781030544335363000,18.198363037109374,-1.285120964050293,-0.8542050123214722,-4.391026973724365
1781030544354900700,18.217900634765623,-1.2414729595184326,-1.252668023109436,-6.302612781524658
1781030544374437600,18.237437744140625,-0.7101430296897888,-1.5893759727478027,-6.9344987869262695
1781030544393974800,18.256974853515626,1.4440490007400513,-1.723399043083191,-8.374227523803711
1781030544413514500,18.276514404296876,2.0178959369659424,-1.7033840417861938,-8.813901901245117
1781030544433053700,18.2960537109375,2.4441099166870117,-1.671759009361267,-10.345806121826172
1781030544452589000,18.315589111328126,3.9591310024261475,-1.279405951499939,-11.81661319732666
1781030544472115700,18.33511572265625,5.95187520980835,0.5139179825782776,-13.397236824035645
1781030544491640300,18.354640380859376,5.555978775024414,2.850580930709839,-13.504075050354004
1781030544511165200,18.374165283203126,2.60813307762146,6.259753227233887,-13.424570083618164
1781030544530690600,18.393690673828125,0.48077699542045593,8.307982444763184,-13.13852310180664
1781030544550229800,18.413229736328127,-1.4254330396652222,8.890575408935547,-12.824374198913574
1781030544569775900,18.43277587890625,-1.4254330396652222,8.890575408935547,-12.824374198913574
1781030544589320200,18.4523203125,-1.055325984954834,5.190277099609375,-17.011648178100586
1781030544608861200,18.471861083984376,-1.0779930353164673,1.2297379970550537,-16.14927101135254
1781030544628399900,18.49139990234375,-1.0779930353164673,1.2297379970550537,-16.14927101135254
1781030544647937500,18.5109375,-1.0779930353164673,1.2297379970550537,-16.14927101135254
1781030544667474400,18.530474365234376,3.5195229053497314,-2.6039419174194336,-5.005512237548828
1781030544687011800,18.55001171875,0.9533920288085938,-0.5908539891242981,-1.1341749429702759
1781030544706550300,18.56955029296875,-3.1003360748291016,-0.00447099981829524,-0.3673110008239746
1781030544726091800,18.589091796875,-4.795057773590088,2.0887839794158936,-0.18451599776744843
1781030544745634600,18.608634521484376,-4.536604881286621,3.8144679069519043,0.1984879970550537
1781030544765173200,18.62817333984375,-4.187024116516113,3.5559749603271484,2.4080629348754883
1781030544784712200,18.647712158203124,-4.2669901847839355,3.1815719604492188,5.58559513092041
1781030544804246500,18.66724658203125,-3.8327720165252686,1.5313160419464111,10.344747543334961
1781030544823780400,18.6867802734375,-2.0000860691070557,0.11775799840688705,12.560112953186035
1781030544843319800,18.70631982421875,0.08821500092744827,0.43710198998451233,14.451034545898438
1781030544862860800,18.72586083984375,0.15867400169372559,0.5967090129852295,14.94388484954834
1781030544882399200,18.745399169921875,-1.80805504322052,0.9421669840812683,14.91574764251709
1781030544901935900,18.764935791015624,-2.244844913482666,1.2127530574798584,14.7324800491333
1781030544921471700,18.7844716796875,-2.5549089908599854,1.063843011856079,14.387802124023438
1781030544941004000,18.804004150390625,-2.428009033203125,0.6375300288200378,12.21039867401123
1781030544960537600,18.82353759765625,-1.8868260383605957,-0.8129370212554932,10.087779998779297
1781030544980072700,18.84307275390625,-0.3460099995136261,-1.1126569509506226,7.916193962097168
1781030544999606300,18.862606201171875,-0.14367100596427917,-1.3725919723510742,7.142100811004639
1781030545019139600,18.8821396484375,-0.24255700409412384,-1.5440260171890259,6.332920074462891
1781030545038677200,18.90167724609375,-0.6798790097236633,-1.6125340461730957,5.8027448654174805
1781030545058219000,18.921218994140624,-1.2081949710845947,-1.611395001411438,5.60497522354126
1781030545077763600,18.940763671875,-1.6149389743804932,-1.5270249843597412,5.692429065704346
1781030545097307100,18.96030712890625,-1.526658058166504,-1.295071005821228,6.657145977020264
1781030545116842500,18.979842529296874,-1.0549559593200684,-0.9468680024147034,6.4156718254089355
1781030545136376800,18.999376953125,-0.5050950050354004,-0.5855349898338318,6.171357154846191
1781030545155919400,19.01891943359375,-0.28127700090408325,-0.3238070011138916,6.040389060974121
1781030545175463000,19.038462890625,-0.37147200107574463,-0.22569899260997772,5.98356294631958
1781030545194998800,19.057998779296874,-0.5833560228347778,-0.23974399268627167,5.888566017150879
1781030545214535400,19.077535400390627,-0.6598209738731384,-0.1603659987449646,5.323898792266846
1781030545234071800,19.09707177734375,-0.34797200560569763,-0.04377499967813492,2.7390921115875244
1781030545253603800,19.116603759765624,0.1475760042667389,0.028826000168919563,0.14991599321365356
1781030545273142000,19.13614208984375,0.5506929755210876,0.03348900005221367,-2.314121961593628
1781030545292681200,19.15568115234375,0.3189449906349182,-0.4194130003452301,-3.0548219680786133
1781030545312215800,19.1752158203125,-1.1777470111846924,-1.1334370374679565,-4.931240081787109
1781030545331751400,19.19475146484375,-1.00205397605896,-1.5954630374908447,-5.470273017883301
1781030545351289300,19.214289306640627,-0.38443800806999207,-1.7506760358810425,-6.029057025909424
1781030545370827800,19.233827880859376,-0.38443800806999207,-1.7506760358810425,-6.029057025909424
1781030545390369000,19.253369140625,1.5996140241622925,-0.7555050253868103,-9.40059757232666
1781030545409913900,19.272913818359374,1.243988037109375,-0.22585700452327728,-10.848403930664062
1781030545429460500,19.29246044921875,1.243988037109375,-0.22585700452327728,-10.848403930664062
1781030545449005300,19.31200537109375,1.243988037109375,-0.22585700452327728,-10.848403930664062
1781030545468545000,19.331544921875,3.908236026763916,-0.19851699471473694,-13.02188491821289
1781030545488088300,19.35108837890625,3.908236026763916,-0.19851699471473694,-13.02188491821289
1781030545507627500,19.37062744140625,7.024579048156738,2.326664924621582,-14.458198547363281
1781030545527161900,19.390161865234376,6.660737037658691,4.390077114105225,-14.255111694335938
1781030545546703600,19.40970361328125,3.5024540424346924,4.9409589767456055,-14.147555351257324
1781030545566248200,19.429248291015625,0.17663200199604034,5.283448219299316,-15.246162414550781
1781030545585791000,19.448791015625,-1.7512060403823853,3.7191429138183594,-16.138778686523438
1781030545605336000,19.468336181640623,-1.9248930215835571,1.517117977142334,-15.652414321899414
1781030545624882400,19.48788232421875,0.24786199629306793,-0.05898800119757652,-12.38122272491455
1781030545644425700,19.50742578125,2.385991096496582,-0.39288800954818726,-7.358889102935791
1781030545663968300,19.52696826171875,2.4426279067993164,-0.47413501143455505,-3.2093889713287354
1781030545683508000,19.546508056640626,0.8428369760513306,-0.10791999846696854,-0.48380300402641296
1781030545703049700,19.5660498046875,-0.8535580039024353,0.36935698986053467,0.2445479929447174
1781030545722589400,19.58558935546875,-3.1496920585632324,0.9169870018959045,0.6161530017852783
1781030545742120400,19.605120361328126,-3.74025297164917,2.2657430171966553,1.1342480182647705
1781030545761649400,19.6246494140625,-4.027820110321045,2.0900819301605225,4.890768051147461
1781030545781185500,19.644185546875,-3.858989953994751,1.8128149509429932,7.004518032073975
1781030545800724000,19.663723876953124,-3.4655580520629883,1.4453760385513306,11.144965171813965
1781030545820260600,19.683260498046874,-1.8747349977493286,0.9528120160102844,13.371764183044434
1781030545839800600,19.702800537109376,-1.4888989925384521,0.7893329858779907,13.6292724609375
1781030545859336400,19.72233642578125,-1.497346043586731,0.7458410263061523,13.979342460632324
1781030545878865700,19.74186572265625,-1.9311790466308594,0.6033920049667358,14.110535621643066
1781030545898398700,19.761398681640625,-3.447330951690674,0.29584699869155884,13.855035781860352
1781030545917935400,19.780935302734374,-3.5129809379577637,-1.5817179679870605,13.435882568359375
1781030545937474600,19.800474609375,-1.9366199970245361,-1.9254469871520996,11.510083198547363
1781030545957013800,19.820013671875,-0.18724699318408966,-2.3887789249420166,10.871914863586426
1781030545976548600,19.839548583984374,-0.024474000558257103,-2.671442985534668,8.878125190734863
1781030545996081200,19.8590810546875,-0.12289900332689285,-2.70243501663208,8.082786560058594
1781030546015618300,19.878618408203124,-0.5270329713821411,-2.4541900157928467,7.172369956970215
1781030546035156700,19.89815673828125,-2.1226470470428467,-2.100303888320923,6.586782932281494
1781030546054690000,19.91768994140625,-2.4799211025238037,-1.8467190265655518,6.420167922973633
1781030546074225200,19.93722509765625,-2.4285271167755127,-1.5814419984817505,6.402614116668701
1781030546093760000,19.956760009765624,-2.021385908126831,-1.3769789934158325,6.374585151672363
1781030546113293600,19.97629345703125,-1.3605979681015015,-1.1547529697418213,6.0201897621154785
1781030546132828700,19.99582861328125,-0.9486150145530701,-1.0654059648513794,5.661090850830078
1781030546152364800,20.01536474609375,-1.025465965270996,-1.121474027633667,5.520925998687744
1781030546171903000,20.034903076171876,-1.3127189874649048,-1.156823992729187,5.045094966888428
1781030546191440000,20.05443994140625,-1.4474530220031738,-1.25382399559021,4.430161952972412
1781030546210974000,20.073973876953126,-1.186663031578064,-1.1451940536499023,2.249298095703125
1781030546230508800,20.0935087890625,-1.186663031578064,-1.1451940536499023,2.249298095703125
1781030546250048500,20.113048583984376,-0.5499039888381958,-0.9011080265045166,1.10371994972229
1781030546269587700,20.132587646484374,-0.5969449877738953,-0.9531059861183167,-1.0234400033950806
1781030546289123800,20.152123779296875,-0.7153589725494385,-1.1655659675598145,-3.1810529232025146
1781030546308656400,20.171656494140624,-0.7153589725494385,-1.1655659675598145,-3.1810529232025146
1781030546328187400,20.1911875,-0.7153589725494385,-1.1655659675598145,-3.1810529232025146
1781030546347718400,20.210718505859376,0.19005699455738068,-0.36748600006103516,-6.004479885101318
1781030546367250000,20.23025,0.6953189969062805,-0.18708699941635132,-6.608226776123047
1781030546386780700,20.24978076171875,0.8880100250244141,-0.2318740040063858,-8.259892463684082
1781030546406307000,20.26930712890625,1.016921043395996,-0.6107749938964844,-9.872333526611328
1781030546425842200,20.28884228515625,2.5859389305114746,-0.8597040176391602,-10.234437942504883
1781030546445384200,20.30838427734375,4.171432018280029,-0.8056719899177551,-10.596993446350098
1781030546464923400,20.32792333984375,4.4525251388549805,-0.3041189908981323,-12.108762741088867
1781030546484459500,20.34745947265625,4.522290229797363,1.5765680074691772,-12.039363861083984
1781030546503992800,20.366992919921874,3.9727590084075928,3.6424970626831055,-12.059441566467285
1781030546523525400,20.386525390625,3.1381120681762695,5.7600908279418945,-12.090324401855469
1781030546543061800,20.406061767578127,2.4043309688568115,7.602088928222656,-12.194589614868164
1781030546562598400,20.425598388671876,1.7786580324172974,8.031828880310059,-13.347221374511719
1781030546582131200,20.445131103515624,1.0653460025787354,7.781907081604004,-14.436315536499023
1781030546601665000,20.4646650390625,0.2441830039024353,4.276256084442139,-13.980830192565918
1781030546621201400,20.484201416015626,-0.21532000601291656,2.5279219150543213,-13.121697425842285
1781030546640737500,20.503737548828123,1.4364930391311646,0.27349600195884705,-9.228114128112793
1781030546660273000,20.52327294921875,1.7057830095291138,-0.3038080036640167,-6.916606903076172
1781030546679807000,20.542806884765625,1.8780369758605957,-0.46731799840927124,-4.168206214904785
1781030546699343400,20.56234326171875,1.4552299976348877,-0.2243030071258545,-1.84402596950531
1781030546718876000,20.5818759765625,-1.2261600494384766,0.2856769859790802,-0.9326630234718323
1781030546738397400,20.6013974609375,-2.976501941680908,0.7499960064888,1.1813520193099976
1781030546757913600,20.62091357421875,-3.0383780002593994,1.102484941482544,2.203947067260742
1781030546777431300,20.640431396484374,-3.1603870391845703,1.2835450172424316,3.154149055480957
1781030546796954400,20.659954345703124,-3.0974280834198,1.0671509504318237,5.4881792068481445
1781030546816480000,20.67947998046875,-2.821249008178711,0.7748990058898926,7.402174949645996
1781030546836003300,20.69900341796875,-2.4357810020446777,0.5358719825744629,9.539571762084961
1781030546855526700,20.718526611328127,-1.8729829788208008,0.23949399590492249,11.914796829223633
1781030546875052800,20.738052734375,-1.4454020261764526,-0.013526000082492828,12.534229278564453
1781030546894577700,20.75757763671875,-1.299368977546692,-0.20486900210380554,13.079095840454102
1781030546914098200,20.77709814453125,-1.2979960441589355,-0.4261699914932251,13.475178718566895
1781030546933622000,20.7966220703125,-1.3397330045700073,-0.6176469922065735,13.601346015930176
1781030546953153000,20.816153076171876,-1.2659529447555542,-0.7440040111541748,13.232892036437988
1781030546972682200,20.83568212890625,-1.1057980060577393,-1.000967025756836,12.424448013305664
1781030546992205600,20.85520556640625,-0.9688810110092163,-1.3212209939956665,10.487322807312012
1781030547011731000,20.87473095703125,-0.8097530007362366,-1.540213942527771,9.467926025390625
1781030547031257900,20.8942578125,-0.7554910182952881,-1.6754570007324219,7.503312110900879
1781030547050784000,20.913783935546874,-0.7554910182952881,-1.6754570007324219,7.503312110900879
1781030547070314500,20.933314453125,-1.0251940488815308,-1.7929660081863403,6.329556941986084
1781030547089846500,20.952846435546874,-1.1544159650802612,-1.721055030822754,5.388848781585693
1781030547109377000,20.972376953125,-1.1544159650802612,-1.721055030822754,5.388848781585693
1781030547128906000,20.991906005859374,-1.1544159650802612,-1.721055030822754,5.388848781585693
1781030547148433700,21.01143359375,-1.150212049484253,-1.3468029499053955,6.666203022003174
1781030547167961000,21.030961181640624,-1.150212049484253,-1.3468029499053955,6.666203022003174
1781030547187490600,21.050490478515623,-1.1302109956741333,-0.8905609846115112,6.496535778045654
1781030547207022000,21.07002197265625,-1.1683340072631836,-0.7359319925308228,6.245776176452637
1781030547226556400,21.089556396484376,-1.101261019706726,-0.6707540154457092,5.862831115722656
1781030547246088700,21.109088623046876,-0.9222409725189209,-0.5534039735794067,5.280317783355713
1781030547265618400,21.128618408203124,-0.7805410027503967,-0.35847198963165283,4.4250969886779785
1781030547285142500,21.148142578125,-0.6061339974403381,-0.2457990050315857,2.3429529666900635
1781030547304661800,21.167661865234376,-0.429282009601593,-0.13996100425720215,1.5077749490737915
1781030547324185000,21.18718505859375,-0.23172199726104736,-0.03754900023341179,-0.5983669757843018
1781030547343714300,21.20671435546875,-0.10772500187158585,0.01797799952328205,-2.4345080852508545
1781030547363249000,21.226248779296874,-0.048264000564813614,0.16880199313163757,-4.3568549156188965
1781030547382784500,21.245784423828123,0.11251500248908997,0.1866230070590973,-4.993133068084717
1781030547402317800,21.26531787109375,0.11251500248908997,0.1866230070590973,-4.993133068084717
1781030547421853200,21.284853271484376,0.7239279747009277,-0.4061169922351837,-6.181221008300781
1781030547441390300,21.304390380859374,1.061171054840088,-0.8870009779930115,-6.632568836212158
1781030547460921300,21.32392138671875,1.126965045928955,-1.07231605052948,-8.088486671447754
1781030547480455200,21.343455078125,1.061579942703247,-0.8567109704017639,-9.595508575439453
1781030547499993600,21.36299365234375,1.1071339845657349,-0.33879899978637695,-11.304635047912598
1781030547519527200,21.382527099609376,1.4664510488510132,0.3455579876899719,-13.020440101623535
1781030547539058200,21.40205810546875,2.885667085647583,0.965595006942749,-13.246975898742676
1781030547558588400,21.42158837890625,4.449866771697998,1.6223280429840088,-13.34996223449707
1781030547578117000,21.4411171875,4.471743106842041,2.318073034286499,-13.197235107421875
1781030547597645800,21.460645751953123,4.460083961486816,3.033536911010742,-12.937305450439453
1781030547617170200,21.480170166015625,4.193314075469971,3.56124210357666,-12.742602348327637
1781030547636691200,21.499691162109375,3.4490549564361572,3.456934928894043,-12.427194595336914
1781030547656215600,21.519215576171874,1.5021419525146484,1.5662180185317993,-11.758363723754883
1781030547675741700,21.53874169921875,0.821287989616394,-0.08015000075101852,-9.399946212768555
1781030547695266300,21.558266357421875,0.2908790111541748,-0.5113930106163025,-6.998528003692627
1781030547714786600,21.57778662109375,0.19873400032520294,-0.8625829815864563,-4.546792984008789
1781030547734303700,21.5973037109375,0.3059920072555542,-0.9586719870567322,-2.166698932647705
1781030547753824800,21.61682470703125,0.17749400436878204,-0.746275007724762,-1.2035189867019653
1781030547773353700,21.636353759765626,-1.4565420150756836,-0.2467219978570938,0.9805330038070679
1781030547792882200,21.655882080078126,-1.9465409517288208,0.3065260052680969,1.8523240089416504
1781030547812405000,21.675405029296876,-3.9132308959960938,1.7962110042572021,4.002045154571533
1781030547831926800,21.6949267578125,-4.343524932861328,2.0469019412994385,6.831204891204834
1781030547851448600,21.714448486328124,-4.617685794830322,2.115415096282959,8.822381973266602
1781030547870972700,21.73397265625,-4.723888874053955,2.15773606300354,11.3329439163208
1781030547890498300,21.753498291015624,-4.723888874053955,2.15773606300354,11.3329439163208
1781030547910025200,21.773025146484375,-2.8308000564575195,1.5148930549621582,14.394628524780273
1781030547929550600,21.792550537109374,-2.284960985183716,1.057973027229309,14.779521942138672
1781030547949073200,21.8120732421875,-2.284960985183716,1.057973027229309,14.779521942138672
1781030547968596700,21.8315966796875,-1.770738959312439,0.1102219969034195,14.395730018615723
1781030547988119000,21.851119140625,-1.770738959312439,0.1102219969034195,14.395730018615723
1781030548007644700,21.870644775390623,-2.1009979248046875,-0.7734190225601196,11.296104431152344
1781030548027172900,21.8901728515625,-2.05013108253479,-1.0707099437713623,9.138214111328125
1781030548046694700,21.909694580078124,-1.7861779928207397,-1.2364790439605713,7.142796039581299
1781030548066216000,21.9292158203125,-1.6119970083236694,-1.1884750127792358,6.505623817443848
1781030548085742000,21.9487421875,-1.7152559757232666,-1.0185370445251465,5.876276969909668
1781030548105262300,21.968262451171874,-1.9874320030212402,-0.9827669858932495,5.545048236846924
1781030548124782800,21.987782958984376,-2.1899640560150146,-1.0088889598846436,5.612390995025635
1781030548144305400,22.007305419921874,-2.181812047958374,-1.1152479648590088,6.8531928062438965
1781030548163823400,22.0268232421875,-1.8697509765625,-1.074442982673645,6.82803201675415
1781030548183341600,22.046341552734376,-1.3390580415725708,-0.9100779891014099,6.8848371505737305
1781030548202861000,22.065861083984377,-0.8360120058059692,-0.6487159729003906,6.897078037261963
1781030548222384600,22.085384521484375,-0.5063269734382629,-0.24285100400447845,6.629617214202881
1781030548241911300,22.104911376953126,-0.5254290103912354,-0.025025000795722008,6.2768731117248535
1781030548261441000,22.12444091796875,-1.9161139726638794,0.04550199955701828,5.548662185668945
1781030548280972000,22.143971923828126,-1.8468049764633179,0.014769000001251698,3.0401339530944824
1781030548300503600,22.163503662109374,-1.7925100326538086,-0.0849199965596199,2.175704002380371
1781030548320033300,22.183033203125,-1.4219820499420166,-0.0503229983150959,0.23574799299240112
1781030548339561200,22.202561279296877,-0.7471519708633423,0.00570000009611249,-0.6343039870262146
1781030548359096300,22.222096435546874,-0.08087299764156342,-0.1491979956626892,-2.677151918411255
1781030548378630400,22.24163037109375,0.47951099276542664,-0.5854099988937378,-3.2879440784454346
1781030548398162000,22.261161865234374,1.0533909797668457,-0.9139090180397034,-5.167111873626709
1781030548417693700,22.280693603515626,1.543233036994934,-0.7820929884910583,-5.644775867462158
1781030548437221400,22.300221435546874,1.8349080085754395,-0.44367000460624695,-6.150914192199707
1781030548456743700,22.31974365234375,2.0233800411224365,0.0029670000076293945,-7.803199768066406
1781030548476266500,22.3392666015625,2.108678102493286,0.2867160141468048,-9.833367347717285
1781030548495793400,22.35879345703125,2.1442270278930664,0.33215001225471497,-11.978087425231934
1781030548515320600,22.378320556640624,2.3479199409484863,0.49362900853157043,-13.893672943115234
1781030548534848800,22.397848876953127,2.6072490215301514,0.9188920259475708,-15.245648384094238
1781030548554377700,22.417377685546874,2.743881940841675,1.457103967666626,-15.162337303161621
1781030548573905000,22.43690478515625,3.0433619022369385,2.0362370014190674,-15.18118667602539
1781030548593430300,22.45643017578125,4.268423080444336,2.792365074157715,-15.214290618896484
1781030548612955400,22.475955322265627,4.221043109893799,4.407121181488037,-14.926124572753906
1781030548632483800,22.49548388671875,3.897469997406006,4.7329020500183105,-14.338851928710938
1781030548652012800,22.5150126953125,1.6146090030670166,4.626475811004639,-13.376102447509766
1781030548671534300,22.534534423828124,0.8632889986038208,2.60396409034729,-10.705233573913574
1781030548691056600,22.554056640625,0.11855699867010117,0.579712986946106,-8.472677230834961
1781030548710585900,22.5735859375,0.11855699867010117,0.579712986946106,-8.472677230834961
1781030548730114800,22.59311474609375,-0.10286399722099304,-1.5428440570831299,-3.7130250930786133
1781030548749638400,22.612638427734375,0.006147000007331371,-1.7796440124511719,-0.8857929706573486
1781030548769164300,22.632164306640625,0.006147000007331371,-1.7796440124511719,-0.8857929706573486
1781030548788693800,22.65169384765625,-0.05983699858188629,-0.02354300022125244,2.076056957244873
1781030548808223200,22.67122314453125,-0.05983699858188629,-0.02354300022125244,2.076056957244873
1781030548827753000,22.6907529296875,-4.190193176269531,3.4429070949554443,6.60621976852417
1781030548847278600,22.710278564453127,-7.502420902252197,3.637921094894409,9.268948554992676
1781030548866800600,22.729800537109377,-11.174182891845703,3.4243390560150146,11.900751113891602
1781030548886321000,22.74932080078125,-11.72064208984375,1.4825390577316284,13.482093811035156
1781030548905845200,22.76884521484375,-11.6953706741333,-0.6575139760971069,13.840415000915527
1781030548925373000,22.788373046875,-7.858695030212402,-2.4285330772399902,14.029674530029297
1781030548944897800,22.807897705078126,-4.3114190101623535,-2.533586025238037,14.075957298278809
1781030548964421600,22.827421630859376,-2.2516438961029053,-2.5787649154663086,14.027668952941895
1781030548983946800,22.84694677734375,-1.9222209453582764,-2.3194189071655273,13.817538261413574
1781030549003471400,22.866471435546874,-2.08817195892334,-1.8208839893341064,13.31400203704834
1781030549022993000,22.885992919921875,-2.49214506149292,-0.07054699957370758,10.951087951660156
1781030549042519000,22.90551904296875,-2.9770290851593018,0.1870349943637848,9.010491371154785
1781030549062045200,22.925045166015625,-4.5610809326171875,0.42979899048805237,8.131531715393066
1781030549081568000,22.944568115234375,-4.811827182769775,0.41963499784469604,6.098077774047852
1781030549101093600,22.96409375,-4.9320831298828125,-0.017325999215245247,5.628345012664795
1781030549120618000,22.983617919921876,-4.549859046936035,-1.5151660442352295,5.646295070648193
1781030549140146200,23.003146240234376,-2.4413089752197266,-1.7636840343475342,7.075406074523926
1781030549159675100,23.022675048828123,-1.768273949623108,-1.8036329746246338,8.13268756866455
1781030549179202000,23.0422021484375,-0.9221299886703491,-1.4856220483779907,8.165182113647461
1781030549198725400,23.061725341796876,-0.5178040266036987,0.033410001546144485,8.03979778289795
1781030549218246400,23.081246337890626,-2.335880994796753,1.7346529960632324,7.713360786437988
1781030549237770800,23.100770751953124,-3.916872978210449,1.9129259586334229,7.03067684173584
1781030549257298400,23.12029833984375,-3.7881579399108887,2.1344950199127197,4.685056209564209
1781030549276829700,23.13982958984375,-3.3023641109466553,1.9973989725112915,2.4897971153259277
1781030549296358100,23.159358154296875,-1.1156669855117798,1.6225709915161133,0.17592400312423706
1781030549315889400,23.178889404296875,1.8551470041275024,1.3433599472045898,-1.9323019981384277
1781030549335426600,23.198426513671876,3.6795530319213867,1.0534780025482178,-3.804490089416504
1781030549354957800,23.217957763671876,3.7895009517669678,0.6381379961967468,-4.465729236602783
1781030549374487800,23.23748779296875,3.6871650218963623,0.22349800169467926,-6.411848068237305
1781030549394019300,23.257019287109376,3.660428047180176,-0.2247990071773529,-8.235090255737305
1781030549413550300,23.27655029296875,3.6995859146118164,-0.6142209768295288,-8.614250183105469
1781030549433077800,23.296077880859375,4.01831579208374,-0.7441970109939575,-10.695860862731934
1781030549452602400,23.315602294921874,4.470635890960693,-0.7312920093536377,-12.42675495147705
1781030549472127000,23.335126953125,4.761417865753174,-0.6757879853248596,-14.206228256225586
1781030549491649000,23.35464892578125,5.070188999176025,-0.34272098541259766,-14.495264053344727
1781030549511174400,23.37417431640625,6.505361080169678,0.34905898571014404,-15.646026611328125
1781030549530707200,23.393707275390625,6.505361080169678,0.34905898571014404,-15.646026611328125
1781030549550230800,23.413230712890623,6.6082072257995605,4.124957084655762,-15.335419654846191
1781030549569754400,23.43275439453125,6.6082072257995605,4.124957084655762,-15.335419654846191
1781030549589284600,23.45228466796875,6.369892120361328,6.477793216705322,-15.39562702178955
1781030549608812500,23.4718125,3.5726189613342285,6.861700057983398,-14.671781539916992
1781030549628340000,23.491340087890624,3.5726189613342285,6.861700057983398,-14.671781539916992
1781030549647869700,23.51086962890625,-0.3551799952983856,1.1283409595489502,-14.51378059387207
1781030549667402000,23.530402099609375,1.3532789945602417,-0.48696500062942505,-11.080145835876465
1781030549686933000,23.54993310546875,3.292414903640747,-1.9326030015945435,-6.488346099853516
1781030549706462200,23.569462158203127,3.292414903640747,-1.9326030015945435,-6.488346099853516
1781030549725991200,23.5889912109375,3.4301350116729736,-1.364717960357666,-0.3650200068950653
1781030549745520000,23.60852001953125,-0.2889840006828308,0.35112500190734863,0.17048799991607666
1781030549765047000,23.628047119140625,-4.692345142364502,0.5061039924621582,0.6002010107040405
1781030549784571100,23.647571044921875,-6.577092170715332,0.6360840201377869,2.6700279712677
1781030549804098000,23.66709814453125,-8.016216278076172,0.8905119895935059,5.236917972564697
1781030549823624700,23.686624755859373,-7.634232044219971,0.9160770177841187,8.328075408935547
1781030549843147500,23.7061474609375,-5.733126163482666,0.6827099919319153,10.254725456237793
1781030549862673700,23.725673583984374,-4.1274871826171875,0.2252960056066513,12.689214706420898
1781030549882209500,23.74520947265625,-3.7068700790405273,-1.2653130292892456,14.347919464111328
1781030549901746700,23.76474658203125,-3.408660888671875,-1.6434839963912964,14.60949420928955
1781030549921278500,23.784278564453125,-3.2804720401763916,-1.8978209495544434,14.43841552734375
1781030549940807000,23.803806884765624,-3.188606023788452,-1.870229959487915,13.718421936035156
1781030549960333300,23.823333251953127,-3.0843710899353027,-1.5669959783554077,11.547750473022461
1781030549979859700,23.842859619140626,-3.0116710662841797,-1.2081669569015503,9.43845272064209
1781030549999389700,23.8623896484375,-2.704572916030884,-0.8935940265655518,7.518959045410156
1781030550018922800,23.8819228515625,-2.322554111480713,-0.8053889870643616,5.596179962158203
1781030550038455600,23.90145556640625,-1.8992079496383667,-0.9438350200653076,5.039405822753906
1781030550057986600,23.920986572265626,-1.3198269605636597,-1.1128610372543335,4.521581172943115
1781030550077519600,23.94051953125,-0.8069859743118286,-1.2253450155258179,4.325109958648682
1781030550097052700,23.960052734375,-0.5189819931983948,-1.1603950262069702,5.678843975067139
1781030550116578000,23.979578125,-0.4799549877643585,-0.9926440119743347,5.674911975860596
1781030550136101600,23.9991015625,-0.43066200613975525,-0.7264800071716309,5.677195072174072
1781030550155624400,24.01862451171875,-0.30196699500083923,-0.4045329988002777,5.419540882110596
1781030550175149000,24.038149169921876,-0.1145009994506836,-0.16931399703025818,5.044482231140137
1781030550194672000,24.057672119140626,0.05720999836921692,-0.00392899988219142,4.636807918548584
1781030550214198800,24.07719873046875,0.1083810031414032,0.11623500287532806,4.119565963745117
1781030550233730600,24.09673046875,0.21159499883651733,0.043264999985694885,3.6114699840545654
1781030550253261600,24.116261474609374,0.552839994430542,-0.06225999817252159,2.9159998893737793
1781030550272797200,24.135797119140626,0.952826976776123,0.03388499841094017,0.7588940262794495
1781030550292335400,24.15533544921875,1.1573179960250854,0.025299999862909317,0.14442799985408783
1781030550311870200,24.1748701171875,1.2039669752120972,-0.10123699903488159,-1.969756007194519
1781030550331406600,24.194406494140626,1.332895040512085,0.05317499861121178,-2.7049190998077393
1781030550350941400,24.21394140625,1.6402430534362793,0.41333699226379395,-4.709290027618408
1781030550370471000,24.233470947265626,1.6402430534362793,0.41333699226379395,-4.709290027618408
1781030550389999900,24.252999755859374,2.5417709350585938,0.6976050138473511,-8.064497947692871
1781030550409527300,24.27252734375,2.579927921295166,0.3083690106868744,-8.366844177246094
1781030550429056300,24.29205615234375,2.579927921295166,0.3083690106868744,-8.366844177246094
1781030550448589000,24.311589111328125,2.8133859634399414,-0.5017719864845276,-8.834516525268555
1781030550468121600,24.33112158203125,2.8133859634399414,-0.5017719864845276,-8.834516525268555
1781030550487652000,24.350652099609373,3.3715269565582275,1.8085559606552124,-10.633355140686035
1781030550507183400,24.370183349609373,3.383025884628296,3.596864938735962,-11.9320650100708
1781030550526715400,24.38971533203125,3.358931064605713,5.315731048583984,-13.436968803405762
1781030550546246400,24.409246337890625,3.549359083175659,5.885655879974365,-13.599416732788086
1781030550565777700,24.428777587890625,3.701190948486328,6.604081153869629,-13.640597343444824
1781030550585304800,24.448304931640624,3.758476972579956,7.284956932067871,-13.596381187438965
1781030550604830700,24.467830810546875,3.420051097869873,7.766315937042236,-13.415115356445312
1781030550624354300,24.487354248046874,2.497231960296631,7.642663955688477,-12.996342658996582
1781030550643877000,24.506877197265624,0.4492639899253845,5.207050800323486,-12.37185287475586
1781030550663399700,24.526399658203125,-0.20019400119781494,2.416659116744995,-11.500835418701172
1781030550682926300,24.54592626953125,-0.3544659912586212,0.07209499925374985,-8.948831558227539
1781030550702459600,24.565459716796877,1.528306007385254,-0.47495099902153015,-6.081621170043945
1781030550721993200,24.5849931640625,1.7566659450531006,-0.9768620133399963,-3.226315975189209
1781030550741526300,24.6045263671875,1.8218439817428589,-1.1229829788208008,-0.7096830010414124
1781030550761061600,24.6240615234375,-0.5441570281982422,-0.8959580063819885,0.22415299713611603
1781030550780592600,24.643592529296875,-2.4043400287628174,-0.419730007648468,1.2091569900512695
1781030550800120000,24.6631201171875,-4.3695759773254395,0.03429500013589859,3.1487579345703125
1781030550819647700,24.682647705078125,-4.816421031951904,0.3197549879550934,5.378769874572754
1781030550839176400,24.702176513671876,-4.859158039093018,0.34757199883461,9.780332565307617
1781030550858708000,24.7217080078125,-2.8650920391082764,0.01846799999475479,11.647518157958984
1781030550878239700,24.74123974609375,-2.453545093536377,-0.5347470045089722,13.620613098144531
1781030550897768400,24.7607685546875,-0.8047680258750916,-2.0695950984954834,14.156559944152832
1781030550917297000,24.780296875,-0.7071549892425537,-2.341883897781372,14.45875072479248
1781030550936827100,24.7998271484375,-0.8014950156211853,-2.4760899543762207,14.423205375671387
1781030550956356900,24.81935693359375,-1.0107489824295044,-2.4099979400634766,14.128573417663574
1781030550975887400,24.838887451171875,-1.1324809789657593,-2.0601229667663574,13.301756858825684
1781030550995415800,24.858415771484374,-1.1777950525283813,-1.7681219577789307,10.72899055480957
1781030551014944000,24.877944091796873,-1.0945450067520142,-1.7361220121383667,8.374523162841797
1781030551034474200,24.89747412109375,-0.7546799778938293,-1.8806480169296265,6.246013164520264
1781030551054007000,24.917007080078125,-0.2723349928855896,-2.072442054748535,5.418595790863037
1781030551073539600,24.93653955078125,0.08608300238847733,-2.2157509326934814,4.931601047515869
1781030551093066800,24.956066650390625,0.23038600385189056,-2.2435569763183594,4.877127170562744
1781030551112595000,24.975594970703124,0.10062099993228912,-2.1193509101867676,6.171827793121338
1781030551132127500,24.99512744140625,-0.18762800097465515,-1.8811819553375244,5.922688007354736
1781030551151659300,25.0146591796875,-0.3429979979991913,-1.5608760118484497,5.688897132873535
1781030551171186000,25.03418603515625,-0.34008100628852844,-1.238664984703064,5.558158874511719
1781030551190712000,25.053712158203126,-0.34008100628852844,-1.238664984703064,5.558158874511719
