time,seconds_elapsed,z,y,x
1780528429716021500,3.066021484375,-0.0574213340878486,0.3555235862731933,-0.0842994004487991
1780528429726122800,3.076122802734375,-0.130725160241127,0.342084527015686,-0.1966986060142517
1780528429736193500,3.086193603515625,-0.1820378452539444,0.3298672437667846,-0.3017674386501312
1780528429746295000,3.096294921875,-0.1991420686244964,0.3286454975605011,-0.3445279896259308
1780528429756335400,3.10633544921875,-0.2101376503705978,0.3090978264808655,-0.36529740691185
1780528429766436600,3.1164365234375,-0.2028072625398636,0.2981022298336029,-0.4080579876899719
1780528429836993300,3.1869931640625,-0.0659734457731247,-0.0733038261532783,-0.4960225820541382
1780528429857165300,3.207165283203125,-0.1246165111660957,-0.0537561401724815,-0.3689626157283783
1780528429867266600,3.2172666015625,-0.1551597714424133,-0.0280998013913631,-0.3090978264808655
1780528429927752400,3.27775244140625,-0.2883284091949463,0.0928515195846557,-0.1966986060142517
1780528429937823200,3.2878232421875,-0.2981022298336029,0.1087340116500854,-0.1918116807937622
1780528429947894000,3.29789404296875,-0.3152064681053161,0.1270599663257599,-0.147829383611679
1780528429957995500,3.30799560546875,-0.3237585723400116,0.147829383611679,-0.0623082555830478
1780528429968127200,3.318127197265625,-0.3347541689872741,0.1722639948129654,0.0305432621389627
1780528429978228500,3.328228515625,-0.3433062732219696,0.2089159190654754,0.0733038261532783
1780528429988299300,3.33829931640625,-0.3591887652873993,0.2272418737411499,0.0549778714776039
1780528429998400800,3.34840087890625,-0.36529740691185,0.2431243658065796,-0.0024434609804302
1780528430018603300,3.368603271484375,-0.3836233615875244,0.2431243658065796,-0.1221730485558509
1780528430028704800,3.378704833984375,-0.3982841372489929,0.2333505302667617,-0.1502728462219238
1780528430038775600,3.388775634765625,-0.4129449129104614,0.2394591718912124,-0.1685988008975982
1780528430058978000,3.40897802734375,-0.4605923891067505,0.2565633952617645,0.0256563406437635
1780528430069048800,3.419048828125,-0.4605923891067505,0.2687807083129883,0.157603234052658
1780528430129687300,3.479687255859375,-0.4202753007411957,0.1441642045974731,-0.280998021364212
1780528430220507600,3.570507568359375,-0.2296853363513946,-0.0916297882795333,-0.1026253625750541
1780528430230639400,3.580639404296875,-0.2431243658065796,-0.0500909499824047,-0.157603234052658
1780528430240710100,3.590710205078125,-0.2492330223321914,0.0073303831741213,-0.2101376503705978
1780528430250811600,3.600811767578125,-0.2748893499374389,0.1490511149168014,-0.2003637999296188
1780528430260913000,3.610912841796875,-0.2565633952617645,0.2223549485206604,-0.1160643994808197
1780528430271044600,3.621044677734375,-0.2150245606899261,0.2834414839744568,-0.0647517144680023
1780528430281146000,3.63114599609375,-0.1527163088321685,0.3249803185462951,-0.0305432621389627
1780528430291247400,3.641247314453125,-0.0549778714776039,0.3701843321323395,-0.0061086523346602
1780528430301348600,3.6513486328125,0.0598647929728031,0.3982841372489929,0.0171042270958423
1780528430331713800,3.6817138671875,0.394618958234787,0.3824016451835632,0.0720821022987365
1780528430351946800,3.70194677734375,0.5693264007568359,0.3347541689872741,-0.067195177078247
1780528430362048300,3.71204833984375,0.6096435189247131,0.3078760802745819,-0.0879645943641662
1780528430372149500,3.7221494140625,0.6316346526145935,0.3029891550540924,-0.0354301854968071
1780528430382250800,3.732250732421875,0.6340781450271606,0.2956587672233581,0.1014036312699318
1780528430392352000,3.74235205078125,0.6255260109901428,0.2907718420028686,0.2345722615718841
1780528430402453500,3.75245361328125,0.6145304441452026,0.2700024247169494,0.2895501255989074
1780528430412585200,3.762585205078125,0.5949827432632446,0.230907067656517,0.294437050819397
1780528430422686500,3.7726865234375,0.5839871764183044,0.1759291887283325,0.2541199326515198
1780528430432818400,3.782818359375,0.5864306092262268,0.1062905490398407,0.1783726513385772
1780528430442919700,3.792919677734375,0.5632177591323853,0.0256563406437635,0.2089159190654754
1780528430453051600,3.8030517578125,0.5363397002220154,-0.0232128798961639,0.3286454975605011
1780528430463153000,3.81315283203125,0.4923573732376098,-0.0610865242779254,0.4178318381309509
1780528430473254100,3.823254150390625,0.4239404797554016,-0.1026253625750541,0.4581489264965057
1780528430493457000,3.843456787109375,0.3225368559360504,-0.2260201424360275,0.3604104816913605
1780528430503558100,3.85355810546875,0.2797762751579284,-0.2883284091949463,0.271224170923233
1780528430533892600,3.883892578125,0.2064724564552307,-0.3579670190811157,0.294437050819397
1780528430543993900,3.893993896484375,0.2076941877603531,-0.3384193480014801,0.3408628106117248
1780528430564196600,3.914196533203125,0.2052507251501083,-0.3139847218990326,0.3970624208450317
1780528430574297900,3.9242978515625,0.2138028293848037,-0.3310889601707458,0.371406078338623
1780528430584429800,3.934429931640625,0.2199114859104156,-0.3701843321323395,0.3274237811565399
1780528430594561500,3.9445615234375,0.2040289938449859,-0.4007275998592376,0.2761110961437225
1780528430604693500,3.954693603515625,0.1783726513385772,-0.4105014503002167,0.2321287989616394
1780528430655352600,4.0053525390625,0.1197295859456062,-0.1747074574232101,0.2687807083129883
1780528430675555300,4.025555419921875,0.0842994004487991,-0.1062905490398407,0.2858849465847015
1780528430715960600,4.065960693359375,0.0500909499824047,-0.0146607663482427,0.2883284091949463
1780528430726061800,4.076061767578125,0.0598647929728031,-0.0207694191485643,0.2443460971117019
1780528430786608600,4.136608642578125,0.0720821022987365,-0.0561996027827262,0.1991420686244964
1780528430847186200,4.197186279296875,0.1600466966629028,-0.1747074574232101,0.1466076523065567
1780528430877459500,4.22745947265625,0.1551597714424133,-0.2602286040782928,0.2700024247169494
1780528430887530200,4.2375302734375,0.1502728462219238,-0.304210901260376,0.3164281845092773
1780528430897631700,4.2476318359375,0.140499010682106,-0.3506366610527038,0.3054326176643371
1780528430907702500,4.25770263671875,0.1282816976308822,-0.3909537494182586,0.3200933933258056
1780528430917773300,4.267773193359375,0.1527163088321685,-0.4251621961593628,0.3237585723400116
1780528430927874600,4.27787451171875,0.1747074574232101,-0.4691445231437683,0.3164281845092773
1780528430937975800,4.287975830078125,0.2003637999296188,-0.5167919993400574,0.2895501255989074
1780528430948046600,4.298046630859375,0.2199114859104156,-0.5595525503158569,0.2797762751579284
1780528430968219000,4.318218994140625,0.2565633952617645,-0.6450737118721008,0.2846632003784179
1780528431018603300,4.368603271484375,-0.0024434609804302,-0.5216789245605469,0.2663372457027435
1780528431028674000,4.378674072265625,-0.0610865242779254,-0.4764748811721802,0.3604104816913605
1780528431038775600,4.388775634765625,-0.1111774742603302,-0.4239404797554016,0.5363397002220154
1780528431089160000,4.439159912109375,-0.0745255574584007,-0.0916297882795333,0.3371976017951965
1780528431099200300,4.4492001953125,-0.0134390350431203,-0.0207694191485643,0.2748893499374389
1780528431109332000,4.45933203125,0.0390953756868839,0.0219911485910415,0.1991420686244964
1780528431119433500,4.46943359375,0.0916297882795333,0.058643065392971,0.117286130785942
1780528431129504300,4.479504150390625,0.1417207419872284,0.0940732508897781,0.0146607663482427
1780528431139605500,4.48960546875,0.1759291887283325,0.1551597714424133,-0.0366519130766391
1780528431149706800,4.499706787109375,0.1954768747091293,0.2186897546052932,-0.0109955742955207
1780528431159777500,4.509777587890625,0.1857030391693115,0.2651155292987823,-0.0061086523346602
1780528431169848300,4.519848388671875,0.1661553531885147,0.3164281845092773,-0.0146607663482427
1780528431179980300,4.529980224609375,0.147829383611679,0.3445279896259308,-0.0317649915814399
1780528431190051000,4.540051025390625,0.1466076523065567,0.375071257352829,-0.0488692186772823
1780528431200152300,4.55015234375,0.1600466966629028,0.4337143301963806,-0.0048869219608604
1780528431210253800,4.56025390625,0.1661553531885147,0.4764748811721802,0.0439822971820831
1780528431220355000,4.57035498046875,0.1233947798609733,0.4984660446643829,0.0818559452891349
1780528431230425900,4.58042578125,0.0659734457731247,0.513126790523529,0.0500909499824047
1780528431240496600,4.59049658203125,0.0207694191485643,0.5143485069274902,-0.0537561401724815
1780528431250567400,4.6005673828125,0.0,0.4960225820541382,-0.1466076523065567
1780528431260638200,4.61063818359375,0.0061086523346602,0.4642575979232788,-0.1918116807937622
1780528431270709000,4.620708984375,0.0415388382971286,0.4459316432476043,-0.1685988008975982
1780528431290881300,4.64088134765625,0.1783726513385772,0.3628539443016052,-0.090408056974411
1780528431300982500,4.650982421875,0.2199114859104156,0.2638937830924988,-0.1527163088321685
1780528431311053300,4.66105322265625,0.2247984111309051,0.1759291887283325,-0.2797762751579284
1780528431321154600,4.671154541015625,0.1942551434040069,0.1050688251852989,-0.3885102868080139
1780528431331255800,4.681255859375,0.1722639948129654,0.0390953756868839,-0.455705463886261
1780528431341296000,4.691296142578125,0.1368338167667389,-0.0036651915870606,-0.4801400899887085
1780528431381732000,4.731732177734375,-0.3152064681053161,0.1099557429552078,0.1185078546404838
1780528431411975000,4.761974853515625,-0.8100073337554932,0.0610865242779254,-0.0476474873721599
1780528431422045700,4.772045654296875,-0.9639453291893004,0.0403171069920063,-0.2883284091949463
1780528431432147000,4.78214697265625,-1.0299187898635864,0.0806342139840126,-0.4984660446643829
1780528431482562000,4.83256201171875,-1.2424999475479126,0.271224170923233,-0.4068362414836883
1780528431492632800,4.8426328125,-1.1264355182647705,0.2736676335334778,-0.3604104816913605
1780528431502703600,4.85270361328125,-1.0238101482391355,0.2638937830924988,-0.351858377456665
1780528431522876000,4.8728759765625,-0.9162978529930116,0.251676470041275,-0.1954768747091293
1780528431553118700,4.90311865234375,-0.9077457785606384,0.2797762751579284,-0.2345722615718841
1780528431563189500,4.913189453125,-0.9443976879119872,0.2199114859104156,-0.2675589919090271
1780528431583392300,4.933392333984375,-0.9077457785606384,0.1270599663257599,-0.4105014503002167
1780528431593463000,4.943463134765625,-0.8796459436416626,0.1221730485558509,-0.3433062732219696
1780528431603533800,4.953533935546875,-0.8662069439888,0.1295034289360046,-0.2419026345014572
1780528431623736300,4.973736328125,-0.789237916469574,0.1893682330846786,-0.117286130785942
1780528431633807000,4.98380712890625,-0.7476990818977356,0.1783726513385772,-0.1844813078641891
1780528431643847400,4.993847412109375,-0.7171558141708374,0.171042263507843,-0.2504547536373138
1780528431653948700,5.00394873046875,-0.6988298296928406,0.167377084493637,-0.2138028293848037
1780528431664019500,5.01401953125,-0.6731734871864319,0.2101376503705978,-0.1502728462219238
1780528431714465000,5.064465087890625,-0.4960225820541382,0.4386012554168701,-0.3640756905078888
1780528431724566500,5.07456640625,-0.4825835525989532,0.452040284872055,-0.3677408695220947
1780528431734637300,5.08463720703125,-0.4691445231437683,0.46547931432724,-0.3103195428848266
1780528431754718000,5.104718017578125,-0.4373795092105865,0.5143485069274902,-0.2932153046131134
1780528431764819200,5.114819091796875,-0.3726277947425842,0.5485569834709167,-0.4056145250797272
1780528431774859500,5.124859619140625,-0.3530801236629486,0.5900958180427551,-0.6597344875335693
1780528431805132800,5.1551328125,-0.2028072625398636,0.5900958180427551,-0.221133217215538
1780528431815203600,5.16520361328125,-0.180816113948822,0.6976081132888794,-0.0818559452891349
1780528431825305000,5.17530517578125,-0.1869247704744339,0.8185594081878662,-0.0366519130766391
1780528431835375900,5.1853759765625,-0.1014036312699318,0.8197811841964722,-0.0452040284872055
1780528431845446700,5.19544677734375,0.051312681287527,0.7806857824325562,-0.1185078546404838
1780528431855487000,5.205487060546875,0.1466076523065567,0.7269296646118164,-0.1637118905782699
1780528431865588200,5.215588134765625,0.140499010682106,0.7122688889503479,-0.1368338167667389
1780528431885729800,5.235729736328125,0.2431243658065796,0.7134906053543091,-0.2101376503705978
1780528431905901800,5.25590185546875,0.3995058834552765,0.7440338730812073,-0.3274237811565399
1780528431915972600,5.26597265625,0.5094616413116455,0.6780604124069214,-0.3127630054950714
1780528431926043400,5.27604345703125,0.6352998614311218,0.5766568183898926,-0.2932153046131134
1780528431936083700,5.286083740234375,0.7024950385093689,0.5057964324951172,-0.3579670190811157
1780528431946185200,5.296185302734375,0.7049384713172913,0.4984660446643829,-0.2822197377681732
1780528431966357200,5.316357177734375,0.921184778213501,0.4447098970413208,-0.2651155292987823
1780528431976428000,5.326427978515625,1.0482447147369385,0.3579670190811157,-0.3090978264808655
1780528431986529300,5.336529296875,1.1716395616531372,0.3530801236629486,-0.4337143301963806
1780528431996630800,5.346630859375,1.2754865884780884,0.4764748811721802,-0.6597344875335693
1780528432006732000,5.35673193359375,1.3145819902420044,0.5876523852348328,-0.7452555894851685
1780528432047045600,5.397045654296875,1.8069393634796145,0.3604104816913605,-0.090408056974411
1780528432057147100,5.407147216796875,1.910786509513855,0.4190535545349121,-0.0366519130766391
1780528432067218000,5.417218017578125,2.057394027709961,0.4410447180271148,-0.3555235862731933
1780528432077288700,5.427288818359375,2.157576084136963,0.3481931984424591,-0.6621779203414917
1780528432087390000,5.437389892578125,2.280970811843872,0.3188716471195221,-0.960280179977417
1780528432097460700,5.447460693359375,2.406809091567993,0.384845107793808,-1.1410962343215942
1780528432107531500,5.457531494140625,2.5509731769561768,0.3995058834552765,-0.996932089328766
1780528432117632800,5.4676328125,2.624277114868164,0.375071257352829,-0.7440338730812073
1780528432127703600,5.47770361328125,2.4630086421966557,0.2748893499374389,-0.2003637999296188
1780528432137805000,5.48780517578125,2.283414363861084,0.2956587672233581,0.1612684279680252
1780528432147875800,5.497875732421875,2.162462949752808,0.4581489264965057,0.1637118905782699
1780528432157977000,5.50797705078125,2.057394027709961,0.4740314185619354,0.1600466966629028
1780528432168047900,5.5180478515625,1.996307611465454,0.3909537494182586,0.1258382350206375
1780528432218432500,5.5684326171875,0.6927211880683899,0.8649851679801941,0.7721336483955383
1780528432228533800,5.57853369140625,0.6621779203414917,0.8210029006004333,0.2528982162475586
1780528432238604500,5.5886044921875,0.5693264007568359,0.6963863968849182,-0.0171042270958423
1780528432248705800,5.598705810546875,0.2394591718912124,0.6450737118721008,0.0708603709936142
1780528432258807300,5.608807373046875,-0.1258382350206375,0.6230825781822205,0.5766568183898926
1780528432268908500,5.618908447265625,-0.4483750760555267,0.6695083379745483,1.0971139669418335
1780528432279009800,5.629009765625,-0.8246681094169617,0.7476990818977356,1.462411403656006
1780528432289111000,5.639111083984375,-1.0812314748764038,0.8515461683273315,1.5076154470443726
1780528432299181800,5.649181884765625,-1.246165156364441,0.9297369122505188,1.2388347387313845
1780528432309313800,5.659313720703125,-1.3377948999404907,0.9871582388877868,0.6609562039375305
1780528432329485800,5.67948583984375,-1.4098769426345823,1.0971139669418335,-1.4208725690841677
1780528432339526100,5.689526123046875,-1.4563027620315552,1.0726794004440308,-2.087937355041504
1780528432349627400,5.69962744140625,-1.518610954284668,0.8124507665634155,-2.3860397338867188
1780528432359698200,5.7096982421875,-1.5271631479263306,0.375071257352829,-2.3469443321228027
1780528432369769200,5.719769287109375,-1.1496484279632568,-0.0500909499824047,-2.2650883197784424
1780528432379809300,5.729809326171875,-0.7929030656814575,-0.2846632003784179,-2.5973989963531494
1780528432399951000,5.749951171875,-1.5125023126602173,0.0329867228865623,-1.8753563165664675
1780528432410052400,5.76005224609375,-1.712866187095642,0.1221730485558509,-1.8008307218551636
1780528432420123100,5.770123046875,-1.8057177066802976,0.0390953756868839,-2.0928242206573486
1780528432430224400,5.780224365234375,-1.6847662925720217,-0.2834414839744568,-2.428800106048584
1780528432460498000,5.810497802734375,-2.0415115356445312,-0.8637634515762329,-0.1747074574232101
1780528432470568700,5.820568603515625,-2.2003366947174072,-0.7000515460968018,0.7672467231750488
1780528432480639500,5.830639404296875,-2.1930062770843506,-0.5791002511978149,1.1484266519546509
1780528432490710300,5.840710205078125,-2.146580457687378,-0.5400048494338989,1.0555751323699951
1780528432500811500,5.8508115234375,-2.018298864364624,-0.685390830039978,1.027475357055664
1780528432561267000,5.911266845703125,-1.7519614696502686,-0.5778785347938538,0.6328563690185547
1780528432571368200,5.9213681640625,-1.2852604389190674,-0.5229006409645081,0.0769690200686454
1780528432581408500,5.931408447265625,-0.8784242272377014,-0.3726277947425842,-0.3775147199630737
1780528432591479300,5.941479248046875,-0.6902777552604675,-0.1685988008975982,-0.4948008358478546
1780528432601550000,5.951550048828125,-0.8600982427597046,-0.0708603709936142,-0.0684169083833694
1780528432611651300,5.9616513671875,-1.1459832191467283,-0.0293215326964855,0.588874101638794
1780528432621752800,5.9717529296875,-1.3671164512634275,0.0048869219608604,1.1020009517669678
1780528432631854000,5.98185400390625,-1.313360333442688,0.0476474873721599,1.3622294664382937
1780528432641924900,5.9919248046875,-0.9590584635734558,-0.0696386396884918,0.95783668756485
1780528432652026000,6.002026123046875,-0.5717698931694031,-0.2528982162475586,0.1954768747091293
1780528432662127600,6.012127685546875,-0.167377084493637,-0.4410447180271148,-0.5778785347938538
1780528432672228900,6.022228759765625,0.0268780700862407,-0.5607742667198181,-0.9077457785606384
1780528432682299600,6.032299560546875,-0.1869247704744339,-0.5754350423812866,-0.455705463886261
1780528432692370400,6.042370361328125,-0.6719517707824707,-0.5693264007568359,0.3933972120285034
1780528432702471700,6.0524716796875,-1.009149432182312,-0.5461135506629944,1.2424999475479126
1780528432712573000,6.062572998046875,-0.9822713136672974,-0.4642575979232788,1.655444860458374
1780528432722674400,6.07267431640625,-0.6939429044723511,-0.3665191531181335,1.361007809638977
1780528432732775700,6.082775634765625,-0.251676470041275,-0.2663372457027435,0.3762930035591125
1780528432742877000,6.092876953125,0.0879645943641662,-0.1869247704744339,-0.7061602473258972
1780528432752978400,6.102978515625,0.2089159190654754,-0.2504547536373138,-1.1325441598892212
1780528432763110100,6.113110107421875,0.1685988008975982,-0.4251621961593628,-0.950506329536438
1780528432793383700,6.1433837890625,-0.6414085030555725,0.1343903541564941,1.6811012029647827
1780528432853869300,6.203869384765625,0.130725160241127,-0.4899139404296875,-0.2406809031963348
1780528432863970800,6.213970703125,0.0855211317539215,-0.2687807083129883,0.4923573732376098
1780528432874102500,6.2241025390625,0.1380555480718612,0.0806342139840126,0.977384388446808
1780528432894274800,6.24427490234375,0.2101376503705978,0.1832595765590667,0.636521577835083
1780528432904376000,6.2543759765625,0.2357939779758453,-0.0464257597923278,-0.0647517144680023
1780528432914507800,6.2645078125,0.280998021364212,-0.304210901260376,-0.788016140460968
1780528432924578600,6.27457861328125,0.2406809031963348,-0.4728097021579742,-0.9334021210670472
1780528432934680000,6.28468017578125,0.2846632003784179,-0.4300491213798523,-0.5412266254425049
1780528432995318500,6.345318603515625,0.4715879559516907,-0.1600466966629028,-0.0012217304902151
1780528433005419800,6.355419677734375,0.5106833577156067,-0.1624901592731475,-0.140499010682106
1780528433015490600,6.365490478515625,0.5412266254425049,-0.0733038261532783,0.0195476878434419
1780528433025622300,6.375622314453125,0.5180137157440186,-0.0659734457731247,0.3689626157283783
1780528433045855500,6.39585546875,0.2528982162475586,-0.3384193480014801,0.7086036801338196
1780528433096392700,6.446392822265625,0.7586946487426758,-0.2015855312347412,-0.0464257597923278
1780528433136767500,6.486767578125,0.4899139404296875,-0.3237585723400116,0.4984660446643829
1780528433146899200,6.496899169921875,0.5412266254425049,-0.3164281845092773,0.4263839423656463
1780528433157061600,6.5070615234375,0.616973876953125,-0.2919935882091522,0.375071257352829
1780528433167193300,6.517193359375,0.6194173693656921,-0.3371976017951965,0.3078760802745819
1780528433177294800,6.527294921875,0.504574716091156,-0.4532620012760162,0.2247984111309051
1780528433187426600,6.537426513671875,0.3689626157283783,-0.5717698931694031,0.1466076523065567
1780528433197558500,6.54755859375,0.2919935882091522,-0.6633996367454529,0.0720821022987365
1780528433207690200,6.557690185546875,0.3005456924438476,-0.6817256212234497,0.0244346093386411
1780528433217791500,6.56779150390625,0.3775147199630737,-0.6646214127540588,-0.0696386396884918
1780528433238055200,6.58805517578125,0.3579670190811157,-0.6035348773002625,-0.0842994004487991
1780528433248187100,6.598187255859375,0.3347541689872741,-0.5583308339118958,0.0574213340878486
1780528433258288400,6.608288330078125,0.4056145250797272,-0.5229006409645081,0.1160643994808197
1780528433268389600,6.6183896484375,0.4202753007411957,-0.5461135506629944,0.167377084493637
1780528433278491100,6.6284912109375,0.36529740691185,-0.5925393104553223,0.2846632003784179
1780528433288592400,6.63859228515625,0.3176499307155609,-0.5949827432632446,0.4227187633514404
1780528433298693600,6.648693603515625,0.304210901260376,-0.5461135506629944,0.5351179838180542
1780528433308856000,6.65885595703125,0.3359758853912353,-0.4972442984580993,0.5510004758834839
1780528433329058600,6.67905859375,0.4434881806373596,-0.5155702829360962,0.2956587672233581
1780528433339190500,6.6891904296875,0.4043927788734436,-0.485027015209198,0.2895501255989074
1780528433359393000,6.70939306640625,0.3799581825733185,-0.3897320330142975,0.4508185386657715
1780528433369494500,6.71949462890625,0.3127630054950714,-0.3310889601707458,0.5522221922874451
1780528433379595800,6.729595703125,0.2736676335334778,-0.3139847218990326,0.6572909951210022
1780528433389697000,6.739697021484375,0.3017674386501312,-0.2846632003784179,0.6291912198066711
1780528433399798300,6.74979833984375,0.304210901260376,-0.2174680233001709,0.4862487316131592
1780528433409899800,6.759899658203125,0.2626720666885376,-0.2113593816757202,0.3506366610527038
1780528433419970600,6.769970458984375,0.271224170923233,-0.2919935882091522,0.2467895597219467
1780528433430071800,6.78007177734375,0.3029891550540924,-0.3225368559360504,0.107512280344963
1780528433440173000,6.790173095703125,0.2773328125476837,-0.2626720666885376,0.0183259565383195
1780528433450335500,6.80033544921875,0.2480112910270691,-0.1881465017795562,0.0415388382971286
1780528433460436700,6.810436767578125,0.2382374405860901,-0.107512280344963,0.1087340116500854
1780528433470568700,6.820568603515625,0.2186897546052932,-0.0378736443817615,0.1527163088321685
1780528433480731100,6.830731201171875,0.197920337319374,0.0122173046693205,0.140499010682106
1780528433500933600,6.85093359375,0.251676470041275,0.0549778714776039,0.067195177078247
1780528433511096000,6.861095947265625,0.2528982162475586,0.0549778714776039,0.0464257597923278
1780528433521197300,6.871197265625,0.1954768747091293,0.058643065392971,0.1429424732923507
1780528433531298600,6.881298583984375,0.2064724564552307,0.1001818999648094,0.2553416788578033
1780528433551501300,6.901501220703125,0.2443460971117019,0.0916297882795333,0.3359758853912353
1780528433622241000,6.972240966796875,0.2028072625398636,-0.0928515195846557,0.2687807083129883
1780528433632372700,6.982372802734375,0.180816113948822,-0.1148426681756973,0.1197295859456062
1780528433652606000,7.00260595703125,0.1258382350206375,-0.0965167060494422,-0.0916297882795333
1780528433713275000,7.06327490234375,0.1014036312699318,0.0134390350431203,0.0464257597923278
1780528433733386000,7.083385986328125,0.1930334120988845,0.0,-0.0048869219608604
1780528433783709400,7.13370947265625,0.1722639948129654,0.221133217215538,-0.2724458873271942
1780528433834155000,7.184155029296875,-0.167377084493637,0.5143485069274902,-0.1001818999648094
1780528433844225800,7.194225830078125,-0.2638937830924988,0.5668829679489136,-0.0830776765942573
1780528433854296600,7.204296630859375,-0.3237585723400116,0.5387831330299377,-0.1698205322027206
1780528433864398000,7.214398193359375,-0.371406078338623,0.4581489264965057,-0.2565633952617645
1780528433874468900,7.22446875,-0.4373795092105865,0.4214970171451568,-0.2675589919090271
1780528433884570000,7.234570068359375,-0.5803219676017761,0.3506366610527038,-0.3335324227809906
1780528433894610400,7.2446103515625,-0.6377432942390442,0.3176499307155609,-0.5546656250953674
1780528433904711700,7.254711669921875,-0.7611380815505981,0.2968805134296417,-0.7183775305747986
1780528433934954800,7.284954833984375,-0.8710938692092896,0.1759291887283325,-0.3310889601707458
1780528433945025500,7.295025634765625,-0.9346238374710084,0.1148426681756973,-0.1233947798609733
1780528433955096300,7.305096435546875,-0.978606104850769,0.0965167060494422,0.0623082555830478
1780528433965197600,7.315197509765625,-0.9847147464752196,0.1221730485558509,0.1857030391693115
1780528433975298800,7.325298828125,-0.9896016716957092,0.1905899494886398,0.2602286040782928
1780528433985369600,7.33536962890625,-1.0054842233657837,0.2675589919090271,0.2748893499374389
1780528433995440400,7.3454404296875,-1.036027431488037,0.2822197377681732,0.2883284091949463
1780528434005511200,7.35551123046875,-1.0775662660598757,0.2577851414680481,0.2846632003784179
1780528434015612700,7.36561279296875,-1.1362093687057495,0.2113593816757202,0.3628539443016052
1780528434025683500,7.375683349609375,-1.15820050239563,0.1612684279680252,0.4410447180271148
1780528434035784700,7.38578466796875,-1.1215485334396362,0.1026253625750541,0.4019493460655212
1780528434055895800,7.405895751953125,-1.027475357055664,0.0036651915870606,0.0378736443817615
1780528434065966600,7.415966552734375,-0.95783668756485,-0.0024434609804302,-0.1771509200334549
1780528434076067800,7.42606787109375,-0.8857545852661133,0.0305432621389627,-0.261450320482254
1780528434086169300,7.43616943359375,-0.8319984674453735,0.1111774742603302,-0.2480112910270691
1780528434096270600,7.4462705078125,-0.8356636762619019,0.1527163088321685,-0.1490511149168014
1780528434106341400,7.45634130859375,-0.8625417351722717,0.1600466966629028,-0.0525344125926494
1780528434116412200,7.466412109375,-0.8136724829673767,0.2186897546052932,-0.0830776765942573
1780528434126452500,7.476452392578125,-0.7379252314567566,0.2846632003784179,-0.1759291887283325
1780528434136553700,7.4865537109375,-0.6731734871864319,0.351858377456665,-0.2382374405860901
1780528434146624500,7.49662451171875,-0.607200026512146,0.371406078338623,-0.2724458873271942
1780528434156695300,7.5066953125,-0.5510004758834839,0.3359758853912353,-0.2907718420028686
1780528434166766000,7.51676611328125,-0.5913175344467163,0.294437050819397,-0.3457497358322143
1780528434176836900,7.5268369140625,-0.6927211880683899,0.3090978264808655,-0.3005456924438476
1780528434186907600,7.53690771484375,-0.6951646208763123,0.3836233615875244,-0.2590068578720093
1780528434197009200,7.547009033203125,-0.5778785347938538,0.3885102868080139,-0.2981022298336029
1780528434207080000,7.557079833984375,-0.4642575979232788,0.3445279896259308,-0.4019493460655212
1780528434297839000,7.647839111328125,-0.0439822971820831,0.2993239760398865,-0.351858377456665
1780528434378405600,7.728405517578125,0.4789183437824249,0.4337143301963806,-0.1368338167667389
1780528434459033000,7.809033203125,1.0690141916275024,0.4337143301963806,-0.4190535545349121
1780528434549761800,7.89976171875,1.852143406867981,0.2345722615718841,-1.1203268766403198
1780528434610247700,7.96024755859375,1.7739527225494385,0.0806342139840126,-0.4141666293144226
1780528434620379400,7.97037939453125,1.6664403676986694,0.0952949747443199,-0.2785545587539673
1780528434630450200,7.9804501953125,1.6420058012008667,0.0757472887635231,-0.1111774742603302
1780528434640521000,7.99052099609375,1.7556266784667969,-0.0305432621389627,-0.2076941877603531
1780528434650622500,8.00062255859375,1.7727309465408323,-0.157603234052658,-0.4410447180271148
1780528434660723700,8.0107236328125,1.3964380025863647,-0.2113593816757202,-0.2773328125476837
1780528434670825000,8.020824951171875,1.3231340646743774,-0.2003637999296188,-0.1148426681756973
1780528434680926200,8.03092626953125,1.370781660079956,-0.1918116807937622,-0.0684169083833694
1780528434711138800,8.061138916015626,0.8930850028991699,-0.0537561401724815,0.0207694191485643
1780528434721209600,8.071209716796876,0.7855727076530457,-0.0879645943641662,0.2956587672233581
1780528434731310800,8.081310791015625,0.6670648455619812,-0.1600466966629028,0.6108652353286743
1780528434741381600,8.091381591796875,0.4642575979232788,-0.2907718420028686,0.7037167549133301
1780528434751452400,8.101452392578125,0.1624901592731475,-0.452040284872055,0.5338962078094482
1780528434771594000,8.121593994140625,-0.1514945775270462,-0.2492330223321914,0.0232128798961639
1780528434781664800,8.131664794921875,-0.1026253625750541,0.0647517144680023,-0.1368338167667389
1780528434791735600,8.141735595703125,-0.1747074574232101,0.271224170923233,-0.2345722615718841
1780528434801806300,8.151806396484375,-0.36529740691185,0.2296853363513946,-0.1417207419872284
1780528434811877400,8.16187744140625,-0.5277875661849976,-0.0134390350431203,-0.0048869219608604
1780528434821978600,8.171978515625,-0.7525860071182251,-0.2284636050462722,0.0977384373545646
1780528434832049400,8.18204931640625,-1.037249207496643,-0.1539380401372909,0.261450320482254
1780528434842120200,8.1921201171875,-1.1789699792861938,0.1295034289360046,0.4630358517169952
1780528434852221400,8.202221435546875,-1.1484266519546509,0.294437050819397,0.5791002511978149
1780528434862292200,8.212292236328125,-1.0971139669418335,0.2480112910270691,0.5632177591323853
1780528434872363000,8.222363037109375,-1.1337659358978271,0.1087340116500854,0.3909537494182586
1780528434882464500,8.232464599609376,-1.313360333442688,0.0488692186772823,0.1001818999648094
1780528434912707300,8.262707275390625,-1.5161675214767456,0.1734857261180877,-0.3005456924438476
1780528434983202800,8.333202880859375,-1.547932505607605,-0.1466076523065567,-0.475253164768219
1780528435023516700,8.3735166015625,-1.2620476484298706,-0.3090978264808655,0.0720821022987365
1780528435084033000,8.434032958984375,-1.281595230102539,-0.2871066629886627,0.1747074574232101
1780528435094073300,8.4440732421875,-1.1936306953430176,-0.3591887652873993,-0.0305432621389627
1780528435114306600,8.464306640625,-1.1276572942733765,-0.6511823534965515,0.0598647929728031
1780528435134448000,8.4844482421875,-0.9908234477043152,-0.5082398653030396,0.3164281845092773
1780528435144549400,8.49454931640625,-0.8429940342903137,-0.1954768747091293,0.5558874011039734
1780528435154620200,8.5046201171875,-0.5619960427284241,0.0818559452891349,0.7024950385093689
1780528435164691000,8.51469091796875,-0.3371976017951965,0.0965167060494422,0.5864306092262268
1780528435174761700,8.52476171875,-0.3445279896259308,-0.0916297882795333,0.130725160241127
1780528435184863000,8.534863037109375,-0.4764748811721802,-0.1380555480718612,-0.2822197377681732
1780528435194934000,8.54493408203125,-0.4581489264965057,0.0024434609804302,-0.4349360466003418
1780528435205035300,8.55503515625,-0.3640756905078888,0.1038470938801765,-0.3836233615875244
1780528435215075600,8.56507568359375,-0.3824016451835632,-0.0134390350431203,0.0378736443817615
1780528435235278000,8.585278076171875,-0.6524040699005127,-0.2357939779758453,0.608421802520752
1780528435245318400,8.595318359375,-0.7770205736160278,-0.1514945775270462,0.4092797040939331
1780528435255419600,8.605419677734375,-0.6487388610839844,-0.1319468915462494,-0.0146607663482427
1780528435275622400,8.625622314453125,0.2052507251501083,-0.0598647929728031,-0.3176499307155609
1780528435285754000,8.635754150390625,0.3543018400669098,-0.0916297882795333,-0.0708603709936142
1780528435295825000,8.645824951171875,0.2406809031963348,-0.2565633952617645,0.271224170923233
1780528435305926400,8.655926513671876,-0.0879645943641662,-0.2846632003784179,0.5106833577156067
1780528435326129000,8.67612890625,-0.375071257352829,0.0366519130766391,0.6976081132888794
1780528435336199700,8.68619970703125,-0.0757472887635231,0.167377084493637,0.2284636050462722
1780528435356372000,8.7063720703125,0.461814135313034,0.1771509200334549,-0.5448917746543884
1780528435366473200,8.71647314453125,0.3909537494182586,0.0879645943641662,-0.1820378452539444
1780528435376544000,8.7265439453125,0.3005456924438476,-0.0488692186772823,0.1282816976308822
1780528435386614800,8.73661474609375,0.1942551434040069,-0.0867428630590438,0.2296853363513946
1780528435396716000,8.746716064453125,0.2052507251501083,0.0855211317539215,0.2015855312347412
1780528435406786800,8.756786865234375,0.3481931984424591,0.2345722615718841,0.1050688251852989
1780528435416918800,8.766918701171875,0.5082398653030396,0.2003637999296188,0.0647517144680023
1780528435426989600,8.776989501953125,0.5937610268592834,0.1527163088321685,0.0623082555830478
1780528435437090800,8.7870908203125,0.5253441333770752,0.1282816976308822,0.0122173046693205
1780528435447222800,8.797222900390626,0.3152064681053161,0.0354301854968071,0.0952949747443199
1780528435457263000,8.80726318359375,0.2223549485206604,-0.0733038261532783,0.2602286040782928
1780528435467364400,8.8173642578125,0.2724458873271942,-0.0623082555830478,0.2675589919090271
1780528435477435100,8.82743505859375,0.2993239760398865,-0.0048869219608604,0.2247984111309051
1780528435487536400,8.837536376953125,0.2846632003784179,-0.0061086523346602,0.2186897546052932
1780528435497607200,8.847607177734375,0.2761110961437225,-0.0390953756868839,0.2040289938449859
1780528435507708700,8.857708740234376,0.3115412890911102,-0.0574213340878486,0.1734857261180877
1780528435517810000,8.867809814453125,0.3775147199630737,-0.0366519130766391,0.0806342139840126
1780528435527911200,8.8779111328125,0.4068362414836883,-0.0574213340878486,0.0647517144680023
1780528435538012400,8.888012451171875,0.4227187633514404,-0.0317649915814399,0.0537561401724815
1780528435548114000,8.898114013671876,0.4117231667041778,-0.0109955742955207,0.1490511149168014
1780528435558184700,8.908184814453126,0.3897320330142975,-0.058643065392971,0.294437050819397
1780528435568286000,8.918285888671875,0.3262020349502563,-0.130725160241127,0.3628539443016052
1780528435588519200,8.938519287109376,0.3433062732219696,-0.1918116807937622,0.2785545587539673
1780528435598590000,8.94858984375,0.46547931432724,-0.2406809031963348,0.1563815027475357
1780528435608691200,8.958691162109375,0.5778785347938538,-0.2492330223321914,0.0500909499824047
1780528435618792400,8.96879248046875,0.6707300543785095,-0.2003637999296188,-0.0525344125926494
1780528435628924400,8.97892431640625,0.646295428276062,-0.1759291887283325,-0.0036651915870606
1780528435638995200,8.9889951171875,0.4972442984580993,-0.1881465017795562,0.2822197377681732
1780528435659167200,9.009167236328125,0.4508185386657715,-0.2113593816757202,0.6352998614311218
1780528435679400400,9.029400390625,0.3005456924438476,-0.3396410644054413,0.5852088928222656
1780528435689532200,9.0395322265625,0.3323107063770294,-0.3701843321323395,0.4483750760555267
1780528435699633700,9.049633544921877,0.4300491213798523,-0.280998021364212,0.1857030391693115
1780528435709735000,9.05973486328125,0.4214970171451568,-0.2150245606899261,0.0048869219608604
1780528435719866600,9.06986669921875,0.3213151097297668,-0.3005456924438476,-0.0122173046693205
1780528435729968000,9.079968017578125,0.2150245606899261,-0.3836233615875244,0.0830776765942573
1780528435740069400,9.0900693359375,0.1588249653577804,-0.3872885704040527,0.2125810980796814
1780528435800768800,9.150768798828125,0.3152064681053161,-0.4129449129104614,-0.0720821022987365
1780528435810839600,9.160839599609377,0.3506366610527038,-0.4593706727027893,0.0867428630590438
1780528435871569700,9.221569580078125,0.4593706727027893,-0.3604104816913605,0.3579670190811157
1780528435881701400,9.231701416015625,0.4862487316131592,-0.2907718420028686,0.2748893499374389
1780528435891803000,9.241802978515626,0.4862487316131592,-0.2419026345014572,0.3567453026771545
1780528435912005400,9.26200537109375,0.4459316432476043,-0.3359758853912353,0.6218608021736145
1780528435922137300,9.272137451171876,0.4043927788734436,-0.3445279896259308,0.6035348773002625
1780528435932208000,9.2822080078125,0.351858377456665,-0.2932153046131134,0.5082398653030396
1780528435952410600,9.30241064453125,0.3359758853912353,-0.1966986060142517,0.2186897546052932
1780528435972583000,9.3225830078125,0.2467895597219467,-0.157603234052658,0.2467895597219467
1780528435982714600,9.332714599609377,0.2480112910270691,-0.090408056974411,0.2785545587539673
1780528436002978300,9.352978271484377,0.2223549485206604,-0.1258382350206375,0.2736676335334778
1780528436013079600,9.36307958984375,0.1844813078641891,-0.1185078546404838,0.2785545587539673
1780528436023242000,9.373241943359377,0.2015855312347412,-0.0818559452891349,0.2455678284168243
1780528436033343200,9.38334326171875,0.2052507251501083,-0.0623082555830478,0.1612684279680252
1780528436043444700,9.39344482421875,0.1624901592731475,-0.0781907513737678,0.0830776765942573
1780528436063647200,9.413647216796877,0.130725160241127,-0.0256563406437635,-0.1099557429552078
1780528436094012200,9.44401220703125,0.0940732508897781,0.0219911485910415,-0.0659734457731247
1780528436114245400,9.464245361328125,0.1282816976308822,0.1661553531885147,0.1123992055654525
1780528436124377300,9.47437744140625,0.147829383611679,0.1759291887283325,0.221133217215538
1780528436134478600,9.484478515625,0.1820378452539444,0.140499010682106,0.2638937830924988
1780528436154681000,9.50468115234375,0.1380555480718612,0.0439822971820831,-0.0158824957907199
1780528436164782600,9.514782470703125,0.1331686228513717,-0.0256563406437635,-0.1844813078641891
1780528436174883800,9.5248837890625,0.1661553531885147,-0.0598647929728031,-0.3200933933258056
1780528436184985000,9.534985107421877,0.1685988008975982,-0.0561996027827262,-0.3689626157283783
1780528436195086600,9.545086669921876,0.1246165111660957,-0.051312681287527,-0.3164281845092773
1780528436205187800,9.555187744140625,0.098960168659687,-0.0390953756868839,-0.2247984111309051
1780528436215319600,9.565319580078125,0.1197295859456062,-0.0537561401724815,-0.1661553531885147
1780528436225421000,9.575421142578126,0.1441642045974731,-0.0708603709936142,-0.1490511149168014
1780528436235552800,9.585552734375,0.1343903541564941,-0.098960168659687,-0.1392772793769836
1780528436245654000,9.595654052734377,0.1221730485558509,-0.1209513172507286,-0.1588249653577804
1780528436255786000,9.605785888671877,0.147829383611679,-0.1123992055654525,-0.2223549485206604
1780528436265887200,9.61588720703125,0.1820378452539444,-0.0806342139840126,-0.2834414839744568
1780528436275988500,9.625988525390625,0.2003637999296188,-0.0415388382971286,-0.2785545587539673
1780528436286120400,9.636120361328125,0.2370157092809677,-0.0280998013913631,-0.2321287989616394
1780528436296221700,9.6462216796875,0.271224170923233,-0.0366519130766391,-0.1637118905782699
1780528436306353700,9.656353759765626,0.2577851414680481,-0.0158824957907199,-0.090408056974411
1780528436316515800,9.666515869140625,0.2272418737411499,0.0293215326964855,-0.051312681287527
1780528436326647800,9.676647705078125,0.1991420686244964,0.1062905490398407,-0.098960168659687
1780528436336749000,9.6867490234375,0.1734857261180877,0.1820378452539444,-0.1771509200334549
1780528436346850300,9.696850341796877,0.1588249653577804,0.2467895597219467,-0.1795943826436996
1780528436356951800,9.706951904296876,0.167377084493637,0.3213151097297668,-0.0659734457731247
1780528436377184800,9.727184814453125,0.0806342139840126,0.3958406746387481,0.2883284091949463
1780528436387286300,9.737286376953126,-0.0122173046693205,0.4031710624694824,0.3176499307155609
1780528436397387500,9.747387451171877,-0.0842994004487991,0.4239404797554016,0.1905899494886398
1780528436407519200,9.757519287109377,-0.1441642045974731,0.4789183437824249,0.0769690200686454
1780528436417651200,9.767651123046877,-0.1612684279680252,0.5900958180427551,-0.0122173046693205
1780528436427783000,9.777782958984377,-0.1795943826436996,0.656069278717041,-0.0109955742955207
1780528436437884400,9.787884521484376,-0.167377084493637,0.685390830039978,0.0280998013913631
1780528436447985700,9.797985595703125,-0.1295034289360046,0.6621779203414917,-0.0549778714776039
1780528436458117400,9.808117431640625,-0.1783726513385772,0.598647952079773,-0.1527163088321685
1780528436478320000,9.828320068359377,-0.3494149148464203,0.5693264007568359,-0.1417207419872284
1780528436488451800,9.838451904296877,-0.3579670190811157,0.5595525503158569,-0.2064724564552307
1780528436539050000,9.889050048828125,-0.6731734871864319,0.3457497358322143,-0.1869247704744339
1780528436569354000,9.91935400390625,-0.7452555894851685,0.1795943826436996,-0.098960168659687
1780528436579424800,9.9294248046875,-0.7232644557952881,0.1368338167667389,-0.1954768747091293
1780528436670153700,10.02015380859375,-0.7122688889503479,0.0916297882795333,-0.0488692186772823
1780528436680255000,10.0302548828125,-0.7098253965377808,0.1062905490398407,-0.0036651915870606
1780528436690356200,10.040356201171877,-0.6902777552604675,0.0916297882795333,-0.0415388382971286
1780528436771014100,10.12101416015625,-0.5009095072746277,0.2993239760398865,-0.1295034289360046
1780528436791155700,10.14115576171875,-0.5510004758834839,0.1331686228513717,-0.1783726513385772
1780528436831439000,10.181439208984376,-0.5106833577156067,0.0464257597923278,-0.3262020349502563
1780528436891863800,10.24186376953125,-0.4691445231437683,0.2370157092809677,0.1331686228513717
1780528436901965000,10.251965087890625,-0.4141666293144226,0.2638937830924988,0.0329867228865623
1780528436922106600,10.272106689453125,-0.4373795092105865,0.0733038261532783,-0.2797762751579284
1780528437002703600,10.35270361328125,0.0378736443817615,0.4532620012760162,-0.3481931984424591
1780528437012774400,10.3627744140625,0.1001818999648094,0.3701843321323395,-0.2492330223321914
1780528437083392300,10.433392333984376,0.7257078886032104,0.1881465017795562,-0.6585127115249634
1780528437123736300,10.473736328125,1.1129964590072632,0.2626720666885376,-0.3213151097297668
1780528437133837800,10.483837890625,1.274264931678772,0.2565633952617645,-0.2370157092809677
1780528437224597000,10.574596923828125,1.9120081663131716,0.1881465017795562,-0.0940732508897781
1780528437234698200,10.5846982421875,1.9523253440856931,0.2247984111309051,-0.3359758853912353
1780528437315356200,10.665356201171877,1.4550809860229492,0.3982841372489929,-0.0048869219608604
1780528437396044800,10.746044921875,0.4068362414836883,0.1356120854616165,0.2296853363513946
1780528437406146000,10.75614599609375,0.3139847218990326,0.0623082555830478,0.0549778714776039
1780528437506915000,10.8569150390625,-0.8930850028991699,0.4337143301963806,-0.0317649915814399
1780528437527056600,10.877056640625,-0.9248499870300292,0.2675589919090271,-0.504574716091156
1780528437537127400,10.88712744140625,-1.1032226085662842,0.0183259565383195,-0.3982841372489929
1780528437547198200,10.8971982421875,-1.2681562900543213,-0.1551597714424133,-0.1637118905782699
1780528437577441300,10.927441162109377,-1.5699236392974854,0.0684169083833694,-0.0244346093386411
1780528437627825700,10.97782568359375,-1.6676621437072754,-0.5155702829360962,-0.1014036312699318
1780528437637896400,10.987896484375,-1.7299703359603882,-0.4996877610683441,0.0500909499824047
1780528437647998000,10.997998046875,-1.6224581003189087,-0.4459316432476043,0.1527163088321685
1780528437668139500,11.018139404296877,-1.4135421514511108,-0.3139847218990326,0.2504547536373138
1780528437678210300,11.028210205078125,-1.3048081398010254,-0.3298672437667846,0.1612684279680252
1780528437688281000,11.038281005859377,-1.3561208248138428,-0.4581489264965057,-0.0733038261532783
1780528437698351900,11.048351806640625,-1.576032280921936,-0.5192354321479797,-0.0635299831628799
1780528437708453000,11.058453125,-1.6969836950302124,-0.4508185386657715,0.2138028293848037
1780528437718524000,11.06852392578125,-1.6615535020828247,-0.3274237811565399,0.5473352670669556
1780528437728625400,11.07862548828125,-1.5234979391098022,-0.2565633952617645,0.9761626720428468
1780528437738696200,11.0886962890625,-1.2974777221679688,-0.3066543638706207,1.1007791757583618
1780528437748797400,11.09879736328125,-1.1985175609588623,-0.4386012554168701,0.8051204085350037
1780528437758898700,11.108898681640625,-1.29381263256073,-0.5265658497810364,0.3909537494182586
1780528437768969500,11.118969482421877,-1.2962560653686523,-0.4459316432476043,0.1123992055654525
1780528437779071000,11.129071044921876,-1.0714576244354248,-0.3933972120285034,-0.0708603709936142
1780528437789141800,11.139141845703126,-0.9187413454055786,-0.4691445231437683,0.0293215326964855
1780528437799212500,11.149212646484376,-0.9334021210670472,-0.4642575979232788,0.5485569834709167
1780528437809313800,11.159313720703125,-0.9541715383529664,-0.3017674386501312,1.1362093687057495
1780528437819384600,11.169384521484377,-0.8698720932006836,-0.1160643994808197,1.368338108062744
1780528437829455400,11.179455322265625,-0.7672467231750488,-0.0940732508897781,1.176526427268982
1780528437839556600,11.189556640625,-0.6621779203414917,-0.2235766798257827,0.4764748811721802
1780528437849658000,11.199658203125,-0.5705481171607971,-0.4227187633514404,-0.4178318381309509
1780528437859759400,11.20975927734375,-0.4483750760555267,-0.6194173693656921,-0.9150761365890504
1780528437869860600,11.219860595703125,-0.3090978264808655,-0.6108652353286743,-0.9676105380058287
1780528437879961900,11.2299619140625,-0.2480112910270691,-0.4801400899887085,-0.2602286040782928
1780528437890063400,11.2400634765625,-0.2076941877603531,-0.4043927788734436,0.8478809595108032
1780528437960650500,11.310650390625,0.1368338167667389,-0.4776966273784637,-0.6511823534965515
1780528438010943500,11.360943603515626,0.3543018400669098,0.3982841372489929,-0.1160643994808197
1780528438081500200,11.431500244140626,0.4471533596515655,0.5607742667198181,0.3457497358322143
1780528438091540200,11.441540283203125,0.4495968222618103,0.3176499307155609,-0.2773328125476837
1780528438131854000,11.48185400390625,0.1380555480718612,-0.1966986060142517,0.1123992055654525
1780528438141955300,11.491955322265625,0.2419026345014572,-0.0965167060494422,0.4092797040939331
1780528438152026000,11.502026123046877,0.4105014503002167,-0.0268780700862407,0.3225368559360504
1780528438162127600,11.512127685546876,0.3885102868080139,-0.1197295859456062,0.1722639948129654
1780528438172228900,11.522228759765625,0.1918116807937622,-0.2577851414680481,0.1844813078641891
1780528438182299600,11.532299560546877,0.090408056974411,-0.3164281845092773,0.1685988008975982
1780528438192370400,11.542370361328125,0.1319468915462494,-0.2296853363513946,0.0549778714776039
1780528438202471700,11.5524716796875,0.1502728462219238,-0.1490511149168014,0.0488692186772823
1780528438212512000,11.562511962890625,0.1893682330846786,-0.0965167060494422,0.1514945775270462
1780528438222644000,11.57264404296875,0.3530801236629486,-0.0183259565383195,0.1698205322027206
1780528438273089300,11.62308935546875,0.4214970171451568,-0.0806342139840126,0.2675589919090271
1780528438333666800,11.683666748046877,0.6047565937042236,-0.2467895597219467,0.0537561401724815
1780528438343737600,11.693737548828125,0.6047565937042236,-0.2687807083129883,0.1612684279680252
1780528438353838800,11.7038388671875,0.5326744914054871,-0.3396410644054413,0.2638937830924988
1780528438363940400,11.7139404296875,0.3872885704040527,-0.4239404797554016,0.3836233615875244
1780528438374011100,11.72401123046875,0.3139847218990326,-0.394618958234787,0.5180137157440186
1780528438384112400,11.7341123046875,0.3872885704040527,-0.2883284091949463,0.5119050741195679
1780528438404284400,11.754284423828125,0.2919935882091522,-0.5937610268592834,0.3359758853912353
1780528438414355200,11.764355224609377,0.1539380401372909,-0.797789990901947,0.3885102868080139
1780528438424426000,11.774426025390625,0.1685988008975982,-0.7757988572120667,0.2235766798257827
1780528438434527500,11.784527587890626,0.1331686228513717,-0.6927211880683899,0.1111774742603302
1780528438444628700,11.794628662109377,0.0855211317539215,-0.7159340381622314,0.1734857261180877
1780528438454730000,11.80472998046875,0.1685988008975982,-0.7660250067710876,0.221133217215538
1780528438464800800,11.81480078125,0.304210901260376,-0.7049384713172913,0.2284636050462722
1780528438474902300,11.82490234375,0.3762930035591125,-0.5229006409645081,0.2919935882091522
1780528438484973000,11.83497314453125,0.3958406746387481,-0.432492583990097,0.4740314185619354
1780528438495074300,11.84507421875,0.4312708675861358,-0.4728097021579742,0.6243042945861816
1780528438505206000,11.8552060546875,0.4398229718208313,-0.4874704778194427,0.5607742667198181
1780528438535479600,11.8854794921875,0.4630358517169952,-0.3640756905078888,0.3286454975605011
1780528438616351200,11.966351318359376,0.4886921942234039,-0.0317649915814399,0.371406078338623
1780528438646777000,11.996777099609377,0.3139847218990326,0.0610865242779254,0.2247984111309051
1780528438677081000,12.0270810546875,0.1453859210014343,0.0268780700862407,-0.0427605658769607
1780528438687213000,12.037213134765626,0.1197295859456062,0.0097738439217209,-0.0012217304902151
1780528438707415600,12.05741552734375,0.2064724564552307,0.0366519130766391,0.1356120854616165
1780528438717547500,12.067547607421876,0.2785545587539673,0.1099557429552078,0.1502728462219238
1780528438727679200,12.07767919921875,0.351858377456665,0.1282816976308822,0.1514945775270462
1780528438737780500,12.087780517578125,0.394618958234787,0.0940732508897781,0.1893682330846786
1780528438747912400,12.097912353515625,0.4068362414836883,0.0623082555830478,0.1698205322027206
1780528438758044200,12.108044189453125,0.3494149148464203,0.0305432621389627,0.1099557429552078
1780528438768176000,12.118176025390625,0.2883284091949463,-0.0085521135479211,0.0598647929728031
1780528438778277400,12.12827734375,0.2895501255989074,-0.0464257597923278,-0.0439822971820831
1780528438798480100,12.148480224609376,0.1918116807937622,-0.1282816976308822,-0.2822197377681732
1780528438808642300,12.158642333984377,0.1038470938801765,-0.058643065392971,-0.2748893499374389
1780528438838946300,12.1889462890625,-0.0476474873721599,-0.0134390350431203,0.0146607663482427
1780528438879412700,12.229412841796876,0.1893682330846786,0.0219911485910415,0.0879645943641662
1780528438889514000,12.239513916015625,0.251676470041275,-0.0097738439217209,0.1197295859456062
1780528438899645700,12.249645751953125,0.2638937830924988,-0.0855211317539215,0.1343903541564941
1780528438909777700,12.259777587890625,0.2871066629886627,-0.1185078546404838,0.090408056974411
1780528438919879000,12.26987890625,0.3384193480014801,-0.0830776765942573,0.0195476878434419
1780528438929919200,12.279919189453125,0.361632227897644,-0.0293215326964855,-0.0171042270958423
1780528438940051200,12.29005126953125,0.3836233615875244,-0.0207694191485643,-0.0464257597923278
1780528438950152400,12.30015234375,0.4129449129104614,-0.0378736443817615,-0.1050688251852989
1780528438970294000,12.3202939453125,0.3982841372489929,0.051312681287527,-0.117286130785942
1780528439020861700,12.37086181640625,0.0659734457731247,0.4740314185619354,-0.5082398653030396
1780528439030963000,12.380962890625,0.0610865242779254,0.5693264007568359,-0.6377432942390442
1780528439071429400,12.421429443359376,-0.0354301854968071,0.6841690540313721,-0.2089159190654754
1780528439081561000,12.43156103515625,-0.0684169083833694,0.6878342628479004,-0.2394591718912124
1780528439091692800,12.44169287109375,-0.1319468915462494,0.7073819637298584,-0.3188716471195221
1780528439101824800,12.45182470703125,-0.2113593816757202,0.7049384713172913,-0.3237585723400116
1780528439111926000,12.461926025390625,-0.2284636050462722,0.6243042945861816,-0.3506366610527038
1780528439122058000,12.47205810546875,-0.2186897546052932,0.5375614166259766,-0.4447098970413208
1780528439132189700,12.482189697265625,-0.2443460971117019,0.4764748811721802,-0.4703662395477295
1780528439142291000,12.492291015625,-0.2797762751579284,0.4801400899887085,-0.4239404797554016
1780528439172564500,12.522564453125,-0.513126790523529,0.3604104816913605,-0.2736676335334778
1780528439182727000,12.532726806640625,-0.5717698931694031,0.3494149148464203,-0.2406809031963348
1780528439192858600,12.542858642578125,-0.6475171446800232,0.3738495409488678,-0.0940732508897781
1780528439202960100,12.552960205078126,-0.6670648455619812,0.3982841372489929,0.0219911485910415
1780528439213061400,12.563061279296877,-0.7037167549133301,0.3530801236629486,0.0928515195846557
1780528439253527600,12.603527587890625,-0.8136724829673767,0.0928515195846557,-0.0146607663482427
1780528439263629000,12.613629150390626,-0.7806857824325562,0.0940732508897781,-0.0024434609804302
1780528439273760800,12.6237607421875,-0.7538077235221863,0.0916297882795333,0.0781907513737678
1780528439283923200,12.633923095703125,-0.7305948138237,0.0891863256692886,0.171042263507843
1780528439294024400,12.6440244140625,-0.7073819637298584,0.0574213340878486,0.2064724564552307
1780528439304125700,12.654125732421877,-0.6963863968849182,0.0280998013913631,0.1466076523065567
1780528439364886300,12.71488623046875,-0.6817256212234497,0.2443460971117019,0.1466076523065567
1780528439385089000,12.735089111328126,-0.6841690540313721,0.3530801236629486,0.0171042270958423
1780528439395190300,12.745190185546877,-0.7367035150527954,0.3824016451835632,-0.2089159190654754
1780528439405322000,12.755322021484377,-0.7623597979545593,0.4080579876899719,-0.2553416788578033
1780528439415423500,12.765423583984376,-0.7721336483955383,0.3982841372489929,-0.1820378452539444
1780528439425555200,12.77555517578125,-0.7489207983016968,0.3591887652873993,-0.1905899494886398
1780528439435687200,12.785687255859376,-0.6963863968849182,0.3176499307155609,-0.2981022298336029
1780528439445819000,12.79581884765625,-0.636521577835083,0.2981022298336029,-0.4288274049758911
1780528439455920000,12.805920166015625,-0.5998696684837341,0.2871066629886627,-0.4569272100925445
1780528439466052000,12.816052001953125,-0.5962044596672058,0.251676470041275,-0.3139847218990326
1780528439476183800,12.826183837890625,-0.6035348773002625,0.2040289938449859,-0.1014036312699318
1780528439496386600,12.846386474609377,-0.5473352670669556,0.1221730485558509,-0.0733038261532783
1780528439506487800,12.85648779296875,-0.5314527750015259,0.0806342139840126,-0.2492330223321914
1780528439516589000,12.866589111328125,-0.5375614166259766,0.0024434609804302,-0.4300491213798523
1780528439526690600,12.876690673828126,-0.5253441333770752,-0.058643065392971,-0.5717698931694031
1780528439536791800,12.886791748046877,-0.4948008358478546,-0.140499010682106,-0.5522221922874451
1780528439546893000,12.89689306640625,-0.4386012554168701,-0.1857030391693115,-0.4239404797554016
1780528439557025000,12.90702490234375,-0.4153883755207062,-0.221133217215538,-0.2651155292987823
1780528439567126300,12.917126220703125,-0.4043927788734436,-0.1881465017795562,-0.1123992055654525
1780528439597369000,12.947369140625,-0.2015855312347412,0.0403171069920063,-0.1722639948129654
1780528439607440000,12.95743994140625,-0.0916297882795333,-0.0219911485910415,-0.3127630054950714
1780528439627581700,12.977581787109376,-0.1820378452539444,-0.0965167060494422,-0.2785545587539673
1780528439637683000,12.987682861328125,-0.1905899494886398,-0.098960168659687,-0.2419026345014572
1780528439688098000,13.03809814453125,0.0757472887635231,-0.1429424732923507,-0.1050688251852989
1780528439738543600,13.088543701171876,0.6304129362106323,0.294437050819397,0.140499010682106
1780528439748644900,13.098644775390625,0.740368664264679,0.351858377456665,0.1282816976308822
1780528439758746000,13.10874609375,0.8552113175392151,0.3726277947425842,-0.0794124826788902
1780528439768817000,13.11881689453125,0.9272934198379515,0.2895501255989074,-0.1612684279680252
1780528439778887700,13.1288876953125,1.056796908378601,0.157603234052658,-0.1514945775270462
1780528439788958500,13.13895849609375,1.2424999475479126,0.1014036312699318,-0.1966986060142517
1780528439799029200,13.149029296875,1.398881435394287,0.1197295859456062,-0.2199114859104156
1780528439809100000,13.15910009765625,1.4465289115905762,0.2272418737411499,-0.1136209368705749
1780528439819171000,13.169171142578126,1.428202986717224,0.361632227897644,0.0977384373545646
1780528439829241900,13.179241943359376,1.4355332851409912,0.3469714522361755,0.2797762751579284
1780528439839343000,13.189343017578125,1.5357152223587036,0.2822197377681732,0.2028072625398636
1780528439849383400,13.199383544921876,1.6395623683929443,0.3005456924438476,-0.1771509200334549
1780528439859545600,13.209545654296877,1.7067575454711914,0.3481931984424591,-0.626747727394104
1780528439869616400,13.219616455078125,1.8863518238067627,0.4068362414836883,-0.9920451641082764
1780528439879718000,13.2297177734375,2.032959461212158,0.3506366610527038,-0.9932668805122375
1780528439909991200,13.2599912109375,1.814269781112671,0.3029891550540924,0.6682865619659424
1780528439920092700,13.2700927734375,1.7641788721084597,0.4031710624694824,1.0946705341339111
1780528439930133000,13.280133056640626,1.8985692262649536,0.5119050741195679,0.7183775305747986
1780528439940234200,13.290234130859377,1.97553825378418,0.4642575979232788,-0.0928515195846557
1780528439950305000,13.300304931640625,2.074498414993286,0.3237585723400116,-0.8234463334083557
1780528439960436700,13.310436767578125,2.116037130355835,0.2333505302667617,-1.2522737979888916
1780528439970477000,13.32047705078125,1.8460347652435305,0.2357939779758453,-0.96883225440979
1780528439990679800,13.3406796875,1.2877039909362793,0.5729916095733643,0.7086036801338196
1780528440000750600,13.35075048828125,1.1252137422561646,0.626747727394104,1.1887437105178833
1780528440030993400,13.380993408203125,0.6633996367454529,0.3640756905078888,0.0134390350431203
1780528440121691600,13.471691650390625,-0.797789990901947,-0.1368338167667389,0.147829383611679
1780528440162066400,13.51206640625,-1.0836749076843262,-0.0171042270958423,-0.3213151097297668
1780528440172167700,13.522167724609377,-1.138652801513672,0.0134390350431203,-0.3396410644054413
1780528440182238500,13.532238525390625,-1.2376129627227783,0.0427605658769607,-0.3824016451835632
1780528440192370400,13.542370361328125,-1.3732250928878784,0.0403171069920063,-0.4007275998592376
1780528440202441200,13.552441162109377,-1.451415777206421,-0.0036651915870606,-0.342084527015686
1780528440212512000,13.562511962890625,-1.4501941204071045,-0.1136209368705749,-0.2919935882091522
1780528440232684000,13.58268408203125,-1.4892895221710205,-0.442266434431076,-0.0952949747443199
1780528440242785500,13.59278564453125,-1.529606580734253,-0.5338962078094482,-0.0867428630590438
1780528440252856300,13.602856201171877,-1.67254900932312,-0.351858377456665,-0.3066543638706207
1780528440273028400,13.6230283203125,-1.5442672967910769,-0.4092797040939331,-0.4105014503002167
1780528440293200400,13.643200439453125,-1.5344934463500977,-0.7757988572120667,0.0219911485910415
1780528440303302000,13.653302001953126,-1.539380431175232,-0.8319984674453735,0.342084527015686
1780528440313403100,13.663403076171877,-1.5442672967910769,-0.7024950385093689,0.4679227769374847
1780528440323474000,13.673473876953125,-1.6786576509475708,-0.5021312236785889,0.5729916095733643
1780528440333544700,13.683544677734377,-1.765400528907776,-0.3213151097297668,0.6609562039375305
1780528440343646000,13.69364599609375,-1.6224581003189087,-0.1087340116500854,0.4886921942234039
1780528440353716700,13.703716796875,-1.4037683010101318,-0.0158824957907199,-0.0390953756868839
1780528440363848700,13.7138486328125,-1.273043155670166,-0.1514945775270462,-0.4776966273784637
1780528440373889000,13.723888916015625,-1.2009611129760742,-0.3054326176643371,-0.6743952035903931
1780528440383959800,13.733959716796877,-1.284038782119751,-0.2626720666885376,-0.4153883755207062
1780528440394030600,13.744030517578125,-1.253495454788208,-0.0794124826788902,0.0757472887635231
1780528440404162300,13.754162353515625,-1.1520918607711792,0.0317649915814399,0.2956587672233581
1780528440414202600,13.76420263671875,-1.1398745775222778,-0.067195177078247,0.4764748811721802
1780528440424273400,13.7742734375,-1.0506882667541504,-0.2822197377681732,0.3078760802745819
1780528440454486000,13.804486083984376,-0.5461135506629944,-0.0403171069920063,-0.1685988008975982
1780528440484820500,13.834820556640626,-0.5119050741195679,-0.2748893499374389,0.2687807083129883
1780528440545275600,13.895275634765625,0.384845107793808,0.2590068578720093,-0.66584312915802
1780528440605822500,13.955822509765625,0.1368338167667389,0.1014036312699318,0.1820378452539444
1780528440646227700,13.996227783203125,0.3115412890911102,-0.3176499307155609,0.342084527015686
1780528440666369500,14.01636962890625,0.1942551434040069,-0.0842994004487991,0.4288274049758911
1780528440676470800,14.026470703125,0.2626720666885376,0.0708603709936142,0.180816113948822
1780528440696582000,14.046581787109377,0.4386012554168701,-0.0952949747443199,0.0855211317539215
1780528440706652700,14.056652587890625,0.4605923891067505,-0.0733038261532783,0.0171042270958423
1780528440716723500,14.066723388671877,0.4483750760555267,0.0806342139840126,-0.0366519130766391
1780528440726794200,14.076794189453125,0.4312708675861358,0.2492330223321914,0.130725160241127
1780528440736895500,14.0868955078125,0.5644394755363464,0.3530801236629486,0.3970624208450317
1780528440746966300,14.09696630859375,0.6585127115249634,0.2834414839744568,0.5338962078094482
1780528440757067800,14.10706787109375,0.5815436840057373,0.1038470938801765,0.6157521605491638
1780528440767138600,14.117138671875,0.4092797040939331,0.0024434609804302,0.4996877610683441
1780528440777179000,14.127178955078126,0.2724458873271942,-0.0500909499824047,0.2541199326515198
1780528440787280100,14.137280029296877,0.2761110961437225,-0.0256563406437635,0.1123992055654525
1780528440797381400,14.14738134765625,0.3909537494182586,-0.0390953756868839,0.0659734457731247
1780528440807482600,14.157482666015625,0.4593706727027893,-0.0928515195846557,0.0171042270958423
1780528440857836800,14.2078369140625,0.4447098970413208,-0.0684169083833694,0.1221730485558509
1780528440908251600,14.258251708984377,0.3249803185462951,-0.1893682330846786,0.0
1780528440978808300,14.328808349609377,0.1637118905782699,-0.4337143301963806,0.375071257352829
1780528440988879000,14.338879150390625,0.1600466966629028,-0.4447098970413208,0.1417207419872284
1780528440998980600,14.348980712890626,0.2028072625398636,-0.4740314185619354,0.0048869219608604
1780528441019122200,14.3691220703125,0.3824016451835632,-0.455705463886261,0.140499010682106
1780528441029162500,14.37916259765625,0.4166100919246673,-0.361632227897644,0.3408628106117248
1780528441039233300,14.3892333984375,0.2089159190654754,-0.3384193480014801,0.5815436840057373
1780528441049304000,14.399303955078125,0.1001818999648094,-0.2626720666885376,0.4679227769374847
1780528441059374800,14.409374755859377,0.0574213340878486,-0.1942551434040069,0.361632227897644
1780528441069476000,14.41947607421875,0.1258382350206375,-0.2504547536373138,0.2052507251501083
1780528441079577300,14.429577392578125,0.2089159190654754,-0.351858377456665,0.0488692186772823
1780528441099719200,14.44971923828125,0.2822197377681732,-0.3567453026771545,0.1441642045974731
1780528441129870300,14.479870361328125,0.3738495409488678,-0.3958406746387481,0.455705463886261
1780528441190356200,14.540356201171877,0.4007275998592376,-0.5632177591323853,0.5705481171607971
1780528441220660200,14.57066015625,0.2602286040782928,-0.3457497358322143,0.7867944240570068
1780528441230761500,14.580761474609377,0.0952949747443199,-0.3909537494182586,0.7635815739631653
1780528441240832300,14.590832275390625,-0.058643065392971,-0.4495968222618103,0.7183775305747986
1780528441250872600,14.60087255859375,-0.1062905490398407,-0.5485569834709167,0.5852088928222656
1780528441261004500,14.611004638671876,-0.0195476878434419,-0.5949827432632446,0.261450320482254
1780528441281176600,14.631176513671877,0.0403171069920063,-0.4813618063926697,0.1246165111660957
1780528441291277800,14.64127783203125,0.0830776765942573,-0.3591887652873993,0.46547931432724
1780528441301379300,14.65137939453125,0.197920337319374,-0.2321287989616394,0.7195992469787598
1780528441311480600,14.66148046875,0.2797762751579284,-0.1551597714424133,0.7415903806686401
1780528441321581800,14.671581787109377,0.3237585723400116,-0.140499010682106,0.5021312236785889
1780528441341784600,14.69178466796875,0.4092797040939331,-0.2052507251501083,-0.3078760802745819
1780528441351855400,14.70185546875,0.452040284872055,-0.3017674386501312,-0.5510004758834839
1780528441412402200,14.762402099609377,0.2968805134296417,0.0769690200686454,0.1649336218833923
1780528441422473000,14.772472900390625,0.2419026345014572,0.1038470938801765,-0.1343903541564941
1780528441432574200,14.78257421875,0.2052507251501083,0.0684169083833694,-0.4312708675861358
1780528441452746500,14.80274658203125,0.1759291887283325,0.0916297882795333,-0.6792821288108826
1780528441462878200,14.812878173828125,0.1233947798609733,0.1466076523065567,-0.455705463886261
1780528441483019800,14.833019775390625,0.0952949747443199,0.3396410644054413,0.1099557429552078
1780528441503131000,14.853130859375,0.0207694191485643,0.3494149148464203,0.2162462919950485
1780528441513232100,14.863232177734377,0.0280998013913631,0.2382374405860901,0.0061086523346602
1780528441533435000,14.883434814453125,0.1319468915462494,0.1893682330846786,-0.5375614166259766
1780528441543505700,14.893505615234377,0.1600466966629028,0.1270599663257599,-0.5229006409645081
1780528441553576400,14.903576416015625,0.1624901592731475,0.0610865242779254,-0.3457497358322143
1780528441563647200,14.913647216796877,0.1160643994808197,0.0769690200686454,-0.117286130785942
1780528441573779200,14.923779296875,0.0256563406437635,0.067195177078247,0.0818559452891349
1780528441614215000,14.96421484375,0.1038470938801765,0.1148426681756973,-0.5241223573684692
1780528441624316200,14.974316162109377,0.1356120854616165,0.1698205322027206,-0.5400048494338989
1780528441634417400,14.98441748046875,0.1282816976308822,0.1551597714424133,-0.3738495409488678
1780528441644519000,14.994518798828125,0.0476474873721599,0.1624901592731475,-0.1380555480718612
1780528441654650600,15.004650634765625,-0.067195177078247,0.2528982162475586,0.1233947798609733
1780528441664752000,15.014752197265626,-0.0647517144680023,0.3933972120285034,0.2638937830924988
1780528441674883800,15.0248837890625,-0.067195177078247,0.3604104816913605,0.0781907513737678
1780528441684954600,15.03495458984375,-0.0561996027827262,0.3469714522361755,-0.1918116807937622
1780528441695056000,15.045055908203125,-0.051312681287527,0.3090978264808655,-0.4569272100925445
1780528441705157400,15.055157470703126,-0.067195177078247,0.2724458873271942,-0.6023131608963013
1780528441765856800,15.115856689453125,-0.4214970171451568,0.4459316432476043,0.0183259565383195
1780528441775958000,15.1259580078125,-0.4838052690029144,0.3237585723400116,-0.3323107063770294
1780528441786090000,15.136090087890626,-0.5424483418464661,0.221133217215538,-0.6096435189247131
1780528441796191200,15.146191162109377,-0.6389650702476501,0.1502728462219238,-0.6536257863044739
1780528441806292500,15.15629248046875,-0.6890559792518616,0.130725160241127,-0.4838052690029144
1780528441816393700,15.166393798828125,-0.6719517707824707,0.230907067656517,-0.2846632003784179
1780528441866931000,15.216930908203125,-0.685390830039978,0.4117231667041778,-0.0415388382971286
1780528441877063000,15.22706298828125,-0.7220427393913269,0.2797762751579284,-0.1270599663257599
1780528441937701000,15.287701171875,-0.720820963382721,0.2064724564552307,-0.1881465017795562
1780528442028674000,15.378674072265625,-0.588874101638794,0.3078760802745819,-0.0916297882795333
1780528442059008500,15.409008544921877,-0.6670648455619812,0.1966986060142517,-0.1185078546404838
1780528442069110000,15.419110107421876,-0.6475171446800232,0.2076941877603531,-0.1343903541564941
1780528442079211300,15.429211181640625,-0.6377432942390442,0.1747074574232101,-0.0855211317539215
1780528442089282000,15.439281982421877,-0.6939429044723511,0.1820378452539444,-0.0085521135479211
1780528442099413800,15.449413818359377,-0.7452555894851685,0.2015855312347412,0.0574213340878486
1780528442109515300,15.459515380859376,-0.6805039048194885,0.1637118905782699,-0.0476474873721599
1780528442119616500,15.469616455078125,-0.608421802520752,0.107512280344963,-0.3298672437667846
1780528442139788500,15.48978857421875,-0.5461135506629944,0.0696386396884918,-0.4862487316131592
1780528442149890000,15.49989013671875,-0.4984660446643829,0.0623082555830478,-0.3469714522361755
1780528442159991300,15.5099912109375,-0.4386012554168701,0.1062905490398407,-0.1783726513385772
1780528442170123000,15.520123046875,-0.3738495409488678,0.1612684279680252,-0.090408056974411
1780528442180224500,15.530224609375,-0.2773328125476837,0.1857030391693115,-0.0708603709936142
1780528442190325800,15.54032568359375,-0.2101376503705978,0.157603234052658,-0.1527163088321685
1780528442200457500,15.55045751953125,-0.2919935882091522,0.117286130785942,-0.1331686228513717
1780528442210589400,15.56058935546875,-0.3457497358322143,0.090408056974411,-0.1050688251852989
1780528442220690700,15.570690673828125,-0.3066543638706207,0.0891863256692886,-0.1747074574232101
1780528442230792000,15.5807919921875,-0.2357939779758453,0.0733038261532783,-0.2773328125476837
1780528442240924000,15.590923828125,-0.1881465017795562,0.0452040284872055,-0.2296853363513946
1780528442251055600,15.6010556640625,-0.1685988008975982,0.0623082555830478,-0.1246165111660957
1780528442261157000,15.6111572265625,-0.0940732508897781,0.1380555480718612,-0.0855211317539215
1780528442271258400,15.62125830078125,0.0085521135479211,0.2565633952617645,-0.0488692186772823
1780528442281359600,15.631359619140625,0.130725160241127,0.3885102868080139,-0.1258382350206375
1780528442291460900,15.6414609375,0.180816113948822,0.4471533596515655,-0.2724458873271942
1780528442301562400,15.651562255859377,0.180816113948822,0.4471533596515655,-0.2724458873271942
1780528442311663600,15.66166357421875,0.1820378452539444,0.4043927788734436,-0.3103195428848266
1780528442321734400,15.671734375,0.2406809031963348,0.3054326176643371,-0.3433062732219696
1780528442392230100,15.742230224609376,0.5705481171607971,0.3628539443016052,-0.3090978264808655
1780528442462847700,15.81284765625,1.301142930984497,0.2981022298336029,-0.197920337319374
1780528442523303000,15.873302978515625,1.540602207183838,-0.221133217215538,-0.3090978264808655
1780528442583727900,15.933727783203125,1.4123204946517944,-0.1588249653577804,0.0610865242779254
1780528442664263700,16.014263671875,0.9272934198379515,0.0916297882795333,0.2956587672233581
1780528442714678800,16.0646787109375,0.8576548099517822,0.4068362414836883,-0.8503243923187256
1780528442734850800,16.084850830078125,0.3286454975605011,0.1527163088321685,-0.3677408695220947
1780528442744921600,16.094921630859375,-0.0488692186772823,-0.0109955742955207,0.1026253625750541
1780528442754992400,16.104992431640625,-0.271224170923233,0.0390953756868839,0.3262020349502563
1780528442765063200,16.115063232421875,-0.3347541689872741,0.1026253625750541,0.2296853363513946
1780528442775134200,16.12513427734375,-0.2406809031963348,0.0806342139840126,-0.0525344125926494
1780528442785205000,16.135205078125,-0.1869247704744339,0.0305432621389627,-0.2981022298336029
1780528442815447800,16.16544775390625,-0.6743952035903931,0.180816113948822,0.2260201424360275
1780528442825518600,16.1755185546875,-0.7367035150527954,0.2968805134296417,0.1624901592731475
1780528442835589400,16.18558935546875,-0.8845328688621521,0.2834414839744568,-0.0806342139840126
1780528442845690600,16.195690673828125,-1.007927656173706,0.1258382350206375,-0.2333505302667617
1780528442855731000,16.20573095703125,-0.9004153609275818,-0.0207694191485643,-0.3445279896259308
1780528442865801700,16.2158017578125,-0.7709119319915771,-0.0342084541916847,-0.4495968222618103
1780528442875872500,16.22587255859375,-0.8833111524581909,-0.0855211317539215,-0.3555235862731933
1780528442885974000,16.23597412109375,-1.1056660413742063,-0.2394591718912124,-0.1209513172507286
1780528442896014300,16.246014404296876,-1.350012183189392,-0.3738495409488678,0.0781907513737678
1780528442926257200,16.276257080078125,-1.4599679708480835,0.1722639948129654,-0.1197295859456062
1780528442956500000,16.3065,-0.960280179977417,-0.3225368559360504,-0.5729916095733643
1780528443016955400,16.366955322265625,-1.1203268766403198,-0.0280998013913631,-0.6487388610839844
1780528443027056600,16.377056640625,-0.9651671051979064,-0.2089159190654754,-1.0213667154312134
1780528443037158000,16.387157958984375,-1.0250319242477417,-0.5681046843528748,-0.7953465580940247
1780528443047167700,16.397167724609375,-1.266934514045715,-0.9346238374710084,-0.1270599663257599
1780528443057269000,16.40726904296875,-1.4355332851409912,-1.0519099235534668,0.740368664264679
1780528443067339800,16.41733984375,-1.4379768371582031,-0.9517280459403992,1.380555510520935
1780528443077410800,16.427410888671876,-1.3561208248138428,-0.7110471725463867,1.4844025373458862
1780528443087481600,16.437481689453126,-1.1520918607711792,-0.2687807083129883,0.9468411207199096
1780528443097582800,16.447582763671875,-0.7721336483955383,0.0439822971820831,-0.0378736443817615
1780528443107623200,16.457623046875,-0.4153883755207062,-0.117286130785942,-0.960280179977417
1780528443137805000,16.48780517578125,-1.0140362977981567,-0.5229006409645081,-0.3530801236629486
1780528443147906300,16.49790625,-1.2424999475479126,-0.2602286040782928,0.6401867866516113
1780528443157977000,16.50797705078125,-1.1032226085662842,-0.0171042270958423,1.408655285835266
1780528443168017400,16.518017333984375,-0.6976081132888794,0.2406809031963348,1.4343116283416748
1780528443178118700,16.52811865234375,-0.3237585723400116,0.4691445231437683,0.8637634515762329
1780528443188159000,16.538158935546875,-0.0733038261532783,0.475253164768219,0.1062905490398407
1780528443198229800,16.548229736328125,0.1160643994808197,0.2590068578720093,-0.646295428276062
1780528443208270000,16.55827001953125,-0.0207694191485643,-0.0024434609804302,-1.156978726387024
1780528443218371300,16.568371337890625,-0.4129449129104614,-0.3005456924438476,-0.6108652353286743
1780528443228411600,16.57841162109375,-0.4056145250797272,-0.2296853363513946,1.0348057746887207
1780528443238513000,16.588512939453125,-0.394618958234787,-0.0293215326964855,1.55892813205719
1780528443248583700,16.598583740234375,-0.2883284091949463,0.157603234052658,1.4587461948394775
1780528443268756000,16.618755859375,0.1185078546404838,0.2590068578720093,-0.3445279896259308
1780528443278826800,16.62882666015625,0.3970624208450317,-0.0842994004487991,-1.016479730606079
1780528443288928000,16.638927978515625,0.4373795092105865,-0.294437050819397,-0.8991936445236206
1780528443298998800,16.648998779296875,0.1734857261180877,-0.3103195428848266,0.0207694191485643
1780528443369463800,16.7194638671875,0.6218608021736145,-0.4605923891067505,-0.9028588533401488
1780528443379565300,16.7295654296875,0.3921754956245422,-0.4495968222618103,-0.2638937830924988
1780528443389636000,16.739635986328125,0.2223549485206604,-0.2626720666885376,0.6548475623130798
1780528443399707000,16.749706787109375,0.167377084493637,0.0256563406437635,1.1313223838806152
1780528443409777700,16.759777587890625,0.2003637999296188,0.1685988008975982,1.2376129627227783
1780528443419879000,16.76987890625,0.4312708675861358,0.1050688251852989,0.9004153609275818
1780528443429980200,16.779980224609375,0.7086036801338196,-0.0354301854968071,0.2101376503705978
1780528443440112000,16.790112060546875,0.8002334833145142,-0.1783726513385772,-0.2528982162475586
1780528443450183000,16.800182861328125,0.6902777552604675,-0.2419026345014572,-0.3005456924438476
1780528443460284200,16.8102841796875,0.4948008358478546,-0.2431243658065796,-0.0219911485910415
1780528443470385700,16.8203857421875,0.4007275998592376,-0.1795943826436996,0.2162462919950485
1780528443541033700,16.89103369140625,0.3433062732219696,-0.1441642045974731,0.3310889601707458
1780528443551135000,16.901135009765625,0.3359758853912353,-0.1918116807937622,0.1563815027475357
1780528443581378000,16.9313779296875,0.6157521605491638,-0.1123992055654525,0.0036651915870606
1780528443591418400,16.94141845703125,0.6939429044723511,-0.1356120854616165,0.0806342139840126
1780528443601519600,16.95151953125,0.6328563690185547,-0.2150245606899261,0.2186897546052932
1780528443611560000,16.961559814453125,0.5192354321479797,-0.2736676335334778,0.3787364661693573
1780528443621630700,16.971630615234375,0.442266434431076,-0.251676470041275,0.4911356568336487
1780528443661883400,17.01188330078125,0.3323107063770294,-0.2223549485206604,0.1588249653577804
1780528443671984600,17.021984619140625,0.2394591718912124,-0.0891863256692886,0.2638937830924988
1780528443742571800,17.09257177734375,0.0268780700862407,-0.4019493460655212,0.4825835525989532
1780528443772814800,17.12281494140625,0.1099557429552078,-0.442266434431076,0.3066543638706207
1780528443792956400,17.142956298828125,0.2223549485206604,-0.4935791194438934,0.147829383611679
1780528443803027200,17.153027099609375,0.3176499307155609,-0.4349360466003418,0.1258382350206375
1780528443813128400,17.16312841796875,0.3310889601707458,-0.4068362414836883,0.2150245606899261
1780528443823199200,17.17319921875,0.3164281845092773,-0.3787364661693573,0.4276056587696075
1780528443833239600,17.183239501953125,0.4068362414836883,-0.2663372457027435,0.5094616413116455
1780528443843310300,17.193310302734375,0.4569272100925445,-0.1734857261180877,0.432492583990097
1780528443853381000,17.203381103515625,0.394618958234787,-0.2076941877603531,0.3701843321323395
1780528443863452000,17.213451904296875,0.3213151097297668,-0.3323107063770294,0.2602286040782928
1780528443873522700,17.223522705078125,0.2431243658065796,-0.4544837474822998,0.1795943826436996
1780528443893664300,17.243664306640625,0.0879645943641662,-0.4153883755207062,0.0439822971820831
1780528443903735000,17.253735107421875,0.0488692186772823,-0.3090978264808655,0.0342084541916847
1780528443913806000,17.26380615234375,0.0720821022987365,-0.1893682330846786,0.0842994004487991
1780528443923907300,17.2739072265625,0.1221730485558509,-0.147829383611679,0.140499010682106
1780528443934039000,17.2840390625,0.1233947798609733,-0.1685988008975982,0.1466076523065567
1780528443944140500,17.294140625,0.0977384373545646,-0.221133217215538,0.1563815027475357
1780528443954241800,17.30424169921875,0.1527163088321685,-0.2370157092809677,0.1111774742603302
1780528443984545800,17.3345458984375,0.1905899494886398,-0.251676470041275,-0.0158824957907199
1780528444014819000,17.364819091796875,0.2956587672233581,-0.1832595765590667,0.0549778714776039
1780528444065234200,17.415234130859375,0.3885102868080139,0.0378736443817615,0.140499010682106
1780528444115649300,17.465649169921875,0.2370157092809677,0.0317649915814399,0.0390953756868839
1780528444125720000,17.475719970703125,0.1734857261180877,0.0415388382971286,0.0219911485910415
1780528444135851800,17.485851806640625,0.1356120854616165,0.0574213340878486,-0.0684169083833694
1780528444145953300,17.495953369140626,0.1123992055654525,0.0635299831628799,-0.2089159190654754
1780528444156024000,17.506024169921876,0.0867428630590438,0.0537561401724815,-0.3323107063770294
1780528444166094800,17.5160947265625,0.0561996027827262,0.0500909499824047,-0.3274237811565399
1780528444176196000,17.526196044921875,0.0623082555830478,0.0708603709936142,-0.2565633952617645
1780528444186267000,17.536266845703125,0.0537561401724815,0.1197295859456062,-0.2186897546052932
1780528444206439000,17.55643896484375,0.090408056974411,0.1857030391693115,-0.2467895597219467
1780528444236773400,17.5867734375,0.0733038261532783,0.1270599663257599,-0.1624901592731475
1780528444246875000,17.596875,0.058643065392971,0.1233947798609733,-0.2028072625398636
1780528444256976100,17.60697607421875,0.058643065392971,0.130725160241127,-0.2956587672233581
1780528444267077400,17.617077392578125,0.0830776765942573,0.1588249653577804,-0.3933972120285034
1780528444277179000,17.627178955078126,0.0830776765942573,0.1502728462219238,-0.4410447180271148
1780528444287249700,17.637249755859376,0.0647517144680023,0.1319468915462494,-0.4483750760555267
1780528444297381400,17.64738134765625,0.0500909499824047,0.1612684279680252,-0.4569272100925445
1780528444317584100,17.667584228515626,0.0366519130766391,0.3249803185462951,-0.3824016451835632
1780528444327655000,17.677655029296876,0.0097738439217209,0.3738495409488678,-0.3139847218990326
1780528444388323800,17.73832373046875,-0.0378736443817615,0.294437050819397,-0.5693264007568359
1780528444398425000,17.748425048828125,-0.0598647929728031,0.2993239760398865,-0.5717698931694031
1780528444408495900,17.758495849609375,-0.1099557429552078,0.2431243658065796,-0.4862487316131592
1780528444428729000,17.77872900390625,-0.1698205322027206,0.2052507251501083,-0.3127630054950714
1780528444448931600,17.798931640625,-0.2565633952617645,0.2064724564552307,-0.2993239760398865
1780528444459002400,17.80900244140625,-0.2724458873271942,0.1795943826436996,-0.342084527015686
1780528444469103900,17.819103759765625,-0.2748893499374389,0.140499010682106,-0.375071257352829
1780528444479205000,17.829205078125,-0.2761110961437225,0.1502728462219238,-0.3909537494182586
1780528444489306400,17.839306396484375,-0.2919935882091522,0.180816113948822,-0.3384193480014801
1780528444499408000,17.849407958984376,-0.3225368559360504,0.2235766798257827,-0.2455678284168243
1780528444529711600,17.879711669921875,-0.4886921942234039,0.2260201424360275,-0.1160643994808197
1780528444560046000,17.910046142578125,-0.5167919993400574,0.1734857261180877,-0.1356120854616165
1780528444570147600,17.920147705078126,-0.5485569834709167,0.1991420686244964,-0.090408056974411
1780528444580248800,17.930248779296875,-0.5864306092262268,0.2382374405860901,-0.0146607663482427
1780528444590319600,17.940319580078125,-0.5778785347938538,0.2101376503705978,0.0439822971820831
1780528444600451600,17.95045166015625,-0.5375614166259766,0.2223549485206604,0.0464257597923278
1780528444610552800,17.960552734375,-0.5497786998748779,0.2895501255989074,0.090408056974411
1780528444620684500,17.9706845703125,-0.5571091175079346,0.3408628106117248,0.1661553531885147
1780528444701434000,18.05143408203125,-0.3310889601707458,0.3775147199630737,-0.3005456924438476
1780528444771960300,18.121960205078125,-0.4471533596515655,0.3249803185462951,-0.1123992055654525
1780528444782000600,18.13200073242188,-0.4447098970413208,0.251676470041275,-0.2504547536373138
1780528444792102000,18.142101806640625,-0.4361577928066253,0.2406809031963348,-0.342084527015686
1780528444802203100,18.152203125,-0.4129449129104614,0.2687807083129883,-0.3677408695220947
1780528444812274000,18.16227392578125,-0.4141666293144226,0.2162462919950485,-0.3298672437667846
1780528444822375400,18.17237548828125,-0.4532620012760162,0.1368338167667389,-0.2797762751579284
1780528444842547500,18.19254736328125,-0.5791002511978149,0.0488692186772823,-0.361632227897644
1780528444852648700,18.202648681640625,-0.5436700582504272,0.0415388382971286,-0.4349360466003418
1780528444862719500,18.212719482421875,-0.5204572081565857,0.0659734457731247,-0.4813618063926697
1780528444872790300,18.222790283203125,-0.5668829679489136,0.0757472887635231,-0.3726277947425842
1780528444882861000,18.23286108398437,-0.5827654600143433,0.0598647929728031,-0.2687807083129883
1780528444892931800,18.242931884765625,-0.5925393104553223,0.0232128798961639,-0.2382374405860901
1780528444903033300,18.253033447265626,-0.6218608021736145,0.0146607663482427,-0.2296853363513946
1780528444913134600,18.26313452148437,-0.5778785347938538,0.0928515195846557,-0.2981022298336029
1780528444923235800,18.27323583984375,-0.5192354321479797,0.171042263507843,-0.3323107063770294
1780528444943408000,18.293408203125,-0.4886921942234039,0.2028072625398636,-0.1771509200334549
1780528444953509400,18.30350927734375,-0.4300491213798523,0.2138028293848037,-0.2455678284168243
1780528444963580200,18.313580078125,-0.4117231667041778,0.2687807083129883,-0.2663372457027435
1780528444973681400,18.32368139648437,-0.3604104816913605,0.3127630054950714,-0.294437050819397
1780528444983782700,18.33378271484375,-0.3347541689872741,0.2626720666885376,-0.3408628106117248
1780528445003985400,18.3539853515625,-0.2981022298336029,0.1563815027475357,-0.1857030391693115
1780528445014056200,18.36405615234375,-0.2748893499374389,0.1771509200334549,-0.067195177078247
1780528445024127000,18.374126953125,-0.1722639948129654,0.2260201424360275,-0.0232128798961639
1780528445034228200,18.38422827148437,-0.0794124826788902,0.2638937830924988,-0.1111774742603302
1780528445074542000,18.4245419921875,0.0610865242779254,0.3933972120285034,-0.4239404797554016
1780528445084643300,18.434643310546875,0.1233947798609733,0.5681046843528748,-0.4447098970413208
1780528445094744600,18.44474462890625,0.3029891550540924,0.5839871764183044,-0.5400048494338989
1780528445104815400,18.4548154296875,0.4153883755207062,0.5326744914054871,-0.6780604124069214
1780528445114916900,18.464916748046875,0.5375614166259766,0.5351179838180542,-0.8002334833145142
1780528445124987600,18.474987548828125,0.6621779203414917,0.5962044596672058,-0.9419541954994202
1780528445135058400,18.48505834960937,0.740368664264679,0.5754350423812866,-0.8698720932006836
1780528445145159700,18.49515966796875,0.8002334833145142,0.5510004758834839,-0.7342600226402283
1780528445155230500,18.50523046875,0.7550294399261475,0.4948008358478546,-0.5241223573684692
1780528445165240300,18.515240234375,0.7464773058891296,0.261450320482254,-0.2174680233001709
1780528445205493000,18.555492919921875,0.9847147464752196,-0.3689626157283783,-0.2150245606899261
1780528445286181400,18.63618139648437,1.5149458646774292,-0.1111774742603302,0.3139847218990326
1780528445377001700,18.72700170898437,1.501506805419922,0.4031710624694824,0.2846632003784179
1780528445387103000,18.73710302734375,1.339016675949097,0.3384193480014801,0.0818559452891349
1780528445407305700,18.7573056640625,1.1520918607711792,0.1258382350206375,-0.4068362414836883
1780528445417376500,18.76737646484375,1.0751228332519531,-0.0024434609804302,-0.4178318381309509
1780528445427477800,18.777477783203125,0.9871582388877868,-0.1160643994808197,-0.3457497358322143
1780528445437548500,18.78754858398437,0.4948008358478546,0.1221730485558509,0.1270599663257599
1780528445447619300,18.797619384765625,0.4043927788734436,0.2076941877603531,0.280998021364212
1780528445457690000,18.807690185546875,0.3701843321323395,0.2186897546052932,0.1123992055654525
1780528445467761200,18.81776123046875,0.2638937830924988,0.2260201424360275,-0.1417207419872284
1780528445477832000,18.82783203125,0.1026253625750541,0.2431243658065796,-0.1905899494886398
1780528445498004000,18.84800390625,-0.1502728462219238,0.2663372457027435,0.1417207419872284
1780528445508074800,18.85807470703125,-0.1600466966629028,0.3445279896259308,0.0293215326964855
1780528445528246800,18.878246826171875,-0.2125810980796814,0.2064724564552307,-0.2981022298336029
1780528445538348300,18.88834838867188,-0.4141666293144226,0.2357939779758453,-0.2223549485206604
1780528445558489900,18.90848974609375,-0.7086036801338196,0.3701843321323395,0.4276056587696075
1780528445578662000,18.92866186523437,-0.8576548099517822,0.167377084493637,0.2284636050462722
1780528445598834000,18.948833984375,-0.8063421249389648,-0.1637118905782699,-0.2260201424360275
1780528445608935400,18.95893530273437,-0.9077457785606384,-0.251676470041275,-0.342084527015686
1780528445619006200,18.969006103515625,-1.147204875946045,-0.280998021364212,-0.2296853363513946
1780528445649279500,18.999279541015625,-1.4587461948394775,-0.4300491213798523,0.4056145250797272
1780528445659350300,19.009350341796875,-1.3353514671325684,-0.3640756905078888,0.0879645943641662
1780528445669451800,19.01945166015625,-1.3072515726089478,-0.3029891550540924,-0.3090978264808655
1780528445679522600,19.0295224609375,-1.3329079151153564,-0.3445279896259308,-0.4923573732376098
1780528445689593300,19.03959326171875,-1.380555510520935,-0.4031710624694824,-0.2932153046131134
1780528445699694600,19.049694580078125,-1.3817771673202517,-0.3604104816913605,0.1563815027475357
1780528445709765400,19.05976538085937,-1.4599679708480835,-0.2993239760398865,0.5693264007568359
1780528445740008400,19.09000854492188,-1.3267992734909058,-0.221133217215538,0.66584312915802
1780528445750079200,19.10007934570313,-1.0506882667541504,-0.0561996027827262,-0.1197295859456062
1780528445810565000,19.16056518554688,-1.3646728992462158,-0.351858377456665,1.6688838005065918
1780528445820666400,19.170666259765625,-1.2510520219802856,-0.2419026345014572,1.1557570695877075
1780528445830706700,19.180706787109376,-0.9920451641082764,-0.2028072625398636,0.1527163088321685
1780528445850878700,19.20087866210937,-0.6768386960029602,-0.3433062732219696,-0.9443976879119872
1780528445860949500,19.210949462890625,-0.7147123217582703,-0.4386012554168701,-0.5510004758834839
1780528445871050800,19.22105078125,-0.7305948138237,-0.4728097021579742,0.0733038261532783
1780528445881121500,19.23112158203125,-0.8674286603927612,-0.4349360466003418,0.7586946487426758
1780528445951617300,19.3016171875,-0.0244346093386411,-0.3726277947425842,-0.960280179977417
1780528445961688000,19.31168798828125,-0.2003637999296188,-0.5974262356758118,-0.0733038261532783
1780528445991931000,19.341930908203125,-0.5558874011039734,-0.140499010682106,1.882686734199524
1780528446042346000,19.392345947265625,0.304210901260376,-0.4948008358478546,-0.6194173693656921
1780528446052416800,19.402416748046875,-0.0012217304902151,-0.394618958234787,0.7134906053543091
1780528446062518000,19.41251806640625,-0.1062905490398407,-0.107512280344963,1.7043139934539795
1780528446072588800,19.4225888671875,-0.0354301854968071,0.2101376503705978,1.8875735998153689
1780528446082659800,19.432659912109376,0.1905899494886398,0.4874704778194427,1.3341296911239624
1780528446092761000,19.442760986328125,0.5839871764183044,0.5900958180427551,0.2296853363513946
1780528446102862300,19.4528623046875,0.9468411207199096,0.3127630054950714,-0.8381071090698242
1780528446112963600,19.462963623046875,0.9859365224838256,-0.1661553531885147,-1.2693779468536377
1780528446123095600,19.47309545898437,0.7244861721992493,-0.5632177591323853,-0.8588765263557434
1780528446133166300,19.483166259765625,0.455705463886261,-0.5277875661849976,-0.1734857261180877
1780528446163348200,19.51334814453125,0.375071257352829,0.375071257352829,1.462411403656006
1780528446173419000,19.5234189453125,0.5057964324951172,0.3591887652873993,0.9712757468223572
1780528446183520300,19.533520263671875,0.4886921942234039,0.0036651915870606,0.2724458873271942
1780528446193591000,19.543591064453125,0.4679227769374847,-0.2736676335334778,-0.4263839423656463
1780528446203661800,19.55366186523437,0.4312708675861358,-0.4166100919246673,-0.5155702829360962
1780528446213763300,19.563763427734376,0.4190535545349121,-0.294437050819397,0.2223549485206604
1780528446223864600,19.573864501953125,0.3958406746387481,-0.107512280344963,0.8515461683273315
1780528446233935400,19.58393530273437,0.3408628106117248,-0.0818559452891349,1.1643091440200806
1780528446244067000,19.594067138671875,0.3347541689872741,-0.1343903541564941,1.0506882667541504
1780528446254138000,19.60413818359375,0.3921754956245422,-0.147829383611679,0.6340781450271606
1780528446304461600,19.65446166992188,0.4031710624694824,-0.0342084541916847,1.027475357055664
1780528446385089000,19.73508911132813,0.3811798989772796,-0.2162462919950485,0.5681046843528748
1780528446395159800,19.745159912109376,0.3286454975605011,-0.280998021364212,0.7611380815505981
1780528446405230600,19.755230712890626,0.3078760802745819,-0.3335324227809906,0.7257078886032104
1780528446415331800,19.76533178710937,0.375071257352829,-0.3213151097297668,0.5229006409645081
1780528446425402600,19.775402587890625,0.4667010605335235,-0.2932153046131134,0.2724458873271942
1780528446435503900,19.78550390625,0.5082398653030396,-0.36529740691185,0.2101376503705978
1780528446445544200,19.795544189453125,0.5216789245605469,-0.4410447180271148,0.2101376503705978
1780528446455645400,19.8056455078125,0.4874704778194427,-0.4593706727027893,0.2064724564552307
1780528446465747000,19.815746826171875,0.4214970171451568,-0.4434881806373596,0.2590068578720093
1780528446475848200,19.82584814453125,0.4166100919246673,-0.4080579876899719,0.2956587672233581
1780528446506091000,19.856091064453125,0.5387831330299377,-0.3359758853912353,0.3139847218990326
1780528446516192500,19.86619262695313,0.5852088928222656,-0.4288274049758911,0.1942551434040069
1780528446526263300,19.87626318359375,0.5998696684837341,-0.5119050741195679,0.1319468915462494
1780528446546465800,19.8964658203125,0.9456194043159484,-0.3506366610527038,-0.0390953756868839
1780528446556567300,19.9065673828125,1.0250319242477417,-0.3054326176643371,-0.0745255574584007
1780528446566668500,19.91666845703125,0.9712757468223572,-0.3567453026771545,0.0525344125926494
1780528446607043300,19.957043212890625,0.7660250067710876,-0.3530801236629486,-0.0488692186772823
1780528446637347300,19.987347412109376,0.4740314185619354,-0.1441642045974731,-0.0574213340878486
1780528446647448600,19.997448486328125,0.394618958234787,-0.0256563406437635,-0.098960168659687
1780528446657519400,20.00751928710937,0.2895501255989074,0.0439822971820831,-0.0708603709936142
1780528446667620600,20.01762060546875,0.2113593816757202,0.0830776765942573,-0.0280998013913631
1780528446677691400,20.02769140625,0.1624901592731475,0.0647517144680023,-0.0280998013913631
1780528446687762200,20.03776220703125,0.1246165111660957,0.0500909499824047,-0.0146607663482427
1780528446697894100,20.04789404296875,0.1014036312699318,0.0427605658769607,-0.0452040284872055
1780528446707995400,20.057995361328125,0.0977384373545646,0.0305432621389627,-0.0745255574584007
1780528446738299400,20.08829931640625,0.221133217215538,0.0549778714776039,-0.261450320482254
1780528446748400600,20.098400634765625,0.2370157092809677,-0.0293215326964855,-0.2736676335334778
1780528446758502000,20.108501953125,0.1905899494886398,-0.0830776765942573,-0.2528982162475586
1780528446768603400,20.11860327148437,0.1649336218833923,-0.0476474873721599,-0.2406809031963348
1780528446788806000,20.138805908203125,0.107512280344963,-0.0488692186772823,-0.2040289938449859
1780528446798907400,20.14890747070313,0.0757472887635231,-0.0317649915814399,-0.1893682330846786
1780528446849414000,20.19941381835937,-0.0183259565383195,0.0,-0.1209513172507286
1780528446879718000,20.2297177734375,0.0610865242779254,-0.0036651915870606,-0.1319468915462494
1780528446889849600,20.239849609375,0.0696386396884918,0.0329867228865623,-0.147829383611679
1780528446930254800,20.2802548828125,0.0122173046693205,0.0745255574584007,-0.1612684279680252
1780528446940356400,20.2903564453125,-0.0293215326964855,0.1502728462219238,-0.1918116807937622
1780528446970690800,20.32069091796875,-0.0598647929728031,0.4483750760555267,-0.2089159190654754
1780528446980761600,20.33076171875,-0.1209513172507286,0.4715879559516907,-0.0940732508897781
1780528446990893300,20.340893310546875,-0.1429424732923507,0.4569272100925445,-0.0305432621389627
1780528447000994600,20.35099462890625,-0.1612684279680252,0.4386012554168701,-0.0268780700862407
1780528447011096000,20.361095947265625,-0.2076941877603531,0.4899139404296875,-0.067195177078247
1780528447021197300,20.371197265625,-0.2382374405860901,0.5424483418464661,-0.130725160241127
1780528447031298600,20.38129858398437,-0.2394591718912124,0.5412266254425049,-0.2015855312347412
1780528447041400000,20.391400146484376,-0.2565633952617645,0.5057964324951172,-0.2357939779758453
1780528447051501300,20.401501220703125,-0.2797762751579284,0.4569272100925445,-0.180816113948822
1780528447061602600,20.4116025390625,-0.3054326176643371,0.4129449129104614,-0.0928515195846557
1780528447071703800,20.421703857421875,-0.3017674386501312,0.3738495409488678,0.0036651915870606
1780528447081805300,20.43180541992188,-0.2895501255989074,0.3824016451835632,-0.0293215326964855
1780528447091937000,20.44193701171875,-0.3787364661693573,0.3494149148464203,-0.1563815027475357
1780528447102038300,20.452038330078125,-0.4838052690029144,0.2907718420028686,-0.3604104816913605
1780528447112139800,20.46213989257813,-0.5375614166259766,0.2162462919950485,-0.5974262356758118
1780528447122241000,20.472240966796875,-0.5705481171607971,0.1295034289360046,-0.6927211880683899
1780528447132342300,20.48234228515625,-0.5681046843528748,0.1661553531885147,-0.5253441333770752
1780528447142443800,20.49244384765625,-0.5302310585975647,0.2736676335334778,-0.2296853363513946
1780528447152545000,20.502544921875,-0.5424483418464661,0.3371976017951965,-0.0146607663482427
1780528447162676700,20.5126767578125,-0.6572909951210022,0.3628539443016052,0.180816113948822
1780528447172778200,20.5227783203125,-0.6976081132888794,0.3811798989772796,0.2113593816757202
1780528447192980700,20.542980712890625,-0.6597344875335693,0.2834414839744568,-0.2406809031963348
1780528447203051500,20.553051513671875,-0.7281513810157776,0.2565633952617645,-0.3775147199630737
1780528447213183500,20.56318359375,-0.7819074988365173,0.3029891550540924,-0.3543018400669098
1780528447223284700,20.57328466796875,-0.8148942589759827,0.3824016451835632,-0.1966986060142517
1780528447233416400,20.58341650390625,-0.8332201838493347,0.4190535545349121,-0.0048869219608604
1780528447283923200,20.633923095703125,-0.8405506014823914,0.1820378452539444,-0.6157521605491638
1780528447304156400,20.654156494140626,-0.8894197940826416,0.0745255574584007,-0.5265658497810364
1780528447374712800,20.724712890625,-0.6695083379745483,0.0635299831628799,-0.6340781450271606
1780528447465380600,20.81538061523437,-0.3775147199630737,0.2150245606899261,-0.4117231667041778
1780528447505663700,20.85566381835937,-0.2773328125476837,0.3262020349502563,-0.1820378452539444
1780528447515704000,20.8657041015625,-0.1734857261180877,0.4178318381309509,-0.2467895597219467
1780528447525774800,20.87577490234375,-0.0415388382971286,0.3689626157283783,-0.3701843321323395
1780528447535845600,20.885845703125,0.0036651915870606,0.2553416788578033,-0.4984660446643829
1780528447545947100,20.89594702148437,-0.0500909499824047,0.2052507251501083,-0.4471533596515655
1780528447556048400,20.90604833984375,-0.0855211317539215,0.3005456924438476,-0.2663372457027435
1780528447566088700,20.916088623046875,0.0061086523346602,0.4251621961593628,-0.0965167060494422
1780528447596331500,20.94633154296875,0.3445279896259308,0.1295034289360046,-0.1783726513385772
1780528447606402300,20.95640234375,0.4129449129104614,0.1893682330846786,-0.0757472887635231
1780528447616503800,20.96650390625,0.6475171446800232,0.375071257352829,0.0061086523346602
1780528447626605000,20.97660498046875,0.6475171446800232,0.375071257352829,0.0061086523346602
1780528447636706300,20.986706298828125,0.7476990818977356,0.3591887652873993,-0.1637118905782699
1780528447646777000,20.99677709960937,1.007927656173706,0.3738495409488678,-0.6255260109901428
1780528447656848000,21.006847900390625,1.1716395616531372,0.3433062732219696,-0.6988298296928406
1780528447666949400,21.016949462890626,1.3267992734909058,0.2675589919090271,-0.5473352670669556
1780528447677020200,21.02702026367188,1.4355332851409912,0.2052507251501083,-0.3335324227809906
1780528447697192200,21.047192138671875,1.52105450630188,0.2370157092809677,-0.1343903541564941
1780528447707263000,21.057262939453125,1.538158655166626,0.2748893499374389,-0.2174680233001709
1780528447717333800,21.06733374023437,1.63467538356781,0.1844813078641891,-0.1771509200334549
1780528447727404500,21.077404541015625,1.7959438562393188,0.0390953756868839,-0.2761110961437225
1780528447797930800,21.1479306640625,2.067167997360229,-0.1148426681756973,0.2871066629886627
1780528447838336000,21.1883359375,1.629788517951965,0.3139847218990326,0.0781907513737678
1780528447908953600,21.25895361328125,0.7415903806686401,0.0794124826788902,0.4117231667041778
1780528447989642200,21.339642333984376,-0.4605923891067505,-0.2871066629886627,0.4068362414836883
1780528447999713000,21.349713134765626,-0.5852088928222656,-0.1014036312699318,0.2150245606899261
1780528448019854600,21.3698544921875,-0.7831292152404785,0.0183259565383195,0.0561996027827262
1780528448029955800,21.379955810546875,-0.8002334833145142,-0.0891863256692886,0.0195476878434419
1780528448040057000,21.39005712890625,-0.8808676600456238,-0.1136209368705749,-0.0635299831628799
1780528448050128000,21.4001279296875,-1.0494664907455444,-0.0842994004487991,-0.0329867228865623
1780528448060137700,21.4101376953125,-1.2327260971069336,-0.0329867228865623,0.0439822971820831
1780528448070208500,21.42020849609375,-1.480737328529358,-0.0097738439217209,0.2223549485206604
1780528448080279300,21.430279296875,-1.616349458694458,0.0024434609804302,0.361632227897644
1780528448090350000,21.44035009765625,-1.5564846992492676,0.0415388382971286,0.2284636050462722
1780528448100420900,21.4504208984375,-1.4697418212890625,0.0317649915814399,-0.1123992055654525
1780528448110522400,21.4605224609375,-1.5467108488082886,-0.0781907513737678,-0.36529740691185
1780528448120593200,21.47059326171875,-1.7177530527114868,-0.1832595765590667,-0.2919935882091522
1780528448130694400,21.4806943359375,-1.8106045722961424,-0.261450320482254,-0.067195177078247
1780528448140765200,21.49076513671875,-1.8655824661254885,-0.3103195428848266,0.0048869219608604
1780528448160906800,21.51090673828125,-2.0647244453430176,-0.1612684279680252,0.0256563406437635
1780528448170947000,21.52094702148437,-1.8484781980514529,-0.0525344125926494,-0.2565633952617645
1780528448181017900,21.531017822265625,-1.587027907371521,-0.2076941877603531,-0.5204572081565857
1780528448211321900,21.56132177734375,-1.7153096199035645,-0.4935791194438934,0.3445279896259308
1780528448241534200,21.5915341796875,-1.529606580734253,-0.1612684279680252,0.7550294399261475
1780528448312121300,21.662121337890625,-1.351233959197998,-0.3543018400669098,0.9627236127853394
1780528448322192100,21.672192138671875,-1.0751228332519531,-0.3347541689872741,0.7525860071182251
1780528448392687900,21.74268798828125,-0.6035348773002625,-0.2174680233001709,0.5375614166259766
1780528448422961200,21.772961181640625,0.2406809031963348,0.2272418737411499,-0.2260201424360275
1780528448433062700,21.783062744140626,0.2345722615718841,0.1734857261180877,0.4080579876899719
1780528448443133400,21.79313354492188,0.1624901592731475,0.0635299831628799,0.9358455538749696
1780528448453234700,21.803234619140625,0.1160643994808197,-0.1099557429552078,1.2046263217926023
1780528448463336000,21.8133359375,0.1637118905782699,-0.157603234052658,1.1911872625350952
1780528448473437200,21.82343725585937,0.2028072625398636,0.0488692186772823,1.0445796251296997
1780528448503619000,21.853619140625,0.6340781450271606,0.7476990818977356,0.1221730485558509
1780528448513659400,21.863659423828125,0.7281513810157776,0.4630358517169952,0.1270599663257599
1780528448523730200,21.87373022460937,0.6304129362106323,0.221133217215538,0.3139847218990326
1780528448533831700,21.883831787109376,0.3762930035591125,0.1014036312699318,0.8234463334083557
1780528448543902500,21.89390234375,0.261450320482254,0.2138028293848037,1.240056395530701
1780528448553973200,21.90397314453125,0.3017674386501312,0.5155702829360962,1.2131783962249756
1780528448563982800,21.91398291015625,0.3640756905078888,0.646295428276062,0.9566149711608888
1780528448574084400,21.92408447265625,0.4874704778194427,0.5180137157440186,0.5693264007568359
1780528448584155100,21.934155029296875,0.6340781450271606,0.3213151097297668,0.0024434609804302
1780528448614398000,21.96439794921875,0.5791002511978149,-0.2846632003784179,0.1441642045974731
1780528448695117000,22.04511694335937,0.4263839423656463,-0.3176499307155609,0.0390953756868839
1780528448725421000,22.07542114257813,0.3359758853912353,-0.0830776765942573,0.911410927772522
1780528448735522300,22.085522216796875,0.3249803185462951,-0.0806342139840126,0.7757988572120667
1780528448745593000,22.095593017578125,0.304210901260376,-0.1563815027475357,0.5241223573684692
1780528448755694300,22.1056943359375,0.3799581825733185,-0.2321287989616394,0.2541199326515198
1780528448765765000,22.11576513671875,0.504574716091156,-0.261450320482254,0.0537561401724815
1780528448775836000,22.1258359375,0.5925393104553223,-0.2638937830924988,-0.0806342139840126
1780528448785906700,22.13590673828125,0.6157521605491638,-0.2394591718912124,0.0073303831741213
1780528448795977500,22.1459775390625,0.6291912198066711,-0.2040289938449859,0.2638937830924988
1780528448806048500,22.156048583984376,0.6414085030555725,-0.2492330223321914,0.4923573732376098
1780528448816119300,22.166119384765626,0.6646214127540588,-0.2761110961437225,0.5962044596672058
1780528448846331600,22.19633154296875,0.6670648455619812,-0.3591887652873993,0.3408628106117248
1780528448856402400,22.20640234375,0.6841690540313721,-0.4239404797554016,0.2590068578720093
1780528448866473200,22.21647314453125,0.6548475623130798,-0.5400048494338989,0.2504547536373138
1780528448876544000,22.2265439453125,0.5827654600143433,-0.598647952079773,0.2895501255989074
1780528448886584300,22.236584228515625,0.5241223573684692,-0.5400048494338989,0.3176499307155609
1780528448906786800,22.25678686523437,0.4251621961593628,-0.4337143301963806,0.384845107793808
1780528448967272700,22.317272705078125,0.5681046843528748,-0.5192354321479797,0.2761110961437225
1780528448977343500,22.32734350585937,0.5473352670669556,-0.5668829679489136,0.3310889601707458
1780528448987445000,22.337445068359376,0.5070181488990784,-0.6023131608963013,0.2993239760398865
1780528449017687800,22.367687744140625,0.3445279896259308,-0.4996877610683441,0.0232128798961639
1780528449078173700,22.42817358398437,0.2162462919950485,-0.2076941877603531,0.0280998013913631
1780528449088244500,22.438244384765625,0.2357939779758453,-0.1441642045974731,0.0085521135479211
1780528449098315300,22.448315185546875,0.2125810980796814,-0.1282816976308822,0.0024434609804302
1780528449108416500,22.45841650390625,0.1747074574232101,-0.1123992055654525,0.0183259565383195
1780528449118487300,22.4684873046875,0.1649336218833923,-0.0916297882795333,0.0109955742955207
1780528449128588800,22.4785888671875,0.1062905490398407,-0.0061086523346602,-0.107512280344963
1780528449138659600,22.48865966796875,0.1258382350206375,0.0171042270958423,-0.157603234052658
1780528449148760800,22.4987607421875,0.157603234052658,0.0390953756868839,-0.1722639948129654
1780528449158862000,22.508862060546875,0.1747074574232101,0.0574213340878486,-0.2125810980796814
1780528449168963300,22.51896337890625,0.147829383611679,0.0757472887635231,-0.230907067656517
1780528449179034000,22.5290341796875,0.130725160241127,0.1123992055654525,-0.167377084493637
1780528449189105200,22.539105224609376,0.140499010682106,0.1160643994808197,-0.1014036312699318
1780528449199206400,22.549206298828125,0.1343903541564941,0.1160643994808197,-0.1062905490398407
1780528449209307600,22.5593076171875,0.140499010682106,0.1502728462219238,-0.1759291887283325
1780528449219378400,22.56937841796875,0.1734857261180877,0.1527163088321685,-0.2480112910270691
1780528449259722800,22.60972265625,0.0207694191485643,0.0085521135479211,-0.3152064681053161
1780528449269824000,22.61982397460937,0.0280998013913631,0.0,-0.3591887652873993
1780528449279925200,22.62992529296875,0.0207694191485643,0.0366519130766391,-0.342084527015686
1780528449300097500,22.65009765625,0.0109955742955207,0.1588249653577804,-0.3139847218990326
1780528449310198800,22.66019873046875,-0.0012217304902151,0.1844813078641891,-0.2956587672233581
1780528449350634500,22.70063452148437,-0.0134390350431203,0.2956587672233581,-0.2296853363513946
1780528449431475700,22.78147583007813,-0.1918116807937622,0.4495968222618103,0.1221730485558509
1780528449451678200,22.80167822265625,-0.2296853363513946,0.2785545587539673,-0.3457497358322143
1780528449542559700,22.89255981445313,-0.5106833577156067,0.3298672437667846,-0.4288274049758911
1780528449593066200,22.94306616210937,-0.4178318381309509,0.4312708675861358,0.1453859210014343
1780528449603167500,22.95316748046875,-0.4349360466003418,0.4239404797554016,0.2492330223321914
1780528449613299500,22.96329956054688,-0.4434881806373596,0.3579670190811157,0.1783726513385772
1780528449623400700,22.973400634765625,-0.4899139404296875,0.2773328125476837,0.0183259565383195
1780528449633502000,22.983501953125,-0.5351179838180542,0.2186897546052932,-0.1734857261180877
1780528449653704700,23.00370458984375,-0.5229006409645081,0.1123992055654525,-0.157603234052658
1780528449663806000,23.013805908203125,-0.5302310585975647,0.1527163088321685,-0.0085521135479211
1780528449673907200,23.0239072265625,-0.5632177591323853,0.1881465017795562,0.1429424732923507
1780528449683978000,23.03397802734375,-0.5949827432632446,0.2394591718912124,0.2394591718912124
1780528449694110000,23.04410986328125,-0.5900958180427551,0.2565633952617645,0.1893682330846786
1780528449704211200,23.054211181640625,-0.5363397002220154,0.1722639948129654,-0.0146607663482427
1780528449714312400,23.0643125,-0.5412266254425049,0.1661553531885147,-0.0342084541916847
1780528449724414000,23.0744140625,-0.5913175344467163,0.1661553531885147,0.0012217304902151
1780528449744616400,23.094616455078125,-0.616973876953125,0.0109955742955207,-0.2565633952617645
1780528449774951000,23.12495092773437,-0.6951646208763123,0.0439822971820831,-0.3555235862731933
1780528449785052400,23.135052490234376,-0.7464773058891296,0.0928515195846557,-0.2528982162475586
1780528449805194000,23.15519409179688,-0.7721336483955383,0.2345722615718841,-0.2028072625398636
1780528449815264800,23.1652646484375,-0.8283332586288452,0.2419026345014572,-0.271224170923233
1780528449825335600,23.17533544921875,-0.9101892113685608,0.2028072625398636,-0.3323107063770294
1780528449905963000,23.255962890625,-0.6695083379745483,-0.1160643994808197,-0.6536257863044739
1780528449916064300,23.26606420898437,-0.616973876953125,-0.1343903541564941,-0.675616979598999
1780528449926135000,23.276135009765625,-0.5717698931694031,-0.0366519130766391,-0.5656611919403076
1780528449936205800,23.286205810546875,-0.4923573732376098,0.067195177078247,-0.4117231667041778
1780528449946307000,23.29630712890625,-0.4117231667041778,0.1319468915462494,-0.4080579876899719
1780528450016863700,23.36686376953125,-0.0916297882795333,0.3200933933258056,0.0390953756868839
1780528450037005300,23.38700537109375,0.2602286040782928,0.3640756905078888,-0.6157521605491638
1780528450047076400,23.397076416015626,0.3787364661693573,0.3029891550540924,-0.8381071090698242
1780528450067218000,23.41721801757813,0.3604104816913605,0.2174680233001709,-0.46547931432724
1780528450077288700,23.427288818359376,0.4495968222618103,0.1722639948129654,-0.140499010682106
1780528450087329000,23.4373291015625,0.5815436840057373,0.1295034289360046,0.0207694191485643
1780528450097399800,23.44739990234375,0.7012733221054077,0.0733038261532783,-0.1441642045974731
1780528450107470600,23.457470703125,0.7513642311096191,0.1282816976308822,-0.3005456924438476
1780528450117541400,23.467541259765625,0.7929030656814575,0.2431243658065796,-0.2651155292987823
1780528450127642600,23.477642578125,0.9370672702789308,0.3286454975605011,-0.1881465017795562
1780528450137744000,23.48774389648437,1.1105530261993408,0.3481931984424591,-0.1734857261180877
1780528450147845400,23.497845458984376,1.2046263217926023,0.3213151097297668,-0.157603234052658
1780528450178118700,23.52811865234375,1.398881435394287,0.5106833577156067,0.2883284091949463
1780528450188159000,23.538158935546875,1.5515977144241333,0.4935791194438934,0.0733038261532783
1780528450198229800,23.548229736328125,1.607797384262085,0.4569272100925445,-0.2101376503705978
1780528450208331000,23.5583310546875,1.6212363243103027,0.3970624208450317,-0.361632227897644
1780528450218401800,23.56840185546875,1.5528194904327393,0.3933972120285034,-0.2675589919090271
1780528450228472800,23.578472900390626,1.4367550611495972,0.3628539443016052,0.107512280344963
1780528450238574000,23.58857397460937,1.4147639274597168,0.2394591718912124,0.3371976017951965
1780528450248675300,23.59867529296875,1.3451253175735474,-0.0109955742955207,0.3176499307155609
1780528450258776600,23.608776611328125,1.282817006111145,-0.2321287989616394,0.167377084493637
1780528450339495700,23.68949560546875,0.9859365224838256,0.0684169083833694,-0.5338962078094482
1780528450349566500,23.69956640625,0.9627236127853394,0.0977384373545646,-0.4948008358478546
1780528450359637200,23.70963720703125,0.9810495972633362,0.1502728462219238,-0.3090978264808655
1780528450369708000,23.7197080078125,1.0433578491210938,0.251676470041275,-0.3164281845092773
1780528450389880000,23.739880126953125,0.7611380815505981,0.5522221922874451,-0.2895501255989074
1780528450420062000,23.77006201171875,0.5167919993400574,0.1747074574232101,-0.3787364661693573
1780528450430163500,23.78016357421875,0.3384193480014801,0.058643065392971,-0.4239404797554016
1780528450440264700,23.7902646484375,0.1942551434040069,0.0720821022987365,-0.3872885704040527
1780528450450366000,23.800365966796875,0.058643065392971,0.0867428630590438,-0.3188716471195221
1780528450480517400,23.83051733398437,-0.3200933933258056,-0.1197295859456062,-0.1441642045974731
