time,seconds_elapsed,z,y,x
1781034559996467700,0.1344677734375,-1.5171259641647339,0.5829499959945679,-0.2538299858570099
1781034560336844000,0.474843994140625,3.610821008682251,-3.913923978805542,-0.8609960079193115
1781034560346605000,0.48460498046875,3.287177085876465,-1.9669660329818726,-0.5762739777565002
1781034560366127900,0.5041279296875,3.287177085876465,-1.9669660329818726,-0.5762739777565002
1781034560385652000,0.52365185546875,3.287177085876465,-1.9669660329818726,-0.5762739777565002
1781034560405174300,0.54317431640625,2.47963809967041,-2.121515989303589,0.10769599676132202
1781034560424696000,0.562696044921875,2.573106050491333,-1.753952980041504,0.18804100155830383
1781034560444221400,0.582221435546875,4.155572891235352,-1.1056909561157227,0.10634499788284302
1781034560463744500,0.60174462890625,4.155572891235352,-1.1056909561157227,0.10634499788284302
1781034560483265800,0.621265869140625,4.680312156677246,1.1390750408172607,-0.05284100025892258
1781034560502788400,0.640788330078125,4.680312156677246,1.1390750408172607,-0.05284100025892258
1781034560522311700,0.660311767578125,2.5339369773864746,1.5724530220031738,0.5930089950561523
1781034560541836000,0.6798359375,2.5339369773864746,1.5724530220031738,0.5930089950561523
1781034560561363000,0.699363037109375,1.589555025100708,1.3228240013122559,1.5884629487991333
1781034560580891000,0.718890869140625,1.589555025100708,1.3228240013122559,1.5884629487991333
1781034560600415200,0.738415283203125,1.009464979171753,0.297078013420105,2.376300096511841
1781034560619939300,0.757939208984375,1.009464979171753,0.297078013420105,2.376300096511841
1781034560639465000,0.77746484375,0.6273710131645203,-1.465330958366394,2.8581550121307373
1781034560658991400,0.796991455078125,0.6273710131645203,-1.465330958366394,2.8581550121307373
1781034560678520000,0.81652001953125,0.08068399876356125,-2.560250997543335,3.2060160636901855
1781034560698048000,0.836048095703125,0.08068399876356125,-2.560250997543335,3.2060160636901855
1781034560717580000,0.855580078125,-0.9774919748306274,-3.461452007293701,3.309144973754883
1781034560737115400,0.875115478515625,-0.9774919748306274,-3.461452007293701,3.309144973754883
1781034560756645600,0.894645751953125,-4.275119781494141,-3.9099318981170654,3.52103590965271
1781034560776174800,0.9141748046875,-4.275119781494141,-3.9099318981170654,3.52103590965271
1781034560795698400,0.933698486328125,-4.956696033477783,-3.9713549613952637,4.216024875640869
1781034560815217200,0.953217041015625,-4.956696033477783,-3.9713549613952637,4.216024875640869
1781034560834743800,0.972743896484375,-5.955781936645508,-3.6583468914031982,5.108116149902344
1781034560854269000,0.99226904296875,-5.955781936645508,-3.6583468914031982,5.108116149902344
1781034560873790700,1.011790771484375,-6.6229400634765625,-3.1191749572753906,5.703910827636719
1781034560893305900,1.031305908203125,-6.6229400634765625,-3.1191749572753906,5.703910827636719
1781034560912818000,1.05081787109375,-6.943408012390137,-2.961134910583496,5.444501876831055
1781034560932332300,1.070332275390625,-6.943408012390137,-2.961134910583496,5.444501876831055
1781034560951852500,1.0898525390625,-6.981919765472412,-3.5905299186706543,4.464047908782959
1781034560971382500,1.109382568359375,-6.981919765472412,-3.5905299186706543,4.464047908782959
1781034560990910200,1.12891015625,-7.44506311416626,-4.287258148193359,3.6190829277038574
1781034561010436900,1.148436767578125,-7.44506311416626,-4.287258148193359,3.6190829277038574
1781034561029960400,1.16796044921875,-8.564990043640137,-3.9083778858184814,2.6147799491882324
1781034561049482000,1.18748193359375,-8.564990043640137,-3.9083778858184814,2.6147799491882324
1781034561069008400,1.20700830078125,-8.210865020751953,-2.862536907196045,1.1828299760818481
1781034561088536000,1.2265361328125,-8.210865020751953,-2.862536907196045,1.1828299760818481
1781034561108060200,1.24606005859375,-8.210865020751953,-2.862536907196045,1.1828299760818481
1781034561127585800,1.265585693359375,-7.415876865386963,-2.7771379947662354,-0.08633500337600708
1781034561147111200,1.285111083984375,-6.3483781814575195,-2.6911590099334717,-0.7988830208778381
1781034561166641400,1.304641357421875,-6.3483781814575195,-2.6911590099334717,-0.7988830208778381
1781034561186174200,1.32417431640625,-5.437930107116699,-2.8434550762176514,-1.1017719507217407
1781034561205699000,1.343698974609375,-5.437930107116699,-2.8434550762176514,-1.1017719507217407
1781034561225221400,1.363221435546875,-5.30308723449707,-2.465238094329834,-1.0843379497528076
1781034561244747500,1.38274755859375,-5.060791015625,-1.6790080070495605,-1.2797820568084717
1781034561264275200,1.402275146484375,-4.843833923339844,-0.8112639784812927,-1.4110519886016846
1781034561283800300,1.42180029296875,-4.843833923339844,-0.8112639784812927,-1.4110519886016846
1781034561303328000,1.441327880859375,-4.183541774749756,0.5206519961357117,-1.312572956085205
1781034561322857000,1.46085693359375,-4.183541774749756,0.5206519961357117,-1.312572956085205
1781034561342381800,1.4803818359375,-3.3152360916137695,1.3576569557189941,-0.9685810208320618
1781034561361912300,1.499912353515625,-3.3152360916137695,1.3576569557189941,-0.9685810208320618
1781034561381446100,1.519446044921875,-3.0818610191345215,2.0411250591278076,-0.6761580109596252
1781034561400972300,1.53897216796875,-3.0818610191345215,2.0411250591278076,-0.6761580109596252
1781034561420497000,1.558496826171875,-2.9586150646209717,2.237555980682373,-0.6849660277366638
1781034561440021200,1.578021240234375,-2.9586150646209717,2.237555980682373,-0.6849660277366638
1781034561459542500,1.59754248046875,-2.6474969387054443,1.9485820531845093,-0.8670629858970642
1781034561479069000,1.61706884765625,-2.6474969387054443,1.9485820531845093,-0.8670629858970642
1781034561498598000,1.636597900390625,-2.7642788887023926,1.7395050525665283,-0.8342649936676025
1781034561518124800,1.656124755859375,-2.7642788887023926,1.7395050525665283,-0.8342649936676025
1781034561537654000,1.675654052734375,-2.882253885269165,1.6956809759140015,-0.8374249935150146
1781034561557185300,1.695185302734375,-2.882253885269165,1.6956809759140015,-0.8374249935150146
1781034561576716800,1.714716796875,-2.6196179389953613,1.5630799531936646,-0.8476899862289429
1781034561596250000,1.73425,-2.6196179389953613,1.5630799531936646,-0.8476899862289429
1781034561615786000,1.753785888671875,-2.0312340259552,1.3346660137176514,-0.8268489837646484
1781034561635317200,1.773317138671875,-2.0312340259552,1.3346660137176514,-0.8268489837646484
1781034561654845200,1.79284521484375,-1.4118759632110596,0.917123019695282,-0.8032140135765076
1781034561674371000,1.81237109375,-1.4118759632110596,0.917123019695282,-0.8032140135765076
1781034561693899000,1.83189892578125,0.9017090201377869,0.09517499804496765,-0.8645150065422058
1781034561713425400,1.85142529296875,0.9017090201377869,0.09517499804496765,-0.8645150065422058
1781034561732951000,1.870950927734375,1.6399919986724854,-1.0663700103759766,-0.44642600417137146
1781034561752479200,1.890479248046875,1.6399919986724854,-1.0663700103759766,-0.44642600417137146
1781034561772007700,1.910007568359375,1.4668229818344116,0.6925230026245117,0.08897600322961807
1781034561791535400,1.929535400390625,1.4668229818344116,0.6925230026245117,0.08897600322961807
1781034561811067000,1.94906689453125,-0.6168479919433594,1.2510969638824463,0.20664800703525543
1781034561830595600,1.968595703125,-0.6168479919433594,1.2510969638824463,0.20664800703525543
1781034561850119200,1.988119140625,-1.0319629907608032,-0.5228250026702881,0.2273460030555725
1781034561869642800,2.007642822265625,-1.0319629907608032,-0.5228250026702881,0.2273460030555725
1781034561889164300,2.027164306640625,-0.3313539922237396,-1.2426520586013794,0.10221800208091736
1781034561908685300,2.046685302734375,-0.3313539922237396,-1.2426520586013794,0.10221800208091736
1781034561928208100,2.0662080078125,0.7491610050201416,-1.9024330377578735,-0.12063399702310562
1781034561947735600,2.085735595703125,0.7491610050201416,-1.9024330377578735,-0.12063399702310562
1781034561967263200,2.10526318359375,1.653892993927002,-2.4579548835754395,-0.19086399674415588
1781034561986793200,2.124793212890625,1.653892993927002,-2.4579548835754395,-0.19086399674415588
1781034562006321700,2.14432177734375,1.824813961982727,-2.5357799530029297,-0.282056987285614
1781034562025846000,2.163845947265625,1.824813961982727,-2.5357799530029297,-0.282056987285614
1781034562045371400,2.183371337890625,1.824813961982727,-2.5357799530029297,-0.282056987285614
1781034562064895000,2.20289501953125,0.38881200551986694,-1.7756849527359009,0.23703500628471375
1781034562084421000,2.222421142578125,-0.05135200172662735,-1.7656019926071167,0.4998700022697449
1781034562103946000,2.241946044921875,-0.21575699746608734,-1.94057297706604,0.6763610243797302
1781034562123465700,2.2614658203125,-0.21575699746608734,-1.94057297706604,0.6763610243797302
1781034562142989300,2.2809892578125,0.1366569995880127,-2.519334077835083,0.9190179705619812
1781034562162513200,2.30051318359375,0.1366569995880127,-2.519334077835083,0.9190179705619812
1781034562182035700,2.32003564453125,0.6319169998168945,-3.2693259716033936,1.1177090406417847
1781034562201560800,2.339560791015625,0.6319169998168945,-3.2693259716033936,1.1177090406417847
1781034562221087200,2.359087158203125,1.7028599977493286,-3.576946973800659,1.0796539783477783
1781034562240608800,2.37860888671875,1.7028599977493286,-3.576946973800659,1.0796539783477783
1781034562260128500,2.39812841796875,2.323906898498535,-3.219698905944824,0.9343339800834656
1781034562279649300,2.417649169921875,2.323906898498535,-3.219698905944824,0.9343339800834656
1781034562299170000,2.437170166015625,1.942723035812378,-2.9666929244995117,0.7029809951782227
1781034562318692600,2.456692626953125,1.942723035812378,-2.9666929244995117,0.7029809951782227
1781034562338219000,2.476218994140625,1.8681889772415161,-2.4365808963775635,0.4681659936904907
1781034562357746700,2.49574658203125,1.8681889772415161,-2.4365808963775635,0.4681659936904907
1781034562377271000,2.51527099609375,1.960096001625061,-1.5635859966278076,0.34168800711631775
1781034562396799700,2.5347998046875,1.960096001625061,-1.5635859966278076,0.34168800711631775
1781034562416329700,2.554329833984375,2.0068960189819336,-1.0006530284881592,0.31105801463127136
1781034562435856000,2.57385595703125,2.0068960189819336,-1.0006530284881592,0.31105801463127136
1781034562455382000,2.593382080078125,2.2835450172424316,-0.9942150115966797,0.20862500369548798
1781034562474911500,2.612911376953125,2.2835450172424316,-0.9942150115966797,0.20862500369548798
1781034562494442200,2.632442138671875,2.6672921180725098,-1.103646993637085,0.1219559982419014
1781034562513972000,2.651971923828125,2.6672921180725098,-1.103646993637085,0.1219559982419014
1781034562533501000,2.6715009765625,2.1528968811035156,-1.1443469524383545,0.3186199963092804
1781034562553028400,2.6910283203125,2.1528968811035156,-1.1443469524383545,0.3186199963092804
1781034562572552000,2.710552001953125,1.9629650115966797,-0.878358006477356,0.33441001176834106
1781034562592078000,2.730078125,1.9629650115966797,-0.878358006477356,0.33441001176834106
1781034562611606500,2.7496064453125,2.1849870681762695,-0.9546639919281006,0.06259399652481079
1781034562631136300,2.76913623046875,2.1849870681762695,-0.9546639919281006,0.06259399652481079
1781034562650672000,2.788672119140625,1.764307975769043,-1.3082419633865356,-0.07864300161600113
1781034562670204000,2.808203857421875,1.764307975769043,-1.3082419633865356,-0.07864300161600113
1781034562689733000,2.827733154296875,1.6442110538482666,-1.0037850141525269,-0.23808300495147705
1781034562709262300,2.847262451171875,1.6442110538482666,-1.0037850141525269,-0.23808300495147705
1781034562728792600,2.86679248046875,1.4421700239181519,-0.15310600399971008,-0.49928799271583557
1781034562748324400,2.886324462890625,1.4421700239181519,-0.15310600399971008,-0.49928799271583557
1781034562767854000,2.90585400390625,0.6100850105285645,0.46725699305534363,-0.3160580098628998
1781034562787379500,2.92537939453125,0.08693400025367737,0.387937992811203,-0.13505800068378448
1781034562806900000,2.94489990234375,0.08693400025367737,0.387937992811203,-0.13505800068378448
1781034562826423000,2.964423095703125,0.43935298919677734,-0.21265199780464172,0.031022999435663223
1781034562845950500,2.983950439453125,0.43935298919677734,-0.21265199780464172,0.031022999435663223
1781034562865477000,3.00347705078125,0.43935298919677734,-0.21265199780464172,0.031022999435663223
1781034562885003000,3.0230029296875,1.5431660413742065,-0.08757100254297256,-0.49224498867988586
1781034562904530400,3.042530517578125,1.456827998161316,0.06135400012135506,-0.6046749949455261
1781034562924055800,3.062055908203125,1.3585280179977417,0.18055999279022217,-0.5891150236129761
1781034562943575000,3.081574951171875,1.3585280179977417,0.18055999279022217,-0.5891150236129761
1781034562963094500,3.101094482421875,1.0668809413909912,0.5242689847946167,-0.47295400500297546
1781034562982615600,3.120615478515625,1.0668809413909912,0.5242689847946167,-0.47295400500297546
1781034563002136600,3.140136474609375,0.6905969977378845,1.0109150409698486,-0.30560898780822754
1781034563021660000,3.159659912109375,0.6905969977378845,1.0109150409698486,-0.30560898780822754
1781034563041184500,3.1791845703125,0.464478999376297,0.7809609770774841,-0.023416999727487564
1781034563060708000,3.1987080078125,0.464478999376297,0.7809609770774841,-0.023416999727487564
1781034563080228900,3.218228759765625,1.051866054534912,-0.2328220009803772,0.02264700084924698
1781034563099756000,3.237756103515625,1.051866054534912,-0.2328220009803772,0.02264700084924698
1781034563119284700,3.25728466796875,2.367734909057617,0.0361890010535717,-0.496722012758255
1781034563138809600,3.2768095703125,2.367734909057617,0.0361890010535717,-0.496722012758255
1781034563158336300,3.296336181640625,0.07953000068664551,0.36207300424575806,-0.6427789926528931
1781034563177864700,3.31586474609375,0.07953000068664551,0.36207300424575806,-0.6427789926528931
1781034563197390600,3.335390625,-1.8500659465789795,-1.9575550556182861,-0.44645199179649353
1781034563216913400,3.354913330078125,-1.8500659465789795,-1.9575550556182861,-0.44645199179649353
1781034563236439300,3.374439208984375,1.5103720426559448,-2.023416042327881,-0.5418009757995605
1781034563255965700,3.393965576171875,1.5103720426559448,-2.023416042327881,-0.5418009757995605
1781034563275489000,3.413489013671875,2.5211009979248047,-1.358157992362976,-0.7763649821281433
1781034563295013400,3.433013427734375,2.5211009979248047,-1.358157992362976,-0.7763649821281433
1781034563314542000,3.4525419921875,1.890220046043396,-1.597072958946228,-0.6632030010223389
1781034563334068500,3.472068359375,1.890220046043396,-1.597072958946228,-0.6632030010223389
1781034563353596200,3.49159619140625,1.1633440256118774,-2.340466022491455,-0.3082840144634247
1781034563373124400,3.511124267578125,1.1633440256118774,-2.340466022491455,-0.3082840144634247
1781034563392648700,3.530648681640625,1.0427260398864746,-2.554800033569336,-0.5385749936103821
1781034563412172000,3.550172119140625,1.0427260398864746,-2.554800033569336,-0.5385749936103821
1781034563431693300,3.569693359375,0.4844779968261719,-2.2338850498199463,-1.0154949426651
1781034563451214300,3.58921435546875,0.4844779968261719,-2.2338850498199463,-1.0154949426651
1781034563470736100,3.608736083984375,0.373896986246109,-1.7299699783325195,-1.4334880113601685
1781034563490257000,3.6282568359375,0.373896986246109,-1.7299699783325195,-1.4334880113601685
1781034563509780200,3.6477802734375,0.37567898631095886,-1.2876869440078735,-1.787551999092102
1781034563529304600,3.6673046875,0.37567898631095886,-1.2876869440078735,-1.787551999092102
1781034563548826600,3.68682666015625,0.18795999884605408,-0.3984000086784363,-1.6884030103683472
1781034563568348400,3.706348388671875,0.18795999884605408,-0.3984000086784363,-1.6884030103683472
1781034563587873500,3.72587353515625,-0.531050980091095,3.5994040966033936,-0.9077669978141785
1781034563607402000,3.745402099609375,-1.1598700284957886,3.7448039054870605,-0.35811299085617065
1781034563626928600,3.7649287109375,-1.1598700284957886,3.7448039054870605,-0.35811299085617065
1781034563646459400,3.78445947265625,-1.1598700284957886,3.7448039054870605,-0.35811299085617065
1781034563665992200,3.8039921875,0.4311459958553314,0.5918930172920227,-0.25035300850868225
1781034563685523000,3.82352294921875,0.4311459958553314,0.5918930172920227,-0.25035300850868225
1781034563705053200,3.84305322265625,0.7345259785652161,0.44589900970458984,-0.8985620141029358
1781034563724585500,3.86258544921875,0.6013339757919312,0.36583301424980164,-0.9742820262908936
1781034563744119300,3.882119384765625,0.14896799623966217,0.3575969934463501,-0.7918480038642883
1781034563763650300,3.901650390625,0.14896799623966217,0.3575969934463501,-0.7918480038642883
1781034563783181800,3.921181884765625,-0.8329989910125732,1.1815470457077026,-0.09799899905920029
1781034563802715000,3.94071484375,-0.8329989910125732,1.1815470457077026,-0.09799899905920029
1781034563822248000,3.960248046875,-1.3707799911499023,2.795578956604004,0.8216530084609985
1781034563841779000,3.979779052734375,-1.3707799911499023,2.795578956604004,0.8216530084609985
1781034563861306600,3.999306640625,-1.6143900156021118,2.6226720809936523,2.8070809841156006
1781034563880834600,4.01883447265625,-1.6143900156021118,2.6226720809936523,2.8070809841156006
1781034563900365600,4.038365478515625,-1.0752760171890259,2.178989887237549,2.414849042892456
1781034563919899600,4.057899658203125,-1.0752760171890259,2.178989887237549,2.414849042892456
1781034563939433700,4.077433837890625,-0.7084149718284607,1.1762499809265137,1.373595952987671
1781034563958960600,4.096960693359375,-0.7084149718284607,1.1762499809265137,1.373595952987671
1781034563978485200,4.1164853515625,-1.3794759511947632,0.7372140288352966,0.3029400110244751
1781034563998009900,4.136009765625,-1.3794759511947632,0.7372140288352966,0.3029400110244751
1781034564017535200,4.15553515625,-1.972548007965088,0.8339589834213257,-1.3379219770431519
1781034564037061000,4.17506103515625,-1.972548007965088,0.8339589834213257,-1.3379219770431519
1781034564056587800,4.194587890625,-1.51465904712677,0.5033220052719116,-1.466812014579773
1781034564076117000,4.214116943359375,-1.51465904712677,0.5033220052719116,-1.466812014579773
1781034564095645700,4.233645751953125,0.3306579887866974,0.18265600502490997,-0.9832280278205872
1781034564115174700,4.253174560546875,0.3306579887866974,0.18265600502490997,-0.9832280278205872
1781034564134707000,4.27270703125,0.12813700735569,0.5222300291061401,-0.14448699355125427
1781034564154241500,4.292241455078125,0.12813700735569,0.5222300291061401,-0.14448699355125427
1781034564173775400,4.311775390625,-0.17967000603675842,0.5280399918556213,0.2225400060415268
1781034564193300700,4.33130078125,-0.17967000603675842,0.5280399918556213,0.2225400060415268
1781034564212823800,4.35082373046875,0.5066919922828674,0.24244800209999084,0.19158999621868134
1781034564232351700,4.370351806640625,0.5066919922828674,0.24244800209999084,0.19158999621868134
1781034564251881200,4.389881103515625,1.163972020149231,0.2550719976425171,0.3501169979572296
1781034564271412700,4.409412841796875,1.163972020149231,0.2550719976425171,0.3501169979572296
1781034564290943200,4.428943115234375,0.9240469932556152,0.5528200268745422,0.5452849864959717
1781034564310466600,4.448466552734375,0.9240469932556152,0.5528200268745422,0.5452849864959717
1781034564329985300,4.4679853515625,0.12991400063037872,0.8663139939308167,0.3601979911327362
1781034564349507800,4.4875078125,0.12991400063037872,0.8663139939308167,0.3601979911327362
1781034564369032200,4.5070322265625,-0.3542889952659607,0.6672220230102539,-0.25274598598480225
1781034564388555800,4.5265556640625,-0.3542889952659607,0.6672220230102539,-0.25274598598480225
1781034564408081000,4.546080810546875,-1.0847300291061401,0.5182430148124695,-1.0548650026321411
1781034564427606300,4.565606201171875,-1.0847300291061401,0.5182430148124695,-1.0548650026321411
1781034564447128300,4.58512841796875,-1.812069058418274,0.5205429792404175,-1.7426049709320068
1781034564466652700,4.604652587890625,-1.812069058418274,0.5205429792404175,-1.7426049709320068
1781034564486183000,4.624182861328125,0.2828330099582672,0.118648000061512,-2.2679049968719482
1781034564505708800,4.643708740234375,0.2828330099582672,0.118648000061512,-2.2679049968719482
1781034564525229300,4.663229248046875,0.555990993976593,-0.15267600119113922,-2.240483045578003
1781034564544753200,4.682753173828125,0.3993529975414276,-0.02855600044131279,-1.8301759958267212
1781034564564276000,4.70227587890625,0.22542500495910645,0.16112999618053436,-1.1952099800109863
1781034564583800300,4.72180029296875,0.22542500495910645,0.16112999618053436,-1.1952099800109863
1781034564603327700,4.74132763671875,0.667165994644165,0.0874750018119812,-0.4202989935874939
1781034564622850600,4.7608505859375,0.667165994644165,0.0874750018119812,-0.4202989935874939
1781034564642376200,4.780376220703125,1.418908953666687,-0.4540970027446747,-0.7436619997024536
1781034564661903000,4.799903076171875,1.418908953666687,-0.4540970027446747,-0.7436619997024536
1781034564681423000,4.819423095703125,1.573632001876831,-0.6744980216026306,-1.0152479410171509
1781034564700942000,4.838942138671875,1.573632001876831,-0.6744980216026306,-1.0152479410171509
1781034564720460800,4.858460693359375,1.4843709468841553,-0.37356099486351013,-0.951399028301239
1781034564739977700,4.877977783203125,1.4843709468841553,-0.37356099486351013,-0.951399028301239
1781034564759499000,4.8974990234375,0.9307360053062439,0.23050400614738464,-1.2696870565414429
1781034564779021800,4.917021728515625,0.9307360053062439,0.23050400614738464,-1.2696870565414429
1781034564798542600,4.93654248046875,-0.0682850033044815,0.5753430128097534,-1.1498719453811646
1781034564818060000,4.95606005859375,-0.0682850033044815,0.5753430128097534,-1.1498719453811646
1781034564837578200,4.975578125,0.05967099964618683,0.31521299481391907,-0.21245500445365906
1781034564857100800,4.995100830078125,0.05967099964618683,0.31521299481391907,-0.21245500445365906
1781034564876625000,5.014625,2.2450270652770996,0.1270110011100769,0.33486101031303406
1781034564896146700,5.034146728515625,2.2450270652770996,0.1270110011100769,0.33486101031303406
1781034564915664100,5.0536640625,2.941757917404175,0.40610599517822266,0.3123300075531006
1781034564935181800,5.073181884765625,2.941757917404175,0.40610599517822266,0.3123300075531006
1781034564954709000,5.092708984375,-0.6042219996452332,0.9921029806137085,0.5395029783248901
1781034564974237200,5.1122373046875,-0.6042219996452332,0.9921029806137085,0.5395029783248901
1781034564993758200,5.13175830078125,-1.2011810541152954,0.9230740070343018,1.3370790481567383
1781034565013274600,5.151274658203125,-1.2011810541152954,0.9230740070343018,1.3370790481567383
1781034565032789800,5.170789794921875,0.9504619836807251,-0.1457190066576004,1.3540010452270508
1781034565052311000,5.19031103515625,0.9504619836807251,-0.1457190066576004,1.3540010452270508
1781034565071833000,5.2098330078125,1.562729001045227,-1.214905023574829,0.7496860027313232
1781034565091348500,5.229348388671875,1.562729001045227,-1.214905023574829,0.7496860027313232
1781034565110866000,5.248865966796875,0.9397330284118652,-1.4317879676818848,0.3385530114173889
1781034565130388200,5.26838818359375,0.9397330284118652,-1.4317879676818848,0.3385530114173889
1781034565149911800,5.287911865234375,-0.24718500673770905,-0.8396239876747131,-0.2641089856624603
1781034565169432300,5.307432373046875,-0.24718500673770905,-0.8396239876747131,-0.2641089856624603
1781034565188949500,5.326949462890625,-1.4319020509719849,-0.26649099588394165,-0.9067630171775818
1781034565208470800,5.346470703125,-1.4319020509719849,-0.26649099588394165,-0.9067630171775818
1781034565227991600,5.365991455078125,-1.6472400426864624,-0.03396400064229965,-1.3690509796142578
1781034565247512600,5.3855126953125,-1.6472400426864624,-0.03396400064229965,-1.3690509796142578
1781034565267037000,5.405036865234375,0.3619450032711029,0.20817099511623383,-1.6397509574890137
1781034565286559700,5.424559814453125,0.3619450032711029,0.20817099511623383,-1.6397509574890137
1781034565306077400,5.444077392578125,0.4266110062599182,0.2572849988937378,-1.4491779804229736
1781034565325597200,5.46359716796875,0.4266110062599182,0.2572849988937378,-1.4491779804229736
1781034565345117700,5.48311767578125,-0.34582799673080444,-0.5207449793815613,-0.754709005355835
1781034565364637000,5.502636962890625,-0.40110400319099426,-1.0844119787216187,-0.5482919812202454
1781034565384157000,5.522156982421875,-0.24205799400806427,-1.6100070476531982,-0.5192440152168274
1781034565403678700,5.5416787109375,-0.24205799400806427,-1.6100070476531982,-0.5192440152168274
1781034565423203600,5.56120361328125,-0.20310400426387787,-1.9808499813079834,-0.6946430206298828
1781034565442730000,5.58072998046875,-0.20310400426387787,-1.9808499813079834,-0.6946430206298828
1781034565462253300,5.60025341796875,-0.44977301359176636,-1.924198031425476,-0.6363319754600525
1781034565481773600,5.619773681640625,-0.44977301359176636,-1.924198031425476,-0.6363319754600525
1781034565501295900,5.6392958984375,-0.07458899915218353,-1.9449900388717651,-0.6178709864616394
1781034565520824000,5.658823974609375,-0.07458899915218353,-1.9449900388717651,-0.6178709864616394
1781034565540351200,5.678351318359375,0.5817049741744995,-1.6113189458847046,-0.6318569779396057
1781034565559873000,5.697873046875,0.5817049741744995,-1.6113189458847046,-0.6318569779396057
1781034565579397600,5.717397705078125,0.9420909881591797,-1.0033320188522339,-0.6293079853057861
1781034565598925000,5.736925048828125,0.9420909881591797,-1.0033320188522339,-0.6293079853057861
1781034565618455000,5.756455078125,1.308364987373352,-0.528997004032135,-0.5994110107421875
1781034565637984500,5.775984619140625,1.308364987373352,-0.528997004032135,-0.5994110107421875
1781034565657509400,5.79550927734375,1.9467660188674927,-0.2266779989004135,-0.38973701000213623
1781034565677030100,5.815030029296875,1.9467660188674927,-0.2266779989004135,-0.38973701000213623
1781034565696548000,5.834548095703125,2.0698719024658203,0.014398000203073025,-0.28003498911857605
1781034565716068900,5.85406884765625,2.0698719024658203,0.014398000203073025,-0.28003498911857605
1781034565735590400,5.87359033203125,1.647631049156189,0.01992800086736679,-0.1882610023021698
1781034565755113000,5.893113037109375,1.647631049156189,0.01992800086736679,-0.1882610023021698
1781034565774636500,5.912636474609375,1.3041900396347046,-0.5259159803390503,-0.17118899524211884
1781034565794158600,5.93215869140625,1.3041900396347046,-0.5259159803390503,-0.17118899524211884
1781034565813683000,5.951682861328125,-0.89963299036026,-1.113368034362793,-0.6114320158958435
1781034565833204500,5.97120458984375,-0.89963299036026,-1.113368034362793,-0.6114320158958435
1781034565852726000,5.99072607421875,-1.8143359422683716,-1.3252099752426147,-1.1792470216751099
1781034565872247800,6.010247802734375,-1.8143359422683716,-1.3252099752426147,-1.1792470216751099
1781034565891772000,6.02977197265625,-2.2908248901367188,-1.69451904296875,-1.581037998199463
1781034565911298000,6.049298095703125,-2.2908248901367188,-1.69451904296875,-1.581037998199463
1781034565930822700,6.06882275390625,-1.6032400131225586,-1.8338680267333984,-1.7551970481872559
1781034565950348800,6.088348876953125,-1.6032400131225586,-1.8338680267333984,-1.7551970481872559
1781034565969875200,6.107875244140625,-0.9901300072669983,-1.0116389989852905,-1.8304890394210815
1781034565989401600,6.127401611328125,-0.9901300072669983,-1.0116389989852905,-1.8304890394210815
1781034566008928000,6.146927978515625,-0.6747159957885742,1.2534070014953613,-1.9248650074005127
1781034566028449800,6.16644970703125,-0.3728190064430237,1.5866179466247559,-1.9375569820404053
1781034566047972000,6.18597216796875,-0.3728190064430237,1.5866179466247559,-1.9375569820404053
1781034566067497700,6.205497802734375,0.3546789884567261,1.962677001953125,-2.0038158893585205
1781034566087027000,6.22502685546875,0.3546789884567261,1.962677001953125,-2.0038158893585205
1781034566106553600,6.2445537109375,0.7836740016937256,1.5853639841079712,-2.0399670600891113
1781034566126077000,6.264076904296875,0.7836740016937256,1.5853639841079712,-2.0399670600891113
1781034566145601300,6.283601318359375,0.7836740016937256,1.5853639841079712,-2.0399670600891113
1781034566165123300,6.303123291015625,0.1310119926929474,0.6881420016288757,-1.857058048248291
1781034566184645400,6.322645263671875,-0.2144950032234192,0.42846301198005676,-1.651108980178833
1781034566204167400,6.34216748046875,-0.5157970190048218,0.19047999382019043,-1.433580994606018
1781034566223687400,6.3616875,-0.5157970190048218,0.19047999382019043,-1.433580994606018
1781034566243208400,6.38120849609375,-0.6496850252151489,-0.06238599866628647,-1.1025199890136719
1781034566262730200,6.400730224609375,-0.6496850252151489,-0.06238599866628647,-1.1025199890136719
1781034566282257400,6.42025732421875,-0.37063801288604736,-0.08431500196456909,-0.880469024181366
1781034566301785600,6.43978564453125,-0.37063801288604736,-0.08431500196456909,-0.880469024181366
1781034566321313000,6.45931298828125,0.05549599975347519,0.13454000651836395,-0.7252359986305237
1781034566340839400,6.47883935546875,0.05549599975347519,0.13454000651836395,-0.7252359986305237
1781034566360359200,6.498359130859375,0.4645470082759857,0.4164380133152008,-0.8377090096473694
1781034566379880200,6.517880126953125,0.4645470082759857,0.4164380133152008,-0.8377090096473694
1781034566399405300,6.5374052734375,0.8938369750976562,0.5681149959564209,-0.7460700273513794
1781034566418927600,6.556927734375,0.8938369750976562,0.5681149959564209,-0.7460700273513794
1781034566438447000,6.576447021484375,1.201064944267273,0.6655319929122925,-0.5403220057487488
1781034566457967900,6.5959677734375,1.201064944267273,0.6655319929122925,-0.5403220057487488
1781034566477489000,6.615489013671875,1.367447018623352,0.7672399878501892,-0.4876269996166229
1781034566497010200,6.63501025390625,1.367447018623352,0.7672399878501892,-0.4876269996166229
1781034566516529200,6.654529052734375,1.0715299844741821,0.631164014339447,-0.23529499769210815
1781034566536051200,6.67405126953125,1.0715299844741821,0.631164014339447,-0.23529499769210815
1781034566555573800,6.69357373046875,0.6388750076293945,0.16288700699806213,0.36586201190948486
1781034566575093800,6.71309375,0.6388750076293945,0.16288700699806213,0.36586201190948486
1781034566594615600,6.732615478515625,0.10208500176668167,-0.407370001077652,1.0364609956741333
1781034566614138600,6.752138671875,0.10208500176668167,-0.407370001077652,1.0364609956741333
1781034566633662000,6.771661865234375,-0.6541889905929565,-0.8062769770622253,1.336305022239685
1781034566653182000,6.791181884765625,-0.6541889905929565,-0.8062769770622253,1.336305022239685
1781034566672699100,6.81069921875,-1.1702589988708496,-0.9871079921722412,1.372393012046814
1781034566692219600,6.8302197265625,-1.1702589988708496,-0.9871079921722412,1.372393012046814
1781034566711739100,6.8497392578125,-0.6529290080070496,-1.2662529945373535,1.3515210151672363
1781034566731256300,6.86925634765625,-0.6529290080070496,-1.2662529945373535,1.3515210151672363
1781034566750776600,6.888776611328125,0.597694993019104,-1.6480920314788818,0.8591169714927673
1781034566770300700,6.90830078125,0.597694993019104,-1.6480920314788818,0.8591169714927673
1781034566789823000,6.927822998046875,1.2136059999465942,-1.7345390319824219,0.33149299025535583
1781034566809343500,6.947343505859375,1.2136059999465942,-1.7345390319824219,0.33149299025535583
1781034566828863700,6.96686376953125,0.5982810258865356,-1.1788029670715332,0.19583100080490112
1781034566848386800,6.98638671875,0.5982810258865356,-1.1788029670715332,0.19583100080490112
1781034566867912000,7.005911865234375,0.037324998527765274,-0.2395229935646057,0.2834460139274597
1781034566887433200,7.02543310546875,0.037324998527765274,-0.2395229935646057,0.2834460139274597
1781034566906951000,7.044950927734375,2.03256893157959,0.4815579950809479,0.459879994392395
1781034566926463700,7.064463623046875,2.03256893157959,0.4815579950809479,0.459879994392395
1781034566945976800,7.083976806640625,2.03256893157959,0.4815579950809479,0.459879994392395
1781034566965495600,7.10349560546875,4.359796047210693,0.9074119925498962,-0.11222100257873535
1781034566985012500,7.123012451171875,4.367023944854736,0.9896199703216553,-0.43408098816871643
1781034567004530700,7.14253076171875,3.9771339893341064,1.0624970197677612,-0.6538789868354797
1781034567024047900,7.1620478515625,1.970410943031311,1.1196750402450562,-0.7278090119361877
1781034567043567600,7.181567626953125,1.970410943031311,1.1196750402450562,-0.7278090119361877
1781034567063088400,7.20108837890625,1.074668049812317,1.2816270589828491,-0.8550630211830139
1781034567082604300,7.220604248046875,1.074668049812317,1.2816270589828491,-0.8550630211830139
1781034567102122000,7.2401220703125,0.3991990089416504,1.1407400369644165,-1.0124750137329102
1781034567121637400,7.259637451171875,0.3991990089416504,1.1407400369644165,-1.0124750137329102
1781034567141153300,7.2791533203125,0.48226600885391235,0.4203670024871826,-1.0864989757537842
1781034567160670200,7.298670166015625,0.48226600885391235,0.4203670024871826,-1.0864989757537842
1781034567180183600,7.31818359375,0.7519199848175049,-0.12450099736452103,-1.1097999811172485
1781034567199693600,7.337693603515625,0.7519199848175049,-0.12450099736452103,-1.1097999811172485
1781034567219206100,7.3572060546875,0.08389399945735931,-0.4654340147972107,-1.3413530588150024
1781034567238721000,7.376720947265625,0.08389399945735931,-0.4654340147972107,-1.3413530588150024
1781034567258232600,7.396232666015625,-0.9820250272750854,-0.5734099745750427,-1.603639006614685
1781034567277744400,7.415744384765625,-0.9820250272750854,-0.5734099745750427,-1.603639006614685
1781034567297256700,7.435256591796875,-1.4317079782485962,-0.2872079908847809,-1.3771270513534546
1781034567316770000,7.45477001953125,-1.4317079782485962,-0.2872079908847809,-1.3771270513534546
1781034567336286000,7.474285888671875,-1.1668139696121216,-0.1109820008277893,-1.0404540300369263
1781034567355803000,7.493802978515625,-1.1668139696121216,-0.1109820008277893,-1.0404540300369263
1781034567375317000,7.51331689453125,-0.33206599950790405,0.1640789955854416,-0.8804540038108826
1781034567394829800,7.532829833984375,-0.33206599950790405,0.1640789955854416,-0.8804540038108826
1781034567414344000,7.552343994140625,-0.028327999636530876,0.5704339742660522,-1.0470000505447388
1781034567433857500,7.571857421875,-0.028327999636530876,0.5704339742660522,-1.0470000505447388
1781034567453370600,7.59137060546875,-0.20256899297237396,0.7602270245552063,-1.4286409616470337
1781034567472885000,7.610885009765625,-0.20256899297237396,0.7602270245552063,-1.4286409616470337
1781034567492399400,7.6303994140625,-0.01423600036650896,0.6160590052604675,-1.5656280517578125
1781034567511910000,7.649909912109375,-0.01423600036650896,0.6160590052604675,-1.5656280517578125
1781034567531420700,7.669420654296875,0.0034340000711381435,0.1852169930934906,-1.4384750127792358
1781034567550939600,7.688939697265625,0.0034340000711381435,0.1852169930934906,-1.4384750127792358
1781034567570459000,7.708458984375,-0.49734601378440857,-0.24770799279212952,-1.1349949836730957
1781034567589971200,7.72797119140625,-0.49734601378440857,-0.24770799279212952,-1.1349949836730957
1781034567609487400,7.7474873046875,-1.630511999130249,-0.511667013168335,-1.073004961013794
1781034567629006800,7.7670068359375,-1.630511999130249,-0.511667013168335,-1.073004961013794
1781034567648522500,7.7865224609375,-2.7168569564819336,-0.3656710088253021,-1.4905580282211304
1781034567668037000,7.806037109375,-2.7168569564819336,-0.3656710088253021,-1.4905580282211304
1781034567687552000,7.825552001953125,-5.028796195983887,0.0003929999948013574,-1.7237859964370728
1781034567707061500,7.8450615234375,-5.028796195983887,0.0003929999948013574,-1.7237859964370728
1781034567726571800,7.86457177734375,-5.340371131896973,0.22790099680423737,-2.2448439598083496
1781034567746088200,7.884088134765625,-5.340371131896973,0.22790099680423737,-2.2448439598083496
1781034567765607400,7.903607421875,-5.340371131896973,0.22790099680423737,-2.2448439598083496
1781034567785122300,7.923122314453125,-5.514036178588867,0.8560649752616882,-3.2546870708465576
1781034567804632600,7.942632568359375,-5.226420879364014,1.0670280456542969,-3.3987839221954346
1781034567824146700,7.962146728515625,-4.740878105163574,1.1995290517807007,-3.32726788520813
1781034567843663600,7.98166357421875,-4.740878105163574,1.1995290517807007,-3.32726788520813
1781034567863179000,8.001178955078124,-2.191864013671875,1.2071470022201538,-1.3029060363769531
1781034567882690600,8.020690673828126,-2.191864013671875,1.2071470022201538,-1.3029060363769531
1781034567902203000,8.040202880859376,-1.158121943473816,0.7262430191040039,-1.205361008644104
1781034567921715700,8.0597158203125,-1.158121943473816,0.7262430191040039,-1.205361008644104
1781034567941228500,8.079228515625,-0.08783899992704391,0.484811007976532,-1.1236920356750488
1781034567960742100,8.0987421875,-0.08783899992704391,0.484811007976532,-1.1236920356750488
1781034567980258600,8.118258544921876,0.8339909911155701,0.7014589905738831,-0.6785240173339844
1781034567999775500,8.137775390625,0.8339909911155701,0.7014589905738831,-0.6785240173339844
1781034568019291600,8.157291748046875,1.9899660348892212,0.6285330057144165,0.2508769929409027
1781034568038807600,8.1768076171875,1.9899660348892212,0.6285330057144165,0.2508769929409027
1781034568058321400,8.1963212890625,3.564150094985962,0.3290579915046692,1.8682409524917603
1781034568077839600,8.215839599609374,3.564150094985962,0.3290579915046692,1.8682409524917603
1781034568097361400,8.235361328125,3.442038059234619,0.02995399944484234,1.7846410274505615
1781034568116876000,8.2548759765625,3.442038059234619,0.02995399944484234,1.7846410274505615
1781034568136389600,8.2743896484375,2.8736679553985596,0.02843100018799305,1.105105996131897
1781034568155902200,8.293902099609374,2.8736679553985596,0.02843100018799305,1.105105996131897
1781034568175411700,8.31341162109375,2.5215280055999756,0.3207609951496124,0.5649710297584534
1781034568194930200,8.33293017578125,2.5215280055999756,0.3207609951496124,0.5649710297584534
1781034568214451200,8.352451171875,3.0126140117645264,0.7926920056343079,0.18212200701236725
1781034568233964800,8.37196484375,3.0126140117645264,0.7926920056343079,0.18212200701236725
1781034568253476000,8.39147607421875,3.5132479667663574,0.9168109893798828,-0.5726860165596008
1781034568272989400,8.410989501953125,3.5132479667663574,0.9168109893798828,-0.5726860165596008
1781034568292498000,8.430497802734376,3.988676071166992,0.5116389989852905,-1.4014209508895874
1781034568312007700,8.450007568359375,3.988676071166992,0.5116389989852905,-1.4014209508895874
1781034568331521800,8.469521728515625,3.2626869678497314,-1.608078956604004,-1.0739699602127075
1781034568351036000,8.489035888671875,3.2626869678497314,-1.608078956604004,-1.0739699602127075
1781034568370554600,8.5085546875,2.235421895980835,-2.333712100982666,1.124068021774292
1781034568390074600,8.52807470703125,2.235421895980835,-2.333712100982666,1.124068021774292
1781034568409601500,8.5476015625,6.24556303024292,-1.715561032295227,-2.5627880096435547
1781034568429124900,8.567124755859375,6.24556303024292,-1.715561032295227,-2.5627880096435547
1781034568448642300,8.586642333984376,7.391589164733887,-0.9838359951972961,-1.4372129440307617
1781034568468161800,8.606161865234375,7.391589164733887,-0.9838359951972961,-1.4372129440307617
1781034568487681800,8.625681884765624,4.8273539543151855,-0.9560059905052185,1.0089149475097656
1781034568507205000,8.645205078125,4.8273539543151855,-0.9560059905052185,1.0089149475097656
1781034568526724000,8.66472412109375,0.518106997013092,-1.4148160219192505,-0.29673901200294495
1781034568546239200,8.6842392578125,0.518106997013092,-1.4148160219192505,-0.29673901200294495
1781034568565756200,8.703756103515625,0.518106997013092,-1.4148160219192505,-0.29673901200294495
1781034568585278700,8.72327880859375,0.8363149762153625,-1.523872971534729,-0.5194039940834045
1781034568604804900,8.742804931640626,2.4186229705810547,-1.2847909927368164,-0.18229199945926666
1781034568624329700,8.762329833984374,2.251323938369751,-1.151757001876831,0.2246759980916977
1781034568643852300,8.781852294921874,2.251323938369751,-1.151757001876831,0.2246759980916977
1781034568663374600,8.80137451171875,-0.37031200528144836,-1.3200340270996094,1.001731038093567
1781034568682898400,8.8208984375,-0.37031200528144836,-1.3200340270996094,1.001731038093567
1781034568702419700,8.840419677734374,-2.3543269634246826,-1.7593690156936646,1.3790949583053589
1781034568721940700,8.859940673828126,-2.3543269634246826,-1.7593690156936646,1.3790949583053589
1781034568741461000,8.8794609375,-2.5542500019073486,-1.5617669820785522,1.0643399953842163
1781034568760980500,8.89898046875,-2.5542500019073486,-1.5617669820785522,1.0643399953842163
1781034568780500200,8.918500244140626,-1.5897940397262573,0.5238419771194458,0.23675300180912018
1781034568800021000,8.93802099609375,-1.5897940397262573,0.5238419771194458,0.23675300180912018
1781034568819544600,8.957544677734376,-1.1944220066070557,1.2412879467010498,0.2543100118637085
1781034568839066400,8.97706640625,-1.1944220066070557,1.2412879467010498,0.2543100118637085
1781034568858589200,8.996589111328126,-0.9230309724807739,1.5548770427703857,0.4756160080432892
1781034568878113800,9.01611376953125,-0.9230309724807739,1.5548770427703857,0.4756160080432892
1781034568897636600,9.03563671875,-0.16328300535678864,1.4797780513763428,0.11807200312614441
1781034568917159400,9.055159423828124,-0.16328300535678864,1.4797780513763428,0.11807200312614441
1781034568936681700,9.074681640625,0.3210720121860504,1.6732120513916016,-0.15450899302959442
1781034568956203300,9.094203369140626,0.3210720121860504,1.6732120513916016,-0.15450899302959442
1781034568975726800,9.113726806640624,-0.1429940015077591,1.8730189800262451,0.2979849874973297
1781034568995251000,9.1332509765625,-0.1429940015077591,1.8730189800262451,0.2979849874973297
1781034569014775600,9.152775634765625,-0.6972669959068298,1.8059580326080322,1.04728102684021
1781034569034296600,9.172296630859375,-0.6972669959068298,1.8059580326080322,1.04728102684021
1781034569053820400,9.1918203125,-0.5991489887237549,2.042717933654785,1.0577160120010376
1781034569073351200,9.21135107421875,-0.5991489887237549,2.042717933654785,1.0577160120010376
1781034569092880000,9.2308798828125,-1.0077099800109863,2.2985520362854004,1.0147509574890137
1781034569112403500,9.250403564453125,-1.0077099800109863,2.2985520362854004,1.0147509574890137
1781034569131926300,9.26992626953125,-2.984895944595337,2.14513897895813,0.7116789817810059
1781034569151450000,9.2894501953125,-2.984895944595337,2.14513897895813,0.7116789817810059
1781034569170972700,9.30897265625,-3.6804540157318115,1.9476399421691895,0.10117299854755402
1781034569190498300,9.328498291015626,-3.6804540157318115,1.9476399421691895,0.10117299854755402
1781034569210033000,9.348032958984374,-3.3084170818328857,1.7162909507751465,-0.07958099991083145
1781034569229563000,9.36756298828125,-3.3084170818328857,1.7162909507751465,-0.07958099991083145
1781034569249083000,9.387082763671875,-2.695952892303467,1.4660550355911255,0.011733000166714191
1781034569268606200,9.406606201171876,-2.695952892303467,1.4660550355911255,0.011733000166714191
1781034569288131600,9.426131591796874,-2.607572078704834,1.253411054611206,0.3534179925918579
1781034569307655400,9.445655517578125,-2.607572078704834,1.253411054611206,0.3534179925918579
1781034569327180300,9.46518017578125,-2.4222280979156494,1.1414309740066528,0.763267993927002
1781034569346701600,9.48470166015625,-2.4222280979156494,1.1414309740066528,0.763267993927002
1781034569366224600,9.504224609375,-2.0565130710601807,1.176692008972168,1.448475956916809
1781034569385750500,9.52375048828125,-2.0565130710601807,1.176692008972168,1.448475956916809
1781034569405275100,9.543275146484374,-2.0565130710601807,1.176692008972168,1.448475956916809
1781034569424796000,9.5627958984375,-2.137821912765503,1.4718830585479736,1.213670015335083
1781034569444312300,9.582312255859375,-2.2225289344787598,1.511322021484375,0.7349749803543091
1781034569463830000,9.601830078125,-2.285346031188965,1.3769420385360718,0.3179450035095215
1781034569483351000,9.62135107421875,-2.285346031188965,1.3769420385360718,0.3179450035095215
1781034569502876000,9.6408759765625,-2.15214204788208,0.7376109957695007,-0.483271986246109
1781034569522405600,9.660405517578125,-2.15214204788208,0.7376109957695007,-0.483271986246109
1781034569541934800,9.679934814453125,-1.6563299894332886,0.48088300228118896,-0.931430995464325
1781034569561461800,9.699461669921876,-1.6563299894332886,0.48088300228118896,-0.931430995464325
1781034569580988200,9.71898828125,-1.4830249547958374,0.5611090064048767,-1.1403989791870117
1781034569600516900,9.738516845703124,-1.4830249547958374,0.5611090064048767,-1.1403989791870117
1781034569620047000,9.758047119140626,-1.5427659749984741,0.6647319793701172,-0.8977029919624329
1781034569639579000,9.777578857421876,-1.5427659749984741,0.6647319793701172,-0.8977029919624329
1781034569659111000,9.79711083984375,-1.0306260585784912,0.8065680265426636,-0.4273569881916046
1781034569678641400,9.816641357421876,-1.0306260585784912,0.8065680265426636,-0.4273569881916046
1781034569698174000,9.836174072265624,-0.43715500831604004,0.7510650157928467,0.05122999846935272
1781034569717701000,9.855701171875,-0.43715500831604004,0.7510650157928467,0.05122999846935272
1781034569737226800,9.875226806640624,0.11003799736499786,0.35365501046180725,0.11860000342130661
1781034569756756200,9.894756103515626,0.11003799736499786,0.35365501046180725,0.11860000342130661
1781034569776285200,9.91428515625,0.5392850041389465,-0.30313700437545776,-0.4321399927139282
1781034569795809000,9.93380908203125,0.5392850041389465,-0.30313700437545776,-0.4321399927139282
1781034569815329800,9.953329833984375,0.3761729896068573,-0.9583399891853333,-0.6570870280265808
1781034569834852600,9.9728525390625,0.3761729896068573,-0.9583399891853333,-0.6570870280265808
1781034569854377700,9.992377685546876,0.15728899836540222,-1.2630000114440918,-0.7174180150032043
1781034569873905700,10.01190576171875,0.15728899836540222,-1.2630000114440918,-0.7174180150032043
1781034569893435100,10.03143505859375,-0.3800800144672394,-1.4666759967803955,-0.6957229971885681
1781034569912965400,10.05096533203125,-0.3800800144672394,-1.4666759967803955,-0.6957229971885681
1781034569932494300,10.070494384765626,-0.6556649804115295,-1.4032100439071655,-0.4292890131473541
1781034569952022800,10.090022705078125,-0.6556649804115295,-1.4032100439071655,-0.4292890131473541
1781034569971550500,10.109550537109374,-0.7984210252761841,-0.8390600085258484,-0.36118200421333313
1781034569991079000,10.129078857421876,-0.7984210252761841,-0.8390600085258484,-0.36118200421333313
1781034570010611000,10.14861083984375,-0.9656209945678711,-0.4786669909954071,-0.4819520115852356
1781034570030139400,10.168139404296875,-0.9656209945678711,-0.4786669909954071,-0.4819520115852356
1781034570049666000,10.187666015625,-0.8884050250053406,-0.32055899500846863,-0.7826250195503235
1781034570069191700,10.207191650390625,-0.8884050250053406,-0.32055899500846863,-0.7826250195503235
1781034570088718800,10.22671875,-0.4982999861240387,-0.27322399616241455,-0.934660017490387
1781034570108247000,10.2462470703125,-0.4982999861240387,-0.27322399616241455,-0.934660017490387
1781034570127770400,10.265770263671875,-0.02816700004041195,-0.6045519709587097,-0.7873340249061584
1781034570147291400,10.28529150390625,-0.02816700004041195,-0.6045519709587097,-0.7873340249061584
1781034570166816000,10.30481591796875,0.2740119993686676,-1.0089609622955322,-0.6328809857368469
1781034570186340900,10.3243408203125,0.2740119993686676,-1.0089609622955322,-0.6328809857368469
1781034570205864700,10.34386474609375,0.4527660012245178,-1.4967039823532104,-0.5094320178031921
1781034570225390800,10.363390869140625,0.4527660012245178,-1.4967039823532104,-0.5094320178031921
1781034570244917200,10.382917236328124,0.4527660012245178,-1.4967039823532104,-0.5094320178031921
1781034570264442600,10.402442626953125,0.9163069725036621,-1.9498330354690552,-0.7267600297927856
1781034570283973000,10.42197314453125,0.8569350242614746,-1.7778990268707275,-0.8388180136680603
1781034570303503600,10.441503662109374,0.586027979850769,-1.582556962966919,-0.8625410199165344
1781034570323032600,10.461032470703126,0.586027979850769,-1.582556962966919,-0.8625410199165344
1781034570342561500,10.4805615234375,0.12493500113487244,-1.3483250141143799,-0.8745350241661072
1781034570362085600,10.500085693359376,0.12493500113487244,-1.3483250141143799,-0.8745350241661072
1781034570381607700,10.519607666015625,0.28450900316238403,-1.3102339506149292,-1.0206350088119507
1781034570401132500,10.539132568359374,0.28450900316238403,-1.3102339506149292,-1.0206350088119507
1781034570420657000,10.558656982421875,0.42155998945236206,-1.1623790264129639,-1.3781659603118896
1781034570440177200,10.57817724609375,0.42155998945236206,-1.1623790264129639,-1.3781659603118896
1781034570459698700,10.59769873046875,0.08022399991750717,-0.6429889798164368,-1.7719719409942627
1781034570479219700,10.6172197265625,0.08022399991750717,-0.6429889798164368,-1.7719719409942627
1781034570498738200,10.63673828125,-0.348019003868103,-0.13691399991512299,-1.9966520071029663
1781034570518256600,10.656256591796875,-0.348019003868103,-0.13691399991512299,-1.9966520071029663
1781034570537778200,10.675778076171875,-0.3468570113182068,0.025697000324726105,-1.9833979606628418
1781034570557300000,10.695300048828125,-0.3468570113182068,0.025697000324726105,-1.9833979606628418
1781034570576821200,10.7148212890625,-0.26151901483535767,-0.12520700693130493,-1.773658037185669
1781034570596343000,10.734343017578125,-0.26151901483535767,-0.12520700693130493,-1.773658037185669
1781034570615864600,10.753864501953124,-0.3967970013618469,-0.36920100450515747,-1.3636929988861084
1781034570635387000,10.773386962890624,-0.3967970013618469,-0.36920100450515747,-1.3636929988861084
1781034570654911700,10.792911865234375,-0.3220039904117584,-0.5743280053138733,-0.9663410186767578
1781034570674436000,10.81243603515625,-0.3220039904117584,-0.5743280053138733,-0.9663410186767578
1781034570693960400,10.83196044921875,0.10620100051164627,-0.6855729818344116,-0.6753939986228943
1781034570713486600,10.851486572265625,0.10620100051164627,-0.6855729818344116,-0.6753939986228943
1781034570733011200,10.87101123046875,0.5711249709129333,-0.6163179874420166,-0.5215830206871033
1781034570752532500,10.890532470703125,0.5711249709129333,-0.6163179874420166,-0.5215830206871033
1781034570772056600,10.910056640625,0.9669020175933838,-0.36123400926589966,-0.5169159770011902
1781034570791577000,10.9295771484375,0.9669020175933838,-0.36123400926589966,-0.5169159770011902
1781034570811094000,10.949093994140625,1.4375439882278442,-0.16598199307918549,-0.7326899766921997
1781034570830617300,10.968617431640626,1.4375439882278442,-0.16598199307918549,-0.7326899766921997
1781034570850145000,10.98814501953125,1.8563179969787598,-0.07402600347995758,-1.1651860475540161
1781034570869672400,11.00767236328125,1.8563179969787598,-0.07402600347995758,-1.1651860475540161
1781034570889199400,11.027199462890625,1.8838720321655273,0.17357900738716125,-1.3582830429077148
1781034570908724200,11.04672412109375,1.8838720321655273,0.17357900738716125,-1.3582830429077148
1781034570928246300,11.066246337890625,1.6907169818878174,0.5668389797210693,-1.3557889461517334
1781034570947769600,11.08576953125,1.6907169818878174,0.5668389797210693,-1.3557889461517334
1781034570967292700,11.105292724609376,1.6907169818878174,0.5668389797210693,-1.3557889461517334
1781034570986814000,11.12481396484375,1.1163239479064941,0.3304469883441925,-1.3569819927215576
1781034571006335200,11.144335205078125,0.5882290005683899,0.04669500142335892,-1.3300600051879883
1781034571025857800,11.16385791015625,0.5882290005683899,0.04669500142335892,-1.3300600051879883
1781034571045380900,11.183380859375,0.5882290005683899,0.04669500142335892,-1.3300600051879883
1781034571064902100,11.202902099609375,-0.22371399402618408,0.12633800506591797,-1.585898995399475
1781034571084423000,11.2224228515625,-0.5063580274581909,0.3187440037727356,-1.6139999628067017
1781034571103940900,11.24194091796875,-0.8617730140686035,0.3945179879665375,-1.6221439838409424
1781034571123460900,11.2614609375,-0.8617730140686035,0.3945179879665375,-1.6221439838409424
1781034571142987000,11.280987060546876,-1.5658999681472778,0.24240800738334656,-1.531501054763794
1781034571162512600,11.3005126953125,-1.5658999681472778,0.24240800738334656,-1.531501054763794
1781034571182035200,11.32003515625,-2.014436960220337,0.08986800163984299,-1.239596962928772
1781034571201557800,11.339557861328124,-2.014436960220337,0.08986800163984299,-1.239596962928772
1781034571221081300,11.359081298828125,-1.9723789691925049,0.22673599421977997,-1.0398880243301392
1781034571240599300,11.378599365234376,-1.9723789691925049,0.22673599421977997,-1.0398880243301392
1781034571260115500,11.398115478515624,-1.789646029472351,0.44331398606300354,-0.8209450244903564
1781034571279629600,11.417629638671874,-1.789646029472351,0.44331398606300354,-0.8209450244903564
1781034571299147300,11.437147216796875,-2.222891092300415,0.649744987487793,-0.9196599721908569
1781034571318671400,11.45667138671875,-2.222891092300415,0.649744987487793,-0.9196599721908569
1781034571338192600,11.476192626953125,-2.6514790058135986,0.7481499910354614,-1.6046819686889648
1781034571357715500,11.495715576171875,-2.6514790058135986,0.7481499910354614,-1.6046819686889648
1781034571377240300,11.515240234375,-2.673516035079956,0.7061399817466736,-2.5511178970336914
1781034571396761600,11.53476171875,-2.673516035079956,0.7061399817466736,-2.5511178970336914
1781034571416279000,11.554279052734374,-2.4823200702667236,0.08673799782991409,-3.1164920330047607
1781034571435796700,11.573796630859375,-2.4823200702667236,0.08673799782991409,-3.1164920330047607
1781034571455314700,11.593314697265624,-2.0025548934936523,-0.5407770276069641,-1.2609879970550537
1781034571474835200,11.612835205078126,-2.0025548934936523,-0.5407770276069641,-1.2609879970550537
1781034571494358800,11.63235888671875,-1.5354020595550537,-0.10853400081396103,-0.7128819823265076
1781034571513883000,11.6518828125,-1.5354020595550537,-0.10853400081396103,-0.7128819823265076
1781034571533408800,11.67140869140625,-1.4956669807434082,0.5869960188865662,-0.819229006767273
1781034571552932600,11.6909326171875,-1.4956669807434082,0.5869960188865662,-0.819229006767273
1781034571572457200,11.710457275390626,-0.7973099946975708,1.0644760131835938,-0.6471539735794067
1781034571591983000,11.729983154296875,-0.7973099946975708,1.0644760131835938,-0.6471539735794067
1781034571611507500,11.749507568359375,-0.14908599853515625,1.0662250518798828,-0.38847601413726807
1781034571631035600,11.76903564453125,-0.14908599853515625,1.0662250518798828,-0.38847601413726807
1781034571650563300,11.788563232421875,0.10680799931287766,0.565995991230011,-0.7861779928207397
1781034571670088700,11.808088623046874,0.10680799931287766,0.565995991230011,-0.7861779928207397
1781034571689614300,11.8276142578125,0.5164769887924194,0.32364600896835327,-0.5794910192489624
1781034571709137200,11.84713720703125,0.5164769887924194,0.32364600896835327,-0.5794910192489624
1781034571728658200,11.866658203125,2.8404300212860107,0.28405699133872986,0.13836699724197388
1781034571748178700,11.8861787109375,2.8404300212860107,0.28405699133872986,0.13836699724197388
1781034571767700500,11.905700439453126,3.5334370136260986,0.22617700695991516,0.19778099656105042
1781034571787222800,11.925222900390626,3.5334370136260986,0.22617700695991516,0.19778099656105042
1781034571806749200,11.944749267578125,3.5015509128570557,-0.11168699711561203,-0.6885259747505188
1781034571826276000,11.964276123046876,3.5015509128570557,-0.11168699711561203,-0.6885259747505188
1781034571845799400,11.98379931640625,3.444943904876709,-0.9344099760055542,-2.4825339317321777
1781034571865324000,12.003323974609375,3.444943904876709,-0.9344099760055542,-2.4825339317321777
1781034571884847000,12.02284716796875,4.022765159606934,-1.7624289989471436,-2.287053108215332
1781034571904364500,12.042364501953125,4.429640769958496,-2.0378499031066895,-1.8109289407730103
1781034571923887000,12.06188720703125,4.574197769165039,-2.418256998062134,-0.01754700019955635
1781034571943412000,12.081411865234376,4.574197769165039,-2.418256998062134,-0.01754700019955635
1781034571962934500,12.1009345703125,4.1975860595703125,-3.0853641033172607,0.5854859948158264
1781034571982453800,12.120453857421875,4.1975860595703125,-3.0853641033172607,0.5854859948158264
1781034572001968400,12.139968505859375,3.091478109359741,-3.0666439533233643,0.5680699944496155
1781034572021483300,12.159483154296876,3.091478109359741,-3.0666439533233643,0.5680699944496155
1781034572041002500,12.17900244140625,2.380131959915161,-3.1998980045318604,0.3978869915008545
1781034572060525600,12.198525634765625,2.380131959915161,-3.1998980045318604,0.3978869915008545
1781034572080049000,12.218048828125,-0.18111099302768707,-3.1788840293884277,3.3126869201660156
1781034572099573500,12.237573486328126,-0.18111099302768707,-3.1788840293884277,3.3126869201660156
1781034572119098400,12.257098388671874,2.677031993865967,-2.4175031185150146,-0.7522900104522705
1781034572138619400,12.276619384765626,2.677031993865967,-2.4175031185150146,-0.7522900104522705
1781034572158134300,12.29613427734375,5.524452209472656,-2.1513359546661377,-2.6119871139526367
1781034572177653500,12.315653564453125,5.524452209472656,-2.1513359546661377,-2.6119871139526367
1781034572197182000,12.335181884765625,0.3272109925746918,-1.5384199619293213,1.0431499481201172
1781034572216711000,12.3547109375,0.3272109925746918,-1.5384199619293213,1.0431499481201172
1781034572236234000,12.37423388671875,0.14310799539089203,-1.1742089986801147,-0.3350690007209778
1781034572255757000,12.393757080078124,0.14310799539089203,-1.1742089986801147,-0.3350690007209778
1781034572275283000,12.413282958984375,0.6803359985351562,-0.8279500007629395,-0.5928450226783752
1781034572294809300,12.432809326171874,0.6803359985351562,-0.8279500007629395,-0.5928450226783752
1781034572314335500,12.45233544921875,1.0248899459838867,-0.062192998826503754,0.06493400037288666
1781034572333861400,12.471861328125,1.0248899459838867,-0.062192998826503754,0.06493400037288666
1781034572353384200,12.49138427734375,0.6626600027084351,0.36714500188827515,1.0944429636001587
1781034572372905700,12.51090576171875,0.6626600027084351,0.36714500188827515,1.0944429636001587
1781034572392431600,12.530431640625,-1.8766000270843506,0.2980409860610962,1.923719048500061
1781034572411957800,12.549957763671875,-1.8766000270843506,0.2980409860610962,1.923719048500061
1781034572431480300,12.569480224609375,-2.4282729625701904,0.23807400465011597,1.284850001335144
1781034572451001900,12.589001953125,-2.4282729625701904,0.23807400465011597,1.284850001335144
1781034572470522400,12.6085224609375,-1.2376359701156616,1.239791989326477,0.6789090037345886
1781034572490042600,12.628042724609376,-1.2376359701156616,1.239791989326477,0.6789090037345886
1781034572509559800,12.647559814453125,0.0588189996778965,1.9824830293655396,0.9059680104255676
1781034572529078000,12.667078125,0.0588189996778965,1.9824830293655396,0.9059680104255676
1781034572548602600,12.6866025390625,0.9789149761199951,2.140223979949951,1.0421019792556763
1781034572568125200,12.706125244140624,0.9789149761199951,2.140223979949951,1.0421019792556763
1781034572587646200,12.725646240234376,1.5091710090637207,2.3371410369873047,0.8676649928092957
1781034572607175000,12.7451748046875,1.5091710090637207,2.3371410369873047,0.8676649928092957
1781034572626701300,12.764701416015624,1.5728319883346558,2.519495964050293,0.8148180246353149
1781034572646226000,12.784225830078125,1.5728319883346558,2.519495964050293,0.8148180246353149
1781034572665748200,12.803748291015625,1.5728319883346558,2.519495964050293,0.8148180246353149
1781034572685271000,12.82327099609375,0.6337599754333496,2.9347000122070312,1.4859249591827393
1781034572704793300,12.84279345703125,0.035735998302698135,2.9083669185638428,1.4876960515975952
1781034572724314000,12.862314208984374,0.035735998302698135,2.9083669185638428,1.4876960515975952
1781034572743840000,12.881840087890625,-0.6728860139846802,2.510226011276245,1.2324429750442505
1781034572763366000,12.901365966796876,-0.6728860139846802,2.510226011276245,1.2324429750442505
1781034572782888400,12.920888427734376,-1.0829620361328125,2.358104944229126,0.5885549783706665
1781034572802411800,12.940411865234376,-1.0829620361328125,2.358104944229126,0.5885549783706665
1781034572821939500,12.959939453125,-1.977800965309143,2.3016650676727295,0.14323799312114716
1781034572841460000,12.9794599609375,-1.977800965309143,2.3016650676727295,0.14323799312114716
1781034572860973600,12.9989736328125,-2.6062960624694824,2.202828884124756,-0.24892599880695343
1781034572880488400,13.018488525390625,-2.6062960624694824,2.202828884124756,-0.24892599880695343
1781034572900009200,13.03800927734375,-2.3446168899536133,2.3085830211639404,-0.5448639988899231
1781034572919532000,13.057531982421875,-2.3446168899536133,2.3085830211639404,-0.5448639988899231
1781034572939053600,13.077053466796874,-1.9731730222702026,2.4776790142059326,-0.6758049726486206
1781034572958575000,13.0965751953125,-1.9731730222702026,2.4776790142059326,-0.6758049726486206
1781034572978095000,13.11609521484375,-2.0247490406036377,2.423190116882324,-0.6817830204963684
1781034572997613300,13.13561328125,-2.0247490406036377,2.423190116882324,-0.6817830204963684
1781034573017130800,13.155130859375,-1.8967180252075195,1.9419130086898804,-0.3252269923686981
1781034573036651300,13.1746513671875,-1.8967180252075195,1.9419130086898804,-0.3252269923686981
1781034573056169500,13.19416943359375,-1.3462389707565308,1.467579960823059,-0.06539200246334076
1781034573075688200,13.213688232421875,-1.3462389707565308,1.467579960823059,-0.06539200246334076
1781034573095211300,13.233211181640625,-1.400670051574707,1.323533058166504,0.05527599900960922
1781034573114735000,13.252735107421875,-1.400670051574707,1.323533058166504,0.05527599900960922
1781034573134257200,13.272257080078125,-2.2436718940734863,1.3505699634552002,0.14688600599765778
1781034573153777200,13.291777099609375,-2.2436718940734863,1.3505699634552002,0.14688600599765778
1781034573173299700,13.3112998046875,-2.901123046875,1.2501640319824219,0.1647540032863617
1781034573192825600,13.33082568359375,-2.901123046875,1.2501640319824219,0.1647540032863617
1781034573212348700,13.3503486328125,-2.855968952178955,1.1374720335006714,-0.1948769986629486
1781034573231869700,13.36986962890625,-2.855968952178955,1.1374720335006714,-0.1948769986629486
1781034573251389200,13.38938916015625,-2.734083890914917,0.9607759714126587,-0.33452099561691284
1781034573270903600,13.408903564453125,-2.734083890914917,0.9607759714126587,-0.33452099561691284
1781034573290418400,13.42841845703125,-2.7393200397491455,0.6719130277633667,-0.4562250077724457
1781034573309936400,13.447936279296876,-2.7393200397491455,0.6719130277633667,-0.4562250077724457
1781034573329460000,13.4674599609375,-2.4832370281219482,0.8074150085449219,-0.5972729921340942
1781034573348988200,13.48698828125,-2.4832370281219482,0.8074150085449219,-0.5972729921340942
1781034573368513800,13.506513671875,-1.8926739692687988,0.7246959805488586,-0.5536450147628784
1781034573388035800,13.526035888671874,-1.8926739692687988,0.7246959805488586,-0.5536450147628784
1781034573407561000,13.54556103515625,-1.2755600214004517,0.24000799655914307,-0.6573730111122131
1781034573427087600,13.565087646484375,-1.2755600214004517,0.24000799655914307,-0.6573730111122131
1781034573446613000,13.584613037109374,-1.2755600214004517,0.24000799655914307,-0.6573730111122131
1781034573466135600,13.604135498046874,-0.582846999168396,-0.4614189863204956,-1.1611920595169067
1781034573485657900,13.623657958984374,-0.582846999168396,-0.4614189863204956,-1.1611920595169067
1781034573505181200,13.64318115234375,-0.1797969937324524,-0.7479130029678345,-0.9643779993057251
1781034573524705300,13.662705322265625,0.014627999626100063,-0.8137689828872681,-0.6171510219573975
1781034573544234000,13.68223388671875,0.39738699793815613,-0.9043359756469727,-0.31778401136398315
1781034573563761200,13.70176123046875,0.39738699793815613,-0.9043359756469727,-0.31778401136398315
1781034573583284500,13.721284423828125,1.1757069826126099,-1.226531982421875,-0.005642999894917011
1781034573602811600,13.740811767578125,1.1757069826126099,-1.226531982421875,-0.005642999894917011
1781034573622337500,13.760337646484375,1.6679190397262573,-1.535938024520874,-0.1532370001077652
1781034573641864200,13.7798642578125,1.6679190397262573,-1.535938024520874,-0.1532370001077652
1781034573661389000,13.79938916015625,1.6061420440673828,-1.6542210578918457,-0.37077900767326355
1781034573680913400,13.818913330078125,1.6061420440673828,-1.6542210578918457,-0.37077900767326355
1781034573700436500,13.8384365234375,0.980991005897522,-1.4652730226516724,-0.26254600286483765
1781034573719959800,13.857959716796875,0.980991005897522,-1.4652730226516724,-0.26254600286483765
1781034573739485400,13.8774853515625,0.7754819989204407,-1.28131902217865,-0.25779199600219727
1781034573759009300,13.89700927734375,0.7754819989204407,-1.28131902217865,-0.25779199600219727
1781034573778532600,13.91653271484375,1.1516170501708984,-1.3117810487747192,-0.593334972858429
1781034573798055400,13.936055419921875,1.1516170501708984,-1.3117810487747192,-0.593334972858429
1781034573817581000,13.9555810546875,0.6825069785118103,-1.464859962463379,-1.3819090127944946
1781034573837105400,13.97510546875,0.6825069785118103,-1.464859962463379,-1.3819090127944946
1781034573856627500,13.99462744140625,-1.2758229970932007,-1.3271269798278809,-1.898772954940796
1781034573876149800,14.014149658203126,-1.2758229970932007,-1.3271269798278809,-1.898772954940796
1781034573895672000,14.033672119140626,-1.6154199838638306,-1.4168850183486938,-1.7148950099945068
1781034573915192800,14.05319287109375,-1.6154199838638306,-1.4168850183486938,-1.7148950099945068
1781034573934715000,14.07271484375,-1.3179080486297607,-2.0195930004119873,-1.2116550207138062
1781034573954239000,14.092239013671875,-1.3179080486297607,-2.0195930004119873,-1.2116550207138062
1781034573973763600,14.111763671875,-0.9695410132408142,-2.4128599166870117,-0.7775130271911621
1781034573993280000,14.131280029296875,-0.9695410132408142,-2.4128599166870117,-0.7775130271911621
1781034574012798500,14.150798583984376,-0.875262975692749,-2.3179280757904053,-0.8414739966392517
1781034574032321800,14.17032177734375,-0.875262975692749,-2.3179280757904053,-0.8414739966392517
1781034574051843800,14.18984375,-0.6263870000839233,-1.676339030265808,-1.1216540336608887
1781034574071366000,14.209365966796875,-0.6263870000839233,-1.676339030265808,-1.1216540336608887
1781034574090889000,14.228888916015626,-0.09640400111675262,-0.8738150000572205,-1.3347740173339844
1781034574110411000,14.248410888671875,-0.09640400111675262,-0.8738150000572205,-1.3347740173339844
1781034574129936400,14.267936279296874,0.37181100249290466,-0.39725399017333984,-1.5236929655075073
1781034574149463800,14.2874638671875,0.37181100249290466,-0.39725399017333984,-1.5236929655075073
1781034574168992000,14.306991943359375,0.7272400259971619,-0.0211350005120039,-1.5037579536437988
1781034574188519400,14.32651953125,0.7272400259971619,-0.0211350005120039,-1.5037579536437988
1781034574208046000,14.346046142578125,0.9521120190620422,0.38251999020576477,-1.4679759740829468
1781034574227575800,14.365575927734374,0.9521120190620422,0.38251999020576477,-1.4679759740829468
1781034574247102500,14.3851025390625,1.109900951385498,0.6901469826698303,-1.5635830163955688
1781034574266627800,14.4046279296875,1.109900951385498,0.6901469826698303,-1.5635830163955688
1781034574286156000,14.424156005859375,1.144629955291748,0.829069972038269,-1.5395350456237793
1781034574305682200,14.44368212890625,1.144629955291748,0.829069972038269,-1.5395350456237793
1781034574325206500,14.46320654296875,1.144629955291748,0.829069972038269,-1.5395350456237793
1781034574344731100,14.482731201171875,1.693608045578003,0.8876299858093262,-1.121824026107788
1781034574364257500,14.502257568359376,2.1251869201660156,0.8719620108604431,-1.088811993598938
1781034574383778300,14.5217783203125,2.4911789894104004,0.7158910036087036,-1.2576830387115479
1781034574403294500,14.54129443359375,2.4911789894104004,0.7158910036087036,-1.2576830387115479
1781034574422812400,14.5608125,2.2267889976501465,0.8380720019340515,-1.9820209741592407
1781034574442336800,14.580336669921875,2.2267889976501465,0.8380720019340515,-1.9820209741592407
1781034574461863000,14.59986279296875,0.9388689994812012,2.7857260704040527,-2.0749499797821045
1781034574481388800,14.619388916015625,0.9388689994812012,2.7857260704040527,-2.0749499797821045
1781034574500915500,14.63891552734375,0.6234959959983826,2.7663440704345703,-1.8223769664764404
1781034574520441600,14.658441650390625,0.6234959959983826,2.7663440704345703,-1.8223769664764404
1781034574539966500,14.677966552734375,0.5298010110855103,0.4827660024166107,-1.8408459424972534
1781034574559490000,14.697489990234375,0.5298010110855103,0.4827660024166107,-1.8408459424972534
1781034574579013000,14.71701318359375,0.4932219982147217,-0.6680970191955566,-1.535614013671875
1781034574598537200,14.736537109375,0.4932219982147217,-0.6680970191955566,-1.535614013671875
1781034574618066700,14.756066650390625,0.1619189977645874,-0.9926530122756958,-1.420415997505188
1781034574637590800,14.7755908203125,0.1619189977645874,-0.9926530122756958,-1.420415997505188
1781034574657109500,14.795109619140625,-2.1455841064453125,-1.080145001411438,-1.2804839611053467
1781034574676634400,14.81463427734375,-2.1455841064453125,-1.080145001411438,-1.2804839611053467
1781034574696163000,14.8341630859375,-4.176997184753418,-1.048550009727478,-0.9864240288734436
1781034574715689700,14.853689697265626,-4.176997184753418,-1.048550009727478,-0.9864240288734436
1781034574735213800,14.8732138671875,-4.63282585144043,-0.5098950266838074,-1.2029860019683838
1781034574754730200,14.892730224609375,-4.63282585144043,-0.5098950266838074,-1.2029860019683838
1781034574774246400,14.912246337890625,-4.546091079711914,-0.15395399928092957,-1.3617180585861206
1781034574793766400,14.931766357421875,-4.546091079711914,-0.15395399928092957,-1.3617180585861206
1781034574813289000,14.9512890625,-4.15675687789917,-0.3637320101261139,-1.3094890117645264
1781034574832813600,14.9708134765625,-4.15675687789917,-0.3637320101261139,-1.3094890117645264
1781034574852336400,14.99033642578125,-3.3347129821777344,-0.034765999764204025,-1.5651739835739136
1781034574871855900,15.00985595703125,-3.3347129821777344,-0.034765999764204025,-1.5651739835739136
1781034574891375000,15.029375,-2.5667290687561035,0.7921730279922485,-1.706928014755249
1781034574910895600,15.0488955078125,-2.5667290687561035,0.7921730279922485,-1.706928014755249
1781034574930414800,15.068414794921875,-2.2476019859313965,1.5384069681167603,-1.8735239505767822
1781034574949930800,15.0879306640625,-2.2476019859313965,1.5384069681167603,-1.8735239505767822
1781034574969442300,15.1074423828125,-0.025508999824523926,2.2511539459228516,-2.2980830669403076
1781034574988956200,15.1269560546875,-0.025508999824523926,2.2511539459228516,-2.2980830669403076
1781034575008475000,15.146474853515626,2.246959924697876,2.7512569427490234,-2.3368380069732666
1781034575027991600,15.165991455078125,2.246959924697876,2.7512569427490234,-2.3368380069732666
1781034575047509800,15.185509765625,2.316298007965088,2.342292070388794,-1.6474570035934448
1781034575067026000,15.20502587890625,2.316298007965088,2.342292070388794,-1.6474570035934448
1781034575086546000,15.2245458984375,1.7322330474853516,1.1367809772491455,-1.016752004623413
1781034575106067700,15.244067626953125,1.7322330474853516,1.1367809772491455,-1.016752004623413
1781034575125589200,15.26358935546875,1.7322330474853516,1.1367809772491455,-1.016752004623413
1781034575145112300,15.2831123046875,3.587714910507202,0.9572769999504089,-0.5573350191116333
1781034575164637200,15.30263720703125,3.407994031906128,1.0390839576721191,-0.261680006980896
1781034575184161300,15.322161376953124,2.928961992263794,0.9619420170783997,0.10006800293922424
1781034575203678700,15.3416787109375,2.928961992263794,0.9619420170783997,0.10006800293922424
1781034575223195400,15.3611953125,3.123650074005127,0.718051016330719,0.4941540062427521
1781034575242715600,15.380715576171875,3.123650074005127,0.718051016330719,0.4941540062427521
1781034575262236000,15.40023583984375,4.0795111656188965,0.7422419786453247,0.3074299991130829
1781034575281758700,15.4197587890625,4.0795111656188965,0.7422419786453247,0.3074299991130829
1781034575301286400,15.439286376953126,4.109237194061279,0.3128949999809265,-0.06451600044965744
1781034575320815000,15.458815185546875,4.109237194061279,0.3128949999809265,-0.06451600044965744
1781034575340342800,15.4783427734375,4.509518146514893,-0.5762370228767395,-0.9064810276031494
1781034575359870200,15.4978701171875,4.509518146514893,-0.5762370228767395,-0.9064810276031494
1781034575379398100,15.517398193359375,4.8813371658325195,-1.573179006576538,-0.9382609724998474
1781034575398925800,15.53692578125,4.8813371658325195,-1.573179006576538,-0.9382609724998474
1781034575418450700,15.55645068359375,4.635344982147217,-2.8156158924102783,1.0437339544296265
1781034575437974000,15.57597412109375,4.635344982147217,-2.8156158924102783,1.0437339544296265
1781034575457497900,15.595497802734375,4.770363807678223,-3.565001964569092,0.9830970168113708
1781034575477021200,15.615021240234375,4.770363807678223,-3.565001964569092,0.9830970168113708
1781034575496548400,15.63454833984375,4.892411231994629,-3.6284708976745605,-1.1156460046768188
1781034575516075000,15.654074951171875,4.892411231994629,-3.6284708976745605,-1.1156460046768188
1781034575535599400,15.673599365234375,4.226412773132324,-3.2995479106903076,-0.5751299858093262
1781034575555121000,15.693120849609375,4.226412773132324,-3.2995479106903076,-0.5751299858093262
1781034575574642700,15.712642578125,3.105700969696045,-2.997770071029663,0.427498996257782
1781034575594168600,15.73216845703125,3.105700969696045,-2.997770071029663,0.427498996257782
1781034575613691600,15.751691650390624,2.0203959941864014,-3.242832899093628,0.7166739702224731
1781034575633214200,15.771214111328124,2.0203959941864014,-3.242832899093628,0.7166739702224731
1781034575652738000,15.790738037109374,2.14103102684021,-2.6061511039733887,0.5887899994850159
1781034575672260400,15.81026025390625,2.14103102684021,-2.6061511039733887,0.5887899994850159
1781034575691780600,15.829780517578126,2.353602886199951,-1.74235999584198,0.8661289811134338
1781034575711297000,15.849297119140624,2.353602886199951,-1.74235999584198,0.8661289811134338
1781034575730816500,15.86881640625,1.2821929454803467,-0.8546289801597595,0.8722259998321533
1781034575750335200,15.888335205078125,1.2821929454803467,-0.8546289801597595,0.8722259998321533
1781034575769853400,15.907853515625,-2.163115978240967,1.1604900360107422,0.2997629940509796
1781034575789373000,15.927373046875,-2.163115978240967,1.1604900360107422,0.2997629940509796
1781034575808893200,15.94689306640625,-2.7104198932647705,2.153316020965576,0.19039900600910187
1781034575828418300,15.966418212890625,-3.0333139896392822,2.7893669605255127,0.26549699902534485
1781034575847945700,15.98594580078125,-3.0333139896392822,2.7893669605255127,0.26549699902534485
1781034575867467000,16.005467041015624,-3.6246349811553955,3.522113084793091,0.7170770168304443
1781034575886989300,16.0249892578125,-3.6246349811553955,3.522113084793091,0.7170770168304443
1781034575906510000,16.044510009765624,-4.260644912719727,3.33974289894104,1.477036952972412
1781034575926030800,16.06403076171875,-4.260644912719727,3.33974289894104,1.477036952972412
1781034575945553400,16.083553466796875,-4.260644912719727,3.33974289894104,1.477036952972412
1781034575965075000,16.103074951171877,-3.986243963241577,2.9784340858459473,2.216284990310669
1781034575984595000,16.122594970703126,-3.6605849266052246,2.8648629188537598,2.3367810249328613
1781034576004113700,16.14211376953125,-3.501741886138916,2.850900888442993,2.318713903427124
1781034576023631000,16.161631103515624,-3.501741886138916,2.850900888442993,2.318713903427124
1781034576043149300,16.1811494140625,-2.71921706199646,3.0532870292663574,2.1155779361724854
1781034576062670800,16.2006708984375,-2.71921706199646,3.0532870292663574,2.1155779361724854
1781034576082193000,16.22019287109375,-2.115946054458618,3.26690411567688,1.6300510168075562
1781034576101720600,16.239720458984376,-2.115946054458618,3.26690411567688,1.6300510168075562
1781034576121249800,16.259249755859376,-1.4148900508880615,3.310853958129883,0.4374940097332001
1781034576140776700,16.278776611328126,-1.4148900508880615,3.310853958129883,0.4374940097332001
1781034576160303900,16.298303955078126,-0.8704710006713867,3.261204957962036,-0.10454999655485153
1781034576179831000,16.3178310546875,-0.8704710006713867,3.261204957962036,-0.10454999655485153
1781034576199353000,16.33735302734375,-1.0125010013580322,2.984661102294922,-0.16539299488067627
1781034576218876700,16.356876708984377,-1.0125010013580322,2.984661102294922,-0.16539299488067627
1781034576238404400,16.376404296875,-1.3361200094223022,2.5197079181671143,-0.26409998536109924
1781034576257926000,16.39592578125,-1.3361200094223022,2.5197079181671143,-0.26409998536109924
1781034576277449700,16.41544970703125,-1.6180119514465332,2.0034101009368896,-0.16604900360107422
1781034576296980000,16.43497998046875,-1.6180119514465332,2.0034101009368896,-0.16604900360107422
1781034576316503800,16.45450390625,-1.7166930437088013,1.819756031036377,-0.38574299216270447
1781034576336022800,16.474022705078124,-1.7166930437088013,1.819756031036377,-0.38574299216270447
1781034576355540500,16.49354052734375,-1.7917710542678833,1.6664409637451172,-0.27434998750686646
1781034576375057400,16.513057373046873,-1.7917710542678833,1.6664409637451172,-0.27434998750686646
1781034576394579000,16.532578857421875,-1.6447900533676147,1.474161982536316,-0.0857900008559227
1781034576414103600,16.552103515625,-1.6447900533676147,1.474161982536316,-0.0857900008559227
1781034576433626400,16.57162646484375,-1.2321820259094238,1.212367057800293,-0.15845000743865967
1781034576453150200,16.591150146484374,-1.2321820259094238,1.212367057800293,-0.15845000743865967
1781034576472671500,16.61067138671875,-1.3333319425582886,0.7749459743499756,-0.34144100546836853
1781034576492192300,16.630192138671877,-1.3333319425582886,0.7749459743499756,-0.34144100546836853
1781034576511714600,16.649714599609375,-1.5514130592346191,0.24185000360012054,-0.7342829704284668
1781034576531238400,16.66923828125,-1.5514130592346191,0.24185000360012054,-0.7342829704284668
1781034576550765800,16.688765869140624,-1.513954997062683,-0.37759900093078613,-1.0108870267868042
1781034576570291500,16.70829150390625,-1.513954997062683,-0.37759900093078613,-1.0108870267868042
1781034576589814000,16.72781396484375,-1.4359029531478882,-0.9098179936408997,-1.0239720344543457
1781034576609338600,16.747338623046875,-1.4359029531478882,-0.9098179936408997,-1.0239720344543457
1781034576628860200,16.766860107421873,-1.4325189590454102,-1.2279020547866821,-0.9109920263290405
1781034576648377900,16.7863779296875,-1.4325189590454102,-1.2279020547866821,-0.9109920263290405
1781034576667895600,16.8058955078125,-1.4185309410095215,-1.3151509761810303,-0.76249098777771
1781034576687413500,16.82541357421875,-1.4185309410095215,-1.3151509761810303,-0.76249098777771
1781034576706930400,16.844930419921877,-1.1667389869689941,-1.2703030109405518,-0.7797139883041382
1781034576726448600,16.86444873046875,-1.1667389869689941,-1.2703030109405518,-0.7797139883041382
1781034576745968000,16.883968017578123,-0.7505630254745483,-1.4721850156784058,-0.7671949863433838
1781034576765487600,16.903487548828124,-0.7505630254745483,-1.4721850156784058,-0.7671949863433838
1781034576785006300,16.92300634765625,-0.20192000269889832,-1.7395700216293335,-0.9795179963111877
1781034576804525600,16.942525634765627,0.11748600006103516,-1.7588640451431274,-1.173082947731018
1781034576824048600,16.962048583984377,0.2260109931230545,-1.767348051071167,-1.2528400421142578
1781034576843571000,16.981571044921875,0.2260109931230545,-1.767348051071167,-1.2528400421142578
1781034576863089000,17.0010888671875,0.48087000846862793,-1.863523006439209,-1.2466490268707275
1781034576882609700,17.020609619140625,0.48087000846862793,-1.863523006439209,-1.2466490268707275
1781034576902131700,17.040131591796875,1.4669439792633057,-2.084527015686035,-1.520385980606079
1781034576921651000,17.05965087890625,1.4669439792633057,-2.084527015686035,-1.520385980606079
1781034576941169000,17.0791689453125,1.545672059059143,-2.130582094192505,-1.7686309814453125
1781034576960685800,17.098685791015626,1.545672059059143,-2.130582094192505,-1.7686309814453125
1781034576980204800,17.118204833984375,0.8267989754676819,-1.8975189924240112,-1.6535279750823975
1781034576999729200,17.137729248046874,0.8267989754676819,-1.8975189924240112,-1.6535279750823975
1781034577019248000,17.157248046875,0.5108590126037598,-1.569506049156189,-1.4946930408477783
1781034577038765800,17.176765869140624,0.5108590126037598,-1.569506049156189,-1.4946930408477783
1781034577058287600,17.19628759765625,0.3919470012187958,-1.4798239469528198,-1.5645300149917603
1781034577077808400,17.215808349609375,0.3919470012187958,-1.4798239469528198,-1.5645300149917603
1781034577097327000,17.2353271484375,0.13203200697898865,-1.5974119901657104,-1.3832859992980957
1781034577116844800,17.2548447265625,0.13203200697898865,-1.5974119901657104,-1.3832859992980957
1781034577136367000,17.2743671875,-0.3755350112915039,-1.5410480499267578,-1.15236496925354
1781034577155885800,17.2938857421875,-0.3755350112915039,-1.5410480499267578,-1.15236496925354
1781034577175405800,17.31340576171875,-0.8278989791870117,-1.2867560386657715,-1.0712120532989502
1781034577194924000,17.332924072265627,-0.8278989791870117,-1.2867560386657715,-1.0712120532989502
1781034577214435600,17.352435546875,-0.871849000453949,-1.1362520456314087,-1.0717350244522095
1781034577233950500,17.371950439453126,-0.871849000453949,-1.1362520456314087,-1.0717350244522095
1781034577253470700,17.391470703125,-0.5239120125770569,-1.2130160331726074,-1.0946869850158691
1781034577272990500,17.410990478515625,-0.5239120125770569,-1.2130160331726074,-1.0946869850158691
1781034577292511200,17.43051123046875,-0.0018820000113919377,-1.246319055557251,-1.1510590314865112
1781034577312035000,17.45003515625,-0.0018820000113919377,-1.246319055557251,-1.1510590314865112
1781034577331562200,17.469562255859376,0.8435829877853394,-0.9313899874687195,-1.2250690460205078
1781034577351089000,17.4890888671875,0.8435829877853394,-0.9313899874687195,-1.2250690460205078
1781034577370613000,17.508613037109374,1.6784850358963013,-0.5158799886703491,-1.1892969608306885
1781034577390138600,17.528138671875,1.6784850358963013,-0.5158799886703491,-1.1892969608306885
1781034577409664500,17.54766455078125,2.3271420001983643,-0.14716500043869019,-1.1799440383911133
1781034577429187600,17.5671875,2.3271420001983643,-0.14716500043869019,-1.1799440383911133
1781034577448711700,17.586711669921876,2.5116140842437744,0.24550600349903107,-1.2234660387039185
1781034577468232200,17.606232177734373,2.5116140842437744,0.24550600349903107,-1.2234660387039185
1781034577487746000,17.62574609375,2.4796841144561768,0.5252519845962524,-1.2768750190734863
1781034577507259600,17.645259765625,2.4796841144561768,0.5252519845962524,-1.2768750190734863
1781034577526781400,17.664781494140627,2.27449107170105,0.7284500002861023,-1.194046974182129
1781034577546307300,17.684307373046874,2.27449107170105,0.7284500002861023,-1.194046974182129
1781034577565830100,17.703830078125,1.529770016670227,1.1736780405044556,-1.2510080337524414
1781034577585351200,17.72335107421875,1.529770016670227,1.1736780405044556,-1.2510080337524414
1781034577604871700,17.74287158203125,-0.33883601427078247,1.10446298122406,-1.568207025527954
1781034577624388900,17.762388916015624,-0.63714200258255,0.5825039744377136,-1.4688639640808105
1781034577643909000,17.7819091796875,-0.5117369890213013,0.04185599833726883,-1.1524989604949951
1781034577663434200,17.801434326171876,-0.5117369890213013,0.04185599833726883,-1.1524989604949951
1781034577682957600,17.82095751953125,1.2236360311508179,-0.1994680017232895,-0.9283589720726013
1781034577702478800,17.840478759765624,1.2236360311508179,-0.1994680017232895,-0.9283589720726013
1781034577722000600,17.860000732421874,-0.7381680011749268,-0.4406310021877289,-1.5961730480194092
1781034577741523700,17.879523681640624,-0.7381680011749268,-0.4406310021877289,-1.5961730480194092
1781034577761051600,17.8990517578125,-3.389064073562622,-1.211055040359497,-1.825042963027954
1781034577780579600,17.91857958984375,-3.389064073562622,-1.211055040359497,-1.825042963027954
1781034577800105500,17.93810546875,-4.455467224121094,-0.7451480031013489,-1.5750410556793213
1781034577819637200,17.95763720703125,-4.455467224121094,-0.7451480031013489,-1.5750410556793213
1781034577839164200,17.9771640625,-4.624573230743408,-0.3079119920730591,-1.336303949356079
1781034577858688800,17.996688720703126,-4.624573230743408,-0.3079119920730591,-1.336303949356079
1781034577878215000,18.01621484375,-5.139470100402832,-0.7113289833068848,-1.218045949935913
1781034577897739500,18.035739501953124,-5.139470100402832,-0.7113289833068848,-1.218045949935913
1781034577917261300,18.05526123046875,-4.8908491134643555,-0.8861610293388367,-0.9823690056800842
1781034577936782800,18.074782958984375,-4.8908491134643555,-0.8861610293388367,-0.9823690056800842
1781034577956304100,18.09430419921875,-2.650393009185791,-0.2601329982280731,-0.8888490200042725
1781034577975830000,18.113830078125,-2.650393009185791,-0.2601329982280731,-0.8888490200042725
1781034577995356200,18.133356201171875,-0.3399690091609955,0.6172969937324524,-1.2544230222702026
1781034578014881000,18.152881103515625,-0.3399690091609955,0.6172969937324524,-1.2544230222702026
1781034578034410500,18.172410400390625,1.581737995147705,0.9558640122413635,-1.723436951637268
1781034578053939200,18.191939208984376,1.581737995147705,0.9558640122413635,-1.723436951637268
1781034578073467100,18.211467041015624,1.0736260414123535,1.2528899908065796,-2.1596479415893555
1781034578092991000,18.230990966796874,1.0736260414123535,1.2528899908065796,-2.1596479415893555
1781034578112510700,18.2505107421875,3.010788917541504,1.5180740356445312,-2.2712669372558594
1781034578132033000,18.270032958984373,3.010788917541504,1.5180740356445312,-2.2712669372558594
1781034578151557400,18.289557373046875,5.232682228088379,1.6579489707946777,-2.117753028869629
1781034578171085300,18.309085205078127,5.232682228088379,1.6579489707946777,-2.117753028869629
1781034578190609000,18.32860888671875,5.289352893829346,1.6969859600067139,-1.2595230340957642
1781034578210135300,18.34813525390625,5.289352893829346,1.6969859600067139,-1.2595230340957642
1781034578229667800,18.367667724609376,2.8838469982147217,1.1691230535507202,-0.046126000583171844
1781034578249194800,18.38719482421875,2.8838469982147217,1.1691230535507202,-0.046126000583171844
1781034578268719400,18.40671923828125,-0.6592699885368347,0.9729499816894531,0.22436800599098206
1781034578288246300,18.426246337890625,-0.6592699885368347,0.9729499816894531,0.22436800599098206
1781034578307776800,18.44577685546875,-2.80126690864563,1.5126780271530151,0.5215700268745422
1781034578327307300,18.465307373046876,-2.80126690864563,1.5126780271530151,0.5215700268745422
1781034578346831000,18.4848310546875,-2.80126690864563,1.5126780271530151,0.5215700268745422
1781034578366351000,18.50435107421875,-3.237947940826416,2.181641101837158,1.5520579814910889
1781034578385876200,18.523876220703126,-3.1878740787506104,2.1154699325561523,1.6433980464935303
1781034578405406500,18.543406494140626,-3.1878740787506104,2.1154699325561523,1.6433980464935303
1781034578424934000,18.562933837890625,-3.5044989585876465,1.8018800020217896,1.0184600353240967
1781034578444455400,18.582455322265623,-3.544935941696167,1.4289610385894775,-0.6405069828033447
1781034578463978800,18.601978759765625,-3.4945321083068848,1.0384130477905273,-1.0734790563583374
1781034578483499500,18.62149951171875,-3.4945321083068848,1.0384130477905273,-1.0734790563583374
1781034578503018500,18.6410185546875,-2.944598913192749,0.4895060062408447,-1.4427109956741333
1781034578522534700,18.66053466796875,-2.944598913192749,0.4895060062408447,-1.4427109956741333
1781034578542047500,18.680047607421876,-1.8296589851379395,0.23918600380420685,-0.49360600113868713
1781034578561563400,18.6995634765625,-1.8296589851379395,0.23918600380420685,-0.49360600113868713
1781034578581083100,18.719083251953126,-0.17122599482536316,0.576645016670227,1.2525570392608643
1781034578600602400,18.738602294921876,-0.17122599482536316,0.576645016670227,1.2525570392608643
1781034578620120000,18.7581201171875,0.00938900001347065,0.5689409971237183,1.575005054473877
1781034578639640300,18.777640380859374,0.00938900001347065,0.5689409971237183,1.575005054473877
1781034578659158800,18.79715869140625,1.9359389543533325,-0.08164799958467484,0.9612249732017517
1781034578678681900,18.816681884765625,1.9359389543533325,-0.08164799958467484,0.9612249732017517
1781034578698209000,18.836208984375,2.4122109413146973,-1.2050050497055054,0.11261700093746185
1781034578717730300,18.855730224609374,2.4122109413146973,-1.2050050497055054,0.11261700093746185
1781034578737248500,18.87524853515625,3.384342908859253,-2.0999670028686523,-0.12096899747848511
1781034578756766200,18.89476611328125,3.384342908859253,-2.0999670028686523,-0.12096899747848511
1781034578776281900,18.91428173828125,4.243886947631836,-2.136039972305298,0.3371089994907379
1781034578795794000,18.9337939453125,4.243886947631836,-2.136039972305298,0.3371089994907379
1781034578815307300,18.953307373046876,3.886586904525757,-1.7352529764175415,0.5885559916496277
1781034578834824200,18.97282421875,3.886586904525757,-1.7352529764175415,0.5885559916496277
1781034578854341400,18.99234130859375,1.9538689851760864,-1.20552396774292,-0.07479999959468842
1781034578873863700,19.01186376953125,1.9538689851760864,-1.20552396774292,-0.07479999959468842
1781034578893386800,19.03138671875,1.3649959564208984,-0.8896579742431641,-0.5270619988441467
1781034578912905500,19.050905517578126,1.3649959564208984,-0.8896579742431641,-0.5270619988441467
1781034578932426800,19.0704267578125,2.876542091369629,-0.7330269813537598,-0.576259970664978
1781034578951948300,19.0899482421875,2.876542091369629,-0.7330269813537598,-0.576259970664978
1781034578971470300,19.10947021484375,2.9912009239196777,-0.713129997253418,-0.38235101103782654
1781034578990989300,19.1289892578125,2.9912009239196777,-0.713129997253418,-0.38235101103782654
1781034579010508300,19.14850830078125,2.6169700622558594,-1.0966839790344238,0.32905301451683044
1781034579030030300,19.1680302734375,2.6169700622558594,-1.0966839790344238,0.32905301451683044
1781034579049551600,19.187551513671874,1.5739879608154297,-1.3680939674377441,0.8374360203742981
1781034579069074000,19.207073974609376,1.5739879608154297,-1.3680939674377441,0.8374360203742981
1781034579088596500,19.226596435546874,0.07027000188827515,-1.3482190370559692,0.4483709931373596
1781034579108119000,19.246119140625,0.07027000188827515,-1.3482190370559692,0.4483709931373596
1781034579127638000,19.265637939453125,-0.4814389944076538,-1.3846540451049805,0.08940000087022781
1781034579147150800,19.28515087890625,-0.4814389944076538,-1.3846540451049805,0.08940000087022781
1781034579166667800,19.304667724609374,-0.4814389944076538,-1.3846540451049805,0.08940000087022781
1781034579186186000,19.32418603515625,1.0801219940185547,-0.7856400012969971,0.12622800469398499
1781034579205703400,19.343703369140623,1.0801219940185547,-0.7856400012969971,0.12622800469398499
1781034579225223000,19.363222900390625,1.4577980041503906,-0.8489639759063721,0.5757039785385132
1781034579244745700,19.382745849609375,1.963238000869751,-0.3799409866333008,0.44074198603630066
1781034579264270800,19.402270751953125,2.0931169986724854,0.27948901057243347,0.32682499289512634
1781034579283795000,19.421794921875,2.0931169986724854,0.27948901057243347,0.32682499289512634
1781034579303319600,19.441319580078126,-0.09991300106048584,0.578000009059906,0.9865400195121765
1781034579322845700,19.460845703125,-0.09991300106048584,0.578000009059906,0.9865400195121765
1781034579342374000,19.480373779296876,-0.2006780058145523,0.6484450101852417,1.9593160152435303
1781034579361898200,19.499898193359375,-0.2006780058145523,0.6484450101852417,1.9593160152435303
1781034579381423400,19.51942333984375,-0.3840000033378601,2.4320359230041504,1.7716339826583862
1781034579400948200,19.5389482421875,-0.3840000033378601,2.4320359230041504,1.7716339826583862
1781034579420466000,19.5584658203125,-0.7695389986038208,2.3894131183624268,1.8611780405044556
1781034579439985400,19.5779853515625,-0.7695389986038208,2.3894131183624268,1.8611780405044556
1781034579459507700,19.5975078125,-0.7595760226249695,2.284538984298706,1.2296819686889648
1781034579479033900,19.617033935546875,-0.7595760226249695,2.284538984298706,1.2296819686889648
1781034579498562000,19.63656201171875,-1.4680869579315186,2.0577569007873535,0.3749539852142334
1781034579518088700,19.656088623046877,-1.4680869579315186,2.0577569007873535,0.3749539852142334
1781034579537613600,19.675613525390624,-1.8156720399856567,1.8084609508514404,-0.2767089903354645
1781034579557135600,19.695135498046874,-1.8156720399856567,1.8084609508514404,-0.2767089903354645
1781034579576655000,19.714655029296875,-2.2751851081848145,1.7468839883804321,-0.597461998462677
1781034579596178200,19.73417822265625,-2.2751851081848145,1.7468839883804321,-0.597461998462677
1781034579615703300,19.753703369140624,-1.8725370168685913,1.6741759777069092,-0.23287899792194366
1781034579635224300,19.773224365234373,-1.8725370168685913,1.6741759777069092,-0.23287899792194366
1781034579654744000,19.792744140625,-1.38428795337677,2.145117998123169,0.1520330011844635
1781034579674262300,19.81226220703125,-1.38428795337677,2.145117998123169,0.1520330011844635
1781034579693782000,19.831781982421877,-1.1714539527893066,2.4273478984832764,0.2957499921321869
1781034579713305900,19.851305908203123,-1.1714539527893066,2.4273478984832764,0.2957499921321869
1781034579732830500,19.87083056640625,-0.8053320050239563,2.301184892654419,0.2803870141506195
1781034579752354600,19.8903544921875,-0.8053320050239563,2.301184892654419,0.2803870141506195
1781034579771875000,19.909875,-1.2412049770355225,2.163784980773926,-0.12492799758911133
1781034579791391000,19.929390869140626,-1.2412049770355225,2.163784980773926,-0.12492799758911133
1781034579810913000,19.9489130859375,-1.1807960271835327,1.5737589597702026,-0.6547449827194214
1781034579830435300,19.968435302734374,-1.1807960271835327,1.5737589597702026,-0.6547449827194214
1781034579849958000,19.9879580078125,-0.7096199989318848,0.7965909838676453,-1.0664230585098267
1781034579869480700,20.007480712890626,-0.7096199989318848,0.7965909838676453,-1.0664230585098267
1781034579889001500,20.02700146484375,-0.7681469917297363,0.15651899576187134,-1.567870020866394
1781034579908523500,20.0465234375,-0.7681469917297363,0.15651899576187134,-1.567870020866394
1781034579928044300,20.066044189453127,-1.4914209842681885,-0.6819279789924622,-1.2412029504776
1781034579947568600,20.085568603515625,-1.4914209842681885,-0.6819279789924622,-1.2412029504776
1781034579967092700,20.1050927734375,-1.4914209842681885,-0.6819279789924622,-1.2412029504776
1781034579986612000,20.124612060546873,-2.1386361122131348,-1.4380569458007812,-0.5406450033187866
1781034580006132700,20.1441328125,-2.2886569499969482,-1.5052510499954224,-0.5668290257453918
1781034580025653500,20.163653564453124,-2.2886569499969482,-1.5052510499954224,-0.5668290257453918
1781034580045173500,20.183173583984374,-2.6097490787506104,-1.7563660144805908,-0.743012011051178
1781034580064694800,20.20269482421875,-2.7339930534362793,-1.8359750509262085,-0.8927270174026489
1781034580084215300,20.22221533203125,-2.7474749088287354,-1.8781709671020508,-1.0778119564056396
1781034580103736300,20.241736328125,-2.7474749088287354,-1.8781709671020508,-1.0778119564056396
1781034580123258400,20.26125830078125,-2.341754913330078,-1.9602630138397217,-1.3107080459594727
1781034580142783200,20.280783203125,-2.341754913330078,-1.9602630138397217,-1.3107080459594727
1781034580162307800,20.300307861328125,-1.996917963027954,-1.80143404006958,-1.431035041809082
1781034580181829600,20.31982958984375,-1.996917963027954,-1.80143404006958,-1.431035041809082
1781034580201352700,20.339352783203125,-1.9781310558319092,-1.1000959873199463,-1.4425040483474731
1781034580220875000,20.358875,-1.9781310558319092,-1.1000959873199463,-1.4425040483474731
1781034580240399400,20.3783994140625,-1.406393051147461,-0.7595620155334473,-1.3560179471969604
1781034580259922400,20.39792236328125,-1.406393051147461,-0.7595620155334473,-1.3560179471969604
1781034580279443000,20.41744287109375,-0.23618300259113312,-1.0420819520950317,-1.4891350269317627
1781034580298966500,20.436966552734376,-0.23618300259113312,-1.0420819520950317,-1.4891350269317627
1781034580318491400,20.456491455078126,1.5523899793624878,-1.3944740295410156,-1.6570810079574585
1781034580338017500,20.476017578125,1.5523899793624878,-1.3944740295410156,-1.6570810079574585
1781034580357545200,20.495545166015624,1.6027369499206543,-1.4346189498901367,-1.7880929708480835
1781034580377071600,20.515071533203123,1.6027369499206543,-1.4346189498901367,-1.7880929708480835
1781034580396594200,20.53459423828125,1.0131069421768188,-1.1154539585113525,-1.8725730180740356
1781034580416114400,20.554114501953126,1.0131069421768188,-1.1154539585113525,-1.8725730180740356
1781034580435637800,20.5736376953125,1.1233190298080444,-0.7821400165557861,-1.7635879516601562
1781034580455161900,20.593161865234375,1.1233190298080444,-0.7821400165557861,-1.7635879516601562
1781034580474681900,20.612681884765625,1.8470009565353394,-0.5258690118789673,-1.556805968284607
1781034580494201900,20.632201904296874,1.8470009565353394,-0.5258690118789673,-1.556805968284607
1781034580513719800,20.6517197265625,2.3547770977020264,-0.2905679941177368,-1.39090096950531
1781034580533236000,20.671236083984375,2.3547770977020264,-0.2905679941177368,-1.39090096950531
1781034580552756700,20.6907568359375,2.3234710693359375,-0.14977699518203735,-1.2196810245513916
1781034580572284400,20.710284423828124,2.3234710693359375,-0.14977699518203735,-1.2196810245513916
1781034580591807200,20.72980712890625,2.145052909851074,0.11168400198221207,-1.2066099643707275
1781034580611325000,20.749324951171875,2.145052909851074,0.11168400198221207,-1.2066099643707275
1781034580630845400,20.768845458984377,1.9492809772491455,0.4342840015888214,-1.2916510105133057
1781034580650363100,20.788363037109374,1.9492809772491455,0.4342840015888214,-1.2916510105133057
1781034580669874400,20.80787451171875,2.210961103439331,0.8095200061798096,-1.320404052734375
1781034580689387500,20.827387451171877,2.210961103439331,0.8095200061798096,-1.320404052734375
1781034580708905200,20.8469052734375,2.4979259967803955,1.2203949689865112,-1.406438946723938
1781034580728428500,20.866428466796876,2.3712470531463623,1.2689720392227173,-1.5553480386734009
1781034580747950800,20.885950927734374,2.3712470531463623,1.2689720392227173,-1.5553480386734009
1781034580767474400,20.905474365234376,1.753633975982666,1.236372947692871,-1.695283055305481
1781034580787000800,20.925000732421875,1.753633975982666,1.236372947692871,-1.695283055305481
1781034580806525000,20.94452490234375,0.34504199028015137,1.2298929691314697,-1.5707780122756958
1781034580826050300,20.96405029296875,0.34504199028015137,1.2298929691314697,-1.5707780122756958
1781034580845573600,20.98357373046875,0.34504199028015137,1.2298929691314697,-1.5707780122756958
1781034580865094100,21.00309423828125,-1.5011240243911743,0.7675700187683105,-0.9886230230331421
1781034580884614700,21.02261474609375,-1.640671968460083,0.1612740010023117,-0.7694479823112488
1781034580904134100,21.042134033203126,-1.912477970123291,-0.47648000717163086,-0.6829320192337036
1781034580923654700,21.061654541015624,-1.912477970123291,-0.47648000717163086,-0.6829320192337036
1781034580943172000,21.081172119140625,-4.061509132385254,-1.259207010269165,-0.8722749948501587
1781034580962691800,21.10069189453125,-4.061509132385254,-1.259207010269165,-0.8722749948501587
1781034580982215700,21.120215576171876,-4.3589630126953125,-1.0857809782028198,-1.1123640537261963
1781034581001738500,21.139738525390626,-4.3589630126953125,-1.0857809782028198,-1.1123640537261963
1781034581021261800,21.15926171875,-3.5458569526672363,-0.7323690056800842,-1.4847979545593262
1781034581040785400,21.178785400390623,-3.5458569526672363,-0.7323690056800842,-1.4847979545593262
1781034581060309000,21.19830908203125,-2.36293888092041,-0.6242769956588745,-1.8100639581680298
1781034581079832300,21.217832275390624,-2.36293888092041,-0.6242769956588745,-1.8100639581680298
1781034581099355100,21.237355224609374,-2.2522120475769043,0.13250799477100372,-1.6559380292892456
1781034581118877400,21.25687744140625,-2.2522120475769043,0.13250799477100372,-1.6559380292892456
1781034581138399700,21.276399658203125,-1.9593549966812134,2.4348320960998535,-1.5232549905776978
1781034581157923300,21.29592333984375,-1.9593549966812134,2.4348320960998535,-1.5232549905776978
1781034581177446700,21.31544677734375,-1.931175947189331,2.9048891067504883,-1.5075490474700928
1781034581196972500,21.33497265625,-1.931175947189331,2.9048891067504883,-1.5075490474700928
1781034581216503000,21.3545029296875,-2.246687889099121,2.534945011138916,-1.279973030090332
1781034581236027100,21.374027099609375,-2.246687889099121,2.534945011138916,-1.279973030090332
1781034581255547600,21.393547607421876,-5.293168067932129,2.1099629402160645,-1.3114650249481201
1781034581275066600,21.413066650390626,-5.293168067932129,2.1099629402160645,-1.3114650249481201
1781034581294583000,21.4325830078125,-4.440060138702393,1.7399970293045044,-1.765293002128601
1781034581314097200,21.45209716796875,-4.440060138702393,1.7399970293045044,-1.765293002128601
1781034581333610800,21.47161083984375,0.33629000186920166,1.3386889696121216,-1.5241860151290894
1781034581353127000,21.491126953125,0.33629000186920166,1.3386889696121216,-1.5241860151290894
1781034581372647400,21.5106474609375,2.8618218898773193,0.456589013338089,-0.6255580186843872
1781034581392171000,21.5301708984375,2.8618218898773193,0.456589013338089,-0.6255580186843872
1781034581411696400,21.5496962890625,3.166516065597534,-1.2959879636764526,-0.16333000361919403
1781034581431217200,21.569217041015627,3.166516065597534,-1.2959879636764526,-0.16333000361919403
1781034581450736600,21.588736572265624,3.2806270122528076,-1.697479009628296,-0.5141680240631104
1781034581470262000,21.608261962890627,3.2806270122528076,-1.697479009628296,-0.5141680240631104
1781034581489794300,21.627794189453127,5.245045185089111,-1.0962469577789307,-1.1763520240783691
1781034581509329000,21.647328857421876,5.245045185089111,-1.0962469577789307,-1.1763520240783691
1781034581528860700,21.666860595703124,5.762730121612549,-0.17126700282096863,-1.112036943435669
1781034581548387000,21.686386962890627,5.762730121612549,-0.17126700282096863,-1.112036943435669
1781034581567908000,21.705908203125,5.762730121612549,-0.17126700282096863,-1.112036943435669
1781034581587429000,21.72542919921875,3.7441210746765137,0.378946989774704,-0.3936600089073181
1781034581606954000,21.7449541015625,3.7441210746765137,0.378946989774704,-0.3936600089073181
1781034581626475800,21.764475830078126,1.4340189695358276,0.1595979928970337,0.0996989980340004
1781034581645998300,21.783998291015624,1.4553719758987427,-0.3342140018939972,0.1628360003232956
1781034581665526000,21.803526123046876,1.4553719758987427,-0.3342140018939972,0.1628360003232956
1781034581685054700,21.8230546875,2.4805729389190674,-0.7294440269470215,-0.1543859988451004
1781034581704584200,21.842584228515626,2.761590003967285,-0.6177629828453064,-0.27659299969673157
1781034581724112000,21.86211181640625,2.7180368900299072,-0.40380099415779114,-0.24376699328422546
1781034581743636200,21.88163623046875,2.7180368900299072,-0.40380099415779114,-0.24376699328422546
1781034581763164200,21.9011640625,3.048923969268799,-0.27105000615119934,-0.14357499778270721
1781034581782693600,21.920693603515623,3.048923969268799,-0.27105000615119934,-0.14357499778270721
1781034581802218200,21.94021826171875,4.934197902679443,0.08839000016450882,-0.03922799974679947
1781034581821744000,21.959744140625,4.934197902679443,0.08839000016450882,-0.03922799974679947
1781034581841269000,21.97926904296875,4.867919921875,-0.1160610020160675,-0.3071810007095337
1781034581860789800,21.998789794921876,4.867919921875,-0.1160610020160675,-0.3071810007095337
1781034581880313900,22.01831396484375,3.7214560508728027,-0.726984977722168,-0.45719099044799805
1781034581899845000,22.03784521484375,3.7214560508728027,-0.726984977722168,-0.45719099044799805
1781034581919375600,22.057375732421875,-0.5923830270767212,-0.8831869959831238,-0.013280999846756458
1781034581938901800,22.07690185546875,-0.5923830270767212,-0.8831869959831238,-0.013280999846756458
1781034581958425900,22.09642578125,-1.6726739406585693,-1.4176559448242188,0.014189999550580978
1781034581977946600,22.115946533203125,-1.6726739406585693,-1.4176559448242188,0.014189999550580978
1781034581997468700,22.13546875,0.39718198776245117,-1.2840780019760132,0.2282160073518753
1781034582016992500,22.154992431640625,0.39718198776245117,-1.2840780019760132,0.2282160073518753
1781034582036509700,22.174509765625,4.628343105316162,-0.5847520232200623,-0.1632079929113388
1781034582056025000,22.194025146484375,4.628343105316162,-0.5847520232200623,-0.1632079929113388
1781034582075544600,22.213544677734376,5.914114952087402,-0.22334900498390198,-1.0503050088882446
1781034582095063800,22.233063720703125,5.914114952087402,-0.22334900498390198,-1.0503050088882446
1781034582114582000,22.25258203125,3.5768189430236816,-0.6290950179100037,-1.8884639739990234
1781034582134104000,22.27210400390625,3.5768189430236816,-0.6290950179100037,-1.8884639739990234
1781034582153628000,22.2916279296875,2.4834909439086914,-0.5304200053215027,-3.692405939102173
1781034582173150500,22.311150390625,2.4834909439086914,-0.5304200053215027,-3.692405939102173
1781034582192671200,22.330671142578126,2.6552860736846924,0.3287140130996704,-3.7411439418792725
1781034582212194000,22.350194091796876,2.6552860736846924,0.3287140130996704,-3.7411439418792725
1781034582231720000,22.369719970703127,2.6498711109161377,0.10176300257444382,-2.87062406539917
1781034582251246000,22.38924609375,2.6498711109161377,0.10176300257444382,-2.87062406539917
1781034582270772000,22.40877197265625,1.6582989692687988,-0.8381639719009399,-0.4397050142288208
1781034582290296800,22.428296875,1.6582989692687988,-0.8381639719009399,-0.4397050142288208
1781034582309819400,22.4478193359375,0.24768400192260742,-1.3781319856643677,0.504800021648407
1781034582329340200,22.467340087890626,0.24768400192260742,-1.3781319856643677,0.504800021648407
1781034582348858000,22.486858154296876,-0.6242650151252747,-1.2875529527664185,1.0740790367126465
1781034582368374300,22.506374267578124,-0.6088650226593018,-1.1655980348587036,1.1195440292358398
1781034582387894800,22.525894775390626,-0.6088650226593018,-1.1655980348587036,1.1195440292358398
1781034582407420700,22.545420654296876,1.354043960571289,-0.6943510174751282,1.0797549486160278
1781034582426944500,22.564944580078127,1.354043960571289,-0.6943510174751282,1.0797549486160278
1781034582446467800,22.5844677734375,1.8078819513320923,-0.08923699706792831,0.9830660223960876
1781034582465991400,22.603991455078123,1.8078819513320923,-0.08923699706792831,0.9830660223960876
1781034582485516500,22.6235166015625,1.8078819513320923,-0.08923699706792831,0.9830660223960876
1781034582505047600,22.643047607421874,-0.29710298776626587,0.47969698905944824,1.0871299505233765
1781034582524582700,22.662582763671875,-0.24435999989509583,0.5473129749298096,0.9871060252189636
1781034582544114400,22.682114501953127,-0.16776199638843536,0.6547880172729492,0.8333929777145386
1781034582563641000,22.70164111328125,-0.16776199638843536,0.6547880172729492,0.8333929777145386
1781034582583163600,22.72116357421875,-0.05661899968981743,1.2461680173873901,1.0215790271759033
1781034582602684700,22.7406845703125,-0.05661899968981743,1.2461680173873901,1.0215790271759033
1781034582622210800,22.7602109375,-0.27071699500083923,1.6900570392608643,1.2749450206756592
1781034582641736700,22.77973681640625,-0.27071699500083923,1.6900570392608643,1.2749450206756592
1781034582661254100,22.799254150390624,-0.8620960116386414,1.5459330081939697,1.3840769529342651
1781034582680771000,22.81877099609375,-0.8620960116386414,1.5459330081939697,1.3840769529342651
1781034582700294700,22.838294677734375,-1.4154820442199707,1.5210260152816772,1.4134219884872437
1781034582719825000,22.857824951171875,-1.4154820442199707,1.5210260152816772,1.4134219884872437
1781034582739359700,22.87735986328125,-1.4684809446334839,1.6235289573669434,1.32955002784729
1781034582758893800,22.896893798828124,-1.4684809446334839,1.6235289573669434,1.32955002784729
1781034582778421000,22.9164208984375,-1.5514500141143799,1.882464051246643,1.1579099893569946
1781034582797944300,22.9359443359375,-1.5514500141143799,1.882464051246643,1.1579099893569946
1781034582817471000,22.955470947265624,-1.8847019672393799,2.1050031185150146,1.2148040533065796
1781034582836996400,22.974996337890627,-1.8847019672393799,2.1050031185150146,1.2148040533065796
1781034582856521000,22.99452099609375,-2.2774710655212402,2.397852897644043,0.9076250195503235
1781034582876048000,23.0140478515625,-2.2774710655212402,2.397852897644043,0.9076250195503235
1781034582895575000,23.033574951171875,-2.815403938293457,2.4234840869903564,0.37051400542259216
1781034582915098600,23.0530986328125,-2.815403938293457,2.4234840869903564,0.37051400542259216
1781034582934622200,23.072622314453124,-3.2629570960998535,2.278480052947998,-0.11029399931430817
1781034582954147600,23.092147705078126,-3.2629570960998535,2.278480052947998,-0.11029399931430817
1781034582973669400,23.11166943359375,-3.41965389251709,1.9230819940567017,-0.03876800090074539
1781034582993189000,23.131189208984374,-3.41965389251709,1.9230819940567017,-0.03876800090074539
1781034583012713500,23.15071337890625,-3.213836908340454,1.858644962310791,0.14351700246334076
1781034583032237800,23.17023779296875,-3.213836908340454,1.858644962310791,0.14351700246334076
1781034583051760400,23.189760498046876,-2.878429889678955,2.000349998474121,0.32146701216697693
1781034583071284700,23.20928466796875,-2.878429889678955,2.000349998474121,0.32146701216697693
1781034583090811400,23.228811279296874,-2.906852960586548,2.0717520713806152,0.6474249958992004
1781034583110339800,23.24833984375,-2.906852960586548,2.0717520713806152,0.6474249958992004
1781034583129868800,23.267868896484377,-2.556227922439575,1.820391058921814,0.6246650218963623
1781034583149395200,23.287395263671876,-2.556227922439575,1.820391058921814,0.6246650218963623
1781034583168916200,23.306916259765625,-2.2556159496307373,1.4892640113830566,0.6247249841690063
1781034583188435000,23.32643505859375,-2.1680281162261963,1.4264769554138184,0.44933900237083435
1781034583207960000,23.3459599609375,-2.1680281162261963,1.4264769554138184,0.44933900237083435
1781034583227483400,23.3654833984375,-1.8558859825134277,1.1390379667282104,0.21644599735736847
1781034583246999800,23.384999755859376,-1.8558859825134277,1.1390379667282104,0.21644599735736847
1781034583266523100,23.404523193359374,-1.7458499670028687,0.8288599848747253,0.26781898736953735
1781034583286054000,23.424053955078126,-1.7458499670028687,0.8288599848747253,0.26781898736953735
1781034583305582000,23.44358203125,-1.7458499670028687,0.8288599848747253,0.26781898736953735
1781034583325108500,23.4631083984375,-1.6253629922866821,0.14090099930763245,-0.10533499717712402
1781034583344634000,23.482634033203126,-1.5288350582122803,0.0015150000108405948,-0.182778999209404
1781034583364162300,23.502162353515626,-1.4772570133209229,-0.09353700280189514,-0.25481998920440674
1781034583383691800,23.52169189453125,-1.4772570133209229,-0.09353700280189514,-0.25481998920440674
1781034583403217000,23.541216796875,-1.4832979440689087,-0.176814004778862,-0.35887300968170166
1781034583422738400,23.560738525390626,-1.4832979440689087,-0.176814004778862,-0.35887300968170166
1781034583442262000,23.580261962890624,-1.5076329708099365,-0.390857994556427,-0.2423669993877411
1781034583461788400,23.599788330078123,-1.5076329708099365,-0.390857994556427,-0.2423669993877411
1781034583481316900,23.61931689453125,-1.1312400102615356,-0.35821500420570374,-0.12613099813461304
1781034583500845600,23.638845458984374,-1.1312400102615356,-0.35821500420570374,-0.12613099813461304
1781034583520370700,23.65837060546875,-0.433214008808136,-0.22441400587558746,-0.33789700269699097
1781034583539897900,23.67789794921875,-0.433214008808136,-0.22441400587558746,-0.33789700269699097
1781034583559424300,23.69742431640625,0.1229420006275177,-0.4048430025577545,-0.5369259715080261
1781034583578952700,23.71695263671875,0.1229420006275177,-0.4048430025577545,-0.5369259715080261
1781034583598482400,23.736482421875,0.5076199769973755,-0.7581380009651184,-0.859050989151001
1781034583618008300,23.75600830078125,0.5076199769973755,-0.7581380009651184,-0.859050989151001
1781034583637535200,23.77553515625,-0.014750000089406967,-1.194722056388855,-1.5628960132598877
1781034583657064000,23.79506396484375,-0.014750000089406967,-1.194722056388855,-1.5628960132598877
1781034583676591000,23.814591064453126,-1.0950900316238403,-1.3924269676208496,-2.3789010047912598
1781034583696117500,23.834117431640625,-1.0950900316238403,-1.3924269676208496,-2.3789010047912598
1781034583715647000,23.85364697265625,-1.2816870212554932,-1.5061060190200806,-2.343733072280884
1781034583735174400,23.87317431640625,-1.2816870212554932,-1.5061060190200806,-2.343733072280884
1781034583754700500,23.892700439453126,-0.42321500182151794,-2.0465779304504395,-1.5673580169677734
1781034583774228700,23.912228759765625,-0.42321500182151794,-2.0465779304504395,-1.5673580169677734
1781034583793754600,23.931754638671876,0.4927240014076233,-2.744960069656372,-0.9688609838485718
1781034583813280000,23.951280029296875,0.4927240014076233,-2.744960069656372,-0.9688609838485718
1781034583832808000,23.970807861328126,0.8831490278244019,-3.1101438999176025,-0.6904870271682739
1781034583852335600,23.990335693359373,0.8831490278244019,-3.1101438999176025,-0.6904870271682739
1781034583871859200,24.009859130859375,0.30576398968696594,-2.8173599243164062,-0.8430730104446411
1781034583891378000,24.0293779296875,0.30576398968696594,-2.8173599243164062,-0.8430730104446411
1781034583910894800,24.048894775390625,-0.5581290125846863,-1.999951958656311,-1.1802860498428345
1781034583930411500,24.06841162109375,-0.5581290125846863,-1.999951958656311,-1.1802860498428345
1781034583949932000,24.08793212890625,-0.8750180006027222,-1.2563199996948242,-1.4721319675445557
1781034583969458000,24.1074580078125,-0.8750180006027222,-1.2563199996948242,-1.4721319675445557
1781034583988979700,24.126979736328124,-0.585332989692688,-1.0758370161056519,-1.5368900299072266
1781034584008498700,24.146498779296873,-0.585332989692688,-1.0758370161056519,-1.5368900299072266
1781034584028023300,24.166023193359376,-0.05474499985575676,-1.1270960569381714,-1.5093059539794922
1781034584047552800,24.185552734375,-0.05474499985575676,-1.1270960569381714,-1.5093059539794922
1781034584067084500,24.20508447265625,-0.05474499985575676,-1.1270960569381714,-1.5093059539794922
1781034584086615000,24.224614990234375,0.6507769823074341,-0.9915540218353271,-1.4828770160675049
1781034584106142200,24.24414208984375,0.8651340007781982,-0.7950909733772278,-1.3807430267333984
1781034584125670000,24.263669921875,0.8651340007781982,-0.7950909733772278,-1.3807430267333984
1781034584145195800,24.28319580078125,1.2470730543136597,-0.6365219950675964,-1.3602219820022583
1781034584164724500,24.302724365234376,1.359429955482483,-0.4770210087299347,-1.280398964881897
1781034584184249000,24.3222490234375,1.452679991722107,-0.2421109974384308,-1.1325780153274536
1781034584203766000,24.34176611328125,1.452679991722107,-0.2421109974384308,-1.1325780153274536
1781034584223285200,24.36128515625,0.8904169797897339,0.5919119715690613,-1.1666500568389893
1781034584242807000,24.38080712890625,0.8904169797897339,0.5919119715690613,-1.1666500568389893
1781034584262329600,24.40032958984375,0.1318729966878891,1.2102099657058716,-1.4655619859695435
1781034584281855200,24.419855224609375,0.1318729966878891,1.2102099657058716,-1.4655619859695435
1781034584301380000,24.439380126953125,0.3147220015525818,0.6250529885292053,-2.143362045288086
1781034584320906800,24.45890673828125,0.3147220015525818,0.6250529885292053,-2.143362045288086
1781034584340433700,24.47843359375,0.9477829933166504,-0.9519029855728149,-2.942697048187256
1781034584359957500,24.49795751953125,0.9477829933166504,-0.9519029855728149,-2.942697048187256
1781034584379478500,24.517478515625,1.688141942024231,-0.22116999328136444,-2.623326063156128
1781034584399000600,24.53700048828125,1.688141942024231,-0.22116999328136444,-2.623326063156128
1781034584418526000,24.55652587890625,-0.9544450044631958,0.7449690103530884,-2.7206039428710938
1781034584438055400,24.576055419921875,-0.9544450044631958,0.7449690103530884,-2.7206039428710938
1781034584457583900,24.595583984375,-3.2640910148620605,0.46106401085853577,-2.8289339542388916
1781034584477106000,24.61510595703125,-3.2640910148620605,0.46106401085853577,-2.8289339542388916
1781034584496628000,24.6346279296875,-3.691948890686035,0.2599799931049347,-2.591607093811035
1781034584516148500,24.6541484375,-3.691948890686035,0.2599799931049347,-2.591607093811035
1781034584535670300,24.673670166015626,-3.8772759437561035,0.30008798837661743,-3.0051538944244385
1781034584555196200,24.693196044921876,-3.8772759437561035,0.30008798837661743,-3.0051538944244385
1781034584574724400,24.712724365234376,-3.3034610748291016,0.38690200448036194,-2.913996934890747
1781034584594252000,24.732251953125,-3.3034610748291016,0.38690200448036194,-2.913996934890747
1781034584613783800,24.75178369140625,-2.094728946685791,0.5810419917106628,-2.3898000717163086
1781034584633318400,24.771318359375,-2.094728946685791,0.5810419917106628,-2.3898000717163086
1781034584652849200,24.79084912109375,0.08389899879693985,0.21925899386405945,-1.339967966079712
1781034584672373200,24.810373291015626,0.08389899879693985,0.21925899386405945,-1.339967966079712
