time,seconds_elapsed,z,y,x
1781034560336844000,0.474843994140625,-0.1859000027179718,-0.030799999833106995,-0.7458000183105469
1781034560346605000,0.48460498046875,-0.6065124869346619,-0.2340250015258789,-1.8997000455856323
1781034560366127900,0.5041279296875,-0.6065124869346619,-0.2340250015258789,-1.8997000455856323
1781034560385652000,0.52365185546875,-0.6065124869346619,-0.2340250015258789,-1.8997000455856323
1781034560405174300,0.54317431640625,-0.5735124945640564,-0.1097249984741211,-1.9388874769210815
1781034560424696000,0.562696044921875,-0.3998500108718872,0.002199999988079071,-1.7040375471115112
1781034560444221400,0.582221435546875,-0.2274249941110611,0.06063750013709068,-1.453237533569336
1781034560463744500,0.60174462890625,-0.2274249941110611,0.06063750013709068,-1.453237533569336
1781034560483265800,0.621265869140625,-0.10491249710321426,0.01223750039935112,-1.0679625272750854
1781034560502788400,0.640788330078125,-0.10491249710321426,0.01223750039935112,-1.0679625272750854
1781034560522311700,0.660311767578125,-0.06104999780654907,0.05376249924302101,-0.6803500056266785
1781034560541836000,0.6798359375,-0.06104999780654907,0.05376249924302101,-0.6803500056266785
1781034560561363000,0.699363037109375,0.23361249268054962,0.18466250598430634,-0.14011250436306
1781034560580891000,0.718890869140625,0.23361249268054962,0.18466250598430634,-0.14011250436306
1781034560600415200,0.738415283203125,0.5153499841690063,0.09102500230073929,0.2532750070095062
1781034560619939300,0.757939208984375,0.5153499841690063,0.09102500230073929,0.2532750070095062
1781034560639465000,0.77746484375,0.5399624705314636,-0.29356250166893005,0.2903999984264374
1781034560658991400,0.796991455078125,0.5399624705314636,-0.29356250166893005,0.2903999984264374
1781034560678520000,0.81652001953125,0.36918750405311584,-0.8130375146865845,-0.015675000846385956
1781034560698048000,0.836048095703125,0.36918750405311584,-0.8130375146865845,-0.015675000846385956
1781034560717580000,0.855580078125,0.1143999993801117,-1.3323750495910645,-0.48317500948905945
1781034560737115400,0.875115478515625,0.1143999993801117,-1.3323750495910645,-0.48317500948905945
1781034560756645600,0.894645751953125,0.0705375000834465,-1.6292375326156616,-0.8188124895095825
1781034560776174800,0.9141748046875,0.0705375000834465,-1.6292375326156616,-0.8188124895095825
1781034560795698400,0.933698486328125,0.4571875035762787,-1.7399250268936157,-0.7167875170707703
1781034560815217200,0.953217041015625,0.4571875035762787,-1.7399250268936157,-0.7167875170707703
1781034560834743800,0.972743896484375,0.9125875234603882,-2.0527374744415283,-0.4288625121116638
1781034560854269000,0.99226904296875,0.9125875234603882,-2.0527374744415283,-0.4288625121116638
1781034560873790700,1.011790771484375,1.4396250247955322,-2.4375998973846436,-0.05857500061392784
1781034560893305900,1.031305908203125,1.4396250247955322,-2.4375998973846436,-0.05857500061392784
1781034560912818000,1.05081787109375,1.9227999448776245,-2.71589994430542,0.5149375200271606
1781034560932332300,1.070332275390625,1.9227999448776245,-2.71589994430542,0.5149375200271606
1781034560951852500,1.0898525390625,2.080787420272827,-2.7468373775482178,1.0357874631881714
1781034560971382500,1.109382568359375,2.080787420272827,-2.7468373775482178,1.0357874631881714
1781034560990910200,1.12891015625,1.9921000003814697,-2.551724910736084,1.2460249662399292
1781034561010436900,1.148436767578125,1.9921000003814697,-2.551724910736084,1.2460249662399292
1781034561029960400,1.16796044921875,1.8173375129699707,-2.443650007247925,1.0889999866485596
1781034561049482000,1.18748193359375,1.8173375129699707,-2.443650007247925,1.0889999866485596
1781034561069008400,1.20700830078125,1.601599931716919,-2.4649624824523926,1.2445124387741089
1781034561088536000,1.2265361328125,1.601599931716919,-2.4649624824523926,1.2445124387741089
1781034561108060200,1.24606005859375,1.601599931716919,-2.4649624824523926,1.2445124387741089
1781034561127585800,1.265585693359375,1.1514250040054321,-2.3520750999450684,1.7813124656677246
1781034561147111200,1.285111083984375,0.6593124866485596,-2.0781750679016113,1.9475499391555786
1781034561166641400,1.304641357421875,0.6593124866485596,-2.0781750679016113,1.9475499391555786
1781034561186174200,1.32417431640625,0.44302499294281006,-1.7744375467300415,1.675162434577942
1781034561205699000,1.343698974609375,0.44302499294281006,-1.7744375467300415,1.675162434577942
1781034561225221400,1.363221435546875,0.45003750920295715,-1.6344624757766724,1.4242249727249146
1781034561244747500,1.38274755859375,0.5033875107765198,-1.5046625137329102,1.1742500066757202
1781034561264275200,1.402275146484375,0.5398250222206116,-1.3858624696731567,1.0081499814987183
1781034561283800300,1.42180029296875,0.5398250222206116,-1.3858624696731567,1.0081499814987183
1781034561303328000,1.441327880859375,0.30524998903274536,-1.1844249963760376,1.0522874593734741
1781034561322857000,1.46085693359375,0.30524998903274536,-1.1844249963760376,1.0522874593734741
1781034561342381800,1.4803818359375,-0.27761250734329224,-1.0316624641418457,1.1713625192642212
1781034561361912300,1.499912353515625,-0.27761250734329224,-1.0316624641418457,1.1713625192642212
1781034561381446100,1.519446044921875,-0.7262749671936035,-0.8617125153541565,0.9675874710083008
1781034561400972300,1.53897216796875,-0.7262749671936035,-0.8617125153541565,0.9675874710083008
1781034561420497000,1.558496826171875,-0.9715750217437744,-0.7092249989509583,0.7481374740600586
1781034561440021200,1.578021240234375,-0.9715750217437744,-0.7092249989509583,0.7481374740600586
1781034561459542500,1.59754248046875,-1.0525624752044678,-0.6458374857902527,0.6010124683380127
1781034561479069000,1.61706884765625,-1.0525624752044678,-0.6458374857902527,0.6010124683380127
1781034561498598000,1.636597900390625,-1.0040249824523926,-0.596750020980835,0.572825014591217
1781034561518124800,1.656124755859375,-1.0040249824523926,-0.596750020980835,0.572825014591217
1781034561537654000,1.675654052734375,-0.9037874937057495,-0.5647125244140625,0.6470749974250793
1781034561557185300,1.695185302734375,-0.9037874937057495,-0.5647125244140625,0.6470749974250793
1781034561576716800,1.714716796875,-0.8091874718666077,-0.5824499726295471,0.7136250138282776
1781034561596250000,1.73425,-0.8091874718666077,-0.5824499726295471,0.7136250138282776
1781034561615786000,1.753785888671875,-0.767662525177002,-0.5502749681472778,0.7833374738693237
1781034561635317200,1.773317138671875,-0.767662525177002,-0.5502749681472778,0.7833374738693237
1781034561654845200,1.79284521484375,-0.7387874722480774,-0.4263874888420105,0.8152375221252441
1781034561674371000,1.81237109375,-0.7387874722480774,-0.4263874888420105,0.8152375221252441
1781034561693899000,1.83189892578125,-0.5970249772071838,-0.2864125072956085,0.6759499907493591
1781034561713425400,1.85142529296875,-0.5970249772071838,-0.2864125072956085,0.6759499907493591
1781034561732951000,1.870950927734375,-0.2073500007390976,-0.0859375,0.2157374918460846
1781034561752479200,1.890479248046875,-0.2073500007390976,-0.0859375,0.2157374918460846
1781034561772007700,1.910007568359375,0.3003000020980835,0.18301250040531158,-0.2694999873638153
1781034561791535400,1.929535400390625,0.3003000020980835,0.18301250040531158,-0.2694999873638153
1781034561811067000,1.94906689453125,0.36410000920295715,0.39668750762939453,-0.4618625044822693
1781034561830595600,1.968595703125,0.36410000920295715,0.39668750762939453,-0.4618625044822693
1781034561850119200,1.988119140625,-0.035887498408555984,0.3429250121116638,-0.1938749998807907
1781034561869642800,2.007642822265625,-0.035887498408555984,0.3429250121116638,-0.1938749998807907
1781034561889164300,2.027164306640625,-0.13420000672340393,0.08277499675750732,0.23663750290870667
1781034561908685300,2.046685302734375,-0.13420000672340393,0.08277499675750732,0.23663750290870667
1781034561928208100,2.0662080078125,0.10339999943971634,-0.04839999973773956,0.4314749836921692
1781034561947735600,2.085735595703125,0.10339999943971634,-0.04839999973773956,0.4314749836921692
1781034561967263200,2.10526318359375,0.3880249857902527,0.01691249944269657,0.3577750027179718
1781034561986793200,2.124793212890625,0.3880249857902527,0.01691249944269657,0.3577750027179718
1781034562006321700,2.14432177734375,0.6356624960899353,0.22206249833106995,0.24186250567436218
1781034562025846000,2.163845947265625,0.6356624960899353,0.22206249833106995,0.24186250567436218
1781034562045371400,2.183371337890625,0.6356624960899353,0.22206249833106995,0.24186250567436218
1781034562064895000,2.20289501953125,0.724762499332428,0.4185499846935272,0.26840001344680786
1781034562084421000,2.222421142578125,0.6627500057220459,0.4357374906539917,0.3639625012874603
1781034562103946000,2.241946044921875,0.5249750018119812,0.3961375057697296,0.5321249961853027
1781034562123465700,2.2614658203125,0.5249750018119812,0.3961375057697296,0.5321249961853027
1781034562142989300,2.2809892578125,0.2232999950647354,0.27018749713897705,0.9410499930381775
1781034562162513200,2.30051318359375,0.2232999950647354,0.27018749713897705,0.9410499930381775
1781034562182035700,2.32003564453125,0.1775124967098236,0.25671249628067017,1.2399749755859375
1781034562201560800,2.339560791015625,0.1775124967098236,0.25671249628067017,1.2399749755859375
1781034562221087200,2.359087158203125,0.3334375023841858,0.3815625011920929,1.4122624397277832
1781034562240608800,2.37860888671875,0.3334375023841858,0.3815625011920929,1.4122624397277832
1781034562260128500,2.39812841796875,0.5923500061035156,0.6095374822616577,1.308037519454956
1781034562279649300,2.417649169921875,0.5923500061035156,0.6095374822616577,1.308037519454956
1781034562299170000,2.437170166015625,0.7129374742507935,0.8621249794960022,1.12090003490448
1781034562318692600,2.456692626953125,0.7129374742507935,0.8621249794960022,1.12090003490448
1781034562338219000,2.476218994140625,0.6327750086784363,0.9301875233650208,1.0879000425338745
1781034562357746700,2.49574658203125,0.6327750086784363,0.9301875233650208,1.0879000425338745
1781034562377271000,2.51527099609375,0.4413749873638153,0.8267874717712402,1.1376750469207764
1781034562396799700,2.5347998046875,0.4413749873638153,0.8267874717712402,1.1376750469207764
1781034562416329700,2.554329833984375,0.20047499239444733,0.7160999774932861,1.037987470626831
1781034562435856000,2.57385595703125,0.20047499239444733,0.7160999774932861,1.037987470626831
1781034562455382000,2.593382080078125,-0.0019249999895691872,0.6470749974250793,0.8062999844551086
1781034562474911500,2.612911376953125,-0.0019249999895691872,0.6470749974250793,0.8062999844551086
1781034562494442200,2.632442138671875,-0.06104999780654907,0.6469374895095825,0.6085749864578247
1781034562513972000,2.651971923828125,-0.06104999780654907,0.6469374895095825,0.6085749864578247
1781034562533501000,2.6715009765625,0.07603749632835388,0.7291625142097473,0.2531374990940094
1781034562553028400,2.6910283203125,0.07603749632835388,0.7291625142097473,0.2531374990940094
1781034562572552000,2.710552001953125,0.2414499968290329,0.7448375225067139,-0.060499999672174454
1781034562592078000,2.730078125,0.2414499968290329,0.7448375225067139,-0.060499999672174454
1781034562611606500,2.7496064453125,0.3020874857902527,0.6650875210762024,-0.17627499997615814
1781034562631136300,2.76913623046875,0.3020874857902527,0.6650875210762024,-0.17627499997615814
1781034562650672000,2.788672119140625,0.3269749879837036,0.6209499835968018,-0.20899999141693115
1781034562670204000,2.808203857421875,0.3269749879837036,0.6209499835968018,-0.20899999141693115
1781034562689733000,2.827733154296875,0.40053749084472656,0.5530250072479248,-0.16032500565052032
1781034562709262300,2.847262451171875,0.40053749084472656,0.5530250072479248,-0.16032500565052032
1781034562728792600,2.86679248046875,0.4076874852180481,0.4419249892234802,0.033275000751018524
1781034562748324400,2.886324462890625,0.4076874852180481,0.4419249892234802,0.033275000751018524
1781034562767854000,2.90585400390625,0.3451249897480011,0.3965499997138977,0.12526249885559082
1781034562787379500,2.92537939453125,0.11563749611377716,0.26124998927116394,0.28792500495910645
1781034562806900000,2.94489990234375,0.11563749611377716,0.26124998927116394,0.28792500495910645
1781034562826423000,2.964423095703125,-0.10037499666213989,0.01966249942779541,0.4208875000476837
1781034562845950500,2.983950439453125,-0.10037499666213989,0.01966249942779541,0.4208875000476837
1781034562865477000,3.00347705078125,-0.10037499666213989,0.01966249942779541,0.4208875000476837
1781034562885003000,3.0230029296875,-0.09404999762773514,-0.030937500298023224,0.2780250012874603
1781034562904530400,3.042530517578125,-0.0364375002682209,0.07081250101327896,0.113987497985363
1781034562924055800,3.062055908203125,0.009624999947845936,0.2213750034570694,-0.07108750194311142
1781034562943575000,3.081574951171875,0.009624999947845936,0.2213750034570694,-0.07108750194311142
1781034562963094500,3.101094482421875,0.011274999938905239,0.4534749984741211,-0.28751251101493835
1781034562982615600,3.120615478515625,0.011274999938905239,0.4534749984741211,-0.28751251101493835
1781034563002136600,3.140136474609375,-0.10876250267028809,0.4571875035762787,-0.15674999356269836
1781034563021660000,3.159659912109375,-0.10876250267028809,0.4571875035762787,-0.15674999356269836
1781034563041184500,3.1791845703125,-0.2747249901294708,0.3521375060081482,-0.08896250277757645
1781034563060708000,3.1987080078125,-0.2747249901294708,0.3521375060081482,-0.08896250277757645
1781034563080228900,3.218228759765625,-0.32903748750686646,0.24433749914169312,-0.14176249504089355
1781034563099756000,3.237756103515625,-0.32903748750686646,0.24433749914169312,-0.14176249504089355
1781034563119284700,3.25728466796875,-0.142037495970726,0.2928749918937683,-0.26083749532699585
1781034563138809600,3.2768095703125,-0.142037495970726,0.2928749918937683,-0.26083749532699585
1781034563158336300,3.296336181640625,0.0340999998152256,0.5692499876022339,-0.6781499981880188
1781034563177864700,3.31586474609375,0.0340999998152256,0.5692499876022339,-0.6781499981880188
1781034563197390600,3.335390625,0.0668250024318695,0.43367499113082886,-0.443574994802475
1781034563216913400,3.354913330078125,0.0668250024318695,0.43367499113082886,-0.443574994802475
1781034563236439300,3.374439208984375,0.39022499322891235,-0.24447499215602875,0.7358999848365784
1781034563255965700,3.393965576171875,0.39022499322891235,-0.24447499215602875,0.7358999848365784
1781034563275489000,3.413489013671875,0.764912486076355,-0.23787499964237213,1.0956000089645386
1781034563295013400,3.433013427734375,0.764912486076355,-0.23787499964237213,1.0956000089645386
1781034563314542000,3.4525419921875,0.7789375185966492,0.47382500767707825,0.32298749685287476
1781034563334068500,3.472068359375,0.7789375185966492,0.47382500767707825,0.32298749685287476
1781034563353596200,3.49159619140625,0.6500999927520752,0.8652874827384949,-0.4310624897480011
1781034563373124400,3.511124267578125,0.6500999927520752,0.8652874827384949,-0.4310624897480011
1781034563392648700,3.530648681640625,0.6608250141143799,0.7902125120162964,-0.7184374928474426
1781034563412172000,3.550172119140625,0.6608250141143799,0.7902125120162964,-0.7184374928474426
1781034563431693300,3.569693359375,0.7470374703407288,0.5871250033378601,-0.6935499906539917
1781034563451214300,3.58921435546875,0.7470374703407288,0.5871250033378601,-0.6935499906539917
1781034563470736100,3.608736083984375,0.7739874720573425,0.34814998507499695,-0.4142875075340271
1781034563490257000,3.6282568359375,0.7739874720573425,0.34814998507499695,-0.4142875075340271
1781034563509780200,3.6477802734375,0.6777374744415283,0.20569999516010284,-0.30951249599456787
1781034563529304600,3.6673046875,0.6777374744415283,0.20569999516010284,-0.30951249599456787
1781034563548826600,3.68682666015625,0.5123249888420105,0.18713749945163727,-0.32257500290870667
1781034563568348400,3.706348388671875,0.5123249888420105,0.18713749945163727,-0.32257500290870667
1781034563587873500,3.72587353515625,0.41071251034736633,0.1555124968290329,-0.2387000024318695
1781034563607402000,3.745402099609375,-0.14657500386238098,0.053075000643730164,-0.18617500364780426
1781034563626928600,3.7649287109375,-0.14657500386238098,0.053075000643730164,-0.18617500364780426
1781034563646459400,3.78445947265625,-0.14657500386238098,0.053075000643730164,-0.18617500364780426
1781034563665992200,3.8039921875,-1.1405625343322754,-0.19786250591278076,-0.19236250221729279
1781034563685523000,3.82352294921875,-1.1405625343322754,-0.19786250591278076,-0.19236250221729279
1781034563705053200,3.84305322265625,-1.1778249740600586,-0.12773749232292175,-0.3110249936580658
1781034563724585500,3.86258544921875,-0.8894875049591064,0.07342500239610672,-0.5296499729156494
1781034563744119300,3.882119384765625,-0.6238374710083008,0.27073749899864197,-0.7816874980926514
1781034563763650300,3.901650390625,-0.6238374710083008,0.27073749899864197,-0.7816874980926514
1781034563783181800,3.921181884765625,-0.30250000953674316,0.43463748693466187,-1.0815750360488892
1781034563802715000,3.94071484375,-0.30250000953674316,0.43463748693466187,-1.0815750360488892
1781034563822248000,3.960248046875,-0.22398750483989716,0.08208750188350677,-0.5132874846458435
1781034563841779000,3.979779052734375,-0.22398750483989716,0.08208750188350677,-0.5132874846458435
1781034563861306600,3.999306640625,-0.4937624931335449,-0.41401249170303345,0.3716624975204468
1781034563880834600,4.01883447265625,-0.4937624931335449,-0.41401249170303345,0.3716624975204468
1781034563900365600,4.038365478515625,-0.7918624877929688,-0.6619250178337097,0.7767375111579895
1781034563919899600,4.057899658203125,-0.7918624877929688,-0.6619250178337097,0.7767375111579895
1781034563939433700,4.077433837890625,-0.7768750190734863,-0.6043124794960022,0.7387874722480774
1781034563958960600,4.096960693359375,-0.7768750190734863,-0.6043124794960022,0.7387874722480774
1781034563978485200,4.1164853515625,-0.5171374678611755,-0.41208750009536743,0.5325375199317932
1781034563998009900,4.136009765625,-0.5171374678611755,-0.41208750009536743,0.5325375199317932
1781034564017535200,4.15553515625,-0.21353749930858612,-0.3917374908924103,0.6661875247955322
1781034564037061000,4.17506103515625,-0.21353749930858612,-0.3917374908924103,0.6661875247955322
1781034564056587800,4.194587890625,-0.06187500059604645,-0.5717250108718872,1.1940499544143677
1781034564076117000,4.214116943359375,-0.06187500059604645,-0.5717250108718872,1.1940499544143677
1781034564095645700,4.233645751953125,-0.0147124994546175,-0.6345624923706055,1.3916374444961548
1781034564115174700,4.253174560546875,-0.0147124994546175,-0.6345624923706055,1.3916374444961548
1781034564134707000,4.27270703125,0.0340999998152256,-0.28971248865127563,0.9205625057220459
1781034564154241500,4.292241455078125,0.0340999998152256,-0.28971248865127563,0.9205625057220459
1781034564173775400,4.311775390625,-0.0193875003606081,0.07741250097751617,0.40039998292922974
1781034564193300700,4.33130078125,-0.0193875003606081,0.07741250097751617,0.40039998292922974
1781034564212823800,4.35082373046875,-0.1405249983072281,0.1344749927520752,0.35199999809265137
1781034564232351700,4.370351806640625,-0.1405249983072281,0.1344749927520752,0.35199999809265137
1781034564251881200,4.389881103515625,-0.16458749771118164,0.19401249289512634,0.37894999980926514
1781034564271412700,4.409412841796875,-0.16458749771118164,0.19401249289512634,0.37894999980926514
1781034564290943200,4.428943115234375,-0.1377750039100647,0.3885749876499176,-0.1223749965429306
1781034564310466600,4.448466552734375,-0.1377750039100647,0.3885749876499176,-0.1223749965429306
1781034564329985300,4.4679853515625,-0.18191249668598175,0.4727250039577484,-0.7268249988555908
1781034564349507800,4.4875078125,-0.18191249668598175,0.4727250039577484,-0.7268249988555908
1781034564369032200,4.5070322265625,-0.27348750829696655,0.2905375063419342,-0.7587249875068665
1781034564388555800,4.5265556640625,-0.27348750829696655,0.2905375063419342,-0.7587249875068665
1781034564408081000,4.546080810546875,-0.29878750443458557,-0.012649999931454659,-0.2381500005722046
1781034564427606300,4.565606201171875,-0.29878750443458557,-0.012649999931454659,-0.2381500005722046
1781034564447128300,4.58512841796875,-0.2503874897956848,-0.3293125033378601,0.679937481880188
1781034564466652700,4.604652587890625,-0.2503874897956848,-0.3293125033378601,0.679937481880188
1781034564486183000,4.624182861328125,-0.2190375030040741,-0.6142125129699707,1.3197250366210938
1781034564505708800,4.643708740234375,-0.2190375030040741,-0.6142125129699707,1.3197250366210938
1781034564525229300,4.663229248046875,-0.18741250038146973,-0.6125624775886536,1.227737545967102
1781034564544753200,4.682753173828125,-0.12677499651908875,-0.4725874960422516,0.90420001745224
1781034564564276000,4.70227587890625,-0.050599999725818634,-0.26468750834465027,0.5292375087738037
1781034564583800300,4.72180029296875,-0.050599999725818634,-0.26468750834465027,0.5292375087738037
1781034564603327700,4.74132763671875,0.05706249922513962,0.045787498354911804,0.026262499392032623
1781034564622850600,4.7608505859375,0.05706249922513962,0.045787498354911804,0.026262499392032623
1781034564642376200,4.780376220703125,0.08373750001192093,0.24131250381469727,-0.4250124990940094
1781034564661903000,4.799903076171875,0.08373750001192093,0.24131250381469727,-0.4250124990940094
1781034564681423000,4.819423095703125,0.14891250431537628,0.47753748297691345,-0.9484750032424927
1781034564700942000,4.838942138671875,0.14891250431537628,0.47753748297691345,-0.9484750032424927
1781034564720460800,4.858460693359375,0.21615000069141388,0.7017999887466431,-1.5933499336242676
1781034564739977700,4.877977783203125,0.21615000069141388,0.7017999887466431,-1.5933499336242676
1781034564759499000,4.8974990234375,0.17366249859333038,0.7640874981880188,-1.550724983215332
1781034564779021800,4.917021728515625,0.17366249859333038,0.7640874981880188,-1.550724983215332
1781034564798542600,4.93654248046875,0.03217500075697899,0.610087513923645,-0.8215624690055847
1781034564818060000,4.95606005859375,0.03217500075697899,0.610087513923645,-0.8215624690055847
1781034564837578200,4.975578125,-0.08002500236034393,0.2525874972343445,0.3913249969482422
1781034564857100800,4.995100830078125,-0.08002500236034393,0.2525874972343445,0.3913249969482422
1781034564876625000,5.014625,-0.1143999993801117,0.0037124999798834324,1.042799949645996
1781034564896146700,5.034146728515625,-0.1143999993801117,0.0037124999798834324,1.042799949645996
1781034564915664100,5.0536640625,-0.22384999692440033,0.27568748593330383,-0.3316499888896942
1781034564935181800,5.073181884765625,-0.22384999692440033,0.27568748593330383,-0.3316499888896942
1781034564954709000,5.092708984375,-0.4422000050544739,0.6795250177383423,-1.9370999336242676
1781034564974237200,5.1122373046875,-0.4422000050544739,0.6795250177383423,-1.9370999336242676
1781034564993758200,5.13175830078125,-0.4800125062465668,0.3375625014305115,-1.3745875358581543
1781034565013274600,5.151274658203125,-0.4800125062465668,0.3375625014305115,-1.3745875358581543
1781034565032789800,5.170789794921875,-0.38087499141693115,-0.30016249418258667,-0.2915000021457672
1781034565052311000,5.19031103515625,-0.38087499141693115,-0.30016249418258667,-0.2915000021457672
1781034565071833000,5.2098330078125,-0.20652499794960022,-0.2932874858379364,-0.4816625118255615
1781034565091348500,5.229348388671875,-0.20652499794960022,-0.2932874858379364,-0.4816625118255615
1781034565110866000,5.248865966796875,0.10449999570846558,0.10752499848604202,-0.9421499967575073
1781034565130388200,5.26838818359375,0.10449999570846558,0.10752499848604202,-0.9421499967575073
1781034565149911800,5.287911865234375,0.37345001101493835,0.306487500667572,-0.9437999725341797
1781034565169432300,5.307432373046875,0.37345001101493835,0.306487500667572,-0.9437999725341797
1781034565188949500,5.326949462890625,0.504212498664856,0.1480875015258789,-0.14368750154972076
1781034565208470800,5.346470703125,0.504212498664856,0.1480875015258789,-0.14368750154972076
1781034565227991600,5.365991455078125,0.3526875078678131,-0.23938749730587006,1.0477499961853027
1781034565247512600,5.3855126953125,0.3526875078678131,-0.23938749730587006,1.0477499961853027
1781034565267037000,5.405036865234375,0.2777499854564667,-0.5176874995231628,1.5982999801635742
1781034565286559700,5.424559814453125,0.2777499854564667,-0.5176874995231628,1.5982999801635742
1781034565306077400,5.444077392578125,0.0835999995470047,-0.28984999656677246,1.1435874700546265
1781034565325597200,5.46359716796875,0.0835999995470047,-0.28984999656677246,1.1435874700546265
1781034565345117700,5.48311767578125,-0.020899999886751175,-0.06270000338554382,0.723800003528595
1781034565364637000,5.502636962890625,-0.09336250275373459,0.10339999943971634,0.3606624901294708
1781034565384157000,5.522156982421875,-0.09418749809265137,0.16046249866485596,0.1303499937057495
1781034565403678700,5.5416787109375,-0.09418749809265137,0.16046249866485596,0.1303499937057495
1781034565423203600,5.56120361328125,0.16279999911785126,0.07081250101327896,-0.03671250119805336
1781034565442730000,5.58072998046875,0.16279999911785126,0.07081250101327896,-0.03671250119805336
1781034565462253300,5.60025341796875,0.5289624929428101,0.00013749999925494194,-0.10559999942779541
1781034565481773600,5.619773681640625,0.5289624929428101,0.00013749999925494194,-0.10559999942779541
1781034565501295900,5.6392958984375,0.7251750230789185,-0.05197500064969063,-0.059812501072883606
1781034565520824000,5.658823974609375,0.7251750230789185,-0.05197500064969063,-0.059812501072883606
1781034565540351200,5.678351318359375,0.7588624954223633,-0.04399999976158142,0.013337500393390656
1781034565559873000,5.697873046875,0.7588624954223633,-0.04399999976158142,0.013337500393390656
1781034565579397600,5.717397705078125,0.6766374707221985,0.09982500225305557,0.057475000619888306
1781034565598925000,5.736925048828125,0.6766374707221985,0.09982500225305557,0.057475000619888306
1781034565618455000,5.756455078125,0.48083749413490295,0.28366249799728394,0.08167500048875809
1781034565637984500,5.775984619140625,0.48083749413490295,0.28366249799728394,0.08167500048875809
1781034565657509400,5.79550927734375,0.2546499967575073,0.4452250003814697,0.1303499937057495
1781034565677030100,5.815030029296875,0.2546499967575073,0.4452250003814697,0.1303499937057495
1781034565696548000,5.834548095703125,0.013612499460577965,0.6825500130653381,-0.12732499837875366
1781034565716068900,5.85406884765625,0.013612499460577965,0.6825500130653381,-0.12732499837875366
1781034565735590400,5.87359033203125,-0.13695000112056732,0.8159250020980835,-0.20679999887943268
1781034565755113000,5.893113037109375,-0.13695000112056732,0.8159250020980835,-0.20679999887943268
1781034565774636500,5.912636474609375,-0.10999999940395355,0.690387487411499,0.10037499666213989
1781034565794158600,5.93215869140625,-0.10999999940395355,0.690387487411499,0.10037499666213989
1781034565813683000,5.951682861328125,0.05348749831318855,0.4305124878883362,0.3293125033378601
1781034565833204500,5.97120458984375,0.05348749831318855,0.4305124878883362,0.3293125033378601
1781034565852726000,5.99072607421875,0.39668750762939453,-0.10202500224113464,0.6670125126838684
1781034565872247800,6.010247802734375,0.39668750762939453,-0.10202500224113464,0.6670125126838684
1781034565891772000,6.02977197265625,0.780037522315979,-0.7672500014305115,1.1636625528335571
1781034565911298000,6.049298095703125,0.780037522315979,-0.7672500014305115,1.1636625528335571
1781034565930822700,6.06882275390625,1.0675499439239502,-1.2336499691009521,1.573412537574768
1781034565950348800,6.088348876953125,1.0675499439239502,-1.2336499691009521,1.573412537574768
1781034565969875200,6.107875244140625,1.1871750354766846,-1.3044625520706177,1.6026999950408936
1781034565989401600,6.127401611328125,1.1871750354766846,-1.3044625520706177,1.6026999950408936
1781034566008928000,6.146927978515625,1.023550033569336,-1.0269875526428223,1.38833749294281
1781034566028449800,6.16644970703125,0.7653250098228455,-0.8098750114440918,1.1679250001907349
1781034566047972000,6.18597216796875,0.7653250098228455,-0.8098750114440918,1.1679250001907349
1781034566067497700,6.205497802734375,0.03932499885559082,-0.3246375024318695,0.6133875250816345
1781034566087027000,6.22502685546875,0.03932499885559082,-0.3246375024318695,0.6133875250816345
1781034566106553600,6.2445537109375,-0.5413374900817871,0.21078750491142273,0.08799999952316284
1781034566126077000,6.264076904296875,-0.5413374900817871,0.21078750491142273,0.08799999952316284
1781034566145601300,6.283601318359375,-0.5413374900817871,0.21078750491142273,0.08799999952316284
1781034566165123300,6.303123291015625,-0.7822374701499939,0.6639875173568726,-0.32298749685287476
1781034566184645400,6.322645263671875,-0.7442874908447266,0.7526749968528748,-0.4310624897480011
1781034566204167400,6.34216748046875,-0.6220499873161316,0.727649986743927,-0.44756248593330383
1781034566223687400,6.3616875,-0.6220499873161316,0.727649986743927,-0.44756248593330383
1781034566243208400,6.38120849609375,-0.2560249865055084,0.4250124990940094,-0.18988749384880066
1781034566262730200,6.400730224609375,-0.2560249865055084,0.4250124990940094,-0.18988749384880066
1781034566282257400,6.42025732421875,0.08538749814033508,0.03382499888539314,0.18645000457763672
1781034566301785600,6.43978564453125,0.08538749814033508,0.03382499888539314,0.18645000457763672
1781034566321313000,6.45931298828125,0.2615250051021576,-0.1662375032901764,0.38926249742507935
1781034566340839400,6.47883935546875,0.2615250051021576,-0.1662375032901764,0.38926249742507935
1781034566360359200,6.498359130859375,0.27059999108314514,-0.1574375033378601,0.4596624970436096
1781034566379880200,6.517880126953125,0.27059999108314514,-0.1574375033378601,0.4596624970436096
1781034566399405300,6.5374052734375,0.1504250019788742,0.0030249999836087227,0.2938374876976013
1781034566418927600,6.556927734375,0.1504250019788742,0.0030249999836087227,0.2938374876976013
1781034566438447000,6.576447021484375,-0.03684999793767929,0.25203749537467957,-0.11481250077486038
1781034566457967900,6.5959677734375,-0.03684999793767929,0.25203749537467957,-0.11481250077486038
1781034566477489000,6.615489013671875,-0.1812250018119812,0.44123750925064087,-0.3539249897003174
1781034566497010200,6.63501025390625,-0.1812250018119812,0.44123750925064087,-0.3539249897003174
1781034566516529200,6.654529052734375,-0.3096500039100647,0.5730999708175659,-0.5372124910354614
1781034566536051200,6.67405126953125,-0.3096500039100647,0.5730999708175659,-0.5372124910354614
1781034566555573800,6.69357373046875,-0.37812501192092896,0.5783249735832214,-0.6247999668121338
1781034566575093800,6.71309375,-0.37812501192092896,0.5783249735832214,-0.6247999668121338
1781034566594615600,6.732615478515625,-0.28654998540878296,0.3844499886035919,-0.4371125102043152
1781034566614138600,6.752138671875,-0.28654998540878296,0.3844499886035919,-0.4371125102043152
1781034566633662000,6.771661865234375,-0.0826374962925911,0.07204999774694443,-0.13021250069141388
1781034566653182000,6.791181884765625,-0.0826374962925911,0.07204999774694443,-0.13021250069141388
1781034566672699100,6.81069921875,0.14190000295639038,-0.28366249799728394,0.17682500183582306
1781034566692219600,6.8302197265625,0.14190000295639038,-0.28366249799728394,0.17682500183582306
1781034566711739100,6.8497392578125,0.2825624942779541,-0.5468375086784363,0.2817375063896179
1781034566731256300,6.86925634765625,0.2825624942779541,-0.5468375086784363,0.2817375063896179
1781034566750776600,6.888776611328125,0.3302749991416931,-0.5153499841690063,0.06764999777078629
1781034566770300700,6.90830078125,0.3302749991416931,-0.5153499841690063,0.06764999777078629
1781034566789823000,6.927822998046875,0.3823874890804291,-0.16142499446868896,-0.22247499227523804
1781034566809343500,6.947343505859375,0.3823874890804291,-0.16142499446868896,-0.22247499227523804
1781034566828863700,6.96686376953125,0.4483875036239624,0.23471249639987946,-0.3269749879837036
1781034566848386800,6.98638671875,0.4483875036239624,0.23471249639987946,-0.3269749879837036
1781034566867912000,7.005911865234375,0.40988749265670776,0.3605250120162964,-0.2730749845504761
1781034566887433200,7.02543310546875,0.40988749265670776,0.3605250120162964,-0.2730749845504761
1781034566906951000,7.044950927734375,0.17503750324249268,0.29534998536109924,-0.2531374990940094
1781034566926463700,7.064463623046875,0.17503750324249268,0.29534998536109924,-0.2531374990940094
1781034566945976800,7.083976806640625,0.17503750324249268,0.29534998536109924,-0.2531374990940094
1781034566965495600,7.10349560546875,-0.31542500853538513,0.6671500205993652,-0.7368624806404114
1781034566985012500,7.123012451171875,-0.6477624773979187,1.112512469291687,-1.2434124946594238
1781034567004530700,7.14253076171875,-0.9739124774932861,1.5850999355316162,-1.7404749393463135
1781034567024047900,7.1620478515625,-1.2238874435424805,1.9404000043869019,-2.0479249954223633
1781034567043567600,7.181567626953125,-1.2238874435424805,1.9404000043869019,-2.0479249954223633
1781034567063088400,7.20108837890625,-1.300612449645996,1.9343500137329102,-1.8196749687194824
1781034567082604300,7.220604248046875,-1.300612449645996,1.9343500137329102,-1.8196749687194824
1781034567102122000,7.2401220703125,-0.9546625018119812,1.209862470626831,-0.9673125147819519
1781034567121637400,7.259637451171875,-0.9546625018119812,1.209862470626831,-0.9673125147819519
1781034567141153300,7.2791533203125,-0.5908374786376953,0.5398250222206116,-0.3236750066280365
1781034567160670200,7.298670166015625,-0.5908374786376953,0.5398250222206116,-0.3236750066280365
1781034567180183600,7.31818359375,-0.32725000381469727,0.21738749742507935,-0.201712504029274
1781034567199693600,7.337693603515625,-0.32725000381469727,0.21738749742507935,-0.201712504029274
1781034567219206100,7.3572060546875,-0.13997499644756317,0.17820000648498535,-0.42707499861717224
1781034567238721000,7.376720947265625,-0.13997499644756317,0.17820000648498535,-0.42707499861717224
1781034567258232600,7.396232666015625,0.06627500057220459,0.12993749976158142,-0.5674625039100647
1781034567277744400,7.415744384765625,0.06627500057220459,0.12993749976158142,-0.5674625039100647
1781034567297256700,7.435256591796875,0.42899999022483826,-0.1691250056028366,-0.22550000250339508
1781034567316770000,7.45477001953125,0.42899999022483826,-0.1691250056028366,-0.22550000250339508
1781034567336286000,7.474285888671875,0.6792500019073486,-0.5282750129699707,0.24598750472068787
1781034567355803000,7.493802978515625,0.6792500019073486,-0.5282750129699707,0.24598750472068787
1781034567375317000,7.51331689453125,0.5257999897003174,-0.5563250184059143,0.20143750309944153
1781034567394829800,7.532829833984375,0.5257999897003174,-0.5563250184059143,0.20143750309944153
1781034567414344000,7.552343994140625,0.1344749927520752,-0.20528750121593475,-0.1970375031232834
1781034567433857500,7.571857421875,0.1344749927520752,-0.20528750121593475,-0.1970375031232834
1781034567453370600,7.59137060546875,-0.17434999346733093,0.1611499935388565,-0.31693750619888306
1781034567472885000,7.610885009765625,-0.17434999346733093,0.1611499935388565,-0.31693750619888306
1781034567492399400,7.6303994140625,-0.3357749879360199,0.35708749294281006,-0.2264624983072281
1781034567511910000,7.649909912109375,-0.3357749879360199,0.35708749294281006,-0.2264624983072281
1781034567531420700,7.669420654296875,-0.48496249318122864,0.5362499952316284,-0.38967499136924744
1781034567550939600,7.688939697265625,-0.48496249318122864,0.5362499952316284,-0.38967499136924744
1781034567570459000,7.708458984375,-0.5898749828338623,0.6875,-0.7634000182151794
1781034567589971200,7.72797119140625,-0.5898749828338623,0.6875,-0.7634000182151794
1781034567609487400,7.7474873046875,-0.46309998631477356,0.5706250071525574,-0.8962249755859375
1781034567629006800,7.7670068359375,-0.46309998631477356,0.5706250071525574,-0.8962249755859375
1781034567648522500,7.7865224609375,-0.25616249442100525,0.1868624985218048,-0.9644249677658081
1781034567668037000,7.806037109375,-0.25616249442100525,0.1868624985218048,-0.9644249677658081
1781034567687552000,7.825552001953125,-0.030524998903274536,-0.37345001101493835,-0.9127249717712402
1781034567707061500,7.8450615234375,-0.030524998903274536,-0.37345001101493835,-0.9127249717712402
1781034567726571800,7.86457177734375,0.33701249957084656,-1.3336124420166016,-0.27678748965263367
1781034567746088200,7.884088134765625,0.33701249957084656,-1.3336124420166016,-0.27678748965263367
1781034567765607400,7.903607421875,0.33701249957084656,-1.3336124420166016,-0.27678748965263367
1781034567785122300,7.923122314453125,0.6256250143051147,-2.342449903488159,0.6477624773979187
1781034567804632600,7.942632568359375,0.6573874950408936,-2.6613125801086426,1.0192874670028687
1781034567824146700,7.962146728515625,0.6102250218391418,-2.853262424468994,1.2564749717712402
1781034567843663600,7.98166357421875,0.6102250218391418,-2.853262424468994,1.2564749717712402
1781034567863179000,8.001178955078124,0.3375625014305115,-2.713562488555908,1.0998624563217163
1781034567882690600,8.020690673828126,0.3375625014305115,-2.713562488555908,1.0998624563217163
1781034567902203000,8.040202880859376,-0.0448249988257885,-1.5163500308990479,0.02199999988079071
1781034567921715700,8.0597158203125,-0.0448249988257885,-1.5163500308990479,0.02199999988079071
1781034567941228500,8.079228515625,-0.048124998807907104,-0.5511000156402588,-1.1764500141143799
1781034567960742100,8.0987421875,-0.048124998807907104,-0.5511000156402588,-1.1764500141143799
1781034567980258600,8.118258544921876,-0.1798499971628189,0.7691749930381775,-2.0337624549865723
1781034567999775500,8.137775390625,-0.1798499971628189,0.7691749930381775,-2.0337624549865723
1781034568019291600,8.157291748046875,-0.34540000557899475,1.5405499935150146,-2.333237409591675
1781034568038807600,8.1768076171875,-0.34540000557899475,1.5405499935150146,-2.333237409591675
1781034568058321400,8.1963212890625,-0.5106750130653381,1.8620250225067139,-1.9586875438690186
1781034568077839600,8.215839599609374,-0.5106750130653381,1.8620250225067139,-1.9586875438690186
1781034568097361400,8.235361328125,-0.54339998960495,1.9100124835968018,-1.2347500324249268
1781034568116876000,8.2548759765625,-0.54339998960495,1.9100124835968018,-1.2347500324249268
1781034568136389600,8.2743896484375,-0.3511750102043152,1.6197500228881836,-0.40837499499320984
1781034568155902200,8.293902099609374,-0.3511750102043152,1.6197500228881836,-0.40837499499320984
1781034568175411700,8.31341162109375,-0.004399999976158142,1.087762475013733,0.3959999978542328
1781034568194930200,8.33293017578125,-0.004399999976158142,1.087762475013733,0.3959999978542328
1781034568214451200,8.352451171875,0.30799999833106995,0.5831375122070312,1.0978000164031982
1781034568233964800,8.37196484375,0.30799999833106995,0.5831375122070312,1.0978000164031982
1781034568253476000,8.39147607421875,0.5224999785423279,0.28971248865127563,1.7355250120162964
1781034568272989400,8.410989501953125,0.5224999785423279,0.28971248865127563,1.7355250120162964
1781034568292498000,8.430497802734376,0.5783249735832214,0.3244999945163727,1.9615750312805176
1781034568312007700,8.450007568359375,0.5783249735832214,0.3244999945163727,1.9615750312805176
1781034568331521800,8.469521728515625,0.643637478351593,0.5502749681472778,1.8324625492095947
1781034568351036000,8.489035888671875,0.643637478351593,0.5502749681472778,1.8324625492095947
1781034568370554600,8.5085546875,1.0942250490188599,0.5438125133514404,1.7609624862670898
1781034568390074600,8.52807470703125,1.0942250490188599,0.5438125133514404,1.7609624862670898
1781034568409601500,8.5476015625,1.627174973487854,0.17008750140666962,1.7782875299453735
1781034568429124900,8.567124755859375,1.627174973487854,0.17008750140666962,1.7782875299453735
1781034568448642300,8.586642333984376,1.38833749294281,0.7073000073432922,1.1772749423980713
1781034568468161800,8.606161865234375,1.38833749294281,0.7073000073432922,1.1772749423980713
1781034568487681800,8.625681884765624,0.558662474155426,1.7323625087738037,0.35007500648498535
1781034568507205000,8.645205078125,0.558662474155426,1.7323625087738037,0.35007500648498535
1781034568526724000,8.66472412109375,0.2213750034570694,1.5059000253677368,0.25712499022483826
1781034568546239200,8.6842392578125,0.2213750034570694,1.5059000253677368,0.25712499022483826
1781034568565756200,8.703756103515625,0.2213750034570694,1.5059000253677368,0.25712499022483826
1781034568585278700,8.72327880859375,0.6061000227928162,0.5050374865531921,0.5164499878883362
1781034568604804900,8.742804931640626,0.7739874720573425,0.12416250258684158,0.5273125171661377
1781034568624329700,8.762329833984374,0.7756375074386597,-0.054999999701976776,0.4064500033855438
1781034568643852300,8.781852294921874,0.7756375074386597,-0.054999999701976776,0.4064500033855438
1781034568663374600,8.80137451171875,0.3119874894618988,0.0668250024318695,-0.09872499853372574
1781034568682898400,8.8208984375,0.3119874894618988,0.0668250024318695,-0.09872499853372574
1781034568702419700,8.840419677734374,-0.089649997651577,-0.03464999794960022,-0.49623748660087585
1781034568721940700,8.859940673828126,-0.089649997651577,-0.03464999794960022,-0.49623748660087585
1781034568741461000,8.8794609375,-0.007012499962002039,-0.6142125129699707,-0.5860249996185303
1781034568760980500,8.89898046875,-0.007012499962002039,-0.6142125129699707,-0.5860249996185303
1781034568780500200,8.918500244140626,0.09968750178813934,-0.9822999835014343,-0.612012505531311
1781034568800021000,8.93802099609375,0.09968750178813934,-0.9822999835014343,-0.612012505531311
1781034568819544600,8.957544677734376,-0.24763749539852142,-0.7246249914169312,-0.7178875207901001
1781034568839066400,8.97706640625,-0.24763749539852142,-0.7246249914169312,-0.7178875207901001
1781034568858589200,8.996589111328126,-0.7587249875068665,-0.24791249632835388,-0.7422249913215637
1781034568878113800,9.01611376953125,-0.7587249875068665,-0.24791249632835388,-0.7422249913215637
1781034568897636600,9.03563671875,-1.0895500183105469,0.08566249907016754,-0.7173374891281128
1781034568917159400,9.055159423828124,-1.0895500183105469,0.08566249907016754,-0.7173374891281128
1781034568936681700,9.074681640625,-1.3699125051498413,0.46997499465942383,-0.950124979019165
1781034568956203300,9.094203369140626,-1.3699125051498413,0.46997499465942383,-0.950124979019165
1781034568975726800,9.113726806640624,-1.548937439918518,0.8215624690055847,-1.181262493133545
1781034568995251000,9.1332509765625,-1.548937439918518,0.8215624690055847,-1.181262493133545
1781034569014775600,9.152775634765625,-1.551687479019165,0.8277499675750732,-1.1269500255584717
1781034569034296600,9.172296630859375,-1.551687479019165,0.8277499675750732,-1.1269500255584717
1781034569053820400,9.1918203125,-1.377887487411499,0.4787749946117401,-0.8549749851226807
1781034569073351200,9.21135107421875,-1.377887487411499,0.4787749946117401,-0.8549749851226807
1781034569092880000,9.2308798828125,-1.1445499658584595,0.10518749803304672,-0.5053125023841858
1781034569112403500,9.250403564453125,-1.1445499658584595,0.10518749803304672,-0.5053125023841858
1781034569131926300,9.26992626953125,-0.9398124814033508,-0.21230000257492065,-0.1685750037431717
1781034569151450000,9.2894501953125,-0.9398124814033508,-0.21230000257492065,-0.1685750037431717
1781034569170972700,9.30897265625,-0.6028000116348267,-0.7188500165939331,0.27114999294281006
1781034569190498300,9.328498291015626,-0.6028000116348267,-0.7188500165939331,0.27114999294281006
1781034569210033000,9.348032958984374,-0.20157499611377716,-1.2384624481201172,0.7642250061035156
1781034569229563000,9.36756298828125,-0.20157499611377716,-1.2384624481201172,0.7642250061035156
1781034569249083000,9.387082763671875,0.020762499421834946,-1.4253250360488892,1.019837498664856
1781034569268606200,9.406606201171876,0.020762499421834946,-1.4253250360488892,1.019837498664856
1781034569288131600,9.426131591796874,0.05389999970793724,-1.306249976158142,0.9542499780654907
1781034569307655400,9.445655517578125,0.05389999970793724,-1.306249976158142,0.9542499780654907
1781034569327180300,9.46518017578125,0.0010999999940395355,-1.1197999715805054,0.7324625253677368
1781034569346701600,9.48470166015625,0.0010999999940395355,-1.1197999715805054,0.7324625253677368
1781034569366224600,9.504224609375,-0.0775500014424324,-0.9685499668121338,0.5403749942779541
1781034569385750500,9.52375048828125,-0.0775500014424324,-0.9685499668121338,0.5403749942779541
1781034569405275100,9.543275146484374,-0.0775500014424324,-0.9685499668121338,0.5403749942779541
1781034569424796000,9.5627958984375,-0.17998750507831573,-0.8065750002861023,0.44123750925064087
1781034569444312300,9.582312255859375,-0.22151249647140503,-0.7331500053405762,0.4965125024318695
1781034569463830000,9.601830078125,-0.2560249865055084,-0.6723750233650208,0.595924973487854
1781034569483351000,9.62135107421875,-0.2560249865055084,-0.6723750233650208,0.595924973487854
1781034569502876000,9.6408759765625,-0.29122498631477356,-0.5768125057220459,0.7356249690055847
1781034569522405600,9.660405517578125,-0.29122498631477356,-0.5768125057220459,0.7356249690055847
1781034569541934800,9.679934814453125,-0.23704999685287476,-0.48881250619888306,0.6121500134468079
1781034569561461800,9.699461669921876,-0.23704999685287476,-0.48881250619888306,0.6121500134468079
1781034569580988200,9.71898828125,-0.1732500046491623,-0.3642374873161316,0.2147749960422516
1781034569600516900,9.738516845703124,-0.1732500046491623,-0.3642374873161316,0.2147749960422516
1781034569620047000,9.758047119140626,-0.1662375032901764,-0.2652375102043152,-0.07741250097751617
1781034569639579000,9.777578857421876,-0.1662375032901764,-0.2652375102043152,-0.07741250097751617
1781034569659111000,9.79711083984375,-0.17765000462532043,-0.27403751015663147,-0.016637500375509262
1781034569678641400,9.816641357421876,-0.17765000462532043,-0.27403751015663147,-0.016637500375509262
1781034569698174000,9.836174072265624,-0.20666250586509705,-0.28022500872612,0.1504250019788742
1781034569717701000,9.855701171875,-0.20666250586509705,-0.28022500872612,0.1504250019788742
1781034569737226800,9.875226806640624,-0.23897500336170197,-0.19538749754428864,0.12058749794960022
1781034569756756200,9.894756103515626,-0.23897500336170197,-0.19538749754428864,0.12058749794960022
1781034569776285200,9.91428515625,-0.18617500364780426,-0.05389999970793724,-0.020762499421834946
1781034569795809000,9.93380908203125,-0.18617500364780426,-0.05389999970793724,-0.020762499421834946
1781034569815329800,9.953329833984375,-0.04193750023841858,0.10408750176429749,-0.2985124886035919
1781034569834852600,9.9728525390625,-0.04193750023841858,0.10408750176429749,-0.2985124886035919
1781034569854377700,9.992377685546876,0.19470000267028809,0.19043749570846558,-0.38692501187324524
1781034569873905700,10.01190576171875,0.19470000267028809,0.19043749570846558,-0.38692501187324524
1781034569893435100,10.03143505859375,0.4362874925136566,0.15716250240802765,-0.21889999508857727
1781034569912965400,10.05096533203125,0.4362874925136566,0.15716250240802765,-0.21889999508857727
1781034569932494300,10.070494384765626,0.5983999967575073,0.010312499478459358,0.026262499392032623
1781034569952022800,10.090022705078125,0.5983999967575073,0.010312499478459358,0.026262499392032623
1781034569971550500,10.109550537109374,0.6649500131607056,-0.19181250035762787,0.370012491941452
1781034569991079000,10.129078857421876,0.6649500131607056,-0.19181250035762787,0.370012491941452
1781034570010611000,10.14861083984375,0.5622375011444092,-0.3485625088214874,0.6621999740600586
1781034570030139400,10.168139404296875,0.5622375011444092,-0.3485625088214874,0.6621999740600586
1781034570049666000,10.187666015625,0.3636874854564667,-0.43931248784065247,0.8465874791145325
1781034570069191700,10.207191650390625,0.3636874854564667,-0.43931248784065247,0.8465874791145325
1781034570088718800,10.22671875,0.19882500171661377,-0.4431625008583069,0.8907250165939331
1781034570108247000,10.2462470703125,0.19882500171661377,-0.4431625008583069,0.8907250165939331
1781034570127770400,10.265770263671875,0.0859375,-0.31349998712539673,0.6115999817848206
1781034570147291400,10.28529150390625,0.0859375,-0.31349998712539673,0.6115999817848206
1781034570166816000,10.30481591796875,0.062424998730421066,-0.08662500232458115,0.09583749622106552
1781034570186340900,10.3243408203125,0.062424998730421066,-0.08662500232458115,0.09583749622106552
1781034570205864700,10.34386474609375,0.17627499997615814,0.11797499656677246,-0.14904999732971191
1781034570225390800,10.363390869140625,0.17627499997615814,0.11797499656677246,-0.14904999732971191
1781034570244917200,10.382917236328124,0.17627499997615814,0.11797499656677246,-0.14904999732971191
1781034570264442600,10.402442626953125,0.37523749470710754,0.2494249939918518,-0.1391499936580658
1781034570283973000,10.42197314453125,0.4713499844074249,0.3176249861717224,-0.19346250593662262
1781034570303503600,10.441503662109374,0.546287477016449,0.3957250118255615,-0.3022249937057495
1781034570323032600,10.461032470703126,0.546287477016449,0.3957250118255615,-0.3022249937057495
1781034570342561500,10.4805615234375,0.5927624702453613,0.47574999928474426,-0.4624125063419342
1781034570362085600,10.500085693359376,0.5927624702453613,0.47574999928474426,-0.4624125063419342
1781034570381607700,10.519607666015625,0.5647125244140625,0.3301374912261963,-0.29534998536109924
1781034570401132500,10.539132568359374,0.5647125244140625,0.3301374912261963,-0.29534998536109924
1781034570420657000,10.558656982421875,0.5592125058174133,0.16335000097751617,0.005224999971687794
1781034570440177200,10.57817724609375,0.5592125058174133,0.16335000097751617,0.005224999971687794
1781034570459698700,10.59769873046875,0.5248374938964844,0.1424500048160553,0.06806249916553497
1781034570479219700,10.6172197265625,0.5248374938964844,0.1424500048160553,0.06806249916553497
1781034570498738200,10.63673828125,0.42377498745918274,0.11027500033378601,0.06063750013709068
1781034570518256600,10.656256591796875,0.42377498745918274,0.11027500033378601,0.06063750013709068
1781034570537778200,10.675778076171875,0.2745875120162964,-0.02502499893307686,0.13859999179840088
1781034570557300000,10.695300048828125,0.2745875120162964,-0.02502499893307686,0.13859999179840088
1781034570576821200,10.7148212890625,0.1358499974012375,-0.13461250066757202,0.18933749198913574
1781034570596343000,10.734343017578125,0.1358499974012375,-0.13461250066757202,0.18933749198913574
1781034570615864600,10.753864501953124,0.0882750004529953,-0.16472500562667847,0.2204124927520752
1781034570635387000,10.773386962890624,0.0882750004529953,-0.16472500562667847,0.2204124927520752
1781034570654911700,10.792911865234375,0.11137499660253525,-0.15619999170303345,0.12870000302791595
1781034570674436000,10.81243603515625,0.11137499660253525,-0.15619999170303345,0.12870000302791595
1781034570693960400,10.83196044921875,0.17668749392032623,-0.13378749787807465,0.04179999977350235
1781034570713486600,10.851486572265625,0.17668749392032623,-0.13378749787807465,0.04179999977350235
1781034570733011200,10.87101123046875,0.23485000431537628,-0.013612499460577965,-0.027775000780820847
1781034570752532500,10.890532470703125,0.23485000431537628,-0.013612499460577965,-0.027775000780820847
1781034570772056600,10.910056640625,0.2149125039577484,0.23938749730587006,-0.23746250569820404
1781034570791577000,10.9295771484375,0.2149125039577484,0.23938749730587006,-0.23746250569820404
1781034570811094000,10.949093994140625,0.10999999940395355,0.5326749682426453,-0.508062481880188
1781034570830617300,10.968617431640626,0.10999999940395355,0.5326749682426453,-0.508062481880188
1781034570850145000,10.98814501953125,-0.06558749824762344,0.8658375144004822,-0.9011750221252441
1781034570869672400,11.00767236328125,-0.06558749824762344,0.8658375144004822,-0.9011750221252441
1781034570889199400,11.027199462890625,-0.19208750128746033,1.135200023651123,-1.107699990272522
1781034570908724200,11.04672412109375,-0.19208750128746033,1.135200023651123,-1.107699990272522
1781034570928246300,11.066246337890625,-0.2563000023365021,1.230625033378601,-1.029325008392334
1781034570947769600,11.08576953125,-0.2563000023365021,1.230625033378601,-1.029325008392334
1781034570967292700,11.105292724609376,-0.2563000023365021,1.230625033378601,-1.029325008392334
1781034570986814000,11.12481396484375,-0.3125374913215637,1.133412480354309,-0.7962625026702881
1781034571006335200,11.144335205078125,-0.25148749351501465,0.8557999730110168,-0.4763000011444092
1781034571025857800,11.16385791015625,-0.25148749351501465,0.8557999730110168,-0.4763000011444092
1781034571045380900,11.183380859375,-0.25148749351501465,0.8557999730110168,-0.4763000011444092
1781034571064902100,11.202902099609375,-0.010724999941885471,0.45045000314712524,-0.06710000336170197
1781034571084423000,11.2224228515625,0.13323749601840973,0.22495000064373016,0.15771250426769257
1781034571103940900,11.24194091796875,0.25946250557899475,0.0031624999828636646,0.36932501196861267
1781034571123460900,11.2614609375,0.25946250557899475,0.0031624999828636646,0.36932501196861267
1781034571142987000,11.280987060546876,0.3806000053882599,-0.3643749952316284,0.6191624999046326
1781034571162512600,11.3005126953125,0.3806000053882599,-0.3643749952316284,0.6191624999046326
1781034571182035200,11.32003515625,0.40892499685287476,-0.699874997138977,0.6777374744415283
1781034571201557800,11.339557861328124,0.40892499685287476,-0.699874997138977,0.6777374744415283
1781034571221081300,11.359081298828125,0.4236375093460083,-0.9836750030517578,0.6604124903678894
1781034571240599300,11.378599365234376,0.4236375093460083,-0.9836750030517578,0.6604124903678894
1781034571260115500,11.398115478515624,0.34375,-1.0542124509811401,0.5186499953269958
1781034571279629600,11.417629638671874,0.34375,-1.0542124509811401,0.5186499953269958
1781034571299147300,11.437147216796875,0.09872499853372574,-0.8215624690055847,0.018012499436736107
1781034571318671400,11.45667138671875,0.09872499853372574,-0.8215624690055847,0.018012499436736107
1781034571338192600,11.476192626953125,-0.08607500046491623,-0.6668750047683716,-0.27211248874664307
1781034571357715500,11.495715576171875,-0.08607500046491623,-0.6668750047683716,-0.27211248874664307
1781034571377240300,11.515240234375,-0.07686249911785126,-0.7631250023841858,-0.04963750019669533
1781034571396761600,11.53476171875,-0.07686249911785126,-0.7631250023841858,-0.04963750019669533
1781034571416279000,11.554279052734374,0.011962499469518661,-0.7665625214576721,-0.015124999918043613
1781034571435796700,11.573796630859375,0.011962499469518661,-0.7665625214576721,-0.015124999918043613
1781034571455314700,11.593314697265624,0.19841249287128448,-0.5812125205993652,-0.3198249936103821
1781034571474835200,11.612835205078126,0.19841249287128448,-0.5812125205993652,-0.3198249936103821
1781034571494358800,11.63235888671875,0.3361875116825104,-0.2866874933242798,-0.7764624953269958
1781034571513883000,11.6518828125,0.3361875116825104,-0.2866874933242798,-0.7764624953269958
1781034571533408800,11.67140869140625,0.2167000025510788,0.025437500327825546,-1.1515624523162842
1781034571552932600,11.6909326171875,0.2167000025510788,0.025437500327825546,-1.1515624523162842
1781034571572457200,11.710457275390626,-0.045375000685453415,0.14423750340938568,-1.1539000272750854
1781034571591983000,11.729983154296875,-0.045375000685453415,0.14423750340938568,-1.1539000272750854
1781034571611507500,11.749507568359375,-0.30992498993873596,0.201712504029274,-0.9735000133514404
1781034571631035600,11.76903564453125,-0.30992498993873596,0.201712504029274,-0.9735000133514404
1781034571650563300,11.788563232421875,-0.4833124876022339,0.40521249175071716,-1.0344125032424927
1781034571670088700,11.808088623046874,-0.4833124876022339,0.40521249175071716,-1.0344125032424927
1781034571689614300,11.8276142578125,-0.44591251015663147,0.5869874954223633,-1.1885499954223633
1781034571709137200,11.84713720703125,-0.44591251015663147,0.5869874954223633,-1.1885499954223633
1781034571728658200,11.866658203125,-0.2938374876976013,0.6832374930381775,-1.118149995803833
1781034571748178700,11.8861787109375,-0.2938374876976013,0.6832374930381775,-1.118149995803833
1781034571767700500,11.905700439453126,-0.2667500078678131,1.0961500406265259,-1.1171875
1781034571787222800,11.925222900390626,-0.2667500078678131,1.0961500406265259,-1.1171875
1781034571806749200,11.944749267578125,-0.2679874897003174,1.5404125452041626,-1.0125499963760376
1781034571826276000,11.964276123046876,-0.2679874897003174,1.5404125452041626,-1.0125499963760376
1781034571845799400,11.98379931640625,-0.10422500222921371,1.601599931716919,-0.5846499800682068
1781034571865324000,12.003323974609375,-0.10422500222921371,1.601599931716919,-0.5846499800682068
1781034571884847000,12.02284716796875,0.05252499878406525,1.5776749849319458,-0.3969624936580658
1781034571904364500,12.042364501953125,0.25437501072883606,1.560075044631958,-0.25987499952316284
1781034571923887000,12.06188720703125,0.47341248393058777,1.5578750371932983,-0.15908749401569366
1781034571943412000,12.081411865234376,0.47341248393058777,1.5578750371932983,-0.15908749401569366
1781034571962934500,12.1009345703125,0.7823749780654907,1.5097500085830688,-0.047987498342990875
1781034571982453800,12.120453857421875,0.7823749780654907,1.5097500085830688,-0.047987498342990875
1781034572001968400,12.139968505859375,0.8941624760627747,1.1882749795913696,0.016499999910593033
1781034572021483300,12.159483154296876,0.8941624760627747,1.1882749795913696,0.016499999910593033
1781034572041002500,12.17900244140625,1.0674124956130981,0.5817624926567078,0.3016749918460846
1781034572060525600,12.198525634765625,1.0674124956130981,0.5817624926567078,0.3016749918460846
1781034572080049000,12.218048828125,1.2846624851226807,-0.10023749619722366,0.7001500129699707
1781034572099573500,12.237573486328126,1.2846624851226807,-0.10023749619722366,0.7001500129699707
1781034572119098400,12.257098388671874,1.4084124565124512,-1.0278124809265137,1.1672375202178955
1781034572138619400,12.276619384765626,1.4084124565124512,-1.0278124809265137,1.1672375202178955
1781034572158134300,12.29613427734375,1.2390124797821045,-0.9517750144004822,1.1688874959945679
1781034572177653500,12.315653564453125,1.2390124797821045,-0.9517750144004822,1.1688874959945679
1781034572197182000,12.335181884765625,0.8007999658584595,0.4288625121116638,0.5571500062942505
1781034572216711000,12.3547109375,0.8007999658584595,0.4288625121116638,0.5571500062942505
1781034572236234000,12.37423388671875,0.4954124987125397,0.5791500210762024,0.3123999834060669
1781034572255757000,12.393757080078124,0.4954124987125397,0.5791500210762024,0.3123999834060669
1781034572275283000,12.413282958984375,0.41538751125335693,-0.08043749630451202,0.3166624903678894
1781034572294809300,12.432809326171874,0.41538751125335693,-0.08043749630451202,0.3166624903678894
1781034572314335500,12.45233544921875,0.21587499976158142,-0.011687500402331352,0.08786249905824661
1781034572333861400,12.471861328125,0.21587499976158142,-0.011687500402331352,0.08786249905824661
1781034572353384200,12.49138427734375,-0.09267500042915344,0.2311374992132187,-0.05829999968409538
1781034572372905700,12.51090576171875,-0.09267500042915344,0.2311374992132187,-0.05829999968409538
1781034572392431600,12.530431640625,-0.3507624864578247,0.17998750507831573,-0.00976249948143959
1781034572411957800,12.549957763671875,-0.3507624864578247,0.17998750507831573,-0.00976249948143959
1781034572431480300,12.569480224609375,-0.27857500314712524,-0.45883750915527344,0.22536249458789825
1781034572451001900,12.589001953125,-0.27857500314712524,-0.45883750915527344,0.22536249458789825
1781034572470522400,12.6085224609375,0.002199999988079071,-1.1544499397277832,0.49720001220703125
1781034572490042600,12.628042724609376,0.002199999988079071,-1.1544499397277832,0.49720001220703125
1781034572509559800,12.647559814453125,0.011549999937415123,-1.1354750394821167,0.5541250109672546
1781034572529078000,12.667078125,0.011549999937415123,-1.1354750394821167,0.5541250109672546
1781034572548602600,12.6866025390625,-0.41442498564720154,-0.4717625081539154,0.2428250014781952
1781034572568125200,12.706125244140624,-0.41442498564720154,-0.4717625081539154,0.2428250014781952
1781034572587646200,12.725646240234376,-0.8804125189781189,0.23251250386238098,-0.12072499841451645
1781034572607175000,12.7451748046875,-0.8804125189781189,0.23251250386238098,-0.12072499841451645
1781034572626701300,12.764701416015624,-1.1967999935150146,0.7273749709129333,-0.40466248989105225
1781034572646226000,12.784225830078125,-1.1967999935150146,0.7273749709129333,-0.40466248989105225
1781034572665748200,12.803748291015625,-1.1967999935150146,0.7273749709129333,-0.40466248989105225
1781034572685271000,12.82327099609375,-1.3895750045776367,0.9455875158309937,-0.5803874731063843
1781034572704793300,12.84279345703125,-1.4090999364852905,0.8812375068664551,-0.5427125096321106
1781034572724314000,12.862314208984374,-1.4090999364852905,0.8812375068664551,-0.5427125096321106
1781034572743840000,12.881840087890625,-1.3092750310897827,0.49018749594688416,-0.3030500113964081
1781034572763366000,12.901365966796876,-1.3092750310897827,0.49018749594688416,-0.3030500113964081
1781034572782888400,12.920888427734376,-1.129562497138977,0.0695749968290329,-0.1909874975681305
1781034572802411800,12.940411865234376,-1.129562497138977,0.0695749968290329,-0.1909874975681305
1781034572821939500,12.959939453125,-1.0230000019073486,-0.18012499809265137,-0.33096250891685486
1781034572841460000,12.9794599609375,-1.0230000019073486,-0.18012499809265137,-0.33096250891685486
1781034572860973600,12.9989736328125,-0.8841249942779541,-0.4170374870300293,-0.36134999990463257
1781034572880488400,13.018488525390625,-0.8841249942779541,-0.4170374870300293,-0.36134999990463257
1781034572900009200,13.03800927734375,-0.644462525844574,-0.7233874797821045,-0.08277499675750732
1781034572919532000,13.057531982421875,-0.644462525844574,-0.7233874797821045,-0.08277499675750732
1781034572939053600,13.077053466796874,-0.4739624857902527,-0.8743624687194824,0.26592499017715454
1781034572958575000,13.0965751953125,-0.4739624857902527,-0.8743624687194824,0.26592499017715454
1781034572978095000,13.11609521484375,-0.5193374752998352,-0.7880125045776367,0.345674991607666
1781034572997613300,13.13561328125,-0.5193374752998352,-0.7880125045776367,0.345674991607666
1781034573017130800,13.155130859375,-0.6076124906539917,-0.6771875023841858,0.3166624903678894
1781034573036651300,13.1746513671875,-0.6076124906539917,-0.6771875023841858,0.3166624903678894
1781034573056169500,13.19416943359375,-0.6344249844551086,-0.595787525177002,0.13255000114440918
1781034573075688200,13.213688232421875,-0.6344249844551086,-0.595787525177002,0.13255000114440918
1781034573095211300,13.233211181640625,-0.608162522315979,-0.4413749873638153,-0.21285000443458557
1781034573114735000,13.252735107421875,-0.608162522315979,-0.4413749873638153,-0.21285000443458557
1781034573134257200,13.272257080078125,-0.5559124946594238,-0.3128125071525574,-0.41635000705718994
1781034573153777200,13.291777099609375,-0.5559124946594238,-0.3128125071525574,-0.41635000705718994
1781034573173299700,13.3112998046875,-0.44577500224113464,-0.41868749260902405,-0.15468749403953552
1781034573192825600,13.33082568359375,-0.44577500224113464,-0.41868749260902405,-0.15468749403953552
1781034573212348700,13.3503486328125,-0.2778874933719635,-0.6891499757766724,0.4670875072479248
1781034573231869700,13.36986962890625,-0.2778874933719635,-0.6891499757766724,0.4670875072479248
1781034573251389200,13.38938916015625,-0.20514999330043793,-0.8666625022888184,0.7473124861717224
1781034573270903600,13.408903564453125,-0.20514999330043793,-0.8666625022888184,0.7473124861717224
1781034573290418400,13.42841845703125,-0.17036250233650208,-0.9066749811172485,0.8295375108718872
1781034573309936400,13.447936279296876,-0.17036250233650208,-0.9066749811172485,0.8295375108718872
1781034573329460000,13.4674599609375,-0.10848750174045563,-0.9066749811172485,0.9524624943733215
1781034573348988200,13.48698828125,-0.10848750174045563,-0.9066749811172485,0.9524624943733215
1781034573368513800,13.506513671875,-0.11357499659061432,-0.865975022315979,0.8636375069618225
1781034573388035800,13.526035888671874,-0.11357499659061432,-0.865975022315979,0.8636375069618225
1781034573407561000,13.54556103515625,-0.1508374959230423,-0.7203624844551086,0.6978124976158142
1781034573427087600,13.565087646484375,-0.1508374959230423,-0.7203624844551086,0.6978124976158142
1781034573446613000,13.584613037109374,-0.1508374959230423,-0.7203624844551086,0.6978124976158142
1781034573466135600,13.604135498046874,-0.08153750002384186,-0.4749250113964081,0.7567999958992004
1781034573485657900,13.623657958984374,-0.08153750002384186,-0.4749250113964081,0.7567999958992004
1781034573505181200,13.64318115234375,0.10573749989271164,-0.18700000643730164,0.8122124671936035
1781034573524705300,13.662705322265625,0.20721249282360077,-0.05335000157356262,0.7669749855995178
1781034573544234000,13.68223388671875,0.2872374951839447,0.057337500154972076,0.6528499722480774
1781034573563761200,13.70176123046875,0.2872374951839447,0.057337500154972076,0.6528499722480774
1781034573583284500,13.721284423828125,0.36822500824928284,0.2363625019788742,0.2545124888420105
1781034573602811600,13.740811767578125,0.36822500824928284,0.2363625019788742,0.2545124888420105
1781034573622337500,13.760337646484375,0.4156624972820282,0.4727250039577484,-0.20528750121593475
1781034573641864200,13.7798642578125,0.4156624972820282,0.4727250039577484,-0.20528750121593475
1781034573661389000,13.79938916015625,0.4636499881744385,0.693274974822998,-0.5388625264167786
1781034573680913400,13.818913330078125,0.4636499881744385,0.693274974822998,-0.5388625264167786
1781034573700436500,13.8384365234375,0.5016000270843506,0.7504749894142151,-0.5843750238418579
1781034573719959800,13.857959716796875,0.5016000270843506,0.7504749894142151,-0.5843750238418579
1781034573739485400,13.8774853515625,0.4772624969482422,0.5872625112533569,-0.48743748664855957
1781034573759009300,13.89700927734375,0.4772624969482422,0.5872625112533569,-0.48743748664855957
1781034573778532600,13.91653271484375,0.40988749265670776,0.34581249952316284,-0.31130000948905945
1781034573798055400,13.936055419921875,0.40988749265670776,0.34581249952316284,-0.31130000948905945
1781034573817581000,13.9555810546875,0.35089999437332153,0.2529999911785126,-0.256850004196167
1781034573837105400,13.97510546875,0.35089999437332153,0.2529999911785126,-0.256850004196167
1781034573856627500,13.99462744140625,0.39393749833106995,0.17270000278949738,-0.12732499837875366
1781034573876149800,14.014149658203126,0.39393749833106995,0.17270000278949738,-0.12732499837875366
1781034573895672000,14.033672119140626,0.5689749717712402,-0.2681249976158142,0.49293750524520874
1781034573915192800,14.05319287109375,0.5689749717712402,-0.2681249976158142,0.49293750524520874
1781034573934715000,14.07271484375,0.7166500091552734,-0.7990124821662903,1.0983500480651855
1781034573954239000,14.092239013671875,0.7166500091552734,-0.7990124821662903,1.0983500480651855
1781034573973763600,14.111763671875,0.8414999842643738,-0.9917874932289124,1.3186249732971191
1781034573993280000,14.131280029296875,0.8414999842643738,-0.9917874932289124,1.3186249732971191
1781034574012798500,14.150798583984376,0.9627749919891357,-0.9058499932289124,1.2978625297546387
1781034574032321800,14.17032177734375,0.9627749919891357,-0.9058499932289124,1.2978625297546387
1781034574051843800,14.18984375,0.9866999983787537,-0.720912516117096,1.1540374755859375
1781034574071366000,14.209365966796875,0.9866999983787537,-0.720912516117096,1.1540374755859375
1781034574090889000,14.228888916015626,0.8677625060081482,-0.5427125096321106,1.088724970817566
1781034574110411000,14.248410888671875,0.8677625060081482,-0.5427125096321106,1.088724970817566
1781034574129936400,14.267936279296874,0.612975001335144,-0.26496249437332153,0.9069499969482422
1781034574149463800,14.2874638671875,0.612975001335144,-0.26496249437332153,0.9069499969482422
1781034574168992000,14.306991943359375,0.319412499666214,0.14492499828338623,0.4538874924182892
1781034574188519400,14.32651953125,0.319412499666214,0.14492499828338623,0.4538874924182892
1781034574208046000,14.346046142578125,0.05169999971985817,0.5616874694824219,-0.12306249886751175
1781034574227575800,14.365575927734374,0.05169999971985817,0.5616874694824219,-0.12306249886751175
1781034574247102500,14.3851025390625,-0.1498750001192093,0.7749499678611755,-0.3482874929904938
1781034574266627800,14.4046279296875,-0.1498750001192093,0.7749499678611755,-0.3482874929904938
1781034574286156000,14.424156005859375,-0.27816250920295715,0.8196374773979187,-0.31185001134872437
1781034574305682200,14.44368212890625,-0.27816250920295715,0.8196374773979187,-0.31185001134872437
1781034574325206500,14.46320654296875,-0.27816250920295715,0.8196374773979187,-0.31185001134872437
1781034574344731100,14.482731201171875,-0.34031251072883606,0.784850001335144,-0.23017500340938568
1781034574364257500,14.502257568359376,-0.36629998683929443,0.7845749855041504,-0.24131250381469727
1781034574383778300,14.5217783203125,-0.39778751134872437,0.816474974155426,-0.2983750104904175
1781034574403294500,14.54129443359375,-0.39778751134872437,0.816474974155426,-0.2983750104904175
1781034574422812400,14.5608125,-0.4347749948501587,0.9499874711036682,-0.4499000012874603
1781034574442336800,14.580336669921875,-0.4347749948501587,0.9499874711036682,-0.4499000012874603
1781034574461863000,14.59986279296875,-0.3727625012397766,1.0258874893188477,-0.40273749828338623
1781034574481388800,14.619388916015625,-0.3727625012397766,1.0258874893188477,-0.40273749828338623
1781034574500915500,14.63891552734375,-0.4456374943256378,0.7396125197410583,0.07218749821186066
1781034574520441600,14.658441650390625,-0.4456374943256378,0.7396125197410583,0.07218749821186066
1781034574539966500,14.677966552734375,-0.5919374823570251,0.3367374837398529,0.5058624744415283
1781034574559490000,14.697489990234375,-0.5919374823570251,0.3367374837398529,0.5058624744415283
1781034574579013000,14.71701318359375,-0.3195500075817108,0.1671999990940094,0.3455374836921692
1781034574598537200,14.736537109375,-0.3195500075817108,0.1671999990940094,0.3455374836921692
1781034574618066700,14.756066650390625,0.20886249840259552,0.15468749403953552,-0.11275000125169754
1781034574637590800,14.7755908203125,0.20886249840259552,0.15468749403953552,-0.11275000125169754
1781034574657109500,14.795109619140625,0.518512487411499,0.13323749601840973,-0.5160375237464905
1781034574676634400,14.81463427734375,0.518512487411499,0.13323749601840973,-0.5160375237464905
1781034574696163000,14.8341630859375,0.7016624808311462,-0.3310999870300293,-0.521399974822998
1781034574715689700,14.853689697265626,0.7016624808311462,-0.3310999870300293,-0.521399974822998
1781034574735213800,14.8732138671875,0.8056125044822693,-1.241075038909912,-0.22343750298023224
1781034574754730200,14.892730224609375,0.8056125044822693,-1.241075038909912,-0.22343750298023224
1781034574774246400,14.912246337890625,0.6962999701499939,-1.9482375383377075,0.07026249915361404
1781034574793766400,14.931766357421875,0.6962999701499939,-1.9482375383377075,0.07026249915361404
1781034574813289000,14.9512890625,0.4269374907016754,-2.0876624584198,0.06476250290870667
1781034574832813600,14.9708134765625,0.4269374907016754,-2.0876624584198,0.06476250290870667
1781034574852336400,14.99033642578125,0.2400749921798706,-1.8214625120162964,-0.14973749220371246
1781034574871855900,15.00985595703125,0.2400749921798706,-1.8214625120162964,-0.14973749220371246
1781034574891375000,15.029375,0.13695000112056732,-1.2409374713897705,-0.6003249883651733
1781034574910895600,15.0488955078125,0.13695000112056732,-1.2409374713897705,-0.6003249883651733
1781034574930414800,15.068414794921875,-0.04619999974966049,-0.6469374895095825,-0.8867374658584595
1781034574949930800,15.0879306640625,-0.04619999974966049,-0.6469374895095825,-0.8867374658584595
1781034574969442300,15.1074423828125,-0.3246375024318695,-0.22893749177455902,-0.9343125224113464
1781034574988956200,15.1269560546875,-0.3246375024318695,-0.22893749177455902,-0.9343125224113464
1781034575008475000,15.146474853515626,-0.5995000004768372,0.4345000088214874,-1.121999979019165
1781034575027991600,15.165991455078125,-0.5995000004768372,0.4345000088214874,-1.121999979019165
1781034575047509800,15.185509765625,-0.8784874677658081,1.5120874643325806,-1.6799750328063965
1781034575067026000,15.20502587890625,-0.8784874677658081,1.5120874643325806,-1.6799750328063965
1781034575086546000,15.2245458984375,-1.0451375246047974,2.107874870300293,-1.842637538909912
1781034575106067700,15.244067626953125,-1.0451375246047974,2.107874870300293,-1.842637538909912
1781034575125589200,15.26358935546875,-1.0451375246047974,2.107874870300293,-1.842637538909912
1781034575145112300,15.2831123046875,-0.7997000217437744,1.8959875106811523,-1.4228500127792358
1781034575164637200,15.30263720703125,-0.6173750162124634,1.7813124656677246,-1.2733875513076782
1781034575184161300,15.322161376953124,-0.4819374978542328,1.7553249597549438,-1.1877249479293823
1781034575203678700,15.3416787109375,-0.4819374978542328,1.7553249597549438,-1.1877249479293823
1781034575223195400,15.3611953125,-0.2923249900341034,1.6046249866485596,-0.8080874681472778
1781034575242715600,15.380715576171875,-0.2923249900341034,1.6046249866485596,-0.8080874681472778
1781034575262236000,15.40023583984375,-0.04441250115633011,1.1401499509811401,-0.03396249935030937
1781034575281758700,15.4197587890625,-0.04441250115633011,1.1401499509811401,-0.03396249935030937
1781034575301286400,15.439286376953126,0.2110625058412552,0.8424624800682068,0.7518500089645386
1781034575320815000,15.458815185546875,0.2110625058412552,0.8424624800682068,0.7518500089645386
1781034575340342800,15.4783427734375,0.4838624894618988,0.7452499866485596,1.3319624662399292
1781034575359870200,15.4978701171875,0.4838624894618988,0.7452499866485596,1.3319624662399292
1781034575379398100,15.517398193359375,0.8035500049591064,0.7841625213623047,1.538349986076355
1781034575398925800,15.53692578125,0.8035500049591064,0.7841625213623047,1.538349986076355
1781034575418450700,15.55645068359375,1.0316624641418457,0.9442124962806702,1.2614250183105469
1781034575437974000,15.57597412109375,1.0316624641418457,0.9442124962806702,1.2614250183105469
1781034575457497900,15.595497802734375,1.2645875215530396,0.8500249981880188,1.0228625535964966
1781034575477021200,15.615021240234375,1.2645875215530396,0.8500249981880188,1.0228625535964966
1781034575496548400,15.63454833984375,1.374862551689148,0.6917625069618225,0.7680749893188477
1781034575516075000,15.654074951171875,1.374862551689148,0.6917625069618225,0.7680749893188477
1781034575535599400,15.673599365234375,1.2505625486373901,0.8677625060081482,0.3441624939441681
1781034575555121000,15.693120849609375,1.2505625486373901,0.8677625060081482,0.3441624939441681
1781034575574642700,15.712642578125,1.0124125480651855,1.0038875341415405,0.037675000727176666
1781034575594168600,15.73216845703125,1.0124125480651855,1.0038875341415405,0.037675000727176666
1781034575613691600,15.751691650390624,0.7756375074386597,0.7680749893188477,-0.057337500154972076
1781034575633214200,15.771214111328124,0.7756375074386597,0.7680749893188477,-0.057337500154972076
1781034575652738000,15.790738037109374,0.5579749941825867,0.4376625120639801,-0.1942874938249588
1781034575672260400,15.81026025390625,0.5579749941825867,0.4376625120639801,-0.1942874938249588
1781034575691780600,15.829780517578126,0.19827499985694885,0.38032498955726624,-0.47946250438690186
1781034575711297000,15.849297119140624,0.19827499985694885,0.38032498955726624,-0.47946250438690186
1781034575730816500,15.86881640625,-0.26785001158714294,0.516587495803833,-0.7011125087738037
1781034575750335200,15.888335205078125,-0.26785001158714294,0.516587495803833,-0.7011125087738037
1781034575769853400,15.907853515625,-0.7138999700546265,0.5597624778747559,-0.852774977684021
1781034575789373000,15.927373046875,-0.7138999700546265,0.5597624778747559,-0.852774977684021
1781034575808893200,15.94689306640625,-0.944350004196167,0.17902499437332153,-0.7728874683380127
1781034575828418300,15.966418212890625,-1.037024974822998,-0.08483749628067017,-0.6914874911308289
1781034575847945700,15.98594580078125,-1.037024974822998,-0.08483749628067017,-0.6914874911308289
1781034575867467000,16.005467041015624,-1.2330999374389648,-0.48963749408721924,-0.519474983215332
1781034575886989300,16.0249892578125,-1.2330999374389648,-0.48963749408721924,-0.519474983215332
1781034575906510000,16.044510009765624,-1.2846624851226807,-0.9435250163078308,-0.07067500054836273
1781034575926030800,16.06403076171875,-1.2846624851226807,-0.9435250163078308,-0.07067500054836273
1781034575945553400,16.083553466796875,-1.2846624851226807,-0.9435250163078308,-0.07067500054836273
1781034575965075000,16.103074951171877,-1.104949951171875,-1.479087471961975,0.570900022983551
1781034575984595000,16.122594970703126,-0.9722625017166138,-1.6686999797821045,0.8167499899864197
1781034576004113700,16.14211376953125,-0.856487512588501,-1.756700038909912,0.9589250087738037
1781034576023631000,16.161631103515624,-0.856487512588501,-1.756700038909912,0.9589250087738037
1781034576043149300,16.1811494140625,-0.6835125088691711,-1.647112488746643,1.0213500261306763
1781034576062670800,16.2006708984375,-0.6835125088691711,-1.647112488746643,1.0213500261306763
1781034576082193000,16.22019287109375,-0.6909375190734863,-1.2474000453948975,0.7239375114440918
1781034576101720600,16.239720458984376,-0.6909375190734863,-1.2474000453948975,0.7239375114440918
1781034576121249800,16.259249755859376,-0.7578999996185303,-0.7735750079154968,0.4388999938964844
1781034576140776700,16.278776611328126,-0.7578999996185303,-0.7735750079154968,0.4388999938964844
1781034576160303900,16.298303955078126,-0.7645000219345093,-0.33838748931884766,0.3918749988079071
1781034576179831000,16.3178310546875,-0.7645000219345093,-0.33838748931884766,0.3918749988079071
1781034576199353000,16.33735302734375,-0.8199124932289124,0.019112499430775642,0.1896124929189682
1781034576218876700,16.356876708984377,-0.8199124932289124,0.019112499430775642,0.1896124929189682
1781034576238404400,16.376404296875,-0.8305000066757202,0.13488750159740448,0.052937500178813934
1781034576257926000,16.39592578125,-0.8305000066757202,0.13488750159740448,0.052937500178813934
1781034576277449700,16.41544970703125,-0.7093625068664551,0.01484999991953373,0.13667500019073486
1781034576296980000,16.43497998046875,-0.7093625068664551,0.01484999991953373,0.13667500019073486
1781034576316503800,16.45450390625,-0.5075125098228455,-0.20363749563694,0.3568125069141388
1781034576336022800,16.474022705078124,-0.5075125098228455,-0.20363749563694,0.3568125069141388
1781034576355540500,16.49354052734375,-0.3445749878883362,-0.40328750014305115,0.6305750012397766
1781034576375057400,16.513057373046873,-0.3445749878883362,-0.40328750014305115,0.6305750012397766
1781034576394579000,16.532578857421875,-0.25891250371932983,-0.5460125207901001,0.9305999875068665
1781034576414103600,16.552103515625,-0.25891250371932983,-0.5460125207901001,0.9305999875068665
1781034576433626400,16.57162646484375,-0.2554749846458435,-0.6257625222206116,0.9851874709129333
1781034576453150200,16.591150146484374,-0.2554749846458435,-0.6257625222206116,0.9851874709129333
1781034576472671500,16.61067138671875,-0.28380000591278076,-0.6021124720573425,0.736175000667572
1781034576492192300,16.630192138671877,-0.28380000591278076,-0.6021124720573425,0.736175000667572
1781034576511714600,16.649714599609375,-0.21559999883174896,-0.5252500176429749,0.6171000003814697
1781034576531238400,16.66923828125,-0.21559999883174896,-0.5252500176429749,0.6171000003814697
1781034576550765800,16.688765869140624,-0.04977500066161156,-0.4787749946117401,0.6663249731063843
1781034576570291500,16.70829150390625,-0.04977500066161156,-0.4787749946117401,0.6663249731063843
1781034576589814000,16.72781396484375,0.16637499630451202,-0.4295499920845032,0.7426375150680542
1781034576609338600,16.747338623046875,0.16637499630451202,-0.4295499920845032,0.7426375150680542
1781034576628860200,16.766860107421873,0.3881624937057495,-0.3601124882698059,0.785812497138977
1781034576648377900,16.7863779296875,0.3881624937057495,-0.3601124882698059,0.785812497138977
1781034576667895600,16.8058955078125,0.5497249960899353,-0.3104749917984009,0.7694500088691711
1781034576687413500,16.82541357421875,0.5497249960899353,-0.3104749917984009,0.7694500088691711
1781034576706930400,16.844930419921877,0.6168249845504761,-0.284074991941452,0.7965375185012817
1781034576726448600,16.86444873046875,0.6168249845504761,-0.284074991941452,0.7965375185012817
1781034576745968000,16.883968017578123,0.5945500135421753,-0.24089999496936798,0.8061624765396118
1781034576765487600,16.903487548828124,0.5945500135421753,-0.24089999496936798,0.8061624765396118
1781034576785006300,16.92300634765625,0.5730999708175659,-0.20019999146461487,0.7706875205039978
1781034576804525600,16.942525634765627,0.558662474155426,-0.14423750340938568,0.6897000074386597
1781034576824048600,16.962048583984377,0.5553625226020813,-0.06641250103712082,0.5571500062942505
1781034576843571000,16.981571044921875,0.5553625226020813,-0.06641250103712082,0.5571500062942505
1781034576863089000,17.0010888671875,0.5605875253677368,0.13750000298023224,0.16940000653266907
1781034576882609700,17.020609619140625,0.5605875253677368,0.13750000298023224,0.16940000653266907
1781034576902131700,17.040131591796875,0.5678749680519104,0.31638750433921814,-0.20418749749660492
1781034576921651000,17.05965087890625,0.5678749680519104,0.31638750433921814,-0.20418749749660492
1781034576941169000,17.0791689453125,0.5788750052452087,0.550962507724762,-0.5689749717712402
1781034576960685800,17.098685791015626,0.5788750052452087,0.550962507724762,-0.5689749717712402
1781034576980204800,17.118204833984375,0.6146249771118164,0.7346624732017517,-0.6197124719619751
1781034576999729200,17.137729248046874,0.6146249771118164,0.7346624732017517,-0.6197124719619751
1781034577019248000,17.157248046875,0.6452875137329102,0.6157249808311462,-0.2890250086784363
1781034577038765800,17.176765869140624,0.6452875137329102,0.6157249808311462,-0.2890250086784363
1781034577058287600,17.19628759765625,0.5981249809265137,0.3489750027656555,-0.018562499433755875
1781034577077808400,17.215808349609375,0.5981249809265137,0.3489750027656555,-0.018562499433755875
1781034577097327000,17.2353271484375,0.5522000193595886,0.1396999955177307,0.16005000472068787
1781034577116844800,17.2548447265625,0.5522000193595886,0.1396999955177307,0.16005000472068787
1781034577136367000,17.2743671875,0.5310249924659729,0.012924999929964542,0.057750001549720764
1781034577155885800,17.2938857421875,0.5310249924659729,0.012924999929964542,0.057750001549720764
1781034577175405800,17.31340576171875,0.5291000008583069,-0.1434125006198883,-0.07507500052452087
1781034577194924000,17.332924072265627,0.5291000008583069,-0.1434125006198883,-0.07507500052452087
1781034577214435600,17.352435546875,0.5124624967575073,-0.3474625051021576,-0.02928750030696392
1781034577233950500,17.371950439453126,0.5124624967575073,-0.3474625051021576,-0.02928750030696392
1781034577253470700,17.391470703125,0.49431249499320984,-0.49582499265670776,0.19139999151229858
1781034577272990500,17.410990478515625,0.49431249499320984,-0.49582499265670776,0.19139999151229858
1781034577292511200,17.43051123046875,0.48633748292922974,-0.439175009727478,0.2671625018119812
1781034577312035000,17.45003515625,0.48633748292922974,-0.439175009727478,0.2671625018119812
1781034577331562200,17.469562255859376,0.4760249853134155,-0.16376249492168427,0.10257499665021896
1781034577351089000,17.4890888671875,0.4760249853134155,-0.16376249492168427,0.10257499665021896
1781034577370613000,17.508613037109374,0.3796375095844269,0.3086875081062317,-0.2829749882221222
1781034577390138600,17.528138671875,0.3796375095844269,0.3086875081062317,-0.2829749882221222
1781034577409664500,17.54766455078125,0.1387374997138977,0.9194625020027161,-0.8757374882698059
1781034577429187600,17.5671875,0.1387374997138977,0.9194625020027161,-0.8757374882698059
1781034577448711700,17.586711669921876,-0.17820000648498535,1.4631375074386597,-1.4000250101089478
1781034577468232200,17.606232177734373,-0.17820000648498535,1.4631375074386597,-1.4000250101089478
1781034577487746000,17.62574609375,-0.455949991941452,1.7363499402999878,-1.5805624723434448
1781034577507259600,17.645259765625,-0.455949991941452,1.7363499402999878,-1.5805624723434448
1781034577526781400,17.664781494140627,-0.6374499797821045,1.73208749294281,-1.4822499752044678
1781034577546307300,17.684307373046874,-0.6374499797821045,1.73208749294281,-1.4822499752044678
1781034577565830100,17.703830078125,-0.7548750042915344,1.5604875087738037,-1.3303124904632568
1781034577585351200,17.72335107421875,-0.7548750042915344,1.5604875087738037,-1.3303124904632568
1781034577604871700,17.74287158203125,-0.7847124934196472,1.4042874574661255,-1.2128875255584717
1781034577624388900,17.762388916015624,-0.768762469291687,1.1743874549865723,-1.0258874893188477
1781034577643909000,17.7819091796875,-0.6872249841690063,0.859375,-0.7874624729156494
1781034577663434200,17.801434326171876,-0.6872249841690063,0.859375,-0.7874624729156494
1781034577682957600,17.82095751953125,-0.3634124994277954,0.1905750036239624,-0.4329875111579895
1781034577702478800,17.840478759765624,-0.3634124994277954,0.1905750036239624,-0.4329875111579895
1781034577722000600,17.860000732421874,-0.0812624990940094,0.05939999967813492,-0.454987496137619
1781034577741523700,17.879523681640624,-0.0812624990940094,0.05939999967813492,-0.454987496137619
1781034577761051600,17.8990517578125,0.2227499932050705,-0.0826374962925911,-0.36162498593330383
1781034577780579600,17.91857958984375,0.2227499932050705,-0.0826374962925911,-0.36162498593330383
1781034577800105500,17.93810546875,0.7132124900817871,-0.8706499934196472,-0.007974999956786633
1781034577819637200,17.95763720703125,0.7132124900817871,-0.8706499934196472,-0.007974999956786633
1781034577839164200,17.9771640625,1.0262999534606934,-1.8589999675750732,0.49018749594688416
1781034577858688800,17.996688720703126,1.0262999534606934,-1.8589999675750732,0.49018749594688416
1781034577878215000,18.01621484375,0.9216625094413757,-2.469362497329712,0.9026874899864197
1781034577897739500,18.035739501953124,0.9216625094413757,-2.469362497329712,0.9026874899864197
1781034577917261300,18.05526123046875,0.7233874797821045,-2.7002248764038086,1.104812502861023
1781034577936782800,18.074782958984375,0.7233874797821045,-2.7002248764038086,1.104812502861023
1781034577956304100,18.09430419921875,0.5608624815940857,-2.506350040435791,0.9564499855041504
1781034577975830000,18.113830078125,0.5608624815940857,-2.506350040435791,0.9564499855041504
1781034577995356200,18.133356201171875,0.3484250009059906,-1.5206124782562256,0.33041250705718994
1781034578014881000,18.152881103515625,0.3484250009059906,-1.5206124782562256,0.33041250705718994
1781034578034410500,18.172410400390625,0.0826374962925911,0.04427500069141388,-0.6202625036239624
1781034578053939200,18.191939208984376,0.0826374962925911,0.04427500069141388,-0.6202625036239624
1781034578073467100,18.211467041015624,-0.19483749568462372,1.4664374589920044,-1.3344374895095825
1781034578092991000,18.230990966796874,-0.19483749568462372,1.4664374589920044,-1.3344374895095825
1781034578112510700,18.2505107421875,-0.4298250079154968,2.1360623836517334,-1.5768499374389648
1781034578132033000,18.270032958984373,-0.4298250079154968,2.1360623836517334,-1.5768499374389648
1781034578151557400,18.289557373046875,-0.5484874844551086,2.5830750465393066,-1.2733875513076782
1781034578171085300,18.309085205078127,-0.5484874844551086,2.5830750465393066,-1.2733875513076782
1781034578190609000,18.32860888671875,-0.9490249752998352,3.342900037765503,-1.5879875421524048
1781034578210135300,18.34813525390625,-0.9490249752998352,3.342900037765503,-1.5879875421524048
1781034578229667800,18.367667724609376,-0.4086500108242035,3.4649999141693115,-0.6351125240325928
1781034578249194800,18.38719482421875,-0.4086500108242035,3.4649999141693115,-0.6351125240325928
1781034578268719400,18.40671923828125,-0.07039999961853027,2.4605624675750732,-0.018975000828504562
1781034578288246300,18.426246337890625,-0.07039999961853027,2.4605624675750732,-0.018975000828504562
1781034578307776800,18.44577685546875,-0.27665001153945923,0.7669749855995178,-0.33274999260902405
1781034578327307300,18.465307373046876,-0.27665001153945923,0.7669749855995178,-0.33274999260902405
1781034578346831000,18.4848310546875,-0.27665001153945923,0.7669749855995178,-0.33274999260902405
1781034578366351000,18.50435107421875,-0.10119999945163727,-0.943387508392334,0.13227500021457672
1781034578385876200,18.523876220703126,-0.1050499975681305,-2.121350049972534,0.9527375102043152
1781034578405406500,18.543406494140626,-0.1050499975681305,-2.121350049972534,0.9527375102043152
1781034578424934000,18.562933837890625,-0.18342499434947968,-2.400749921798706,1.3087249994277954
1781034578444455400,18.582455322265623,-0.2574000060558319,-2.495349884033203,1.5723124742507935
1781034578463978800,18.601978759765625,-0.29301249980926514,-2.4656500816345215,1.7426749467849731
1781034578483499500,18.62149951171875,-0.29301249980926514,-2.4656500816345215,1.7426749467849731
1781034578503018500,18.6410185546875,-0.19634999334812164,-2.2290124893188477,1.899150013923645
1781034578522534700,18.66053466796875,-0.19634999334812164,-2.2290124893188477,1.899150013923645
1781034578542047500,18.680047607421876,0.02461249940097332,-1.81802499294281,1.802762508392334
1781034578561563400,18.6995634765625,0.02461249940097332,-1.81802499294281,1.802762508392334
1781034578581083100,18.719083251953126,0.1480875015258789,-1.0971125364303589,1.1187000274658203
1781034578600602400,18.738602294921876,0.1480875015258789,-1.0971125364303589,1.1187000274658203
1781034578620120000,18.7581201171875,0.045375000685453415,-0.195250004529953,0.41635000705718994
1781034578639640300,18.777640380859374,0.045375000685453415,-0.195250004529953,0.41635000705718994
1781034578659158800,18.79715869140625,-0.12581250071525574,0.43821248412132263,0.17242500185966492
1781034578678681900,18.816681884765625,-0.12581250071525574,0.43821248412132263,0.17242500185966492
1781034578698209000,18.836208984375,-0.11962500214576721,0.9644249677658081,-0.14739999175071716
1781034578717730300,18.855730224609374,-0.11962500214576721,0.9644249677658081,-0.14739999175071716
1781034578737248500,18.87524853515625,0.09817499667406082,1.4077249765396118,-0.48881250619888306
1781034578756766200,18.89476611328125,0.09817499667406082,1.4077249765396118,-0.48881250619888306
1781034578776281900,18.91428173828125,0.3596999943256378,1.6861624717712402,-0.7970874905586243
1781034578795794000,18.9337939453125,0.3596999943256378,1.6861624717712402,-0.7970874905586243
1781034578815307300,18.953307373046876,0.46681249141693115,1.804824948310852,-0.8601999878883362
1781034578834824200,18.97282421875,0.46681249141693115,1.804824948310852,-0.8601999878883362
1781034578854341400,18.99234130859375,0.4940375089645386,1.509887456893921,-0.41635000705718994
1781034578873863700,19.01186376953125,0.4940375089645386,1.509887456893921,-0.41635000705718994
1781034578893386800,19.03138671875,0.6142125129699707,0.754462480545044,0.37386250495910645
1781034578912905500,19.050905517578126,0.6142125129699707,0.754462480545044,0.37386250495910645
1781034578932426800,19.0704267578125,0.7651875019073486,-0.0004124999977648258,1.1196625232696533
1781034578951948300,19.0899482421875,0.7651875019073486,-0.0004124999977648258,1.1196625232696533
1781034578971470300,19.10947021484375,0.7115625143051147,-0.13392500579357147,1.313812494277954
1781034578990989300,19.1289892578125,0.7115625143051147,-0.13392500579357147,1.313812494277954
1781034579010508300,19.14850830078125,0.4927999973297119,0.14547500014305115,0.993987500667572
1781034579030030300,19.1680302734375,0.4927999973297119,0.14547500014305115,0.993987500667572
1781034579049551600,19.187551513671874,0.41813749074935913,0.22893749177455902,0.7821000218391418
1781034579069074000,19.207073974609376,0.41813749074935913,0.22893749177455902,0.7821000218391418
1781034579088596500,19.226596435546874,0.49321249127388,0.03492499887943268,0.7262749671936035
1781034579108119000,19.246119140625,0.49321249127388,0.03492499887943268,0.7262749671936035
1781034579127638000,19.265637939453125,0.5885000228881836,-0.2881999909877777,0.668524980545044
1781034579147150800,19.28515087890625,0.5885000228881836,-0.2881999909877777,0.668524980545044
1781034579166667800,19.304667724609374,0.5885000228881836,-0.2881999909877777,0.668524980545044
1781034579186186000,19.32418603515625,0.6524375081062317,-0.5119125247001648,0.610087513923645
1781034579205703400,19.343703369140623,0.6524375081062317,-0.5119125247001648,0.610087513923645
1781034579225223000,19.363222900390625,0.4394499957561493,-0.22756250202655792,0.2722499966621399
1781034579244745700,19.382745849609375,0.25437501072883606,0.0471624992787838,0.030112499371170998
1781034579264270800,19.402270751953125,0.07672499865293503,0.3030500113964081,-0.19648750126361847
1781034579283795000,19.421794921875,0.07672499865293503,0.3030500113964081,-0.19648750126361847
1781034579303319600,19.441319580078126,-0.2957625091075897,0.6906625032424927,-0.5779125094413757
1781034579322845700,19.460845703125,-0.2957625091075897,0.6906625032424927,-0.5779125094413757
1781034579342374000,19.480373779296876,-0.5713124871253967,0.5872625112533569,-0.6408874988555908
1781034579361898200,19.499898193359375,-0.5713124871253967,0.5872625112533569,-0.6408874988555908
1781034579381423400,19.51942333984375,-0.6676999926567078,0.16073749959468842,-0.47464999556541443
1781034579400948200,19.5389482421875,-0.6676999926567078,0.16073749959468842,-0.47464999556541443
1781034579420466000,19.5584658203125,-0.8478249907493591,-0.13144999742507935,-0.2237125039100647
1781034579439985400,19.5779853515625,-0.8478249907493591,-0.13144999742507935,-0.2237125039100647
1781034579459507700,19.5975078125,-0.975012481212616,-0.34113749861717224,0.062150001525878906
1781034579479033900,19.617033935546875,-0.975012481212616,-0.34113749861717224,0.062150001525878906
1781034579498562000,19.63656201171875,-0.9855999946594238,-0.4010874927043915,0.02667500078678131
1781034579518088700,19.656088623046877,-0.9855999946594238,-0.4010874927043915,0.02667500078678131
1781034579537613600,19.675613525390624,-0.9081875085830688,-0.4047999978065491,-0.16321249306201935
1781034579557135600,19.695135498046874,-0.9081875085830688,-0.4047999978065491,-0.16321249306201935
1781034579576655000,19.714655029296875,-0.7255874872207642,-0.4620000123977661,-0.2246749997138977
1781034579596178200,19.73417822265625,-0.7255874872207642,-0.4620000123977661,-0.2246749997138977
1781034579615703300,19.753703369140624,-0.612975001335144,-0.5161749720573425,-0.3951750099658966
1781034579635224300,19.773224365234373,-0.612975001335144,-0.5161749720573425,-0.3951750099658966
1781034579654744000,19.792744140625,-0.4856500029563904,-0.5575624704360962,-0.258774995803833
1781034579674262300,19.81226220703125,-0.4856500029563904,-0.5575624704360962,-0.258774995803833
1781034579693782000,19.831781982421877,-0.5271750092506409,-0.4692874848842621,-0.21986250579357147
1781034579713305900,19.851305908203123,-0.5271750092506409,-0.4692874848842621,-0.21986250579357147
1781034579732830500,19.87083056640625,-0.6841999888420105,-0.3357749879360199,-0.2750000059604645
1781034579752354600,19.8903544921875,-0.6841999888420105,-0.3357749879360199,-0.2750000059604645
1781034579771875000,19.909875,-0.7407125234603882,-0.21559999883174896,-0.17861250042915344
1781034579791391000,19.929390869140626,-0.7407125234603882,-0.21559999883174896,-0.17861250042915344
1781034579810913000,19.9489130859375,-0.6930000185966492,-0.17503750324249268,-0.02956249937415123
1781034579830435300,19.968435302734374,-0.6930000185966492,-0.17503750324249268,-0.02956249937415123
1781034579849958000,19.9879580078125,-0.5043500065803528,-0.17998750507831573,0.2778874933719635
1781034579869480700,20.007480712890626,-0.5043500065803528,-0.17998750507831573,0.2778874933719635
1781034579889001500,20.02700146484375,-0.2747249901294708,-0.1050499975681305,0.2788499891757965
1781034579908523500,20.0465234375,-0.2747249901294708,-0.1050499975681305,0.2788499891757965
1781034579928044300,20.066044189453127,-0.07809999585151672,-0.05238749831914902,-0.05555000156164169
1781034579947568600,20.085568603515625,-0.07809999585151672,-0.05238749831914902,-0.05555000156164169
1781034579967092700,20.1050927734375,-0.07809999585151672,-0.05238749831914902,-0.05555000156164169
1781034579986612000,20.124612060546873,0.18301250040531158,-0.20817500352859497,-0.23237499594688416
1781034580006132700,20.1441328125,0.3465000092983246,-0.3684999942779541,-0.22055000066757202
1781034580025653500,20.163653564453124,0.3465000092983246,-0.3684999942779541,-0.22055000066757202
1781034580045173500,20.183173583984374,0.6184750199317932,-0.6997374892234802,-0.1498750001192093
1781034580064694800,20.20269482421875,0.7063375115394592,-0.8320124745368958,-0.06503749638795853
1781034580084215300,20.22221533203125,0.7694500088691711,-0.9421499967575073,0.07232499867677689
1781034580103736300,20.241736328125,0.7694500088691711,-0.9421499967575073,0.07232499867677689
1781034580123258400,20.26125830078125,0.8332499861717224,-1.0775874853134155,0.3823874890804291
1781034580142783200,20.280783203125,0.8332499861717224,-1.0775874853134155,0.3823874890804291
1781034580162307800,20.300307861328125,0.682824969291687,-1.0804749727249146,0.6683874726295471
1781034580181829600,20.31982958984375,0.682824969291687,-1.0804749727249146,0.6683874726295471
1781034580201352700,20.339352783203125,0.38362500071525574,-1.005674958229065,0.988349974155426
1781034580220875000,20.358875,0.38362500071525574,-1.005674958229065,0.988349974155426
1781034580240399400,20.3783994140625,0.3657499849796295,-0.940500020980835,1.290162444114685
1781034580259922400,20.39792236328125,0.3657499849796295,-0.940500020980835,1.290162444114685
1781034580279443000,20.41744287109375,0.19415000081062317,-0.777287483215332,1.3638625144958496
1781034580298966500,20.436966552734376,0.19415000081062317,-0.777287483215332,1.3638625144958496
1781034580318491400,20.456491455078126,0.14932499825954437,-0.3335750102996826,1.0583374500274658
1781034580338017500,20.476017578125,0.14932499825954437,-0.3335750102996826,1.0583374500274658
1781034580357545200,20.495545166015624,0.2745875120162964,0.3676750063896179,0.5616874694824219
1781034580377071600,20.515071533203123,0.2745875120162964,0.3676750063896179,0.5616874694824219
1781034580396594200,20.53459423828125,0.41827499866485596,0.8592374920845032,0.259737491607666
1781034580416114400,20.554114501953126,0.41827499866485596,0.8592374920845032,0.259737491607666
1781034580435637800,20.5736376953125,0.4856500029563904,0.8276125192642212,0.28751251101493835
1781034580455161900,20.593161865234375,0.4856500029563904,0.8276125192642212,0.28751251101493835
1781034580474681900,20.612681884765625,0.4433000087738037,0.6734749674797058,0.24021250009536743
1781034580494201900,20.632201904296874,0.4433000087738037,0.6734749674797058,0.24021250009536743
1781034580513719800,20.6517197265625,0.31267499923706055,0.7500625252723694,-0.04152499884366989
1781034580533236000,20.671236083984375,0.31267499923706055,0.7500625252723694,-0.04152499884366989
1781034580552756700,20.6907568359375,0.15289999544620514,0.946274995803833,-0.32848748564720154
1781034580572284400,20.710284423828124,0.15289999544620514,0.946274995803833,-0.32848748564720154
1781034580591807200,20.72980712890625,0.015537500381469727,1.0296000242233276,-0.49939998984336853
1781034580611325000,20.749324951171875,0.015537500381469727,1.0296000242233276,-0.49939998984336853
1781034580630845400,20.768845458984377,-0.0873124971985817,0.9563124775886536,-0.5302000045776367
1781034580650363100,20.788363037109374,-0.0873124971985817,0.9563124775886536,-0.5302000045776367
1781034580669874400,20.80787451171875,-0.1868624985218048,0.8419125080108643,-0.49211248755455017
1781034580689387500,20.827387451171877,-0.1868624985218048,0.8419125080108643,-0.49211248755455017
1781034580708905200,20.8469052734375,-0.320374995470047,0.8305000066757202,-0.46488749980926514
1781034580728428500,20.866428466796876,-0.39338749647140503,0.867900013923645,-0.426800012588501
1781034580747950800,20.885950927734374,-0.39338749647140503,0.867900013923645,-0.426800012588501
1781034580767474400,20.905474365234376,-0.5077875256538391,0.9373375177383423,-0.31831249594688416
1781034580787000800,20.925000732421875,-0.5077875256538391,0.9373375177383423,-0.31831249594688416
1781034580806525000,20.94452490234375,-0.4998124837875366,0.8515374660491943,-0.17311249673366547
1781034580826050300,20.96405029296875,-0.4998124837875366,0.8515374660491943,-0.17311249673366547
1781034580845573600,20.98357373046875,-0.4998124837875366,0.8515374660491943,-0.17311249673366547
1781034580865094100,21.00309423828125,-0.29727500677108765,0.4362874925136566,0.20583750307559967
1781034580884614700,21.02261474609375,-0.1251250058412552,0.08442500233650208,0.47244998812675476
1781034580904134100,21.042134033203126,0.055275000631809235,-0.2961750030517578,0.6958875060081482
1781034580923654700,21.061654541015624,0.055275000631809235,-0.2961750030517578,0.6958875060081482
1781034580943172000,21.081172119140625,0.3936625123023987,-0.8916875123977661,0.8007999658584595
1781034580962691800,21.10069189453125,0.3936625123023987,-0.8916875123977661,0.8007999658584595
1781034580982215700,21.120215576171876,0.8958125114440918,-1.565850019454956,0.984499990940094
1781034581001738500,21.139738525390626,0.8958125114440918,-1.565850019454956,0.984499990940094
1781034581021261800,21.15926171875,1.1847000122070312,-2.190924882888794,1.298550009727478
1781034581040785400,21.178785400390623,1.1847000122070312,-2.190924882888794,1.298550009727478
1781034581060309000,21.19830908203125,1.0239624977111816,-2.0559000968933105,0.9623624682426453
1781034581079832300,21.217832275390624,1.0239624977111816,-2.0559000968933105,0.9623624682426453
1781034581099355100,21.237355224609374,0.7528125047683716,-1.3281124830245972,0.2582249939441681
1781034581118877400,21.25687744140625,0.7528125047683716,-1.3281124830245972,0.2582249939441681
1781034581138399700,21.276399658203125,0.38651248812675476,-0.5902875065803528,-0.42102500796318054
1781034581157923300,21.29592333984375,0.38651248812675476,-0.5902875065803528,-0.42102500796318054
1781034581177446700,21.31544677734375,-0.29411250352859497,-0.20776249468326569,-0.6708624958992004
1781034581196972500,21.33497265625,-0.29411250352859497,-0.20776249468326569,-0.6708624958992004
1781034581216503000,21.3545029296875,-0.9875249862670898,-0.005912499967962503,-0.9200124740600586
1781034581236027100,21.374027099609375,-0.9875249862670898,-0.005912499967962503,-0.9200124740600586
1781034581255547600,21.393547607421876,-1.2324124574661255,-0.15138749778270721,-0.8948500156402588
1781034581275066600,21.413066650390626,-1.2324124574661255,-0.15138749778270721,-0.8948500156402588
1781034581294583000,21.4325830078125,-1.1188374757766724,-1.0608124732971191,-0.005499999970197678
1781034581314097200,21.45209716796875,-1.1188374757766724,-1.0608124732971191,-0.005499999970197678
1781034581333610800,21.47161083984375,-0.8490625023841858,-1.623324990272522,0.1414874941110611
1781034581353127000,21.491126953125,-0.8490625023841858,-1.623324990272522,0.1414874941110611
1781034581372647400,21.5106474609375,-0.3240875005722046,-0.5559124946594238,-1.3652374744415283
1781034581392171000,21.5301708984375,-0.3240875005722046,-0.5559124946594238,-1.3652374744415283
1781034581411696400,21.5496962890625,0.030937500298023224,0.6529874801635742,-3.043287515640259
1781034581431217200,21.569217041015627,0.030937500298023224,0.6529874801635742,-3.043287515640259
1781034581450736600,21.588736572265624,0.38940000534057617,1.4814250469207764,-3.3041250705718994
1781034581470262000,21.608261962890627,0.38940000534057617,1.4814250469207764,-3.3041250705718994
1781034581489794300,21.627794189453127,0.7463499903678894,1.9404000043869019,-2.6903250217437744
1781034581509329000,21.647328857421876,0.7463499903678894,1.9404000043869019,-2.6903250217437744
1781034581528860700,21.666860595703124,0.6916249990463257,2.2882750034332275,-2.183912515640259
1781034581548387000,21.686386962890627,0.6916249990463257,2.2882750034332275,-2.183912515640259
1781034581567908000,21.705908203125,0.6916249990463257,2.2882750034332275,-2.183912515640259
1781034581587429000,21.72542919921875,0.3302749991416931,2.5071749687194824,-1.5824874639511108
1781034581606954000,21.7449541015625,0.3302749991416931,2.5071749687194824,-1.5824874639511108
1781034581626475800,21.764475830078126,0.06558749824762344,1.9258249998092651,-0.6324999928474426
1781034581645998300,21.783998291015624,0.17022499442100525,0.7328749895095825,0.5135625004768372
1781034581665526000,21.803526123046876,0.17022499442100525,0.7328749895095825,0.5135625004768372
1781034581685054700,21.8230546875,0.31652501225471497,0.19346250593662262,1.0403250455856323
1781034581704584200,21.842584228515626,0.4740999937057495,-0.18108749389648438,1.4843125343322754
1781034581724112000,21.86211181640625,0.606374979019165,-0.35337498784065247,1.7947875261306763
1781034581743636200,21.88163623046875,0.606374979019165,-0.35337498784065247,1.7947875261306763
1781034581763164200,21.9011640625,0.7136250138282776,-0.2539624869823456,1.9772499799728394
1781034581782693600,21.920693603515623,0.7136250138282776,-0.2539624869823456,1.9772499799728394
1781034581802218200,21.94021826171875,0.6699000000953674,0.01677500084042549,1.9340749979019165
1781034581821744000,21.959744140625,0.6699000000953674,0.01677500084042549,1.9340749979019165
1781034581841269000,21.97926904296875,0.42996248602867126,0.5242875218391418,1.5475624799728394
1781034581860789800,21.998789794921876,0.42996248602867126,0.5242875218391418,1.5475624799728394
1781034581880313900,22.01831396484375,0.21848750114440918,0.9871125221252441,1.0469249486923218
1781034581899845000,22.03784521484375,0.21848750114440918,0.9871125221252441,1.0469249486923218
1781034581919375600,22.057375732421875,0.367125004529953,0.9461374878883362,0.8534625172615051
1781034581938901800,22.07690185546875,0.367125004529953,0.9461374878883362,0.8534625172615051
1781034581958425900,22.09642578125,0.821150004863739,0.18548749387264252,1.0058125257492065
1781034581977946600,22.115946533203125,0.821150004863739,0.18548749387264252,1.0058125257492065
1781034581997468700,22.13546875,0.7804499864578247,-0.7046874761581421,0.5330874919891357
1781034582016992500,22.154992431640625,0.7804499864578247,-0.7046874761581421,0.5330874919891357
1781034582036509700,22.174509765625,0.8728500008583069,-0.681862473487854,0.4871625006198883
1781034582056025000,22.194025146484375,0.8728500008583069,-0.681862473487854,0.4871625006198883
1781034582075544600,22.213544677734376,0.2579500079154968,0.45608749985694885,-0.14093749225139618
1781034582095063800,22.233063720703125,0.2579500079154968,0.45608749985694885,-0.14093749225139618
1781034582114582000,22.25258203125,-0.42748749256134033,1.6644375324249268,-0.6121500134468079
1781034582134104000,22.27210400390625,-0.42748749256134033,1.6644375324249268,-0.6121500134468079
1781034582153628000,22.2916279296875,-0.5138375163078308,1.94246244430542,-0.5810750126838684
1781034582173150500,22.311150390625,-0.5138375163078308,1.94246244430542,-0.5810750126838684
1781034582192671200,22.330671142578126,-0.28984999656677246,1.789562463760376,-0.4647499918937683
1781034582212194000,22.350194091796876,-0.28984999656677246,1.789562463760376,-0.4647499918937683
1781034582231720000,22.369719970703127,-0.2498375028371811,1.7308499813079834,-0.35997501015663147
1781034582251246000,22.38924609375,-0.2498375028371811,1.7308499813079834,-0.35997501015663147
1781034582270772000,22.40877197265625,-0.23938749730587006,1.5195125341415405,-0.18535000085830688
1781034582290296800,22.428296875,-0.23938749730587006,1.5195125341415405,-0.18535000085830688
1781034582309819400,22.4478193359375,-0.006874999962747097,0.8523625135421753,-0.06544999778270721
1781034582329340200,22.467340087890626,-0.006874999962747097,0.8523625135421753,-0.06544999778270721
1781034582348858000,22.486858154296876,0.41909998655319214,-0.06173750013113022,0.03368749842047691
1781034582368374300,22.506374267578124,0.6069250106811523,-0.4571875035762787,0.08524999767541885
1781034582387894800,22.525894775390626,0.6069250106811523,-0.4571875035762787,0.08524999767541885
1781034582407420700,22.545420654296876,0.7723374962806702,-0.9480624794960022,0.17861250042915344
1781034582426944500,22.564944580078127,0.7723374962806702,-0.9480624794960022,0.17861250042915344
1781034582446467800,22.5844677734375,0.45278748869895935,-0.7442874908447266,0.11096250265836716
1781034582465991400,22.603991455078123,0.45278748869895935,-0.7442874908447266,0.11096250265836716
1781034582485516500,22.6235166015625,0.45278748869895935,-0.7442874908447266,0.11096250265836716
1781034582505047600,22.643047607421874,-0.1788875013589859,-0.17971250414848328,-0.13392500579357147
1781034582524582700,22.662582763671875,-0.41909998655319214,-0.037950001657009125,-0.22811250388622284
1781034582544114400,22.682114501953127,-0.5511000156402588,-0.03258749842643738,-0.2657875120639801
1781034582563641000,22.70164111328125,-0.5511000156402588,-0.03258749842643738,-0.2657875120639801
1781034582583163600,22.72116357421875,-0.6403374671936035,-0.1260875016450882,-0.255887508392334
1781034582602684700,22.7406845703125,-0.6403374671936035,-0.1260875016450882,-0.255887508392334
1781034582622210800,22.7602109375,-0.8883875012397766,-0.01732499897480011,-0.3385249972343445
1781034582641736700,22.77973681640625,-0.8883875012397766,-0.01732499897480011,-0.3385249972343445
1781034582661254100,22.799254150390624,-1.2542749643325806,0.11838749796152115,-0.4879874885082245
1781034582680771000,22.81877099609375,-1.2542749643325806,0.11838749796152115,-0.4879874885082245
1781034582700294700,22.838294677734375,-1.348462462425232,0.06655000150203705,-0.5091624855995178
1781034582719825000,22.857824951171875,-1.348462462425232,0.06655000150203705,-0.5091624855995178
1781034582739359700,22.87735986328125,-1.187037467956543,-0.1247124969959259,-0.4235000014305115
1781034582758893800,22.896893798828124,-1.187037467956543,-0.1247124969959259,-0.4235000014305115
1781034582778421000,22.9164208984375,-0.9945374727249146,-0.30002498626708984,-0.3096500039100647
1781034582797944300,22.9359443359375,-0.9945374727249146,-0.30002498626708984,-0.3096500039100647
1781034582817471000,22.955470947265624,-0.8998000025749207,-0.4002625048160553,-0.22673749923706055
1781034582836996400,22.974996337890627,-0.8998000025749207,-0.4002625048160553,-0.22673749923706055
1781034582856521000,22.99452099609375,-0.8130375146865845,-0.5313000082969666,-0.07383749634027481
1781034582876048000,23.0140478515625,-0.8130375146865845,-0.5313000082969666,-0.07383749634027481
1781034582895575000,23.033574951171875,-0.6986374855041504,-0.7006999850273132,0.16224999725818634
1781034582915098600,23.0530986328125,-0.6986374855041504,-0.7006999850273132,0.16224999725818634
1781034582934622200,23.072622314453124,-0.559624969959259,-0.8540124893188477,0.41263750195503235
1781034582954147600,23.092147705078126,-0.559624969959259,-0.8540124893188477,0.41263750195503235
1781034582973669400,23.11166943359375,-0.40796250104904175,-0.9757000207901001,0.610087513923645
1781034582993189000,23.131189208984374,-0.40796250104904175,-0.9757000207901001,0.610087513923645
1781034583012713500,23.15071337890625,-0.22151249647140503,-1.0639749765396118,0.8102874755859375
1781034583032237800,23.17023779296875,-0.22151249647140503,-1.0639749765396118,0.8102874755859375
1781034583051760400,23.189760498046876,-0.09611249715089798,-1.0720875263214111,0.9741874933242798
1781034583071284700,23.20928466796875,-0.09611249715089798,-1.0720875263214111,0.9741874933242798
1781034583090811400,23.228811279296874,-0.09927500039339066,-0.9869750142097473,1.090649962425232
1781034583110339800,23.24833984375,-0.09927500039339066,-0.9869750142097473,1.090649962425232
1781034583129868800,23.267868896484377,-0.1046374961733818,-0.9077749848365784,1.3161499500274658
1781034583149395200,23.287395263671876,-0.1046374961733818,-0.9077749848365784,1.3161499500274658
1781034583168916200,23.306916259765625,-0.10587500035762787,-0.812624990940094,1.4019500017166138
1781034583188435000,23.32643505859375,-0.09844999760389328,-0.7433249950408936,1.3667500019073486
1781034583207960000,23.3459599609375,-0.09844999760389328,-0.7433249950408936,1.3667500019073486
1781034583227483400,23.3654833984375,-0.055412501096725464,-0.5961999893188477,1.2622499465942383
1781034583246999800,23.384999755859376,-0.055412501096725464,-0.5961999893188477,1.2622499465942383
1781034583266523100,23.404523193359374,-0.028187500312924385,-0.46681249141693115,1.0861124992370605
1781034583286054000,23.424053955078126,-0.028187500312924385,-0.46681249141693115,1.0861124992370605
1781034583305582000,23.44358203125,-0.028187500312924385,-0.46681249141693115,1.0861124992370605
1781034583325108500,23.4631083984375,0.00013749999925494194,-0.3969624936580658,0.8566250205039978
1781034583344634000,23.482634033203126,0.03341250121593475,-0.382937490940094,0.7195374965667725
1781034583364162300,23.502162353515626,0.08442500233650208,-0.37056249380111694,0.5946875214576721
1781034583383691800,23.52169189453125,0.08442500233650208,-0.37056249380111694,0.5946875214576721
1781034583403217000,23.541216796875,0.19071249663829803,-0.34209999442100525,0.455949991941452
1781034583422738400,23.560738525390626,0.19071249663829803,-0.34209999442100525,0.455949991941452
1781034583442262000,23.580261962890624,0.24667499959468842,-0.34814998507499695,0.4456374943256378
1781034583461788400,23.599788330078123,0.24667499959468842,-0.34814998507499695,0.4456374943256378
1781034583481316900,23.61931689453125,0.3018124997615814,-0.3815625011920929,0.5832750201225281
1781034583500845600,23.638845458984374,0.3018124997615814,-0.3815625011920929,0.5832750201225281
1781034583520370700,23.65837060546875,0.30373749136924744,-0.3653374910354614,0.632224977016449
1781034583539897900,23.67789794921875,0.30373749136924744,-0.3653374910354614,0.632224977016449
1781034583559424300,23.69742431640625,0.19910000264644623,-0.22659999132156372,0.38376250863075256
1781034583578952700,23.71695263671875,0.19910000264644623,-0.22659999132156372,0.38376250863075256
1781034583598482400,23.736482421875,0.116737499833107,-0.006049999967217445,0.09679999947547913
1781034583618008300,23.75600830078125,0.116737499833107,-0.006049999967217445,0.09679999947547913
1781034583637535200,23.77553515625,0.15441249310970306,0.20019999146461487,-0.020212499424815178
1781034583657064000,23.79506396484375,0.15441249310970306,0.20019999146461487,-0.020212499424815178
1781034583676591000,23.814591064453126,0.3162499964237213,0.25052499771118164,0.11879999935626984
1781034583696117500,23.834117431640625,0.3162499964237213,0.25052499771118164,0.11879999935626984
1781034583715647000,23.85364697265625,0.5491750240325928,0.05609999969601631,0.546287477016449
1781034583735174400,23.87317431640625,0.5491750240325928,0.05609999969601631,0.546287477016449
1781034583754700500,23.892700439453126,0.7125250101089478,-0.20157499611377716,0.8029999732971191
1781034583774228700,23.912228759765625,0.7125250101089478,-0.20157499611377716,0.8029999732971191
1781034583793754600,23.931754638671876,0.8386124968528748,-0.22013749182224274,0.6659125089645386
1781034583813280000,23.951280029296875,0.8386124968528748,-0.22013749182224274,0.6659125089645386
1781034583832808000,23.970807861328126,0.977899968624115,0.030799999833106995,0.20363749563694
1781034583852335600,23.990335693359373,0.977899968624115,0.030799999833106995,0.20363749563694
1781034583871859200,24.009859130859375,1.067275047302246,0.3044250011444092,-0.2550624907016754
1781034583891378000,24.0293779296875,1.067275047302246,0.3044250011444092,-0.2550624907016754
1781034583910894800,24.048894775390625,1.0605374574661255,0.31226250529289246,-0.306487500667572
1781034583930411500,24.06841162109375,1.0605374574661255,0.31226250529289246,-0.306487500667572
1781034583949932000,24.08793212890625,0.9187750220298767,0.040837500244379044,-0.05238749831914902
1781034583969458000,24.1074580078125,0.9187750220298767,0.040837500244379044,-0.05238749831914902
1781034583988979700,24.126979736328124,0.6503750085830688,-0.22055000066757202,0.10312499850988388
1781034584008498700,24.146498779296873,0.6503750085830688,-0.22055000066757202,0.10312499850988388
1781034584028023300,24.166023193359376,0.38458749651908875,-0.23608750104904175,-0.038362499326467514
1781034584047552800,24.185552734375,0.38458749651908875,-0.23608750104904175,-0.038362499326467514
1781034584067084500,24.20508447265625,0.38458749651908875,-0.23608750104904175,-0.038362499326467514
1781034584086615000,24.224614990234375,0.2293500006198883,-0.016499999910593033,-0.33178749680519104
1781034584106142200,24.24414208984375,0.10986249893903732,0.36588749289512634,-0.7293000221252441
1781034584125670000,24.263669921875,0.10986249893903732,0.36588749289512634,-0.7293000221252441
1781034584145195800,24.28319580078125,0.05582499876618385,0.5439500212669373,-0.8694124817848206
1781034584164724500,24.302724365234376,0.008387500420212746,0.6811749935150146,-0.9468249678611755
1781034584184249000,24.3222490234375,-0.04124999791383743,0.7911750078201294,-0.9956374764442444
1781034584203766000,24.34176611328125,-0.04124999791383743,0.7911750078201294,-0.9956374764442444
1781034584223285200,24.36128515625,-0.15606249868869781,0.9307374954223633,-0.993025004863739
1781034584242807000,24.38080712890625,-0.15606249868869781,0.9307374954223633,-0.993025004863739
1781034584262329600,24.40032958984375,-0.30992498993873596,0.8394374847412109,-0.7812749743461609
1781034584281855200,24.419855224609375,-0.30992498993873596,0.8394374847412109,-0.7812749743461609
1781034584301380000,24.439380126953125,-0.45333749055862427,0.5678749680519104,-0.5359749794006348
1781034584320906800,24.45890673828125,-0.45333749055862427,0.5678749680519104,-0.5359749794006348
1781034584340433700,24.47843359375,-0.3624500036239624,0.4127750098705292,-0.40658751130104065
1781034584359957500,24.49795751953125,-0.3624500036239624,0.4127750098705292,-0.40658751130104065
1781034584379478500,24.517478515625,-0.07232499867677689,0.6748499870300293,-0.8420500159263611
1781034584399000600,24.53700048828125,-0.07232499867677689,0.6748499870300293,-0.8420500159263611
1781034584418526000,24.55652587890625,-0.008799999952316284,1.103024959564209,-1.3733500242233276
1781034584438055400,24.576055419921875,-0.008799999952316284,1.103024959564209,-1.3733500242233276
1781034584457583900,24.595583984375,-0.04867500066757202,0.771512508392334,-1.0988999605178833
1781034584477106000,24.61510595703125,-0.04867500066757202,0.771512508392334,-1.0988999605178833
1781034584496628000,24.6346279296875,0.22605000436306,-0.408237487077713,-0.25561249256134033
