time,seconds_elapsed,z,y,x
1781034560257464300,0.39546435546875,-30.58125114440918,-12.206250190734863,-25.387500762939453
1781034560277971700,0.4159716796875,-29.400001525878906,-12.168750762939453,-24.562501907348633
1781034560298219800,0.4362197265625,-29.83125114440918,-12.487500190734863,-23.756250381469727
1781034560318391800,0.456391845703125,-31.218751907348633,-14.381250381469727,-26.250001907348633
1781034560338487600,0.476487548828125,-30.131250381469727,-13.46250057220459,-26.775001525878906
1781034560378145800,0.516145751953125,-32.400001525878906,-13.387500762939453,-26.118751525878906
1781034560418192600,0.556192626953125,-27.30000114440918,-14.006250381469727,-31.23750114440918
1781034560438319400,0.5763193359375,-28.837501525878906,-14.512500762939453,-30.450000762939453
1781034560458529000,0.596529052734375,-29.512500762939453,-14.437500953674316,-29.606250762939453
1781034560498499600,0.63649951171875,-28.875001907348633,-14.981250762939453,-31.743751525878906
1781034560538500000,0.6765,-25.14375114440918,-13.706250190734863,-34.76250076293945
1781034560578508300,0.71650830078125,-23.475000381469727,-12.675000190734863,-38.83125305175781
1781034560618509300,0.75650927734375,-19.481250762939453,-10.725000381469727,-40.53750228881836
1781034560658502700,0.796502685546875,-11.793750762939453,-9.787500381469727,-41.94375228881836
1781034560698503400,0.83650341796875,-9.99375057220459,-5.268750190734863,-45.63750076293945
1781034560738504400,0.87650439453125,-8.512500762939453,-2.512500047683716,-47.025001525878906
1781034560778497800,0.916497802734375,-0.39375001192092896,-0.768750011920929,-48.150001525878906
1781034560818498800,0.956498779296875,2.9625000953674316,3.4875001907348633,-46.89375305175781
1781034560858507300,0.99650732421875,3.0375001430511475,2.8500001430511475,-45.09375
1781034560898508300,1.03650830078125,8.831250190734863,6.150000095367432,-46.44375228881836
1781034560938501400,1.07650146484375,7.068750381469727,6.525000095367432,-44.10000228881836
1781034560978502100,1.116502197265625,13.46250057220459,7.893750190734863,-42.5625
1781034561018510800,1.1565107421875,16.443750381469727,9.506250381469727,-40.95000076293945
1781034561058512000,1.196511962890625,20.756250381469727,10.40625,-40.89375305175781
1781034561098505200,1.236505126953125,18.5625,10.65000057220459,-37.931251525878906
1781034561138506000,1.276506103515625,21.01875114440918,13.350000381469727,-37.23750305175781
1781034561178346800,1.3163466796875,21.225000381469727,13.912500381469727,-37.38750076293945
1781034561218195700,1.35619580078125,19.481250762939453,13.312500953674316,-35.56875228881836
1781034561238222800,1.376222900390625,18.39375114440918,12.637500762939453,-34.38750076293945
1781034561258356700,1.396356689453125,19.51875114440918,13.012500762939453,-34.35000228881836
1781034561278551000,1.416551025390625,20.25,12.300000190734863,-33.39375305175781
1781034561318506200,1.45650634765625,21.618751525878906,11.006250381469727,-35.00625228881836
1781034561358514700,1.4965146484375,21.131250381469727,12.168750762939453,-35.08125305175781
1781034561398508300,1.53650830078125,22.3125,11.456250190734863,-33.91875076293945
1781034561438509000,1.576509033203125,21,10.762500762939453,-33.150001525878906
1781034561478509800,1.616509765625,21.20625114440918,11.943750381469727,-32.8125
1781034561518503200,1.656503173828125,21.67500114440918,13.425000190734863,-30.787500381469727
1781034561558504200,1.696504150390625,20.493751525878906,13.93125057220459,-31.968751907348633
1781034561598505200,1.736505126953125,18.01875114440918,12.843750953674316,-31.443750381469727
1781034561638506200,1.77650634765625,17.55000114440918,15.43125057220459,-30.318750381469727
1781034561678507300,1.81650732421875,18.01875114440918,15.693750381469727,-29.250001907348633
1781034561718500400,1.856500244140625,16.21875,16.387500762939453,-27.918750762939453
1781034561758501000,1.896501220703125,14.981250762939453,17.625,-29.64375114440918
1781034561798502000,1.936501953125,13.031250953674316,17.0625,-27.187501907348633
1781034561838503000,1.9765029296875,14.512500762939453,18.01875114440918,-29.606250762939453
1781034561878503700,2.016503662109375,15.281250953674316,17.793750762939453,-27.337501525878906
1781034561918504700,2.056504638671875,15.281250953674316,17.793750762939453,-27.337501525878906
1781034561958505700,2.096505615234375,11.86875057220459,22.3125,-23.475000381469727
1781034561998407400,2.136407470703125,8.268750190734863,22.275001525878906,-21.993751525878906
1781034562038013000,2.176012939453125,8.475000381469727,20.418750762939453,-23.868751525878906
1781034562078113000,2.216113037109375,5.418750286102295,22.6875,-24.843751907348633
1781034562098269200,2.236269287109375,5.25,21.618751525878906,-23.92500114440918
1781034562118509300,2.25650927734375,3.0375001430511475,20.36250114440918,-22.98750114440918
1781034562158502700,2.296502685546875,0.9375000596046448,21.918750762939453,-23.006250381469727
1781034562198503700,2.336503662109375,3.4125001430511475,20.15625,-25.725000381469727
1781034562238504400,2.37650439453125,-0.35625001788139343,22.80000114440918,-27.262500762939453
1781034562278497800,2.416497802734375,-3.9562501907348633,23.756250381469727,-25.05000114440918
1781034562318498600,2.45649853515625,-4.631250381469727,22.762500762939453,-25.575000762939453
1781034562358507300,2.49650732421875,-5.0625,21.618751525878906,-25.687501907348633
1781034562398508000,2.536508056640625,-5.025000095367432,20.90625,-24.937501907348633
1781034562438509000,2.576509033203125,-6.468750476837158,21.95625114440918,-26.475000381469727
1781034562478510000,2.616510009765625,-3.281250238418579,22.537500381469727,-26.025001525878906
1781034562518503200,2.656503173828125,-3.731250047683716,21.506250381469727,-26.962501525878906
1781034562558504200,2.696504150390625,-3.5062501430511475,23.775001525878906,-24.637500762939453
1781034562598505200,2.736505126953125,-5.381250381469727,23.25,-27.168750762939453
1781034562638506200,2.77650634765625,-3.5812501907348633,22.80000114440918,-27.656251907348633
1781034562678507000,2.816507080078125,-5.8125,20.887500762939453,-28.05000114440918
1781034562718500400,2.856500244140625,-4.050000190734863,21.731250762939453,-29.231250762939453
1781034562758501000,2.896501220703125,-8.11875057220459,22.293750762939453,-27.468751907348633
1781034562778505500,2.91650537109375,-5.887500286102295,22.125,-29.587501525878906
1781034562818430000,2.956429931640625,-4.181250095367432,20.55000114440918,-27.075000762939453
1781034562858058000,2.99605810546875,-4.856250286102295,20.17500114440918,-27.11250114440918
1781034562898135300,3.03613525390625,-5.550000190734863,20.962501525878906,-26.793750762939453
1781034562918268400,3.056268310546875,-6.918750286102295,20.36250114440918,-27.468751907348633
1781034562938501600,3.076501708984375,-8.756250381469727,20.36250114440918,-27.881250381469727
1781034562978502400,3.11650244140625,-6.318750381469727,20.34375,-30.187501907348633
1781034563018503400,3.15650341796875,-6.712500095367432,21.75,-26.906251907348633
1781034563058504200,3.196504150390625,-7.181250095367432,21.131250381469727,-27.600000381469727
1781034563098505200,3.236505126953125,-3.7687501907348633,20.83125114440918,-28.293750762939453
1781034563138506000,3.276506103515625,-7.687500476837158,22.03125,-28.537500381469727
1781034563178507000,3.316507080078125,-8.8125,22.087501525878906,-27.900001525878906
1781034563218500400,3.356500244140625,-10.59375,22.42500114440918,-26.17500114440918
1781034563258501000,3.396501220703125,-9.675000190734863,22.42500114440918,-25.98750114440918
1781034563298502100,3.436502197265625,-7.987500190734863,22.368751525878906,-23.71875
1781034563338503000,3.4765029296875,-6.243750095367432,23.606250762939453,-24.843751907348633
1781034563378503700,3.516503662109375,-4.837500095367432,24.30000114440918,-22.89375114440918
1781034563418504700,3.556504638671875,-7.368750095367432,25.275001525878906,-23.400001525878906
1781034563458513200,3.59651318359375,-5.081250190734863,23.83125114440918,-24.20625114440918
1781034563498506500,3.636506591796875,-5.850000381469727,23.662500381469727,-26.718751907348633
1781034563538499800,3.676499755859375,-7.125000476837158,21.450000762939453,-25.687501907348633
1781034563578508500,3.716508544921875,-4.650000095367432,19.462501525878906,-28.837501525878906
1781034563598513000,3.736512939453125,-4.443750381469727,19.631250381469727,-29.250001907348633
1781034563638445000,3.776445068359375,-5.606250286102295,22.462501525878906,-27.468751907348633
1781034563678081300,3.816081298828125,-4.256250381469727,21.1875,-28.875001907348633
1781034563718143200,3.856143310546875,-0.768750011920929,20.26875114440918,-27.750001907348633
1781034563738269200,3.876269287109375,-1.912500023841858,20.26875114440918,-27.95625114440918
1781034563758501000,3.896501220703125,-5.400000095367432,20.568750381469727,-29.756250381469727
1781034563798502100,3.936502197265625,-4.950000286102295,20.962501525878906,-29.512500762939453
1781034563838503200,3.976503173828125,-5.737500190734863,20.962501525878906,-32.41875076293945
1781034563878504000,4.01650390625,-6.825000286102295,19.856250762939453,-31.912500381469727
1781034563918504700,4.056504638671875,-5.175000190734863,19.51875114440918,-30.918750762939453
1781034563958505700,4.096505615234375,-5.4375,19.650001525878906,-31.950000762939453
1781034563998499300,4.136499267578125,-7.968750476837158,18.65625,-32.85000228881836
1781034564038507800,4.1765078125,-7.781250476837158,20.568750381469727,-32.868751525878906
1781034564078516200,4.21651611328125,-7.200000286102295,17.400001525878906,-31.556251525878906
1781034564118509600,4.256509521484375,-7.650000095367432,17.025001525878906,-31.368751525878906
1781034564158502700,4.296502685546875,-8.081250190734863,16.03125,-31.89375114440918
1781034564198503400,4.33650341796875,-10.55625057220459,14.943750381469727,-31.368751525878906
1781034564238504400,4.37650439453125,-6.656250476837158,13.912500381469727,-31.931251525878906
1781034564278497800,4.416497802734375,-4.59375,13.481250762939453,-32.00625228881836
1781034564318498600,4.45649853515625,-3.1125001907348633,10.443750381469727,-31.293750762939453
1781034564358507300,4.49650732421875,-4.181250095367432,12.168750762939453,-34.21875
1781034564398508000,4.536508056640625,-7.518750190734863,10.143750190734863,-33.58125305175781
1781034564438508800,4.5765087890625,-2.887500047683716,7.800000190734863,-33.46875
1781034564478349600,4.616349609375,-3.7875001430511475,9.862500190734863,-31.350000381469727
1781034564518190800,4.65619091796875,-5.175000190734863,10.050000190734863,-31.743751525878906
1781034564538210600,4.67621044921875,-6.750000476837158,10.350000381469727,-30.450000762939453
1781034564558352100,4.69635205078125,-3.7687501907348633,9.71250057220459,-30.95625114440918
1781034564578546700,4.716546630859375,-2.887500047683716,9.412500381469727,-32.25
1781034564618509300,4.75650927734375,-4.706250190734863,9.05625057220459,-32.26875305175781
1781034564658502700,4.796502685546875,-3.356250047683716,9.393750190734863,-32.45625305175781
1781034564698503700,4.836503662109375,-6.731250286102295,9.168750762939453,-30.993751525878906
1781034564738504700,4.876504638671875,-7.762500286102295,13.200000762939453,-31.162500381469727
1781034564778497800,4.916497802734375,-10.08750057220459,11.043750762939453,-34.91250228881836
1781034564818498600,4.95649853515625,-11.081250190734863,13.125000953674316,-35.51250076293945
1781034564858507300,4.99650732421875,-6.468750476837158,15.018750190734863,-32.23125076293945
1781034564898508000,5.036508056640625,-6.468750476837158,17.26875114440918,-30.318750381469727
1781034564938501400,5.07650146484375,-5.118750095367432,19.875,-28.593751907348633
1781034564978502700,5.116502685546875,-4.200000286102295,20.475000381469727,-28.125001907348633
1781034565018503400,5.15650341796875,-1.9500000476837158,22.21875,-27.318750381469727
1781034565058504200,5.196504150390625,-4.181250095367432,22.59375,-25.387500762939453
1781034565098505000,5.2365048828125,-3.9562501907348633,20.700000762939453,-27.67500114440918
1781034565138506000,5.276506103515625,-8.30625057220459,20.55000114440918,-27.656251907348633
1781034565178507000,5.316507080078125,-10.59375,18.9375,-29.26875114440918
1781034565218500400,5.356500244140625,-9.33750057220459,18.5625,-26.193750381469727
1781034565258508800,5.3965087890625,-10.106250762939453,20.400001525878906,-27.431251525878906
1781034565298334000,5.436333984375,-9.450000762939453,22.200000762939453,-26.418750762939453
1781034565338137000,5.47613720703125,-6.937500476837158,22.78125,-25.968751907348633
1781034565358179600,5.4961796875,-8.0625,22.59375,-25.98750114440918
1781034565378313700,5.516313720703125,-6.018750190734863,22.59375,-25.781251907348633
1781034565398530800,5.53653076171875,-6.506250381469727,23.118751525878906,-26.343751907348633
1781034565438501400,5.57650146484375,-7.462500095367432,25.275001525878906,-25.89375114440918
1781034565478502100,5.616502197265625,-7.200000286102295,24.750001907348633,-25.33125114440918
1781034565518503200,5.656503173828125,-9.225000381469727,23.193750381469727,-25.912500381469727
1781034565558504200,5.696504150390625,-10.668750762939453,22.856250762939453,-28.200000762939453
1781034565598505000,5.7365048828125,-12.393750190734863,21.037500381469727,-27.150001525878906
1781034565638505700,5.776505615234375,-11.756250381469727,22.181251525878906,-27.225000381469727
1781034565678506800,5.8165068359375,-14.156250953674316,23.043750762939453,-23.36250114440918
1781034565718500000,5.8565,-16.125,25.406251907348633,-25.80000114440918
1781034565758501000,5.896501220703125,-14.68125057220459,23.55000114440918,-24.562501907348633
1781034565798502000,5.936501953125,-13.256250381469727,25.275001525878906,-21.67500114440918
1781034565838503000,5.9765029296875,-13.55625057220459,26.343751907348633,-22.80000114440918
1781034565878504000,6.01650390625,-16.912500381469727,26.55000114440918,-20.681251525878906
1781034565918504700,6.056504638671875,-13.762500762939453,26.36250114440918,-22.59375
1781034565958505500,6.09650537109375,-16.256250381469727,24.20625114440918,-23.64375114440918
1781034565998506500,6.136506591796875,-17.137500762939453,25.70625114440918,-21.600000381469727
1781034566038507300,6.17650732421875,-18.243751525878906,23.981250762939453,-21.975000381469727
1781034566058503700,6.196503662109375,-17.83125114440918,24.30000114440918,-22.78125
1781034566098459000,6.236458984375,-18.65625,23.08125114440918,-21.037500381469727
1781034566138117400,6.276117431640625,-17.45625114440918,26.137500762939453,-23.83125114440918
1781034566178171600,6.316171630859375,-17.006250381469727,25.087501525878906,-24.993751525878906
1781034566198297900,6.3362978515625,-18.30000114440918,24.468751907348633,-22.96875
1781034566218515200,6.35651513671875,-18.975000381469727,25.537500381469727,-21.806251525878906
1781034566258500900,6.3965009765625,-16.481250762939453,23.587501525878906,-24.337501525878906
1781034566298502000,6.436501953125,-20.15625,24.825000762939453,-23.73750114440918
1781034566338503000,6.4765029296875,-19.012500762939453,24.187501907348633,-24.450000762939453
1781034566378504000,6.51650390625,-15.80625057220459,23.36250114440918,-24.58125114440918
1781034566418504700,6.556504638671875,-18.806251525878906,23.943750381469727,-25.106250762939453
1781034566458513400,6.596513427734375,-16.556251525878906,24.637500762939453,-25.668750762939453
1781034566498506800,6.6365068359375,-17.92500114440918,24.48750114440918,-25.481250762939453
1781034566538499600,6.67649951171875,-16.125,24.993751525878906,-26.062501907348633
1781034566578508300,6.71650830078125,-17.25,24.20625114440918,-26.55000114440918
1781034566618509300,6.75650927734375,-18.67500114440918,25.743751525878906,-26.775001525878906
1781034566658502400,6.79650244140625,-16.443750381469727,26.231250762939453,-27.58125114440918
1781034566698503400,6.83650341796875,-12.075000762939453,26.475000381469727,-26.137500762939453
1781034566738504200,6.876504150390625,-12.99375057220459,25.012500762939453,-28.162500381469727
1781034566778497500,6.91649755859375,-15.168750762939453,24.262500762939453,-25.51875114440918
1781034566818498300,6.956498291015625,-16.087501525878906,23.662500381469727,-25.98750114440918
1781034566858507300,6.99650732421875,-13.575000762939453,24.431251525878906,-25.51875114440918
1781034566898515700,7.036515625,-16.931251525878906,28.42500114440918,-26.512500762939453
1781034566938326300,7.076326171875,-13.143750190734863,26.606250762939453,-24.450000762939453
1781034566978084000,7.116083984375,-17.306251525878906,27.58125114440918,-25.14375114440918
1781034566998141700,7.1361416015625,-17.025001525878906,26.287500381469727,-24.243751525878906
1781034567018267600,7.156267578125,-15.637500762939453,26.512500762939453,-23.606250762939453
1781034567038499800,7.176499755859375,-16.087501525878906,26.531251907348633,-23.400001525878906
1781034567078508300,7.21650830078125,-16.350000381469727,27.656251907348633,-23.887500762939453
1781034567118509000,7.256509033203125,-13.537500381469727,27.20625114440918,-21.67500114440918
1781034567158502700,7.296502685546875,-12.037500381469727,30.431251525878906,-21.75
1781034567198503400,7.33650341796875,-10.18125057220459,29.250001907348633,-21.900001525878906
1781034567238504400,7.37650439453125,-14.700000762939453,26.73750114440918,-22.96875
1781034567278497800,7.416497802734375,-14.793750762939453,28.781251907348633,-24
1781034567318498600,7.45649853515625,-11.568750381469727,28.61250114440918,-23.006250381469727
1781034567358507300,7.49650732421875,-10.74375057220459,28.818750381469727,-25.481250762939453
1781034567398508000,7.536508056640625,-13.800000190734863,27.30000114440918,-22.912500381469727
1781034567438501400,7.57650146484375,-15.468750953674316,27.787500381469727,-24.506250381469727
1781034567478502400,7.61650244140625,-13.012500762939453,28.631250381469727,-25.687501907348633
1781034567518503200,7.656503173828125,-9.28125,28.80000114440918,-22.80000114440918
1781034567558504200,7.696504150390625,-9.84375,30.825000762939453,-24.01875114440918
1781034567598505000,7.7365048828125,-5.268750190734863,29.73750114440918,-24.806251525878906
1781034567638506000,7.776506103515625,-1.8562500476837158,29.906251907348633,-24.825000762939453
1781034567678507000,7.816507080078125,-1.40625,29.850000381469727,-25.443750381469727
1781034567718477300,7.856477294921875,-1.1062500476837158,27.787500381469727,-24.637500762939453
1781034567758127900,7.8961279296875,-1.5937501192092896,28.33125114440918,-25.200000762939453
1781034567798182400,7.936182373046875,2.606250047683716,26.437501907348633,-23.981250762939453
1781034567818316500,7.956316650390625,3.9000000953674316,27.656251907348633,-25.537500381469727
1781034567838533600,7.97653369140625,4.106250286102295,27.375001907348633,-26.606250762939453
1781034567878504000,8.01650390625,2.9625000953674316,29.043750762939453,-25.162500381469727
1781034567918505000,8.0565048828125,5.418750286102295,27.281251907348633,-27.67500114440918
1781034567958506000,8.096506103515624,4.818750381469727,29.118751525878906,-23.71875
1781034567998499000,8.1364990234375,1.3312500715255737,29.83125114440918,-25.275001525878906
1781034568038499800,8.176499755859375,-1.8375000953674316,30.150001525878906,-23.962501525878906
1781034568078508300,8.21650830078125,-6.506250381469727,31.98750114440918,-26.006250381469727
1781034568118509300,8.25650927734375,-10.818750381469727,31.293750762939453,-25.631250381469727
1781034568158502700,8.296502685546875,-13.55625057220459,32.13750076293945,-25.087501525878906
1781034568198503400,8.33650341796875,-20.568750381469727,31.556251525878906,-23.850000381469727
1781034568238504400,8.37650439453125,-21.58125114440918,30.86250114440918,-20.15625
1781034568278497800,8.416497802734375,-23.325000762939453,32.681251525878906,-16.61250114440918
1781034568318498600,8.45649853515625,-27.375001907348633,34.70625305175781,-13.031250953674316
1781034568358507000,8.496507080078125,-28.70625114440918,34.57500076293945,-12.393750190734863
1781034568398508000,8.536508056640624,-30.262500762939453,36.35625076293945,-9.28125
1781034568438508800,8.5765087890625,-26.531251907348633,34.85625076293945,-8.231250762939453
1781034568478509800,8.616509765625,-26.625001907348633,37.6875,-8.756250381469727
1781034568518510600,8.656510498046876,-30.95625114440918,35.51250076293945,-10.612500190734863
1781034568558207200,8.696207275390625,-24.825000762939453,34.78125,-11.58750057220459
1781034568598254000,8.736254150390625,-21.900001525878906,36.67500305175781,-11.40000057220459
1781034568618380300,8.75638037109375,-17.475000381469727,37.96875,-14.02500057220459
1781034568638559200,8.776559326171874,-17.306251525878906,38.587501525878906,-16.03125
1781034568678506800,8.8165068359375,-14.850000381469727,37.66875076293945,-17.8125
1781034568718500000,8.8565,-13.218750953674316,35.66250228881836,-18.67500114440918
1781034568758501000,8.896501220703126,-11.925000190734863,35.25,-21.450000762939453
1781034568798502000,8.936501953125,-14.700000762939453,32.962501525878906,-24.375001907348633
1781034568838502700,8.976502685546874,-13.987500190734863,32.00625228881836,-24.262500762939453
1781034568878503700,9.016503662109375,-11.53125,30.618751525878906,-27.150001525878906
1781034568918504400,9.05650439453125,-9.375,29.17500114440918,-25.443750381469727
1781034568958505500,9.09650537109375,-10.21875,31.912500381469727,-27.656251907348633
1781034568998498800,9.136498779296875,-8.550000190734863,28.162500381469727,-28.912500381469727
1781034569038499800,9.176499755859375,-8.96250057220459,28.068750381469727,-27.450000762939453
1781034569078508300,9.21650830078125,-9.1875,25.61250114440918,-29.587501525878906
1781034569118509300,9.25650927734375,-8.4375,23.73750114440918,-28.968751907348633
1781034569158502700,9.296502685546875,-9.15000057220459,24.075000762939453,-29.756250381469727
1781034569198503400,9.33650341796875,-9.375,22.443750381469727,-30.975000381469727
1781034569238504200,9.376504150390625,-8.418750762939453,22.350000381469727,-29.531251907348633
1781034569278497500,9.41649755859375,-7.293750286102295,21.881250381469727,-30.637500762939453
1781034569318506200,9.45650634765625,-7.368750095367432,22.51875114440918,-32.4375
1781034569358377200,9.496377197265625,-5.700000286102295,22.05000114440918,-30.637500762939453
1781034569397952300,9.5359521484375,-9.09375,20.73750114440918,-30.750001907348633
1781034569438082800,9.576082763671875,-8.86875057220459,22.537500381469727,-29.718751907348633
1781034569458269400,9.59626953125,-10.74375057220459,21.881250381469727,-31.23750114440918
1781034569478502000,9.616501953125,-8.4375,20.25,-32.0625
1781034569518503000,9.6565029296875,-5.700000286102295,20.006250381469727,-32.32500076293945
1781034569558504000,9.69650390625,-3.8062500953674316,19.125,-30.76875114440918
1781034569598505000,9.7365048828125,-6.356250286102295,19.256250381469727,-32.19375228881836
1781034569638505700,9.776505615234376,-6.356250286102295,19.256250381469727,-32.19375228881836
1781034569678506800,9.8165068359375,-5.681250095367432,22.106250762939453,-29.587501525878906
1781034569718500000,9.8565,-7.518750190734863,20.025001525878906,-32.493751525878906
1781034569758500900,9.8965009765625,-4.6875,19.78125,-29.850000381469727
1781034569798502000,9.936501953125,-6.787500381469727,23.625,-27.543750762939453
1781034569838503000,9.9765029296875,-7.293750286102295,21.881250381469727,-30.431251525878906
1781034569878504000,10.01650390625,-7.106250286102295,23.006250381469727,-30.937501907348633
1781034569918504700,10.056504638671875,-7.818750381469727,23.36250114440918,-31.312501907348633
1781034569958505700,10.096505615234374,-10.012500762939453,23.15625,-29.231250762939453
1781034569998499000,10.1364990234375,-5.887500286102295,22.931251525878906,-28.875001907348633
1781034570038499800,10.176499755859375,-10.987500190734863,25.275001525878906,-29.400001525878906
1781034570078508300,10.21650830078125,-8.006250381469727,25.293750762939453,-28.593751907348633
1781034570118509300,10.25650927734375,-6.431250095367432,28.068750381469727,-27.056251525878906
1781034570158510300,10.29651025390625,-8.625,27.30000114440918,-24.618751525878906
1781034570198260000,10.336260009765626,-9.600000381469727,27.76875114440918,-26.437501907348633
1781034570237780500,10.375780517578125,-6.412500381469727,29.962501525878906,-24.76875114440918
1781034570278025000,10.41602490234375,-11.40000057220459,28.668750762939453,-24.86250114440918
1781034570298265600,10.436265625,-7.706250190734863,28.950000762939453,-23.006250381469727
1781034570318498600,10.45649853515625,-6.993750095367432,28.80000114440918,-22.387500762939453
1781034570358507000,10.496507080078125,-10.21875,27.693750381469727,-24.76875114440918
1781034570398508300,10.53650830078125,-8.643750190734863,28.275001525878906,-24.506250381469727
1781034570438509000,10.576509033203125,-10.631250381469727,27.825000762939453,-23.100000381469727
1781034570478509800,10.616509765625,-9.33750057220459,31.106250762939453,-22.743751525878906
1781034570518503200,10.656503173828124,-9.15000057220459,28.80000114440918,-25.293750762939453
1781034570558504200,10.696504150390625,-12.075000762939453,28.312501907348633,-24.693750381469727
1781034570598505000,10.7365048828125,-7.293750286102295,28.61250114440918,-25.125001907348633
1781034570638506000,10.776506103515626,-9.15000057220459,28.593751907348633,-25.51875114440918
1781034570678506800,10.8165068359375,-9.112500190734863,29.700000762939453,-23.53125
1781034570718500000,10.8565,-8.418750762939453,28.687501907348633,-24.056251525878906
1781034570758501000,10.896501220703126,-9.05625057220459,27.95625114440918,-23.71875
1781034570798502000,10.936501953125,-6.862500190734863,30.58125114440918,-24.075000762939453
1781034570838503000,10.9765029296875,-7.968750476837158,29.662500381469727,-23.756250381469727
1781034570878504000,11.01650390625,-9.543750762939453,29.100000381469727,-23.793750762939453
1781034570918505000,11.0565048828125,-9.52500057220459,30.375001907348633,-22.200000762939453
1781034570958506000,11.096506103515624,-9.5625,28.687501907348633,-24.262500762939453
1781034570998415000,11.1364150390625,-10.83750057220459,30.937501907348633,-19.837501525878906
1781034571038020400,11.176020263671875,-13.200000762939453,30.993751525878906,-22.087501525878906
1781034571078113000,11.216113037109375,-10.875,31.05000114440918,-21.075000762939453
1781034571098269200,11.236269287109375,-10.6875,31.781251907348633,-21.412500381469727
1781034571118509300,11.25650927734375,-10.012500762939453,31.556251525878906,-21.86250114440918
1781034571158502700,11.296502685546875,-7.481250286102295,29.325000762939453,-22.96875
1781034571198503400,11.33650341796875,-9.543750762939453,29.325000762939453,-23.568750381469727
1781034571238504400,11.37650439453125,-2.512500047683716,29.962501525878906,-23.981250762939453
1781034571278497500,11.41649755859375,-2.325000047683716,29.231250762939453,-26.137500762939453
1781034571318498800,11.456498779296876,-5.756250381469727,29.26875114440918,-26.100000381469727
1781034571358507300,11.49650732421875,-3.2437500953674316,29.64375114440918,-25.875001907348633
1781034571398508000,11.536508056640624,0.24375000596046448,28.537500381469727,-24.787500381469727
1781034571438508800,11.5765087890625,2.4750001430511475,30.01875114440918,-24.843751907348633
1781034571478509800,11.616509765625,2.9437501430511475,31.875001907348633,-22.98750114440918
1781034571518503200,11.656503173828124,3.825000047683716,30.975000381469727,-24.750001907348633
1781034571558504000,11.69650390625,2.71875,29.850000381469727,-24.656251907348633
1781034571598512600,11.7365126953125,5.025000095367432,30.881250381469727,-23.118751525878906
1781034571638513400,11.776513427734375,7.087500095367432,30.075000762939453,-23.418750762939453
1781034571678506500,11.816506591796875,6.112500190734863,33.618751525878906,-22.200000762939453
1781034571718500000,11.8565,4.537500381469727,31.668750762939453,-23.025001525878906
1781034571758500900,11.8965009765625,2.9625000953674316,32.73750305175781,-21.86250114440918
1781034571798509300,11.93650927734375,-1.5750000476837158,33.69375228881836,-20.043750762939453
1781034571838228700,11.976228759765625,-3.9562501907348633,36.13125228881836,-21.20625114440918
1781034571877986600,12.015986572265625,-8.96250057220459,37.875,-19.106250762939453
1781034571898097400,12.036097412109376,-8.456250190734863,38.587501525878906,-17.15625
1781034571918269000,12.05626904296875,-4.537500381469727,38.23125076293945,-16.181251525878906
1781034571938501000,12.076501220703125,-4.293750286102295,38.66250228881836,-15.300000190734863
1781034571978502100,12.116502197265625,-9.300000190734863,39.375,-14.343750953674316
1781034572018503200,12.156503173828124,-9.71250057220459,41.118751525878906,-11.456250190734863
1781034572058504200,12.196504150390625,-11.30625057220459,41.962501525878906,-10.725000381469727
1781034572098505000,12.2365048828125,-12.412500381469727,41.41875076293945,-10.350000381469727
1781034572138506000,12.276506103515626,-14.062500953674316,42.78750228881836,-10.40625
1781034572178506800,12.3165068359375,-11.58750057220459,42.26250076293945,-11.943750381469727
1781034572218500000,12.3565,-11.15625,42.993751525878906,-12.281250953674316
1781034572258501000,12.396501220703126,-9.46875,42.243751525878906,-17.15625
1781034572298502000,12.436501953125,-10.08750057220459,41.17500305175781,-16.012500762939453
1781034572338502700,12.476502685546874,-9.918750762939453,39.86250305175781,-18.450000762939453
1781034572378503700,12.516503662109375,-11.756250381469727,37.76250076293945,-21.168750762939453
1781034572418504400,12.55650439453125,-10.96875,37.181251525878906,-18.525001525878906
1781034572458513200,12.59651318359375,-14.456250190734863,35.4375,-22.012500762939453
1781034572498506500,12.636506591796875,-10.331250190734863,31.762500762939453,-24.543750762939453
1781034572538499600,12.67649951171875,-10.162500381469727,34.087501525878906,-24.075000762939453
1781034572578508000,12.716508056640626,-9.225000381469727,32.493751525878906,-24.67500114440918
1781034572618509000,12.756509033203125,-7.762500286102295,28.61250114440918,-25.125001907348633
1781034572658205400,12.796205322265624,-9.65625,28.23750114440918,-28.05000114440918
1781034572698267400,12.836267333984376,-9.05625057220459,27.656251907348633,-30.618751525878906
1781034572718386000,12.856385986328124,-8.737500190734863,25.387500762939453,-30.037500381469727
1781034572758500600,12.89650048828125,-3.168750047683716,23.0625,-29.287500381469727
1781034572798509300,12.93650927734375,-3.9000000953674316,23.8125,-29.625001907348633
1781034572838510300,12.97651025390625,-3.562500238418579,21.39375114440918,-28.650001525878906
1781034572878503700,13.016503662109375,-6.412500381469727,22.80000114440918,-30.975000381469727
1781034572918504400,13.05650439453125,-4.087500095367432,21,-31.387500762939453
1781034572958505500,13.09650537109375,-3.2062501907348633,19.912500381469727,-33.1875
1781034572998498800,13.136498779296875,-0.13125000894069672,20.981250762939453,-28.51875114440918
1781034573038499600,13.17649951171875,-0.6375000476837158,21.84375,-29.868751525878906
1781034573078508300,13.21650830078125,1.6875001192092896,21.30000114440918,-28.912500381469727
1781034573118509000,13.256509033203125,1.443750023841858,20.681251525878906,-29.606250762939453
1781034573158502400,13.29650244140625,-2.2125000953674316,20.71875,-29.775001525878906
1781034573198511000,13.336510986328125,-0.05625000223517418,17.868751525878906,-29.062501907348633
1781034573238511900,13.376511962890625,1.912500023841858,20.512500762939453,-29.212501525878906
1781034573278497500,13.41649755859375,-0.6187500357627869,20.681251525878906,-30.000001907348633
1781034573318506200,13.45650634765625,1.162500023841858,19.556251525878906,-32.00625228881836
1781034573358514700,13.4965146484375,1.9687501192092896,22.256250381469727,-26.306251525878906
1781034573398507800,13.5365078125,-2.700000047683716,22.70625114440918,-28.931251525878906
1781034573438478300,13.576478271484374,-4.275000095367432,23.400001525878906,-27.58125114440918
1781034573478129000,13.61612890625,-5.418750286102295,22.78125,-28.481250762939453
1781034573518198500,13.656198486328124,-3.2062501907348633,22.387500762939453,-30.618751525878906
1781034573538340000,13.676340087890624,-7.106250286102295,21.39375114440918,-31.950000762939453
1781034573558549800,13.6965498046875,-3.8812501430511475,22.42500114440918,-30.39375114440918
1781034573598505000,13.7365048828125,-3.843750238418579,23.90625,-28.368751525878906
1781034573638506200,13.77650634765625,-6.375000476837158,25.350000381469727,-27.356250762939453
1781034573678507000,13.816507080078125,-4.3125,25.537500381469727,-27.150001525878906
1781034573718499800,13.856499755859375,-3,27.431251525878906,-27.168750762939453
1781034573758500900,13.8965009765625,-3.168750047683716,26.943750381469727,-25.968751907348633
1781034573798502000,13.936501953125,-3.468750238418579,29.64375114440918,-25.875001907348633
1781034573838502700,13.976502685546874,-6.937500476837158,32.25,-24.937501907348633
1781034573878503700,14.016503662109375,-5.512500286102295,28.875001907348633,-26.36250114440918
1781034573918504400,14.05650439453125,-6.600000381469727,31.500001907348633,-22.106250762939453
1781034573958505500,14.09650537109375,-9.375,29.17500114440918,-25.443750381469727
1781034573998498800,14.136498779296875,-6.881250381469727,30.937501907348633,-24.450000762939453
1781034574038499600,14.17649951171875,-12.80625057220459,30.037500381469727,-24.918750762939453
1781034574078508300,14.21650830078125,-8.381250381469727,28.743751525878906,-23.231250762939453
1781034574118509000,14.256509033203125,-10.96875,29.625001907348633,-24.76875114440918
1781034574158502400,14.29650244140625,-8.21250057220459,30.225000381469727,-23.887500762939453
1781034574198503400,14.33650341796875,-10.27500057220459,30.86250114440918,-23.606250762939453
1781034574238512000,14.37651220703125,-11.86875057220459,30.075000762939453,-24.093751907348633
1781034574278345000,14.416344970703125,-12.075000762939453,29.531251907348633,-23.512500762939453
1781034574317904600,14.455904541015625,-11.175000190734863,29.887500762939453,-23.90625
1781034574358073600,14.496073486328125,-11.362500190734863,30.600000381469727,-21.95625114440918
1781034574378268000,14.516267822265625,-11.40000057220459,30.506250381469727,-23.418750762939453
1781034574398508000,14.536508056640624,-13.593750953674316,30.131250381469727,-20.943750381469727
1781034574438501000,14.576501220703125,-14.456250190734863,29.400001525878906,-20.381250381469727
1781034574478502100,14.616502197265625,-15.768750190734863,28.368751525878906,-19.03125
1781034574518503000,14.6565029296875,-12.99375057220459,31.98750114440918,-21.787500381469727
1781034574558504000,14.69650390625,-12.112500190734863,32.28750228881836,-22.80000114440918
1781034574598504700,14.736504638671875,-9.168750762939453,32.025001525878906,-23.26875114440918
1781034574638505500,14.77650537109375,-6.637500286102295,30.806251525878906,-23.64375114440918
1781034574678506500,14.816506591796875,-1.3687500953674316,29.943750381469727,-23.981250762939453
1781034574718499800,14.856499755859375,-0.03750000149011612,30.037500381469727,-25.23750114440918
1781034574758500600,14.89650048828125,3,29.756250381469727,-23.006250381469727
1781034574798501600,14.936501708984375,3.4125001430511475,28.42500114440918,-25.650001525878906
1781034574838502700,14.976502685546874,6.150000095367432,30.056251525878906,-23.83125114440918
1781034574878503400,15.01650341796875,4.800000190734863,27.637500762939453,-25.556251525878906
1781034574918504400,15.05650439453125,4.743750095367432,30.356250762939453,-25.256250381469727
1781034574958505500,15.09650537109375,2.0812501907348633,26.868751525878906,-26.231250762939453
1781034574998506500,15.136506591796875,2.90625,28.51875114440918,-27.093751907348633
1781034575038507300,15.17650732421875,1.5,29.475000381469727,-27.39375114440918
1781034575078462500,15.21646240234375,-0.5062500238418579,27.76875114440918,-27.562501907348633
1781034575118113300,15.25611328125,-0.581250011920929,29.45625114440918,-28.012500762939453
1781034575158175200,15.29617529296875,-3.075000047683716,31.14375114440918,-26.343751907348633
1781034575178301400,15.316301513671876,-5.118750095367432,31.61250114440918,-25.650001525878906
1781034575198526200,15.336526123046875,-6.262500286102295,30.187501907348633,-27.037500381469727
1781034575238504200,15.376504150390625,-13.537500381469727,33.20625305175781,-23.53125
1781034575278505200,15.416505126953124,-16.61250114440918,34.10625076293945,-19.443750381469727
1781034575318506000,15.456506103515625,-20.73750114440918,36.97500228881836,-17.625
1781034575358507000,15.496507080078125,-19.78125,38.55000305175781,-14.343750953674316
1781034575398508000,15.536508056640624,-20.868751525878906,40.3125,-11.231250762939453
1781034575438508800,15.5765087890625,-19.6875,40.80000305175781,-9.731250762939453
1781034575478509600,15.616509521484375,-21.76875114440918,40.96875,-10.3125
1781034575518503000,15.6565029296875,-20.34375,39.20625305175781,-10.518750190734863
1781034575558504000,15.69650390625,-19.762500762939453,41.025001525878906,-12
1781034575598505000,15.7365048828125,-18.225000381469727,40.06875228881836,-14.193750381469727
1781034575638505700,15.776505615234376,-14.906250953674316,38.962501525878906,-18.506250381469727
1781034575678506800,15.8165068359375,-14.456250190734863,39.54375076293945,-18.243751525878906
1781034575718499800,15.856499755859375,-8.58750057220459,35.25,-23.756250381469727
1781034575758500600,15.89650048828125,-11.550000190734863,32.41875076293945,-26.325000762939453
1781034575798501600,15.936501708984375,-5.175000190734863,30.881250381469727,-27.806251525878906
1781034575838502400,15.97650244140625,-6.506250381469727,27.506250381469727,-29.625001907348633
1781034575858506800,15.9965068359375,-6.262500286102295,26.906251907348633,-29.887500762939453
1781034575898462000,16.0364619140625,-9.318750381469727,27.993751525878906,-31.42500114440918
1781034575938089700,16.07608984375,-5.587500095367432,27.075000762939453,-30.093751907348633
1781034575978151700,16.116151611328124,-9.24375057220459,27.337501525878906,-29.625001907348633
1781034575998285600,16.13628564453125,-8.550000190734863,26.306251525878906,-30.562501907348633
1781034576018518300,16.156518310546875,-5.137500286102295,23.400001525878906,-33.20625305175781
1781034576058504000,16.19650390625,-8.0625,23.512500762939453,-31.912500381469727
1781034576098504700,16.236504638671875,-10.425000190734863,20.606250762939453,-30.131250381469727
1781034576138505700,16.276505615234374,-9.24375057220459,18.67500114440918,-29.92500114440918
1781034576178506800,16.3165068359375,-10.012500762939453,18.056251525878906,-33.525001525878906
1781034576218499800,16.356499755859375,-8.86875057220459,19.087501525878906,-32.38125228881836
1781034576258500900,16.3965009765625,-8.8125,17.381250381469727,-31.950000762939453
1781034576298501600,16.436501708984373,-7.218750476837158,17.962501525878906,-31.687501907348633
1781034576338502700,16.476502685546876,-10.36875057220459,16.068750381469727,-31.856250762939453
1781034576378503400,16.51650341796875,-8.15625,18.318750381469727,-32.26875305175781
1781034576418504400,16.55650439453125,-6.300000190734863,16.33125114440918,-32.71875
1781034576458505200,16.596505126953126,-8.625,17.26875114440918,-33.63750076293945
1781034576498498600,16.63649853515625,-7.425000190734863,16.98750114440918,-32.00625228881836
1781034576538499800,16.676499755859375,-9.375,18.356250762939453,-34.556251525878906
1781034576578508500,16.716508544921876,-9.956250190734863,18.20625114440918,-31.218751907348633
1781034576618509000,16.756509033203123,-6.337500095367432,20.118751525878906,-30.843751907348633
1781034576658502400,16.79650244140625,-10.237500190734863,21.356250762939453,-30.262500762939453
1781034576698510800,16.8365107421875,-11.362500190734863,20.981250762939453,-30.48750114440918
1781034576738314000,16.87631396484375,-11.137500762939453,22.387500762939453,-29.512500762939453
1781034576778064100,16.916064208984373,-11.137500762939453,21.993751525878906,-29.756250381469727
1781034576798137000,16.93613720703125,-11.15625,25.406251907348633,-27.525001525878906
1781034576818262800,16.9562626953125,-11.418750762939453,26.17500114440918,-27.637500762939453
1781034576838502400,16.97650244140625,-11.15625,26.437501907348633,-26.568750381469727
1781034576878503400,17.01650341796875,-9.1875,28.70625114440918,-26.55000114440918
1781034576918504400,17.05650439453125,-13.256250381469727,27.58125114440918,-27.056251525878906
1781034576958505500,17.09650537109375,-14.531250953674316,27.412500381469727,-24.150001525878906
1781034576998498600,17.13649853515625,-12.300000190734863,28.312501907348633,-24.693750381469727
1781034577038507300,17.17650732421875,-14.850000381469727,29.45625114440918,-25.162500381469727
1781034577078515700,17.216515625,-11.643750190734863,28.443750381469727,-25.51875114440918
1781034577118508800,17.2565087890625,-8.456250190734863,27.58125114440918,-26.062501907348633
1781034577158502100,17.296502197265625,-9.131250381469727,30.656251907348633,-23.625
1781034577198503200,17.336503173828124,-10.950000762939453,30.075000762939453,-23.887500762939453
1781034577238504200,17.376504150390623,-10.200000762939453,28.80000114440918,-22.98750114440918
1781034577278497300,17.416497314453125,-11.606250762939453,29.137500762939453,-23.568750381469727
1781034577318505700,17.456505615234374,-10.74375057220459,30.825000762939453,-24.01875114440918
1781034577358514400,17.496514404296875,-7.481250286102295,29.531251907348633,-22.725000381469727
1781034577398507500,17.536507568359376,-10.03125,30.075000762939453,-23.681251525878906
1781034577438508500,17.576508544921875,-9.356250762939453,29.231250762939453,-24.618751525878906
1781034577478509600,17.616509521484375,-9.99375057220459,29.943750381469727,-22.875
1781034577518510600,17.656510498046874,-7.425000190734863,28.012500762939453,-22.6875
1781034577558245000,17.6962451171875,-6.993750095367432,29.17500114440918,-22.350000381469727
1781034577598002700,17.736002685546875,-6.600000381469727,31.275001525878906,-22.556251525878906
1781034577618106000,17.756106201171875,-3.918750047683716,32.73750305175781,-23.025001525878906
1781034577638270000,17.77627001953125,-3,33.58125305175781,-21.712501525878906
1781034577658502400,17.79650244140625,-5.043750286102295,33,-22.162500381469727
1781034577698503200,17.836503173828124,-6.356250286102295,32.118751525878906,-21.20625114440918
1781034577738504200,17.876504150390623,-4.59375,30.95625114440918,-23.850000381469727
1781034577778497500,17.91649755859375,-2.34375,32.66250228881836,-23.681251525878906
1781034577818498300,17.956498291015624,-0.48750001192092896,30.281251907348633,-24.58125114440918
1781034577858506800,17.9965068359375,0.22500000894069672,29.512500762939453,-24.468751907348633
1781034577898507800,18.0365078125,3.656250238418579,30.318750381469727,-23.36250114440918
1781034577938501000,18.076501220703125,-0.4687500298023224,32.17500305175781,-22.293750762939453
1781034577978502000,18.116501953125,1.40625,31.181251525878906,-22.21875
1781034578018503000,18.1565029296875,-3.3937501907348633,31.481250762939453,-21.731250762939453
1781034578058504000,18.19650390625,1.1437500715255737,32.36250305175781,-22.087501525878906
1781034578098504700,18.236504638671875,-1.5937501192092896,29.981250762939453,-23.568750381469727
1781034578138505700,18.276505615234374,0.7875000238418579,30.656251907348633,-27.262500762939453
1781034578178506500,18.316506591796873,0.9187500476837158,27.881250381469727,-25.687501907348633
1781034578218507800,18.3565078125,7.387500286102295,24.506250381469727,-25.912500381469727
1781034578258508500,18.396508544921875,5.306250095367432,24.881250381469727,-26.681251525878906
1781034578298509300,18.43650927734375,7.106250286102295,25.593751907348633,-26.83125114440918
1781034578338518000,18.47651806640625,6.412500381469727,25.200000762939453,-27.281251907348633
1781034578378267600,18.516267578125,5.643750190734863,27.225000381469727,-28.51875114440918
1781034578418078500,18.556078369140625,3.9937500953674316,26.92500114440918,-30.412500381469727
1781034578438166800,18.576166748046877,3.468750238418579,26.36250114440918,-32.962501525878906
1781034578458323000,18.596322998046876,1.0125000476837158,26.73750114440918,-30.806251525878906
1781034578478555400,18.616555419921873,1.443750023841858,28.33125114440918,-30.01875114440918
1781034578518503000,18.6565029296875,4.3125,26.343751907348633,-27.76875114440918
1781034578558504000,18.69650390625,0.9750000238418579,30.76875114440918,-28.087501525878906
1781034578598504700,18.736504638671875,-1.3125,32.212501525878906,-27.281251907348633
1781034578638505700,18.776505615234374,-1.2375000715255737,31.781251907348633,-25.23750114440918
1781034578678506800,18.8165068359375,-2.6437501907348633,33.525001525878906,-25.256250381469727
1781034578718499800,18.856499755859375,-2.0062501430511475,36.056251525878906,-24.562501907348633
1781034578758500900,18.8965009765625,-4.087500095367432,37.462501525878906,-24.187501907348633
1781034578798501600,18.936501708984373,-4.912500381469727,37.06875228881836,-21.712501525878906
1781034578838502700,18.976502685546876,-9.71250057220459,37.10625076293945,-22.087501525878906
1781034578878503700,19.016503662109375,-14.268750190734863,37.01250076293945,-21.431251525878906
1781034578918504400,19.05650439453125,-14.550000190734863,39.09375,-21.825000762939453
1781034578958505200,19.096505126953126,-11.30625057220459,39.60000228881836,-19.725000381469727
1781034578998506000,19.136506103515625,-16.59375,37.95000076293945,-22.350000381469727
1781034579038507000,19.176507080078125,-15.206250190734863,38.17500305175781,-21.506250381469727
1781034579078508000,19.216508056640624,-13.875000953674316,37.05000305175781,-23.512500762939453
1781034579118508800,19.2565087890625,-13.518750190734863,35.90625,-20.71875
1781034579158494500,19.296494384765627,-12.281250953674316,37.837501525878906,-23.025001525878906
1781034579198168000,19.33616796875,-12.468750953674316,34.05000305175781,-24.900001525878906
1781034579238237700,19.37623779296875,-9.487500190734863,33.618751525878906,-25.181251525878906
1781034579258371600,19.39637158203125,-9.99375057220459,33.31875228881836,-26.868751525878906
1781034579278558200,19.41655810546875,-10.912500381469727,31.275001525878906,-28.762500762939453
1781034579318498300,19.456498291015624,-6.975000381469727,31.125001907348633,-27.337501525878906
1781034579358506800,19.4965068359375,-7.931250095367432,28.856250762939453,-29.868751525878906
1781034579398507800,19.5365078125,-8.643750190734863,27.750001907348633,-31.856250762939453
1781034579438508500,19.576508544921875,-5.137500286102295,26.08125114440918,-30.618751525878906
1781034579478509600,19.616509521484375,-2.7750000953674316,23.962501525878906,-30.243751525878906
1781034579518503000,19.6565029296875,-5.287500381469727,23.17500114440918,-30.731250762939453
1781034579558503700,19.696503662109375,1.0500000715255737,23.17500114440918,-32.23125076293945
1781034579598504700,19.736504638671875,-5.25,21,-31.80000114440918
1781034579638505700,19.776505615234374,0,22.125,-31.106250762939453
1781034579678506500,19.816506591796873,0.22500000894069672,22.14375114440918,-30.881250381469727
1781034579718499800,19.856499755859375,-1.818750023841858,21.993751525878906,-30.468751907348633
1781034579758500900,19.8965009765625,0.5250000357627869,22.087501525878906,-28.818750381469727
1781034579798501600,19.936501708984373,-6.150000095367432,22.443750381469727,-30.375001907348633
1781034579838502400,19.97650244140625,-3.4125001430511475,23.850000381469727,-29.006250381469727
1781034579878503400,20.01650341796875,0.4312500059604645,24.76875114440918,-29.137500762939453
1781034579918504200,20.056504150390627,0.65625,24.918750762939453,-29.55000114440918
1781034579958513000,20.096512939453124,2.9625000953674316,26.587501525878906,-27.30000114440918
1781034579998361000,20.136361083984376,4.612500190734863,25.256250381469727,-26.64375114440918
1781034580018152400,20.15615234375,3.6187500953674316,27.95625114440918,-26.73750114440918
1781034580058222000,20.19622216796875,3.637500047683716,29.231250762939453,-24.937501907348633
1781034580078348500,20.2163486328125,3.2062501907348633,29.08125114440918,-24.543750762939453
1781034580098550500,20.236550537109373,1.350000023841858,29.45625114440918,-25.106250762939453
1781034580138505700,20.276505615234374,-0.7125000357627869,31.687501907348633,-23.8125
1781034580178506500,20.316506591796873,-2.7750000953674316,30.056251525878906,-25.42500114440918
1781034580218500000,20.3565,-4.893750190734863,31.368751525878906,-26.100000381469727
1781034580258500900,20.3965009765625,-5.287500381469727,31.537500381469727,-24
1781034580298501600,20.436501708984373,-6.862500190734863,30.000001907348633,-24.337501525878906
1781034580338502700,20.476502685546876,-8.90625,31.443750381469727,-23.118751525878906
1781034580378503400,20.51650341796875,-10.08750057220459,31.575000762939453,-24.150001525878906
1781034580418504400,20.55650439453125,-7.762500286102295,30.86250114440918,-23.006250381469727
1781034580458505200,20.596505126953126,-8.268750190734863,31.556251525878906,-24.168750762939453
1781034580498498600,20.63649853515625,-8.49375057220459,30.11250114440918,-25.575000762939453
1781034580538499600,20.67649951171875,-9.131250381469727,29.64375114440918,-24.356250762939453
1781034580578508000,20.716508056640624,-8.231250762939453,29.775001525878906,-24.993751525878906
1781034580618509000,20.756509033203123,-7.968750476837158,29.475000381469727,-23.775001525878906
1781034580658502400,20.79650244140625,-7.068750381469727,29.662500381469727,-23.756250381469727
1781034580698503200,20.836503173828124,-10.950000762939453,30.093751907348633,-23.681251525878906
1781034580738504200,20.876504150390623,-8.643750190734863,30.093751907348633,-23.26875114440918
1781034580758500900,20.8965009765625,-10.03125,31.125001907348633,-22.537500381469727
1781034580798455800,20.936455810546875,-10.200000762939453,30.431251525878906,-21.356250762939453
1781034580838099000,20.976098876953124,-12.018750190734863,29.662500381469727,-21.84375
1781034580878160600,21.01616064453125,-8.006250381469727,31.012500762939453,-23.606250762939453
1781034580898294800,21.036294677734375,-7.556250095367432,29.55000114440918,-25.218751907348633
1781034580918519600,21.05651953125,-6.862500190734863,30.39375114440918,-24.093751907348633
1781034580958505200,21.096505126953126,-7.556250095367432,30.993751525878906,-23.8125
1781034580998498600,21.13649853515625,-0.48750001192092896,29.45625114440918,-25.293750762939453
1781034581038499600,21.17649951171875,-2.53125,27.468751907348633,-26.73750114440918
1781034581078508000,21.216508056640624,1.3875000476837158,24.843751907348633,-27.693750381469727
1781034581118508800,21.2565087890625,-1.3687500953674316,24.825000762939453,-28.70625114440918
1781034581158502100,21.296502197265625,1.818750023841858,23.962501525878906,-29.250001907348633
1781034581198503200,21.336503173828124,3.2062501907348633,24.375001907348633,-28.593751907348633
1781034581238504200,21.376504150390623,2.5500001907348633,22.818750381469727,-28.968751907348633
1781034581278497300,21.416497314453125,10.575000762939453,25.856250762939453,-25.368751525878906
1781034581318506000,21.456506103515625,12.393750190734863,26.062501907348633,-24.750001907348633
1781034581358514400,21.496514404296875,13.968750953674316,26.381250381469727,-25.350000381469727
1781034581398507500,21.536507568359376,6.393750190734863,28.031251907348633,-25.312501907348633
1781034581438508500,21.576508544921875,3.9000000953674316,27.262500762939453,-25.781251907348633
1781034581478509600,21.616509521484375,1.5937501192092896,27.86250114440918,-25.687501907348633
1781034581518503000,21.6565029296875,-1.443750023841858,30.168750762939453,-26.45625114440918
1781034581558503700,21.696503662109375,-0.675000011920929,28.312501907348633,-25.218751907348633
1781034581598512400,21.736512451171876,-5.118750095367432,29.156251907348633,-27.58125114440918
1781034581638331000,21.776330810546874,-10.068750381469727,29.793750762939453,-24.975000381469727
1781034581678110700,21.81611083984375,-12.975000381469727,29.962501525878906,-23.043750762939453
1781034581698168600,21.83616845703125,-13.012500762939453,31.537500381469727,-22.668750762939453
1781034581718286600,21.85628662109375,-14.550000190734863,32.0625,-20.92500114440918
1781034581738527000,21.87652685546875,-16.875,32.25,-21.506250381469727
1781034581778497300,21.916497314453125,-16.387500762939453,34.125,-19.23750114440918
1781034581818498300,21.956498291015624,-16.61250114440918,35.34375,-18.46875
1781034581858506800,21.9965068359375,-20.306251525878906,35.51250076293945,-19.462501525878906
1781034581898507500,22.036507568359376,-17.475000381469727,35.90625,-16.125
1781034581938500900,22.0765009765625,-18.168750762939453,36.09375,-16.293750762939453
1781034581978502100,22.116502197265625,-15.000000953674316,37.21875,-15.99375057220459
1781034582018503000,22.1565029296875,-14.718750953674316,36.50625228881836,-15.037500381469727
1781034582058503700,22.196503662109375,-14.456250190734863,36.78750228881836,-13.968750953674316
1781034582098504700,22.236504638671875,-18.806251525878906,37.25625228881836,-13.46250057220459
1781034582138505700,22.276505615234374,-19.51875114440918,38.212501525878906,-13.55625057220459
1781034582178506500,22.316506591796873,-20.606250762939453,38.118751525878906,-12.300000190734863
1781034582218507300,22.35650732421875,-20.587501525878906,37.556251525878906,-12.356250762939453
1781034582258508300,22.39650830078125,-18.76875114440918,36.30000305175781,-13.350000381469727
1781034582298501600,22.436501708984373,-19.6875,37.3125,-12.825000762939453
1781034582338502400,22.47650244140625,-19.575000762939453,38.70000076293945,-14.96250057220459
1781034582378510800,22.5165107421875,-20.26875114440918,36.82500076293945,-17.025001525878906
1781034582398515200,22.53651513671875,-20.08125114440918,37.556251525878906,-17.568750381469727
1781034582438447600,22.576447509765625,-15.206250190734863,34.98750305175781,-17.681251525878906
1781034582478083800,22.616083740234377,-15.768750190734863,32.55000305175781,-22.537500381469727
1781034582518153500,22.656153564453124,-16.6875,34.16250228881836,-21.525001525878906
1781034582538271500,22.676271484375,-15.562500953674316,32.47500228881836,-23.381250381469727
1781034582558511400,22.696511474609373,-14.906250953674316,32.400001525878906,-24.431251525878906
1781034582598504700,22.736504638671875,-10.350000381469727,29.043750762939453,-27.543750762939453
1781034582638505700,22.776505615234374,-11.793750762939453,30.150001525878906,-28.443750381469727
1781034582678506500,22.816506591796873,-9.862500190734863,27.093751907348633,-27.750001907348633
1781034582718499800,22.856499755859375,-11.90625,25.068750381469727,-29.83125114440918
1781034582758500900,22.8965009765625,-9.90000057220459,25.387500762939453,-30.225000381469727
1781034582798509300,22.93650927734375,-9.80625057220459,23.53125,-29.400001525878906
1781034582838510300,22.97651025390625,-7.762500286102295,20.850000381469727,-31.575000762939453
1781034582878503400,23.01650341796875,-10.5,20.212501525878906,-32.868751525878906
1781034582918504200,23.056504150390627,-8.850000381469727,20.55000114440918,-30.562501907348633
1781034582958505000,23.0965048828125,-10.012500762939453,19.106250762939453,-32.38125228881836
1781034582998506200,23.13650634765625,-10.21875,18.09375,-32.88750076293945
1781034583038507300,23.17650732421875,-9.506250381469727,17.962501525878906,-32.08125305175781
1781034583078508000,23.216508056640624,-13.593750953674316,16.837501525878906,-32.38125228881836
1781034583118509000,23.256509033203123,-10.21875,18.131250381469727,-32.47500228881836
1781034583158502100,23.296502197265625,-12.71250057220459,17.568750381469727,-32.71875
1781034583198503200,23.336503173828124,-12.24375057220459,18,-32.0625
1781034583218507500,23.356507568359376,-11.756250381469727,18.46875,-30.750001907348633
1781034583258455000,23.396455078125,-12.656250953674316,17.287500381469727,-31.293750762939453
1781034583298090200,23.43609033203125,-7.706250190734863,18.731250762939453,-31.593751907348633
1781034583338167300,23.476167236328124,-13.143750190734863,19.89375114440918,-29.756250381469727
1781034583358301200,23.49630126953125,-9.918750762939453,19.51875114440918,-29.006250381469727
1781034583378526200,23.516526123046877,-8.362500190734863,18.412500381469727,-31.012500762939453
1781034583418504400,23.55650439453125,-13.668750762939453,20.137500762939453,-31.818750381469727
1781034583458505500,23.59650537109375,-8.34375,18.637500762939453,-30.356250762939453
1781034583498498600,23.63649853515625,-11.21250057220459,21.412500381469727,-32.306251525878906
1781034583538499600,23.67649951171875,-12.543750762939453,21.918750762939453,-31.012500762939453
1781034583578508000,23.716508056640624,-13.27500057220459,24.881250381469727,-30.056251525878906
1781034583618509000,23.756509033203123,-14.568750381469727,23.45625114440918,-28.51875114440918
1781034583658502100,23.796502197265625,-16.368751525878906,23.118751525878906,-28.125001907348633
1781034583698503200,23.836503173828124,-15.018750190734863,25.725000381469727,-26.400001525878906
1781034583738504000,23.87650390625,-13.406250953674316,26.568750381469727,-25.068750381469727
1781034583778497300,23.916497314453125,-13.893750190734863,27.712501525878906,-25.162500381469727
1781034583818498000,23.956498046875,-12.562500953674316,28.650001525878906,-25.481250762939453
1781034583858506800,23.9965068359375,-13.46250057220459,29.08125114440918,-24.806251525878906
1781034583898507500,24.036507568359376,-13.18125057220459,27.356250762939453,-24.787500381469727
1781034583938500900,24.0765009765625,-13.74375057220459,30.39375114440918,-25.481250762939453
1781034583978502000,24.116501953125,-10.481250762939453,27.450000762939453,-25.631250381469727
1781034584018510800,24.1565107421875,-10.74375057220459,28.61250114440918,-25.70625114440918
1781034584058512000,24.196511962890625,-9.131250381469727,28.218751907348633,-25.556251525878906
1781034584098351900,24.236351806640624,-10.725000381469727,28.668750762939453,-24.881250381469727
1781034584138193200,24.276193115234374,-10.443750381469727,31.61250114440918,-21.01875114440918
1781034584158220500,24.296220458984376,-10.74375057220459,31.875001907348633,-22.856250762939453
1781034584178346800,24.3163466796875,-14.362500190734863,30.356250762939453,-23.193750381469727
1781034584198548700,24.336548828125,-12.037500381469727,28.818750381469727,-22.96875
1781034584238504200,24.376504150390623,-9.787500381469727,28.462501525878906,-24.693750381469727
1781034584278497300,24.416497314453125,-12.468750953674316,27.825000762939453,-23.493751525878906
1781034584318498000,24.456498046875,-6.112500190734863,29.287500381469727,-23.381250381469727
1781034584358506800,24.4965068359375,-8.193750381469727,31.500001907348633,-22.293750762939453
1781034584398507800,24.5365078125,-6.618750095367432,31.837501525878906,-22.6875
1781034584438508500,24.576508544921875,-6.206250190734863,32.73750305175781,-23.4375
1781034584478509600,24.616509521484375,-4.818750381469727,31.537500381469727,-23.793750762939453
1781034584518503000,24.6565029296875,-2.7750000953674316,31.51875114440918,-23.8125
1781034584558504000,24.69650390625,-1.162500023841858,30.918750762939453,-23.887500762939453
1781034584598504700,24.736504638671875,0.39375001192092896,29.962501525878906,-26.08125114440918
1781034584638505500,24.77650537109375,2.4937500953674316,27.20625114440918,-26.625001907348633
1781034584678506500,24.816506591796873,0.675000011920929,28.668750762939453,-25.406251907348633
1781034584718499600,24.85649951171875,0.8437500596046448,27.11250114440918,-28.481250762939453
1781034584758500600,24.89650048828125,-3,27.056251525878906,-27.20625114440918
1781034584798501600,24.936501708984373,-4.725000381469727,25.012500762939453,-26.587501525878906
1781034584838502400,24.97650244140625,-0.5250000357627869,26.887500762939453,-28.912500381469727
1781034584878503400,25.01650341796875,-6.637500286102295,25.687501907348633,-28.14375114440918
1781034584918359300,25.056359375,-10.293750762939453,26.306251525878906,-28.256250381469727
1781034584958216000,25.0962158203125,-13.950000762939453,26.381250381469727,-28.012500762939453
1781034584978228000,25.11622802734375,-13.950000762939453,26.381250381469727,-28.012500762939453
1781034584998354400,25.1363544921875,-16.42500114440918,29.137500762939453,-24.562501907348633
1781034585018549000,25.156549072265626,-20.756250381469727,28.80000114440918,-24.76875114440918
1781034585058503700,25.196503662109375,-20.756250381469727,28.80000114440918,-24.76875114440918
1781034585098504400,25.23650439453125,-29.868751525878906,30.67500114440918,-16.14375114440918
1781034585138505500,25.27650537109375,-30.67500114440918,32.36250305175781,-11.58750057220459
1781034585178506500,25.316506591796873,-32.025001525878906,34.05000305175781,-9.506250381469727
1781034585218499600,25.35649951171875,-30.39375114440918,34.10625076293945,-8.475000381469727
1781034585258500600,25.39650048828125,-30.187501907348633,35.90625,-7.462500095367432
1781034585298509300,25.43650927734375,-28.61250114440918,36.86250305175781,-7.162500381469727
1781034585338517800,25.476517822265624,-28.031251907348633,38.025001525878906,-9.75
1781034585378511000,25.516510986328125,-25.33125114440918,37.89375305175781,-11.02500057220459
1781034585418504400,25.55650439453125,-23.006250381469727,35.775001525878906,-10.668750762939453
1781034585458505200,25.596505126953126,-20.418750762939453,37.837501525878906,-13.800000190734863
1781034585498498600,25.63649853515625,-15.937500953674316,36.35625076293945,-17.53125
1781034585538499300,25.676499267578127,-18.48750114440918,35.681251525878906,-19.462501525878906
1781034585578507800,25.7165078125,-14.456250190734863,32.38125228881836,-24.637500762939453
1781034585618508800,25.7565087890625,-11.943750381469727,32.53125,-24.656251907348633
1781034585658509800,25.796509765625,-10.65000057220459,32.15625,-27.000001907348633
1781034585698510800,25.8365107421875,-3.7687501907348633,29.73750114440918,-27.525001525878906
1781034585738351600,25.8763515625,-4.856250286102295,27.187501907348633,-28.42500114440918
1781034585778223000,25.91622314453125,-4.950000286102295,29.437501907348633,-29.212501525878906
1781034585798242800,25.936242919921874,-3.1125001907348633,28.42500114440918,-29.55000114440918
1781034585818376700,25.956376708984376,-2.34375,25.931251525878906,-29.418750762939453
1781034585858506800,25.9965068359375,-3.9000000953674316,23.400001525878906,-30.093751907348633
1781034585898507500,26.036507568359376,-5.287500381469727,22.368751525878906,-31.443750381469727
1781034585938500900,26.0765009765625,-3.656250238418579,21.412500381469727,-31.14375114440918
1781034585978502000,26.116501953125,-5.4375,20.700000762939453,-30.58125114440918
1781034586018502700,26.156502685546876,-6.131250381469727,20.64375114440918,-31.406251907348633
1781034586058503700,26.196503662109375,-2.043750047683716,20.793750762939453,-31.42500114440918
1781034586098504700,26.236504638671875,-6.131250381469727,19.650001525878906,-31.931251525878906
1781034586138505500,26.27650537109375,-3.656250238418579,19.96875,-32.34375
1781034586178506200,26.31650634765625,-4.293750286102295,19.856250762939453,-31.500001907348633
1781034586218499800,26.356499755859375,-4.368750095367432,20.306251525878906,-33.337501525878906
1781034586258500900,26.3965009765625,-4.106250286102295,20.36250114440918,-32.493751525878906
1781034586298501400,26.43650146484375,-4.800000190734863,21.375,-31.762500762939453
1781034586338502400,26.47650244140625,-3.6937501430511475,22.725000381469727,-31.406251907348633
1781034586378503400,26.51650341796875,-4.368750095367432,23.17500114440918,-30.731250762939453
1781034586418504200,26.556504150390627,-4.125,21.375,-31.762500762939453
1781034586458513000,26.596512939453124,-7.293750286102295,24.131250381469727,-28.51875114440918
1781034586498513400,26.636513427734375,-5.043750286102295,26.08125114440918,-27.712501525878906
1781034586538468600,26.676468505859376,-5.90625,26.587501525878906,-26.193750381469727
1781034586578119200,26.716119140625,-6.225000381469727,29.025001525878906,-27.168750762939453
1781034586618196500,26.756196533203124,-7.631250381469727,30.825000762939453,-26.325000762939453
1781034586638330600,26.77633056640625,-7.125000476837158,29.887500762939453,-25.818750381469727
1781034586658540000,26.7965400390625,-8.25,30.337501525878906,-25.14375114440918
1781034586698503000,26.8365029296875,-10.068750381469727,28.98750114440918,-25.462501525878906
1781034586738503700,26.876503662109375,-8.90625,30.431251525878906,-24.075000762939453
1781034586778497000,26.9164970703125,-8.21250057220459,30.037500381469727,-23.92500114440918
1781034586818498000,26.956498046875,-9.112500190734863,31.725000381469727,-21.84375
1781034586858506800,26.9965068359375,-6.431250095367432,29.512500762939453,-25.650001525878906
1781034586898507800,27.0365078125,-8.456250190734863,30.037500381469727,-24.131250381469727
1781034586938500900,27.0765009765625,-6.450000286102295,30.712501525878906,-24.900001525878906
1781034586978502000,27.116501953125,-6.768750190734863,29.36250114440918,-22.33125114440918
1781034587018502700,27.156502685546876,-7.762500286102295,28.387500762939453,-25.350000381469727
1781034587058503700,27.196503662109375,-9.33750057220459,27.843751907348633,-25.406251907348633
1781034587098504400,27.23650439453125,-6.806250095367432,29.700000762939453,-23.137500762939453
1781034587138505200,27.276505126953126,-5.475000381469727,29.793750762939453,-24.187501907348633
1781034587178506200,27.31650634765625,-3.468750238418579,30.075000762939453,-25.200000762939453
1781034587218507300,27.35650732421875,-6.712500095367432,32.85000228881836,-24.67500114440918
1781034587258508000,27.396508056640624,-8.4375,30.056251525878906,-23.700000762939453
1781034587298501400,27.43650146484375,-2.7750000953674316,31.89375114440918,-23.756250381469727
1781034587338502400,27.47650244140625,-5.793750286102295,32.868751525878906,-24.037500381469727
1781034587378304800,27.5163046875,-2.4937500953674316,30.20625114440918,-23.325000762939453
1781034587417834500,27.55583447265625,-7.781250476837158,31.631250381469727,-22.912500381469727
1781034587458033700,27.59603369140625,-7.087500095367432,31.031251907348633,-23.193750381469727
1781034587478265900,27.616265869140626,-6.450000286102295,30.918750762939453,-24.67500114440918
1781034587498498600,27.63649853515625,-4.875,31.443750381469727,-25.256250381469727
1781034587538499300,27.676499267578127,-4.200000286102295,31.593751907348633,-25.650001525878906
1781034587578507800,27.7165078125,-1.4250000715255737,29.193750381469727,-26.36250114440918
1781034587618508800,27.7565087890625,-2.34375,29.400001525878906,-26.531251907348633
1781034587658502100,27.796502197265625,-0.07500000298023224,27.712501525878906,-28.200000762939453
1781034587698503200,27.836503173828124,-2.793750047683716,27.150001525878906,-28.443750381469727
1781034587738504000,27.87650390625,0.39375001192092896,24.037500381469727,-31.087501525878906
1781034587778497300,27.916497314453125,-3.2437500953674316,22.70625114440918,-31.631250381469727
1781034587818498000,27.956498046875,-2.7562501430511475,21.95625114440918,-31.293750762939453
1781034587858506800,27.9965068359375,-6.918750286102295,22.6875,-32.64375305175781
1781034587898507500,28.036507568359376,-6.731250286102295,23.006250381469727,-33.431251525878906
1781034587938500900,28.0765009765625,-5.793750286102295,23.700000762939453,-31.70625114440918
1781034587978501600,28.116501708984377,-3.9937500953674316,23.775001525878906,-32.962501525878906
1781034588018510300,28.15651025390625,-8.568750381469727,27.712501525878906,-29.587501525878906
1781034588058511400,28.196511474609373,-4.518750190734863,29.381250381469727,-29.850000381469727
1781034588098504400,28.23650439453125,-2.0250000953674316,32.55000305175781,-27.86250114440918
1781034588138505500,28.27650537109375,0.39375001192092896,35.79375076293945,-27.937501907348633
1781034588178445300,28.3164453125,-4.743750095367432,36.337501525878906,-23.887500762939453
1781034588218074000,28.35607421875,-9.5625,37.35000228881836,-24.150001525878906
1781034588257900300,28.395900390625,-15.300000190734863,37.96875,-24.431251525878906
1781034588278026000,28.41602587890625,-15.750000953674316,38.400001525878906,-23.981250762939453
1781034588298265600,28.436265625,-16.012500762939453,38.71875,-24.975000381469727
1781034588318498000,28.456498046875,-15.131250381469727,41.08125305175781,-23.700000762939453
1781034588358506500,28.496506591796877,-9.80625057220459,41.60625076293945,-20.775001525878906
1781034588398507500,28.536507568359376,-9.356250762939453,40.35000228881836,-22.162500381469727
1781034588438508500,28.576508544921875,-9.675000190734863,41.587501525878906,-23.681251525878906
1781034588478509300,28.61650927734375,-14.268750190734863,42.20625305175781,-24.20625114440918
1781034588518502700,28.656502685546876,-11.456250190734863,39.82500076293945,-24.48750114440918
1781034588558503700,28.696503662109375,-10.762500762939453,37.01250076293945,-26.250001907348633
1781034588598504200,28.736504150390626,-8.550000190734863,37.05000305175781,-28.14375114440918
1781034588638505200,28.776505126953126,-8.0625,33.431251525878906,-30.20625114440918
1781034588678506200,28.81650634765625,-5.943750381469727,33.13125228881836,-28.593751907348633
1781034588718499600,28.85649951171875,-7.537500381469727,29.887500762939453,-31.42500114440918
1781034588758500600,28.89650048828125,-5.850000381469727,26.83125114440918,-30.731250762939453
1781034588798509000,28.936509033203127,-5.137500286102295,25.837501525878906,-31.275001525878906
1781034588838510000,28.976510009765626,-10.856250762939453,21.787500381469727,-35.19375228881836
1781034588878503400,29.01650341796875,-10.387500762939453,23.0625,-33.39375305175781
1781034588918504200,29.056504150390627,-7.537500381469727,21.431251525878906,-31.51875114440918
1781034588958505200,29.096505126953126,-6.843750476837158,19.59375,-32.98125076293945
1781034588998437400,29.136437255859374,-7.012500286102295,18.131250381469727,-31.875001907348633
1781034589038065400,29.1760654296875,-9.318750381469727,19.912500381469727,-31.462501525878906
1781034589078196000,29.216196044921876,-6.375000476837158,20.025001525878906,-32.10000228881836
1781034589098329300,29.236329345703126,-6.337500095367432,19.3125,-31.350000381469727
1781034589118570000,29.256570068359373,-5.4375,20.287500381469727,-31.05000114440918
1781034589158502100,29.296502197265625,-6.618750095367432,18.95625114440918,-33.67500305175781
1781034589198503000,29.3365029296875,-5.943750381469727,19.78125,-32.75625228881836
1781034589238504000,29.37650390625,-9.28125,19.98750114440918,-30.412500381469727
1781034589278497300,29.416497314453125,-10.55625057220459,23.568750381469727,-31.668750762939453
1781034589318505700,29.456505615234374,-6.843750476837158,23.287500381469727,-29.662500381469727
1781034589358514200,29.49651416015625,-6.412500381469727,24.656251907348633,-29.100000381469727
1781034589398507500,29.536507568359376,-8.02500057220459,27.093751907348633,-27.356250762939453
1781034589438508500,29.576508544921875,-12.318750381469727,29.08125114440918,-24.600000381469727
1781034589478509300,29.61650927734375,-11.662500381469727,28.406251907348633,-25.931251525878906
1781034589518502700,29.656502685546876,-9.61875057220459,27.918750762939453,-27.056251525878906
1781034589558503700,29.696503662109375,-9.84375,31.200000762939453,-23.981250762939453
1781034589598512000,29.73651220703125,-11.21250057220459,30.618751525878906,-24.450000762939453
1781034589638513000,29.776512939453124,-8.943750381469727,30.375001907348633,-24.918750762939453
1781034589678506200,29.81650634765625,-11.006250381469727,30.356250762939453,-25.51875114440918
1781034589718499600,29.85649951171875,-9.1875,28.500001907348633,-26.981250762939453
1781034589758508300,29.89650830078125,-9.393750190734863,30.787500381469727,-24.450000762939453
1781034589778512600,29.9165126953125,-9.581250190734863,30.881250381469727,-23.17500114440918
1781034589818422000,29.956422119140626,-9.600000381469727,30.412500381469727,-24.281251907348633
1781034589858019600,29.99601953125,-12.600000381469727,30.76875114440918,-25.256250381469727
1781034589898112300,30.0361123046875,-5.643750190734863,28.33125114440918,-23.287500381469727
1781034589918268400,30.056268310546876,-5.025000095367432,29.587501525878906,-24.412500381469727
1781034589938500900,30.0765009765625,-9.43125057220459,29.475000381469727,-26.662500381469727
1781034589978502000,30.116501953125,-9.33750057220459,29.062501907348633,-24.431251525878906
1781034590018503000,30.1565029296875,-9.393750190734863,29.775001525878906,-25.181251525878906
1781034590058504000,30.19650390625,-6.862500190734863,29.156251907348633,-25.275001525878906
1781034590098505000,30.2365048828125,-9.99375057220459,29.137500762939453,-23.36250114440918
1781034590138505700,30.276505615234374,-9.318750381469727,28.51875114440918,-23.868751525878906
1781034590178506500,30.316506591796873,-8.831250190734863,28.350000381469727,-23.45625114440918
1781034590218499800,30.356499755859375,-4.350000381469727,30.356250762939453,-24.131250381469727
1781034590258500600,30.39650048828125,-7.950000286102295,28.05000114440918,-24.750001907348633
1781034590298501400,30.43650146484375,-6.393750190734863,29.606250762939453,-24.187501907348633
1781034590338502400,30.47650244140625,-10.068750381469727,30.187501907348633,-24.918750762939453
1781034590378503200,30.516503173828124,-9.131250381469727,28.650001525878906,-24.900001525878906
1781034590418504200,30.556504150390627,-9.975000381469727,29.606250762939453,-22.068750381469727
1781034590458512600,30.5965126953125,-5.681250095367432,29.250001907348633,-23.8125
1781034590498506000,30.636506103515625,-1.3875000476837158,30.900001525878906,-24.093751907348633
1781034590538499300,30.676499267578127,-5.475000381469727,32.025001525878906,-22.481250762939453
1781034590578508000,30.716508056640624,-4.162500381469727,30.262500762939453,-25.593751907348633
1781034590618501400,30.75650146484375,-0.9937500357627869,29.962501525878906,-26.287500381469727
1781034590658167300,30.796167236328124,-2.34375,26.343751907348633,-28.950000762939453
1781034590698229200,30.836229248046877,0.5062500238418579,25.125001907348633,-26.606250762939453
1781034590718363100,30.856363037109375,2.4937500953674316,26.381250381469727,-27.543750762939453
1781034590738557400,30.876557373046875,2.6437501907348633,25.781251907348633,-30.525001525878906
1781034590778497300,30.916497314453125,-3.0187501907348633,23.55000114440918,-30.712501525878906
1781034590818498000,30.956498046875,-0.6937500238418579,21.506250381469727,-31.781251907348633
1781034590858506800,30.9965068359375,-2.9250001907348633,20.868751525878906,-30.375001907348633
1781034590898507500,31.036507568359376,-3.187500238418579,22.42500114440918,-30.20625114440918
1781034590938500900,31.0765009765625,-5.231250286102295,24.30000114440918,-28.51875114440918
1781034590978501600,31.116501708984377,-3.9000000953674316,25.012500762939453,-29.08125114440918
1781034591018502700,31.156502685546876,-8.737500190734863,26.83125114440918,-28.631250381469727
1781034591058511400,31.196511474609373,-7.781250476837158,27.731250762939453,-26.662500381469727
1781034591098512100,31.23651220703125,-7.837500095367432,29.475000381469727,-26.475000381469727
1781034591138505500,31.27650537109375,-13.500000953674316,29.212501525878906,-25.837501525878906
1781034591178506200,31.31650634765625,-13.781250953674316,31.125001907348633,-25.837501525878906
1781034591218499600,31.35649951171875,-18,31.443750381469727,-22.21875
1781034591258500400,31.396500244140626,-22.59375,33.28125,-21.356250762939453
1781034591298501400,31.43650146484375,-22.837501525878906,34.181251525878906,-14.175000190734863
1781034591338502100,31.476502197265624,-22.80000114440918,35.306251525878906,-11.96250057220459
1781034591378503200,31.516503173828124,-22.443750381469727,36.60000228881836,-7.237500190734863
1781034591418504000,31.55650390625,-24.225000381469727,36.35625076293945,-5.587500095367432
1781034591458398000,31.59639794921875,-28.368751525878906,37.51875305175781,-6.056250095367432
1781034591498285000,31.63628515625,-26.55000114440918,39.09375,-5.268750190734863
1781034591518282000,31.656281982421874,-23.681251525878906,39.46875,-7.350000381469727
1781034591538392800,31.676392822265626,-20.53125,40.743751525878906,-7.856250286102295
1781034591578507500,31.716507568359376,-20.55000114440918,41.306251525878906,-8.21250057220459
1781034591618508500,31.756508544921875,-18.75,39.806251525878906,-10.050000190734863
1781034591658502000,31.796501953125,-18.731250762939453,38.51250076293945,-17.475000381469727
1781034591698503000,31.8365029296875,-11.90625,38.34375,-18.39375114440918
1781034591738504000,31.87650390625,-12.61875057220459,35.64375305175781,-21.39375114440918
1781034591778497300,31.916497314453125,-11.043750762939453,34.35000228881836,-23.418750762939453
1781034591818498000,31.956498046875,-11.100000381469727,33.41250228881836,-25.61250114440918
1781034591858506500,31.996506591796877,-8.625,32.306251525878906,-27.20625114440918
1781034591898507500,32.036507568359376,-9,29.812501907348633,-27.262500762939453
1781034591938500600,32.07650048828125,-6.337500095367432,27.975000381469727,-31.031251907348633
1781034591978501600,32.11650170898437,-2.137500047683716,26.868751525878906,-29.531251907348633
1781034592018502700,32.156502685546876,-3.8062500953674316,25.968751907348633,-31.89375114440918
1781034592058503700,32.19650366210937,-1.4625000953674316,23.8125,-31.950000762939453
1781034592098504400,32.23650439453125,0.13125000894069672,25.406251907348633,-30.937501907348633
1781034592138505500,32.27650537109375,4.03125,23.775001525878906,-31.575000762939453
1781034592178506200,32.31650634765625,4.518750190734863,23.64375114440918,-30.562501907348633
1781034592218507000,32.356507080078124,2.700000047683716,23.64375114440918,-30.95625114440918
1781034592258508000,32.39650805664063,2.4937500953674316,22.912500381469727,-30.412500381469727
1781034592298219800,32.4362197265625,-0.05625000223517418,22.856250762939453,-31.856250762939453
1781034592337984800,32.47598486328125,-0.9187500476837158,22.59375,-30.20625114440918
1781034592358096000,32.49609594726562,-1.8937500715255737,23.475000381469727,-31.556251525878906
1781034592378267100,32.51626708984375,-1.2000000476837158,23.681251525878906,-30.918750762939453
1781034592398507300,32.53650732421875,1.3687500953674316,22.931251525878906,-30.39375114440918
1781034592438500600,32.57650048828125,4.987500190734863,23.64375114440918,-30.562501907348633
1781034592478501400,32.61650146484375,1.725000023841858,24.543750762939453,-31.89375114440918
1781034592518502400,32.65650244140625,-1.40625,23.90625,-30.67500114440918
1781034592558503400,32.69650341796875,-0.9750000238418579,25.481250762939453,-29.887500762939453
1781034592598504200,32.73650415039062,-5.625,27.618751525878906,-30.450000762939453
1781034592638505200,32.776505126953126,-4.21875,27.450000762939453,-29.850000381469727
1781034592678506200,32.81650634765625,-1.2000000476837158,28.387500762939453,-27.075000762939453
1781034592718499600,32.85649951171875,-8.268750190734863,29.287500381469727,-26.287500381469727
1781034592758500400,32.896500244140626,-8.512500762939453,28.275001525878906,-27.225000381469727
1781034592798501400,32.93650146484375,-8.081250190734863,30.825000762939453,-26.325000762939453
1781034592838502400,32.97650244140625,-8.850000381469727,30.58125114440918,-21.975000381469727
1781034592878503200,33.01650317382813,-10.5,31.087501525878906,-23.15625
1781034592918504200,33.05650415039062,-10.5,31.087501525878906,-23.15625
1781034592958505000,33.0965048828125,-9.787500381469727,29.100000381469727,-23.793750762939453
1781034592998506000,33.13650610351562,-9.112500190734863,29.662500381469727,-23.943750381469727
1781034593038506800,33.1765068359375,-12.562500953674316,31.275001525878906,-23.53125
1781034593078500000,33.2165,-9.80625057220459,30.48750114440918,-23.4375
1781034593118196500,33.25619653320312,-9.80625057220459,30.48750114440918,-23.4375
1781034593157984500,33.295984619140626,-8.850000381469727,30.168750762939453,-22.21875
1781034593178110700,33.31611083984375,-9.52500057220459,30.375001907348633,-22.200000762939453
1781034593198290000,33.3362900390625,-9.5625,30.693750381469727,-23.006250381469727
1781034593218522400,33.3565224609375,-11.625,30.11250114440918,-23.662500381469727
1781034593258500400,33.396500244140626,-12.33750057220459,30.037500381469727,-24.712501525878906
1781034593298501400,33.43650146484375,-10.106250762939453,31.556251525878906,-24.562501907348633
1781034593338509800,33.476509765625,-9.131250381469727,29.006250381469727,-25.068750381469727
1781034593378510600,33.51651049804688,-13.93125057220459,31.70625114440918,-23.043750762939453
1781034593418504000,33.55650390625,-15.487500190734863,32.025001525878906,-21.543750762939453
1781034593458512600,33.5965126953125,-11.193750381469727,32.47500228881836,-22.575000762939453
1781034593498505700,33.63650561523438,-10.575000762939453,30.881250381469727,-26.100000381469727
1781034593538499000,33.6764990234375,-6.712500095367432,34.087501525878906,-23.493751525878906
1781034593578507800,33.7165078125,-8.90625,32.26875305175781,-22.42500114440918
1781034593618508800,33.7565087890625,-13.518750190734863,30.806251525878906,-24.825000762939453
1781034593658502100,33.796502197265625,-10.78125,33,-23.15625
1781034593698503000,33.8365029296875,-11.700000762939453,31.14375114440918,-25.218751907348633
1781034593738504000,33.87650390625,-11.512500762939453,30.67500114440918,-26.306251525878906
1781034593778497000,33.9164970703125,-3.0187501907348633,30.656251907348633,-24.937501907348633
1781034593818498000,33.956498046875,-5.137500286102295,29.756250381469727,-27.506250381469727
1781034593858506800,33.9965068359375,-4.012500286102295,30.67500114440918,-27.637500762939453
1781034593898507800,34.0365078125,-2.793750047683716,27.787500381469727,-27.543750762939453
1781034593938204200,34.0762041015625,1.2937500476837158,28.687501907348633,-27.693750381469727
1781034593978288600,34.11628857421875,0.05625000223517418,29.325000762939453,-29.681251525878906
1781034593998407200,34.1364072265625,-0.862500011920929,27.900001525878906,-31.087501525878906
1781034594038522000,34.176522216796876,-7.125000476837158,28.762500762939453,-33.63750076293945
1781034594078507800,34.2165078125,-5.681250095367432,27.693750381469727,-32.10000228881836
1781034594118508500,34.25650854492188,-10.050000190734863,29.306251525878906,-31.89375114440918
1781034594158502000,34.296501953125,-8.71875,30.86250114440918,-31.51875114440918
1781034594198503000,34.3365029296875,-10.27500057220459,31.368751525878906,-30.000001907348633
1781034594238504000,34.37650390625,-15.71250057220459,30.30000114440918,-29.64375114440918
1781034594278497000,34.4164970703125,-21.337501525878906,30.975000381469727,-26.606250762939453
1781034594318497800,34.456497802734376,-24.750001907348633,33.48750305175781,-24.225000381469727
1781034594358506500,34.49650659179687,-28.818750381469727,35.26875305175781,-21.693750381469727
1781034594398507300,34.53650732421875,-29.962501525878906,39.337501525878906,-18.75
1781034594438500900,34.5765009765625,-28.031251907348633,40.78125,-14.02500057220459
1781034594478502000,34.616501953125,-31.125001907348633,40.85625076293945,-11.081250190734863
1781034594518502700,34.656502685546876,-38.94375228881836,36.65625,-9.375
1781034594558503400,34.69650341796875,-39.712501525878906,32.08125305175781,-9.037500381469727
1781034594598504200,34.73650415039062,-41.493751525878906,30.993751525878906,-8.512500762939453
1781034594638505200,34.776505126953126,-42.13125228881836,33.84375,-11.737500190734863
1781034594678506200,34.81650634765625,-36.31875228881836,34.10625076293945,-15.093750953674316
1781034594718514700,34.8565146484375,-34.48125076293945,35.71875,-13.687500953674316
1781034594758249200,34.89624926757813,-34.89375305175781,35.92500305175781,-18.86250114440918
1781034594798052400,34.93605224609375,-28.912500381469727,30.86250114440918,-21.5625
1781034594818156000,34.95615600585938,-29.193750381469727,31.106250762939453,-23.400001525878906
1781034594838319900,34.97631982421875,-28.61250114440918,32.32500076293945,-25.350000381469727
1781034594858552300,34.99655224609375,-26.100000381469727,30.86250114440918,-26.36250114440918
1781034594898507500,35.036507568359376,-25.650001525878906,26.568750381469727,-29.962501525878906
1781034594938500600,35.07650048828125,-27.412500381469727,25.70625114440918,-28.98750114440918
1781034594978501600,35.11650170898437,-24.01875114440918,22.14375114440918,-32.53125
1781034595018502700,35.156502685546876,-23.381250381469727,24.093751907348633,-32.118751525878906
1781034595058511000,35.19651098632813,-16.70625114440918,21.450000762939453,-32.88750076293945
1781034595098512000,35.236511962890624,-17.137500762939453,19.462501525878906,-33.9375
1781034595138505200,35.276505126953126,-11.456250190734863,17.73750114440918,-35.64375305175781
1781034595178506200,35.31650634765625,-9.375,20.400001525878906,-32.868751525878906
1781034595218499300,35.35649926757812,-5.943750381469727,18.543750762939453,-34.14375305175781
1781034595258500400,35.396500244140626,-5.681250095367432,18.412500381469727,-33.11250305175781
1781034595298501400,35.43650146484375,-5.0625,18.67500114440918,-34.556251525878906
1781034595338502100,35.476502197265624,-6.168750286102295,18.543750762939453,-34.14375305175781
1781034595378503000,35.5165029296875,-4.725000381469727,18.46875,-32.08125305175781
1781034595418504000,35.55650390625,-1.6500000953674316,19.631250381469727,-34.05000305175781
1781034595458512400,35.596512451171876,-1.6125000715255737,20.71875,-32.28750228881836
1781034595498513400,35.63651342773438,-2.793750047683716,25.537500381469727,-29.45625114440918
1781034595538514400,35.676514404296874,-6.262500286102295,26.906251907348633,-29.681251525878906
1781034595578233600,35.716233642578125,-6,28.031251907348633,-27.48750114440918
1781034595617758700,35.7557587890625,-6.206250190734863,26.231250762939453,-28.51875114440918
1781034595637870000,35.7758701171875,-7.800000190734863,27.281251907348633,-27.562501907348633
1781034595658034000,35.79603393554687,-10.08750057220459,28.14375114440918,-26.812501907348633
1781034595678274000,35.816274169921876,-11.175000190734863,28.42500114440918,-25.51875114440918
1781034595698503000,35.8365029296875,-12.093750953674316,29.26875114440918,-24.58125114440918
1781034595738503700,35.87650366210938,-6.168750286102295,28.537500381469727,-25.762500762939453
1781034595778497300,35.916497314453125,-5.737500190734863,27.48750114440918,-26.92500114440918
1781034595818498300,35.95649829101563,-8.925000190734863,30.39375114440918,-24.48750114440918
1781034595858506500,35.99650659179687,-7.987500190734863,28.593751907348633,-25.33125114440918
1781034595898507300,36.03650732421875,-8.49375057220459,30.543750762939453,-25.106250762939453
1781034595938500900,36.0765009765625,-8.40000057220459,27.506250381469727,-24.600000381469727
1781034595978501600,36.11650170898437,-7.368750095367432,29.887500762939453,-26.025001525878906
1781034596018502400,36.15650244140625,-6.206250190734863,28.856250762939453,-26.55000114440918
1781034596058503400,36.19650341796875,-6.862500190734863,29.36250114440918,-25.05000114440918
1781034596098504200,36.23650415039062,-5.962500095367432,29.325000762939453,-25.462501525878906
1781034596138505200,36.276505126953126,-8.475000381469727,28.537500381469727,-26.156251907348633
1781034596178506000,36.31650610351563,-7.293750286102295,28.631250381469727,-24.693750381469727
1781034596218507000,36.356507080078124,-8.49375057220459,30.150001525878906,-25.162500381469727
1781034596258507800,36.3965078125,-7.125000476837158,29.100000381469727,-26.118751525878906
1781034596298501000,36.43650122070313,-10.3125,29.568750381469727,-25.61250114440918
1781034596338509800,36.476509765625,-5.643750190734863,30.150001525878906,-21.84375
1781034596378380800,36.516380859375,-7.462500095367432,31.181251525878906,-21.30000114440918
1781034596418252800,36.55625268554687,-4.537500381469727,31.89375114440918,-21.450000762939453
1781034596438257000,36.5762568359375,-2.6812500953674316,31.293750762939453,-21.337501525878906
1781034596458383400,36.59638330078125,-3.8625001907348633,31.031251907348633,-22.80000114440918
1781034596498498000,36.636498046875,0.862500011920929,31.837501525878906,-24.01875114440918
1781034596538499300,36.67649926757812,-1.1812500953674316,30.881250381469727,-24.30000114440918
1781034596578507800,36.7165078125,0.375,31.181251525878906,-25.33125114440918
1781034596618508500,36.75650854492188,-0.24375000596046448,30.30000114440918,-24.375001907348633
1781034596658502000,36.796501953125,2.6812500953674316,29.512500762939453,-26.568750381469727
1781034596698503000,36.8365029296875,1.8000000715255737,27.806251525878906,-26.55000114440918
1781034596738503700,36.87650366210938,1.5750000476837158,26.36250114440918,-27.937501907348633
1781034596778497000,36.9164970703125,0.01875000074505806,24.243751525878906,-28.368751525878906
1781034596818497800,36.956497802734376,-2.512500047683716,23.006250381469727,-30.150001525878906
1781034596858506500,36.99650659179687,-1.4250000715255737,21.637500762939453,-32.79375076293945
1781034596898507300,37.03650732421875,-4.162500381469727,23.512500762939453,-31.312501907348633
1781034596938500600,37.07650048828125,-3.0375001430511475,24.468751907348633,-31.012500762939453
1781034596978501600,37.11650170898437,-5.268750190734863,25.256250381469727,-28.631250381469727
1781034597018510000,37.156510009765626,-10.143750190734863,26.756250381469727,-30.075000762939453
1781034597058510800,37.1965107421875,-10.950000762939453,27.600000381469727,-26.231250762939453
1781034597098504200,37.23650415039062,-16.556251525878906,30.656251907348633,-27.525001525878906
1781034597138505200,37.276505126953126,-17.868751525878906,31.631250381469727,-24.900001525878906
1781034597178491000,37.31649096679688,-21.037500381469727,34.01250076293945,-21.693750381469727
1781034597218164500,37.35616455078125,-24.281251907348633,30.356250762939453,-19.78125
1781034597258218800,37.39621875,-31.031251907348633,31.031251907348633,-16.725000381469727
1781034597278337300,37.41633715820313,-30.76875114440918,31.14375114440918,-15.262500762939453
1781034597298539300,37.436539306640626,-32.08125305175781,30.881250381469727,-13.818750381469727
1781034597338509800,37.476509765625,-31.968751907348633,30.731250762939453,-10.293750762939453
1781034597378510800,37.5165107421875,-29.062501907348633,34.23750305175781,-9.112500190734863
1781034597418504000,37.55650390625,-34.6875,33.46875,-7.481250286102295
1781034597458512400,37.596512451171876,-34.20000076293945,33.50625228881836,-6.843750476837158
1781034597498505700,37.63650561523438,-29.45625114440918,33.150001525878906,-8.381250381469727
1781034597538499000,37.6764990234375,-30.20625114440918,34.650001525878906,-9.05625057220459
1781034597578507800,37.7165078125,-26.662500381469727,36.16875076293945,-11.21250057220459
1781034597618508500,37.75650854492188,-22.125,35.681251525878906,-11.925000190734863
1781034597658509300,37.79650927734375,-23.868751525878906,37.181251525878906,-15.281250953674316
1781034597698510300,37.83651025390625,-17.418750762939453,36.525001525878906,-20.83125114440918
1781034597738503700,37.87650366210938,-13.912500381469727,37.96875,-24.262500762939453
1781034597778497000,37.9164970703125,-12.018750190734863,34.650001525878906,-24.637500762939453
1781034597818498000,37.956498046875,-11.287500381469727,31.650001525878906,-26.212501525878906
1781034597858506800,37.9965068359375,-11.287500381469727,30.225000381469727,-27.39375114440918
1781034597898507500,38.036507568359376,-10.631250381469727,29.756250381469727,-28.500001907348633
1781034597938508300,38.07650830078125,-10.387500762939453,27.731250762939453,-29.756250381469727
1781034597978509300,38.11650927734375,-8.081250190734863,27.562501907348633,-29.17500114440918
1781034598018243800,38.156243896484376,-4.275000095367432,27.76875114440918,-30.86250114440918
1781034598058054700,38.1960546875,-2.1750001907348633,26.400001525878906,-30.806251525878906
1781034598078158000,38.216157958984375,-3.7687501907348633,26.45625114440918,-30.375001907348633
1781034598098314200,38.236314208984375,-6.075000286102295,25.387500762939453,-32.34375
1781034598118554400,38.25655444335938,-5.34375,23.662500381469727,-32.118751525878906
1781034598158502000,38.296501953125,-7.593750476837158,24.562501907348633,-30.76875114440918
1781034598198503000,38.3365029296875,-6.750000476837158,25.837501525878906,-31.462501525878906
1781034598238503700,38.37650366210938,-3.468750238418579,24.750001907348633,-30.150001525878906
1781034598278497000,38.4164970703125,-0.9937500357627869,25.687501907348633,-29.868751525878906
1781034598318497800,38.456497802734376,2.25,27.58125114440918,-26.981250762939453
1781034598358506200,38.49650634765625,1.9875000715255737,28.087501525878906,-27.975000381469727
1781034598398507300,38.53650732421875,-1.631250023841858,28.443750381469727,-26.437501907348633
1781034598438500600,38.57650048828125,-3.2437500953674316,28.05000114440918,-26.887500762939453
1781034598478501400,38.61650146484375,-4.631250381469727,29.006250381469727,-26.981250762939453
1781034598518502400,38.65650244140625,-6.018750190734863,30.412500381469727,-26.381250381469727
1781034598558267400,38.69626733398437,-3.6937501430511475,28.668750762939453,-26.193750381469727
1781034598598268400,38.736268310546876,-3.8812501430511475,28.537500381469727,-25.368751525878906
1781034598618272800,38.756272705078125,-2.512500047683716,28.70625114440918,-25.368751525878906
1781034598638505200,38.776505126953126,-3.4312500953674316,28.537500381469727,-25.368751525878906
1781034598678506000,38.81650610351563,-2.043750047683716,27.506250381469727,-26.118751525878906
1781034598718499300,38.85649926757812,-4.762500286102295,29.850000381469727,-23.137500762939453
1781034598758500000,38.8965,-5.756250381469727,29.512500762939453,-25.668750762939453
1781034598798501000,38.93650122070313,-6.187500476837158,29.943750381469727,-24.993751525878906
1781034598838197500,38.976197509765626,-6.243750095367432,28.593751907348633,-27.618751525878906
1781034598877962500,39.01596240234375,-8.193750381469727,28.012500762939453,-25.387500762939453
1781034598898089000,39.0360888671875,-7.800000190734863,28.537500381469727,-26.17500114440918
1781034598918268200,39.05626806640625,-7.575000286102295,28.087501525878906,-27.056251525878906
1781034598938500400,39.076500244140625,-4.762500286102295,26.775001525878906,-26.17500114440918
1781034598978501400,39.11650146484375,-4.706250190734863,26.287500381469727,-24.76875114440918
1781034599018502400,39.15650244140625,-7.106250286102295,28.743751525878906,-25.725000381469727
1781034599058503400,39.19650341796875,-4.106250286102295,28.350000381469727,-25.387500762939453
1781034599098504200,39.23650415039062,-1.443750023841858,27.918750762939453,-28.162500381469727
1781034599138505000,39.2765048828125,-0.9375000596046448,28.462501525878906,-25.818750381469727
1781034599178506000,39.31650610351563,-4.087500095367432,29.212501525878906,-24.037500381469727
1781034599218499300,39.35649926757812,-3.262500047683716,26.531251907348633,-29.137500762939453
1781034599258500000,39.3965,-3.843750238418579,25.98750114440918,-26.26875114440918
1781034599298501000,39.43650122070313,-3.937500238418579,27.412500381469727,-27.76875114440918
1781034599338494500,39.47649438476562,-6.656250476837158,27.075000762939453,-27.375001907348633
1781034599378495200,39.5164951171875,-3.6187500953674316,26.981250762939453,-25.537500381469727
1781034599418504000,39.55650390625,-3.187500238418579,27.30000114440918,-26.343751907348633
1781034599458512600,39.5965126953125,-5.025000095367432,26.325000762939453,-27.056251525878906
1781034599498505700,39.63650561523438,-5.662500381469727,24.806251525878906,-26.793750762939453
1781034599538498800,39.67649877929688,-3.2062501907348633,26.868751525878906,-27.01875114440918
1781034599578507500,39.716507568359376,-4.3125,24.95625114440918,-27.20625114440918
1781034599618508500,39.75650854492188,-5.212500095367432,22.931251525878906,-28.875001907348633
1781034599658189600,39.796189453125,-3.8625001907348633,25.950000762939453,-26.700000762939453
1781034599698267000,39.83626684570312,-3.0375001430511475,24.693750381469727,-30.787500381469727
1781034599718393000,39.85639306640625,-3.5062501430511475,24.86250114440918,-30.975000381469727
1781034599758500400,39.896500244140626,-5.737500190734863,24.431251525878906,-29.55000114440918
1781034599798501000,39.93650122070313,-4.556250095367432,23.662500381469727,-29.212501525878906
1781034599838502100,39.976502197265624,-6.768750190734863,20.981250762939453,-29.493751525878906
1781034599878503200,40.01650317382813,-5.662500381469727,21.11250114440918,-30.11250114440918
1781034599918504000,40.05650390625,-7.725000381469727,18.28125,-32.681251525878906
1781034599958504700,40.096504638671874,-8.193750381469727,17.625,-34.01250076293945
1781034599998498000,40.136498046875,-7.537500381469727,15.300000190734863,-36.76875305175781
1781034600038499000,40.1764990234375,-7.387500286102295,17.55000114440918,-37.35000228881836
1781034600078507500,40.216507568359376,-4.78125,18.262500762939453,-40.42500305175781
1781034600118508500,40.25650854492188,-7.856250286102295,15.506250381469727,-39.243751525878906
1781034600158501600,40.29650170898437,-9.84375,13.031250953674316,-39.48750305175781
1781034600198510000,40.336510009765625,-14.193750381469727,8.981250762939453,-43.01250076293945
1781034600238511000,40.37651098632813,-16.51875114440918,6.131250381469727,-40.38750076293945
1781034600278497000,40.4164970703125,-15.543750762939453,2.2125000953674316,-41.45625305175781
1781034600318497800,40.456497802734376,-20.17500114440918,-0.862500011920929,-39.45000076293945
1781034600358506200,40.49650634765625,-19.89375114440918,-2.137500047683716,-38.55000305175781
1781034600398507300,40.53650732421875,-21.67500114440918,-2.6437501907348633,-37.96875
1781034600438470000,40.57646997070312,-21.825000762939453,-4.518750190734863,-37.125
1781034600478135800,40.6161357421875,-27.037500381469727,-2.3062500953674316,-34.125
1781034600518213000,40.65621313476562,-25.012500762939453,-6,-31.631250381469727
1781034600538339300,40.67633935546875,-27.450000762939453,-8.25,-31.23750114440918
1781034600558549000,40.696549072265626,-27.20625114440918,-9.225000381469727,-31.350000381469727
1781034600598504200,40.73650415039062,-28.70625114440918,-10.83750057220459,-30.037500381469727
1781034600638505000,40.7765048828125,-26.962501525878906,-12.750000953674316,-26.943750381469727
1781034600678506000,40.81650610351563,-29.493751525878906,-11.550000190734863,-26.775001525878906
1781034600718499300,40.85649926757812,-30.76875114440918,-14.175000190734863,-26.231250762939453
1781034600758500400,40.896500244140626,-32.08125305175781,-14.437500953674316,-24.58125114440918
1781034600798501000,40.93650122070313,-30.20625114440918,-16.162500381469727,-24.375001907348633
1781034600838502000,40.976501953125,-30.431251525878906,-15.975000381469727,-24.337501525878906
1781034600878503000,41.0165029296875,-29.343751907348633,-15.506250381469727,-25.762500762939453
1781034600918503700,41.05650366210938,-30.825000762939453,-17.662500381469727,-23.90625
1781034600958504700,41.096504638671874,-28.818750381469727,-16.950000762939453,-24.468751907348633
1781034600998498000,41.136498046875,-30.637500762939453,-14.268750190734863,-22.068750381469727
