Time (s),Acc_X,Acc_Y,Acc_Z,Gyro_X,Gyro_Y,Gyro_Z,activity_label
4.79773275,1.910327454,9.693242798,-0.3159928894,0.0376233384,0.03660091758,-0.00389970094,1
4.81777475,1.943857727,9.701475677,-0.3200344849,0.02522212639,0.02842039242,-0.00920234248,1
4.83781575,1.966011658,9.641001434,-0.3052153015,0.01693657599,0.03471850976,-0.004622445442,1
4.85785775,1.992506561,9.601034546,-0.4595443726,0.02100481093,0.005359738134,0.004423063248,1
4.87789875,1.930236053,9.644144897,-0.3799099731,0.02211582102,0.01004222874,-0.0005295325536,1
4.89794075,1.843117218,9.575587463,-0.347277832,0.03044365346,0.02060733736,-0.01546724699,1
4.91798275,2.037263489,9.54205719,-0.476459198,0.03618596494,-0.01618927717,-0.007843781263,1
4.93802375,1.959425354,9.59938797,-0.4059558105,0.0362566039,-0.005651716609,-0.003285412211,1
4.95806575,1.932780762,9.664652252,-0.4323010254,0.02570675313,-0.008645433933,-0.007129813079,1
4.97810775,1.907633057,9.688003693,-0.467328186,0.01543588005,-0.03770113736,-0.007343352307,1
4.99814875,1.982926483,9.67078949,-0.4610412598,0.008286350407,-0.048231069,-0.0006277880166,1
5.01819075,1.986069946,9.635462952,-0.440533905,0.01666944847,-0.03588891402,-0.01114221476,1
5.03823275,2.026336212,9.558522949,-0.3647914124,0.02077385411,-0.01066704467,-0.006468648091,1
5.05827375,2.159409485,9.570797424,-0.4291575623,0.01540491637,-0.02184037864,0.01109680347,1
5.07831575,2.080673218,9.568701782,-0.3857478333,0.02665125392,-0.00755492365,0.01454442926,1
5.09835775,1.967358856,9.641151123,-0.3384461975,0.01862535067,0.02566926554,0.01057007164,1
5.11839875,2.017055511,9.636361084,-0.4620890808,0.01907961629,0.01857571863,0.01665306091,1
5.13844075,1.915566559,9.650581512,-0.4444258118,0.0152148325,0.01512182131,0.01114248484,1
5.15848275,1.988764343,9.611363068,-0.4882846069,0.0147308046,0.01642932184,0.01746933907,1
5.17852375,1.930086365,9.635013885,-0.5063969421,0.01287677698,-0.003240596503,0.01397727802,1
5.19856575,1.911824341,9.618697815,-0.5712121582,0.006233192049,-0.01536907256,0.01436452381,1
5.21860775,1.932631073,9.639654236,-0.4824467468,0.006657429039,-0.0203273911,0.01106810011,1
5.23864875,1.967209167,9.629924469,-0.4805007935,0.004130222835,-0.02700352669,0.01237499621,1
5.25869075,2.064656525,9.649533691,-0.4676275635,0.0005820315564,-0.01998332888,0.005398500711,1
5.27873175,2.04295166,9.796528015,-0.5694158936,-0.01211299282,-0.01283089165,-0.001235065516,1
5.29877375,2.019001465,9.859247589,-0.2791694641,0.02176087722,-0.07895971835,-0.01471864339,1
5.31881575,1.86976181,9.693841553,0.2779719543,-0.01208775956,-0.1128679514,-0.04405980185,1
5.33885675,2.052980804,10.43330383,0.2163002014,-0.04879410565,-0.2378048301,0.02182600275,1
5.35889875,1.952090607,10.70244415,0.04176315308,-0.02243580855,-0.4276934862,0.07120862603,1
5.37894075,1.337319031,10.15982254,-0.5370831299,-0.1467625499,-0.4416795671,0.1818967462,1
5.39898175,1.352886658,10.05204666,-0.21061203,-0.3088520467,-0.3796354532,0.3161701262,1
5.41902375,1.746567993,9.679172058,-0.9758207703,-0.1778612137,-0.3022627831,0.305783689,1
5.439065958,2.235750732,7.694598999,0.2091151428,-0.3237669468,-0.1974445283,0.3503115773,1
5.459106958,2.963537292,7.2884935,0.7812254333,-0.2325022072,-0.07938339561,0.2940325141,1
5.479148958,3.175197144,8.947942657,1.491648102,0.064997226,0.197956115,0.155717656,1
5.499190958,2.224973145,10.22149429,0.6737489319,0.1794148237,0.5100967884,0.04362630844,1
5.519231958,1.469194794,9.621841278,-1.040037231,0.2038149685,0.55097121,-0.04499630257,1
5.539273958,1.436263275,9.404343567,-0.6604266357,0.1548989564,0.1406784058,-0.04902365059,1
5.559315958,1.292262726,9.877659302,0.2026785278,0.08777923882,-0.1960015744,0.009205724113,1
5.579356958,1.69896698,10.08168503,0.6981481934,0.1492750198,-0.04527458176,0.08827999234,1
5.599398958,1.85344574,9.626032562,0.2779719543,0.1626403034,0.1398556978,0.02629085258,1
5.619439958,1.766326904,9.397607574,-0.339793396,0.2011960894,0.009386766702,0.02993903495,1
5.639481958,1.855541382,9.136999512,-0.6905140686,0.1779041439,-0.1435996592,0.0797535032,1
5.659523958,2.032024384,9.285640411,-0.4311035156,0.1222148463,-0.3057463765,0.1236158609,1
5.679564958,2.437830505,9.544452209,-0.2110610962,0.07853068411,-0.3304403722,0.1267790794,1
5.699606958,2.461331635,9.56196579,-0.2953358459,0.05259735882,-0.302905947,0.1502476335,1
5.719648958,2.661166077,9.401499481,-0.3367996216,0.09294437617,-0.2188657969,0.1331805289,1
5.739689958,2.440524902,9.024732971,-0.8096662903,0.06005234644,-0.08440236002,0.1018975824,1
5.759731958,2.468666382,8.908275146,-1.02147583,0.04503131285,-0.2467023581,0.06005456671,1
5.779773958,2.850073242,9.835297394,-1.278491364,0.01961390674,-0.4664004445,0.06897140294,1
5.799814958,3.589086456,10.17718643,-1.09991272,-0.008142895997,-0.7471349239,0.05045633763,1
5.819856958,3.964356079,9.214238892,-0.9388476562,0.02969463542,-0.8141955733,-0.03511033952,1
5.839897958,4.249363403,8.539442139,-0.5507048035,0.05468061566,-0.7372905612,-0.09021022171,1
5.859939958,4.606820068,8.497080231,-0.1463955688,-0.02355799824,-0.809566617,-0.03835218027,1
5.879981958,4.267924805,8.988059235,-0.5421725464,-0.05651148409,-0.8769639134,0.05378203467,1
5.900022958,4.054169312,9.147028656,-0.1444496155,-0.0002653319389,-0.8390317559,0.1026558504,1
5.920064958,3.895948334,8.652906189,0.1899549866,0.02377236634,-0.5402234197,0.07497392595,1
5.940106958,4.10236908,8.397986298,0.3849993896,0.05121783167,-0.3730720878,0.01663610712,1
5.960147958,4.08365799,8.75693985,0.3731739807,0.09222599119,-0.4737887383,-0.01531548798,1
5.980189958,4.009113007,9.054221649,0.426612854,0.15283674,-0.464548558,-0.0721668452,1
6.000231958,3.740571442,9.170679474,-0.06451583862,0.2310810685,-0.385620296,-0.163921535,1
6.020272958,3.338657227,9.633067932,-0.6129753113,0.269552052,-0.3727678657,-0.2409019172,1
6.040314958,3.232827301,9.584718475,-0.6670129395,0.2896537781,-0.3831293583,-0.3440471888,1
6.060355958,3.095712433,9.26243866,-0.8003855896,0.223527953,-0.3329532444,-0.4138320386,1
6.080397958,3.401825867,9.416917419,-0.475411377,0.1208797395,-0.2790688276,-0.4388914406,1
6.100439958,3.627855835,9.652228088,0.2691403198,0.1859046668,-0.3102170825,-0.4432198107,1
6.120480958,3.759282532,9.459429016,-0.9247769165,0.3032536209,-0.3719652891,-0.4587419629,1
6.140522958,3.205284576,9.214687958,-1.19586319,0.289840132,-0.4018409252,-0.4585047066,1
6.160564958,3.149750061,9.292376404,-0.841999054,0.2465306073,-0.4601004422,-0.4624827504,1
6.180605958,3.298091583,9.752818909,-1.168769531,0.2272954583,-0.3225578368,-0.5120231509,1
6.200647958,3.586392059,10.25382706,-1.086740112,0.1487207562,-0.3733226955,-0.4969985187,1
6.220688958,4.17257309,10.17703674,-0.7482939148,0.02675716206,-0.4930242598,-0.4592962861,1
6.240730958,4.594246216,10.04306534,-0.1170565796,0.009811137803,-0.5591427088,-0.4012019038,1
6.260772958,4.529730377,10.07794281,-0.1341210938,-0.05910893902,-0.4101366103,-0.2941389978,1
6.280813958,4.350702667,10.1405127,-0.1646575928,-0.2662109137,-0.122252956,-0.1618186384,1
6.300855958,4.441713409,10.46129562,-0.4457730103,-0.5024223328,0.4657257497,0.1282395124,1
6.320897958,4.794380035,11.16079102,-1.26247467,-0.8284027576,1.038683772,0.4508989155,1
6.340938958,4.560266876,11.4649585,-1.143322449,-1.17260015,1.151119351,0.6664176583,1
6.360980958,2.852318573,9.432185669,-1.009949799,-1.630986452,0.7490160465,0.8049246073,1
6.381021958,1.669627991,8.422086182,-0.4541555786,-2.828734875,-0.2754285336,0.8188703656,1
6.401063958,0.6497987366,9.982890472,5.130131836,-2.443676949,-1.743429899,0.7710543871,1
6.421105958,2.636467438,12.03976318,0.4204756165,-1.117044091,-1.028244376,0.4718311131,1
6.441147208,3.211721191,13.10569656,-2.773881683,-1.247899532,0.2087922245,-0.009511308745,1
6.461189208,2.879861298,11.80684753,-0.8219407654,-1.72767067,0.9080156684,-0.4208744764,1
6.481231208,1.142274628,9.914632416,2.215842133,-1.193454504,0.927562952,-0.485491544,1
6.501272208,-0.03188369751,8.971294098,2.197131042,-0.7906953096,0.5939766169,0.05653271079,1
6.521314208,0.1553768921,9.849368134,0.5505551147,-0.7200248837,0.9709790945,0.5051567554,1
6.541355208,0.3529660034,10.51533325,0.3905378723,-0.9168739915,1.787517071,0.4864844978,1
6.561397208,0.2746788025,10.1656604,-0.3595523071,-0.863006115,2.139383793,0.3403404057,1
6.581439208,-0.5077441406,9.179960175,-0.7598199463,-1.007507801,1.744264722,0.2815206051,1
6.601480208,-1.452279968,8.742120667,1.008752289,-0.9764599204,1.351297855,0.3372090161,1
6.621522208,-1.747765503,8.731043701,2.837200012,-0.6017106175,1.344320059,0.4389416575,1
6.641564208,-1.233135681,8.299940186,2.193388824,-0.1698971093,1.178776264,0.4673592448,1
6.661605208,-0.47271698,7.72962616,0.9750723267,-0.06960646063,0.9474769235,0.3381448984,1
6.681647208,-0.1830693054,7.262896729,1.777553558,-0.009355897084,0.828651607,0.152168259,1
6.701688208,0.4186793518,6.769822083,2.818937988,0.2180878371,0.7364606261,-0.02799415216,1
6.721730208,0.9295669556,6.473288727,2.362237701,0.4601016045,0.6455162764,-0.2654694319,1
6.741772208,1.015937347,6.412664795,2.579436035,0.5127927661,0.6315792203,-0.5513657331,1
6.761813208,1.080453186,6.573430481,4.355193329,0.6746703982,0.8221722245,-0.8038857579,1
6.781855208,1.371897125,7.034172363,4.834646301,0.9787318707,0.9419465065,-0.9894744754,1
6.801897208,1.426234131,8.427474976,5.285059662,1.062332749,1.137547612,-0.9464325309,1
6.821938208,2.036065979,11.31736542,5.428162079,0.7345768809,1.301235437,-0.7112468481,1
6.841980208,1.87679718,13.15539322,4.267775116,0.1212723479,0.5784337521,-0.05101949722,1
6.862021208,3.646566925,10.20802231,3.630250854,-0.1911779642,-0.4816050231,0.8013629317,1
6.882063208,4.430337067,6.240522766,2.690355377,0.1235705912,-1.083373666,1.049510002,1
6.902105208,2.409838715,10.27987289,1.623224487,0.5685217381,-1.804779649,0.573456347,1
6.922146208,0.4120930481,15.90517502,1.823657684,0.9107571244,-1.758445621,-0.2484759092,1
6.942188208,0.05239105225,20.2251915,0.9854008484,0.06523332,0.1458953917,-1.061385274,1
6.962229208,-2.117796021,9.985285492,-0.3188369751,0.8092896938,1.460800171,-0.6290442944,1
6.982271208,-0.6816824341,3.941902771,-2.902464294,1.281763196,0.5797129869,-0.1964096874,1
7.002313208,-0.550405426,1.594484253,-2.945874023,-0.2524511814,-1.004128098,-0.4165229201,1
7.022354208,-1.204545135,6.755002899,1.201551361,-0.2039794475,-0.3403491676,-0.8091062307,1
7.042396208,-0.1155596924,11.3946048,1.825903015,0.7453404069,0.6235842705,-1.082779169,1
7.062438208,1.606908417,13.4263298,-1.292562103,1.107730031,1.029556513,-0.9919121265,1
7.082479208,1.343755646,11.92629913,-2.647095337,0.931543529,0.6100021601,-0.4073286951,1
7.102521208,0.9849517822,9.471703491,0.1577719116,0.9711236358,-0.5884487033,0.07358416915,1
7.122562208,-0.5774990845,8.700207825,1.200802917,1.018839717,-0.9501774311,0.1465607882,1
7.142604208,-0.6358776855,8.727451172,0.1499880981,0.8947090507,-0.574850142,-0.01823696494,1
7.162646208,-0.01496887207,8.762029266,-0.795894928,0.680262506,-0.3728819191,-0.3330768347,1
7.182687208,0.5773493958,9.441915436,-0.2574645996,0.635817349,-0.1630064994,-0.5822340846,1
7.202729208,0.6024971008,10.02225861,-0.6280938721,0.7150429487,0.1883661747,-0.5169533491,1
7.222770208,0.5743556213,10.04067032,-1.67322052,0.6863695383,0.1193691492,-0.4112454951,1
7.242812208,0.05763015747,9.742789764,-1.338965607,0.7238527536,-0.2390358299,-0.3217046857,1
7.262854208,-0.3275189209,9.578581238,-0.4105961609,0.7253808379,-0.2599401772,-0.3283389509,1
7.282895208,-0.4564009094,9.493258667,-0.4328997803,0.6483504176,-0.1324325502,-0.4135577381,1
7.302937208,-0.2995271301,9.678573303,-0.6872209167,0.5826401711,-0.050719928,-0.4792175889,1
7.322979208,-0.0390687561,9.965975647,-0.3799099731,0.6139194369,-0.08825436234,-0.5416082144,1
7.343020208,0.2411485291,10.05983047,-0.1989363098,0.6579977274,-0.1751787066,-0.5965237021,1
7.363062208,0.6652166748,9.792636108,-0.08906478882,0.6797791719,-0.213750571,-0.6649348736,1
7.383103208,1.06473587,9.95280304,-0.379460907,0.6099053621,-0.1997743845,-0.7157142758,1
7.403145208,1.299747162,10.42372375,-0.3733236694,0.5594001412,-0.1920754611,-0.7139576077,1
7.423187208,1.270408173,10.42926224,-0.01556762695,0.5242818594,-0.2047923207,-0.5981753469,1
7.443227208,1.613345032,9.811347198,-0.1254391479,0.3587366343,-0.1089362726,-0.4302331507,1
7.463269208,2.106269989,10.0527951,-0.3213816833,0.1529893279,-0.1314692795,-0.2818873525,1
7.483310208,1.998793488,10.81246536,0.006137237549,0.005622508936,-0.2656854093,-0.1219078153,1
7.503352208,1.55391861,10.98326019,-0.01901046753,-0.2201730013,-0.2485429496,0.06449957192,1
7.523394208,1.010548553,11.88453598,-0.1330732727,-0.513903439,-0.03845496103,0.269964844,1
7.543435208,1.131646729,13.26227097,-1.028361511,-1.005281925,0.233677268,0.4532465935,1
7.563477208,0.8608598328,12.97726364,-1.72471344,-1.633946896,0.695397675,0.6326235533,1
7.583518208,-0.2128573608,10.81231567,-0.7897576904,-1.833877087,0.5857486725,0.9415053129,1
7.603560208,-0.9921368408,8.738079071,-1.398841095,-2.355893373,-0.07004375756,0.9568433166,1
7.623602208,-1.927841034,8.661438446,0.0643661499,-2.475266457,-0.5865188837,0.5462251902,1
7.643643208,-2.558180237,10.96110626,1.338965607,-2.213646412,-0.9216926694,0.05451843143,1
7.663685208,-4.04384079,13.67181931,1.270408173,-1.989213586,-0.9616133571,0.06693054736,1
7.683726208,-4.029620361,13.04671921,1.500180359,-1.960191607,-0.8008444905,0.5208463669,1
7.703768208,-2.300116882,10.86306015,1.370699615,-1.776450992,-0.6768525839,0.9530497789,1
7.723810208,-0.8424481201,9.125623169,0.7131170654,-1.614940763,-0.6330838203,0.8900956511,1
7.743851208,-1.169218597,9.162745972,1.027463379,-1.653761029,-0.5763601065,0.9541870356,1
7.763893208,-1.572180634,9.635313263,1.979034576,-1.914190412,-0.4439700246,0.903712213,1
7.783934208,-1.514251099,8.930429077,4.018244019,-1.813407302,0.4796166122,0.8110563159,1
7.803976208,-1.410965881,8.407865753,3.299887848,-1.469131827,1.540808201,0.7308555841,1
7.824018208,-1.293759613,8.276439056,1.204844513,-1.31577456,1.672597766,0.6945078373,1
7.844059208,-1.01803299,7.851622467,0.715512085,-1.133850574,1.285645008,0.6299725771,1
7.864101208,-0.68332901,7.500452728,1.805245972,-0.8154896498,1.064381957,0.398247391,1
7.884142208,-0.7937992859,6.655010834,3.445085907,-0.3730579019,1.053560734,0.248502329,1
7.904184208,-0.9783654785,6.126160583,4.399052124,0.1338508427,1.048828125,0.05616725236,1
7.924226208,-1.271755371,5.415288849,5.807922363,0.7346052527,0.9250372052,-0.08949683607,1
7.944267208,-1.257085876,5.216801605,5.804928589,1.329225302,1.069036245,-0.2993620932,1
7.964309208,-1.068927155,5.998625793,3.909570007,1.606112123,0.9943513274,-0.4123087525,1
7.984350208,0.6262976074,7.141948242,3.840114441,1.682306528,0.7996547222,-0.491869539,1
8.004392208,1.544039154,8.578061829,3.54298233,1.690544128,0.6674620509,-0.6711547971,1
8.024434208,1.176104279,10.55245605,3.645519104,1.316686869,0.7726155519,-0.6345450878,1
8.044475208,1.476379852,12.64031433,5.354814606,0.5554435253,1.050388098,-0.3175131083,1
8.064517208,1.652713165,11.74727142,4.302951965,-0.1831186563,0.6864780784,0.1554224193,1
8.084558208,0.8168513489,8.365204468,2.721041565,-0.3235909343,-0.08291935921,0.5982928872,1
8.104600208,-0.687071228,5.874833221,1.550176392,0.3564161658,-0.885438025,0.828827858,1
8.124642208,-2.297123108,4.861141205,2.996169434,1.13964045,-0.5312777162,0.5578546524,1
8.144683208,-3.292702789,7.67573822,3.621119843,1.38713932,-0.1902930588,-0.215671137,1
8.164725208,-3.877985687,14.00293076,5.419480133,0.9648348093,0.2435788959,-0.9511535764,1
8.184766208,-4.599335632,21.53062683,4.806504822,0.7721652389,0.4997861683,-0.8838453889,1
8.204808208,-0.8987310791,15.17918472,-5.614973602,0.7568238378,-0.6421535611,0.3374169171,1
8.224850208,0.7241940308,6.26582016,-6.952741699,0.8517097235,-0.6274976134,0.4110888243,1
8.244891208,1.038240967,2.220033417,-0.7879614258,0.3928065896,-1.552541256,0.01235128473,1
8.264933208,0.4150868225,6.472540283,2.379751282,0.7151934505,-0.7332139611,-0.4001764059,1
8.284974208,-0.5180726624,11.83768341,-2.346670074,0.9607452154,1.094075799,-0.4421720505,1
8.305016208,-1.248403931,12.73372009,-2.036664734,0.6274052262,1.007540584,-0.3810444772,1
8.325058208,-2.374961243,9.841135254,0.767454071,0.5727882385,-0.3384224772,-0.02538949437,1
8.345099208,-1.951641541,8.668174438,1.028062134,0.706448257,-0.8199320436,-0.06885437667,1
8.365141208,-2.389630737,8.683442688,0.02185455322,0.7514178753,-0.7640970945,-0.223048985,1
8.385182208,-0.9716294861,9.40164917,-0.7146139526,0.8161799312,-0.734292984,-0.3605155945,1
8.405224208,0.2845582581,9.772428131,-0.4269122314,0.8909714222,-0.3744927645,-0.3658168316,1
8.425266208,1.268761597,9.666897583,-0.05852828979,0.9643833041,-0.09720300138,-0.3677323461,1
8.445306833,1.146914978,9.68366272,-0.176333313,0.8679054379,-0.3623904288,-0.3955403864,1
8.465348833,-0.1104702759,9.583371277,0.1351689148,0.7940409184,-0.5065666437,-0.381077379,1
8.485389833,-0.8214916992,9.393565979,0.1938468933,0.7335148454,-0.3173445165,-0.4199386239,1
8.505431833,-1.238374786,9.150321808,0.02439926147,0.6895341277,-0.2020474076,-0.4932035804,1
8.525472833,-1.011446686,9.108558655,-0.1555265808,0.6895723343,-0.22740753,-0.5684027672,1
8.545514833,-0.4799020386,9.374854889,0.2981799316,0.6888027787,-0.3418602347,-0.5984268188,1
8.565556833,0.1601669312,9.726324005,0.1359173584,0.6862953305,-0.4408822656,-0.5922007561,1
8.585597833,0.2550695801,10.05324417,-0.002993774414,0.7112261653,-0.3781283796,-0.557115376,1
8.605639833,-0.05613327026,9.737850037,0.8150550842,0.8032184243,-0.2485415488,-0.5503717065,1
8.625680833,-0.6068380737,9.337432709,0.8637039185,0.7456663847,-0.2805622518,-0.5586130023,1
8.645722833,-0.6147715759,10.15847534,-0.8222401428,0.3471898437,-0.4304260314,-0.5524366498,1
8.665764833,0.05688171387,11.40643021,-0.7608677673,0.1789003462,-0.6207344532,-0.4717534482,1
8.685805833,1.62636795,11.87675217,0.176333313,0.2230879217,-0.5490276217,-0.297686398,1
8.705847833,3.404669952,11.84681442,0.4575984192,0.1846678108,-0.4664603472,-0.1519111991,1
8.725888833,3.264710999,11.93707672,1.104253693,0.1535165012,-0.2839873135,-0.0002019703388,1
8.745930833,1.591640167,12.57340347,1.425635376,-0.1073976606,-0.133594662,0.2665428221,1
8.765972833,0.8174501038,13.02052368,-0.3109034729,-0.7739599943,0.289937675,0.4363497794,1
8.786013833,-0.8050259399,12.98145493,-2.727777557,-1.521241546,0.948605597,0.7010006309,1
8.806055833,-1.682800598,11.65985321,-2.085463257,-1.704136252,1.213881373,0.9631583691,1
8.826096833,-2.290237427,9.804910583,-2.425106964,-2.38513279,-0.07614385337,1.065919757,1
8.846138833,-2.868484955,9.579629059,1.57023468,-2.938735247,-1.91665411,0.7148150206,1
8.866180833,-4.338577881,11.41720779,4.569547577,-2.28019309,-2.077626467,0.07483800501,1
8.886221833,-5.648952942,12.41652969,1.409319305,-1.613937378,-1.418354034,-0.1545313299,1
8.906263833,-6.098168793,11.13145203,-0.7105723572,-1.529757619,-0.9808645844,0.3293883801,1
8.926304833,-3.436403961,9.59699295,-0.3775149536,-1.907678962,-0.7080064416,0.797555089,1
8.946346833,-1.527573395,8.764274597,0.5167254639,-1.821324944,-0.09585554153,0.9013027549,1
8.966387833,-0.6676116943,9.801467743,0.7616162109,-1.598100662,0.1695710868,1.032433867,1
8.986429833,-0.7466473389,10.22823029,1.099313965,-1.623945475,0.1036495343,1.078067064,1
9.006471833,-1.450334015,9.382489014,1.890119476,-1.763139367,0.9146280885,1.063496828,1
9.026512833,-1.726958771,8.512947235,2.258204041,-1.623266339,1.78973043,1.057396054,1
9.046554833,-1.635948029,7.716004486,1.498384094,-1.381949425,1.979720116,0.951364398,1
9.066595833,-1.922751617,7.051835632,1.259181519,-1.171954632,1.69621253,0.8427208662,1
9.086637833,-1.914668427,6.808441772,2.777174835,-0.8513490558,1.625110626,0.7346727848,1
9.106679833,-1.375789032,6.578669586,3.65539856,-0.3277593851,1.637810707,0.5236817002,1
9.126720833,-1.204844513,6.557264099,3.180585938,0.1627001911,1.341606498,0.3350860775,1
9.146762833,-1.407073975,5.983507233,3.003803558,0.478248626,0.9773480892,0.2010844499,1
9.166803833,-0.7774832153,5.662424927,4.157454529,0.7638133764,0.9844346642,0.06393307447,1
9.186845833,-0.9955796814,5.876928864,4.866979065,1.192242146,1.126716137,-0.2066661865,1
9.206886833,-1.825004883,6.122418365,4.446802826,1.529955149,1.346949577,-0.3582051098,1
9.226928833,-1.164727936,7.571554871,4.533771973,1.723386765,1.64688313,-0.4543868303,1
9.246970833,-0.9357041931,8.989556122,2.832260284,1.866538286,1.037685871,-0.4389267862,1
9.267011833,-0.9440867615,10.07524841,3.209326172,1.633970141,0.5962515473,-0.3285985887,1
9.287053833,-0.287252655,11.54579041,3.618575134,0.9722774029,0.711337626,-0.1781585664,1
9.307094833,0.4909790039,13.54952362,4.652325439,-0.007207539864,0.4961666167,0.1125443727,1
9.327136833,2.454595642,12.29423401,6.201753387,-0.3522793055,0.1488902122,0.4266878366,1
9.347178833,1.652264099,8.816665649,5.524711304,-0.1692540348,-0.2734865844,0.6202847362,1
9.367219833,-0.2665956116,7.586523743,2.898722076,0.2560179532,-0.3482773006,0.5424729586,1
9.387261833,-3.720662842,7.861651611,0.4002676392,0.6804489493,-0.652213037,0.172347039,1
9.407302833,-5.479954376,10.09979736,1.287622375,0.8345881104,-0.06429054588,-0.1631109864,1
9.427344833,-5.025349731,13.20089859,3.789070587,0.460249871,0.6558191776,-0.2851532996,1
9.447386333,-3.778292999,16.0487265,5.065615997,-0.1273270994,-0.6471571326,0.02695308439,1
9.467428333,-1.479822693,10.7668103,-2.046544189,1.433884621,-1.77595675,0.4635434449,1
9.487470333,-1.786085815,5.746849365,-6.906487885,1.609970331,-0.897991538,0.398188144,1
9.507511333,-0.9738748169,4.40189621,-2.797981567,0.7089793086,-0.8857876062,-0.1430882812,1
9.527553333,-1.256337433,7.249125366,0.6740483093,0.2670015693,-0.7033218741,-0.7687705159,1
9.547594333,-2.135908356,10.64241898,-0.790506134,0.9958395362,0.3996027708,-0.7477580905,1
9.567636333,-1.066382446,11.90848618,-2.39397171,1.292994976,1.055671811,-0.6565761566,1
9.587677333,-0.2986289978,10.20847137,-0.7391629028,0.979268074,0.09201328456,-0.366782546,1
9.607719333,-1.713187408,8.878187714,1.489702148,0.9743005633,-1.064106584,-0.03998951241,1
9.627761333,-2.010319519,8.781638489,0.5523513794,1.000948548,-1.034578681,-0.06862191111,1
9.647802333,-1.560055847,8.957373047,-0.8951385498,0.9542768002,-0.9796479344,-0.3009601235,1
9.667844333,-1.028660889,9.087003479,-1.605860596,0.838639617,-0.7800506353,-0.4665101469,1
9.687885333,-0.187559967,9.376651154,-0.4406835938,0.7711510062,-0.2944475114,-0.5012588501,1
9.707927333,0.2345622253,9.9188237,-0.1558259583,0.7137487531,-0.3798229992,-0.3541688323,1
9.727968333,-0.2685415649,10.07914032,-0.3799099731,0.6527416706,-0.6909641027,-0.1481616497,1
9.748010333,-0.813558197,10.06731491,-0.1594184875,0.5716238618,-0.7806777954,-0.07480040193,1
9.768052333,-1.369651794,9.603728943,0.2025288391,0.5016509891,-0.6091519594,-0.1148837283,1
9.788093333,-1.346150665,9.322314148,-0.04595443726,0.4890301526,-0.5500552058,-0.1931898892,1
9.808135333,-0.7364685059,9.118887177,-0.5578898621,0.5093017817,-0.4384632409,-0.2770261168,1
9.828176333,-0.5264552307,9.723330231,-0.2612068176,0.5128123164,-0.3364595473,-0.330627799,1
9.848218333,-0.3836521912,10.00070343,0.266894989,0.5802334547,-0.4497244656,-0.3458656371,1
9.868259333,-0.1610650635,9.494156799,0.5860313416,0.6733090281,-0.444175005,-0.3384181559,1
9.888301333,-0.3824546814,9.447004852,1.042881317,0.7027158737,-0.3536495566,-0.2982776761,1
9.908343333,-0.3806584167,10.34902908,1.764680328,0.7010864615,-0.3325304687,-0.3511732519,1
9.928384333,0.160765686,10.98805023,-1.400936737,0.3451937735,-0.3990194201,-0.4260768592,1
9.948426333,0.3457809448,11.27455444,-0.7310797119,0.077197887,-0.3850837946,-0.4317763746,1
9.968467333,0.4885839844,11.00451599,0.2719844055,-0.07309441268,-0.3491346538,-0.4267828465,1
9.988509333,0.4987628174,10.41953247,0.1101708984,-0.2076369822,-0.2062419951,-0.3057867289,1
10.00855033,0.7897576904,11.13025452,-0.0802331543,-0.3842502236,-0.1073131412,-0.114750348,1
10.02859233,0.7924520874,12.32791397,0.4492158508,-0.6917011738,-0.1104726866,0.1002008021,1
10.04863433,-0.05224136353,11.395952,0.5245092773,-1.161201,-0.2504979372,0.4170922935,1
10.06867533,-1.056502991,10.71022797,-1.238973541,-1.966740847,-0.5446904898,0.7557954788,1
10.08871733,-3.070415039,10.78342575,-0.8809181213,-2.341276884,-0.3957060277,1.12996614,1
10.10875833,-3.982468414,11.0229277,1.203497314,-2.399023294,-0.9453786016,1.233855724,1
10.12880033,-4.32226181,13.45941101,0.8180488586,-1.901192546,-0.8326698542,0.9736791849,1
10.14884133,-4.472549286,14.1589064,0.5445675659,-1.841746569,-1.161688566,0.7053366303,1
10.16888333,-4.500541077,12.51233047,2.194137268,-1.705803871,-1.826180696,0.6323176026,1
10.18892533,-1.999990997,9.605824585,2.356250153,-1.174900651,-1.632988691,0.8165085316,1
10.20896633,-0.3341052246,8.959468689,-0.4171824646,-1.209313989,-0.5482874513,0.9573096037,1
10.22900833,0.4808001709,9.423803101,-1.409019928,-1.863163352,0.3637370169,1.035836697,1
10.24904933,-0.8158035278,9.989626465,0.1805245972,-2.073769093,0.9014227986,0.8670297861,1
10.26909133,-2.363135834,9.28698761,1.23328537,-2.081869364,1.294503331,0.7912476063,1
10.28913233,-3.07610321,8.629554749,1.852697296,-1.954654932,2.056162357,0.8106076717,1
10.30917433,-3.057242432,7.743846588,1.137484589,-1.712581396,2.162470102,0.7851589918,1
10.32921633,-2.787353668,7.135511627,1.564097443,-1.425483704,1.672664404,0.833612144,1
10.34925733,-1.956132202,7.143145752,3.420986023,-0.933106184,1.505971551,0.7321993113,1
10.36929933,-1.554816742,6.602470093,3.627556458,-0.3421632946,1.384530663,0.5811136961,1
10.38934033,-1.607507172,6.225104828,3.388653259,0.1212632731,1.215510607,0.4632649422,1
10.40938233,-1.611848145,5.565576324,3.448079681,0.5070970654,0.9674051404,0.3024529517,1
10.42942333,-1.290316772,5.045258331,4.004322968,0.8048704863,0.8189326525,0.1618777066,1
10.44946525,-0.7533833313,5.013973389,4.821623383,1.102531075,0.7119507194,-0.0797220245,1
10.46950625,-0.6553372192,4.938230896,5.450615387,1.368971705,0.8603785634,-0.3744353056,1
10.48954825,-0.07424560547,5.721851349,5.331463165,1.667676806,1.221357346,-0.4895941615,1
10.50959025,0.8526269531,7.572153625,5.226231995,1.85835433,1.193801641,-0.4544438124,1
10.52963125,0.0001496887207,10.73253159,4.723427582,1.623402834,0.7046066523,-0.3936978579,1
10.54967325,-1.523531799,14.19662796,4.605772247,0.6978327036,0.3644717634,-0.06773420423,1
10.56971425,0.6927593994,13.10404999,4.785997467,-0.1647822559,0.2249000818,0.6218044758,1
10.58975625,3.902384949,8.874295807,4.839735718,-0.2187510133,-0.1950479001,0.9310928583,1
10.60979725,3.706442413,6.121669922,4.287084961,0.1820224971,-0.3891555071,0.7735567689,1
10.62983925,-1.245859222,9.112151184,3.040327606,0.9682992101,-0.5235998034,0.340465039,1
10.64988125,-5.076692963,14.09439056,2.829116821,1.485399604,-0.1005287543,-0.234644711,1
10.66992225,-8.532855835,21.23813507,-1.117725677,0.2913848758,-0.06387110054,-0.1572619826,1
10.68996425,-2.623594208,14.68551132,-0.196690979,0.2294463366,-0.4004240334,0.6302416325,1
10.71000525,-0.1258882141,5.058430939,-3.035088501,1.395370245,0.159456104,0.3999471962,1
10.73004725,-1.699565735,1.518442383,-3.546125793,0.2314355224,-0.9696031213,-0.3142940402,1
10.75008825,-3.455414429,4.56685318,-1.244661713,0.4073446989,-1.144839644,-0.6046712995,1
10.77013025,-2.483186188,10.11446686,-1.782493286,0.9643107057,-0.5012566447,-0.5603890419,1
10.79017125,-1.347198486,12.05353455,-2.004182281,1.009698749,0.7035049796,-0.4589551687,1
10.81021325,1.15844101,12.11864914,0.1070274353,0.6360301971,0.7077887058,-0.2102151215,1
10.83025525,1.487307129,10.81560883,1.056203613,0.9456070662,-0.181489557,-0.1165942401,1
10.85029625,-1.524878998,9.649533691,-0.6333329773,1.083452582,-0.7058033943,-0.0995284766,1
10.87033825,-2.025587769,8.569230194,0.09265731812,0.8142207861,-0.6598169208,-0.2067671418,1
10.89037925,-1.384470978,8.231233063,1.290167084,0.8136276603,-0.5057753325,-0.4041726887,1
10.91042125,-0.5519023132,8.903934174,0.132923584,0.9217980504,-0.2434697598,-0.5439939499,1
10.93046225,-0.2707868958,9.951306152,-1.016685791,0.9346600175,-0.143789947,-0.4777993262,1
10.95050425,-0.4667294312,10.34932846,-1.245110779,0.9662263393,-0.2696355283,-0.364184618,1
10.97054625,-1.404828644,9.919123077,-0.5427713013,0.9572844505,-0.3937092423,-0.3254120946,1
10.99058725,-1.907333679,9.173074493,-0.1924996948,0.9097880125,-0.4399127066,-0.3680743277,1
11.01062925,-2.073488159,8.712931366,-0.4246669006,0.7369843125,-0.4229966402,-0.4962495565,1
11.03067025,-1.764680328,8.966204681,-0.5801934814,0.7065457702,-0.3597656786,-0.5853135586,1
11.05071225,-1.238075409,9.343569946,-0.2447410583,0.7243250608,-0.3758226037,-0.6375319958,1
11.07075325,-0.9644444275,9.256151733,-0.09939331055,0.7387009263,-0.392660439,-0.6502105594,1
11.09079525,-1.021026764,9.521400146,0.3119512939,0.7313534617,-0.5726325512,-0.6031907201,1
11.11083625,-0.9500743103,10.10383896,1.01324295,0.7731505632,-0.7010761499,-0.5463748574,1
11.13087825,-0.07993377686,10.38181091,0.5882766724,0.6957870722,-0.7926393747,-0.5435256958,1
11.15092025,0.8399034119,11.13609238,-0.6963519287,0.4320881963,-0.6803027987,-0.4985281527,1
11.17096125,1.594933319,11.65117126,0.2430944824,0.3519725204,-0.3726216257,-0.4071809947,1
11.19100325,1.849404144,11.0296637,-0.4189787292,0.1427791566,-0.1844597608,-0.2756291032,1
11.21104425,0.55579422,10.46743286,-0.6221063232,-0.01939017698,0.02279416099,-0.002723460551,1
11.23108625,-0.7195536804,11.87615341,-0.7550299072,-0.264033556,0.07955415547,0.2719776332,1
11.25112725,-1.78204422,13.02785843,-0.929866333,-0.7064580321,0.1585453004,0.5106326938,1
11.27116925,-2.620301056,13.17066147,-1.777553558,-1.295427084,0.2673493624,0.7297643423,1
11.29121025,-2.951861572,11.57991943,-0.7162605286,-1.583298445,0.06734135002,0.9644420743,1
11.31125225,-2.636317749,8.604407043,-1.463356934,-2.310839891,-0.8656449318,1.064288259,1
11.33129425,-3.130440216,7.181765442,0.2685415649,-2.655898571,-1.701901913,0.9431750774,1
11.35133525,-4.19128418,8.794960785,2.278262329,-2.37248826,-2.066156864,0.5602478385,1
11.37137725,-6.837631073,11.24865829,2.412233734,-1.947197199,-2.190267086,0.7455062866,1
11.39141825,-1.96226944,12.98639465,1.056353302,-1.756359816,-1.840543509,0.7131878734,1
11.41146025,-1.279090118,11.81463135,0.3647914124,-1.892636061,-1.06350112,0.594416976,1
11.43150125,-0.7743397522,10.47102539,0.3251239014,-1.707691312,-0.2813538015,0.9761593938,1
11.45154396,0.9310638428,10.7853717,0.2883004761,-1.610640168,-0.02922452614,1.352294087,1
11.47158496,0.9725276184,10.48584457,0.786763916,-1.662089467,0.1976022422,1.176180363,1
11.49162696,-0.8533753967,9.197324066,2.180365906,-1.857739806,0.8418108225,1.051609874,1
11.51166796,-1.632205811,8.819060669,3.545077972,-1.636379838,1.646519303,1.08838892,1
11.53170996,-1.247805176,8.272247772,2.146236877,-1.288151979,1.966112852,0.9817260504,1
11.55175196,-1.273701324,7.543862457,0.9505233765,-1.145008802,1.668591738,0.8191252351,1
11.57179296,-1.647623749,6.946155396,2.353705444,-0.950450182,1.417813301,0.6923463941,1
11.59183496,-1.715881805,6.527176666,3.93501709,-0.4832863808,1.403256774,0.617095232,1
11.61187596,-1.306034088,6.157595215,3.904031525,0.02392906882,1.350232363,0.4234227836,1
11.63191796,-1.265767822,6.083349609,3.411555634,0.4674358666,1.125012398,0.204804033,1
11.65195896,-1.282083893,5.928421783,3.030448151,0.8346711993,0.9759413004,0.01595966332,1
11.67200096,-1.079105988,5.723797302,3.109483795,1.055256367,0.9156110287,-0.1534506828,1
11.69204196,-0.8391549683,6.029012604,4.004921722,1.24765718,0.8533126116,-0.3203260899,1
11.71208396,-0.7812254333,6.556066589,4.552483063,1.42429018,0.8202465773,-0.5472459793,1
11.73212596,-1.249152374,7.2287677,4.550237732,1.522754788,0.8256562352,-0.7745568752,1
11.75216696,-2.089654541,8.839268646,4.877606964,1.49040103,0.9406975508,-0.759323597,1
11.77220896,-1.453028412,11.52303772,5.701044617,0.9955980182,1.143200517,-0.43930462,1
11.79224996,1.065035248,13.87539597,5.847290497,0.3936797678,0.8697100878,-0.04945090413,1
11.81229196,3.322640533,12.77533356,5.336103516,-0.01039315481,0.1981117874,0.3926760852,1
11.83233296,2.87372406,10.37941589,4.630919952,-0.1095085591,-0.1412032247,0.4987614751,1
11.85237496,0.297431488,9.868079224,3.644022217,0.09949479252,-0.5895032287,0.6080233455,1
11.87241596,-3.31485672,10.73133408,2.965782623,0.9071356058,-0.9920047522,0.4151655138,1
11.89245796,-6.662794647,12.51502487,2.292632446,1.47126615,-0.6169130206,0.1802517623,1
11.91249896,-7.60553421,15.3387529,0.4923262024,0.5457926989,-0.3893734217,0.2822011709,1
11.93254096,-1.642085266,8.812624054,-0.09654922485,0.3531144857,-0.9910408258,0.2738006711,1
11.95258296,-1.871857452,3.535198517,-1.272204437,1.706101179,-1.434712172,0.1586005986,1
11.97262396,-1.110540619,3.009342041,-2.094145203,0.8707038164,-1.34093225,-0.5922785401,1
11.99266596,-2.225721588,7.88994278,-2.375709686,0.391872406,-0.7365030646,-1.211207628,1
12.01270696,-0.8849597168,11.76209061,-2.243534546,0.700651288,0.3384615481,-1.162395835,1
12.03274896,0.4053570557,13.21377182,-0.9595046997,1.025993824,1.293195248,-0.7261345983,1
12.05278996,1.904788971,11.33532806,-0.2565664673,1.094366312,0.354463011,-0.05524766073,1
12.07283196,-0.117355957,9.117989044,0.9623487854,0.9902307391,-0.8571943641,0.2410893738,1
12.09287296,-1.851948853,8.873547363,1.470991058,1.030245781,-0.7410229445,0.2204428911,1
12.11291496,-1.944456482,8.909921722,-0.04924758911,0.7515323758,-0.5660799146,-0.02454498969,1
12.13295696,-1.505269775,8.611891479,0.03622467041,0.6017465591,-0.5621008873,-0.3430247009,1
12.15299796,-0.9627978516,8.938961334,-0.07065307617,0.701900661,-0.4226750135,-0.5474494696,1
12.17303996,-0.6514453125,9.804461517,-0.627046051,0.7368535399,-0.2916491032,-0.5145021677,1
12.19308096,-0.5010081482,10.49677185,-0.8490344238,0.7711741924,-0.3476065397,-0.3921070397,1
12.21312296,-0.9470805359,9.895023193,-0.4745132446,0.8237729669,-0.4097893238,-0.2524359524,1
12.23316396,-1.461261292,9.008566589,-0.3788621521,0.849229455,-0.481266439,-0.2747758031,1
12.25320596,-1.632654877,8.835526428,0.09849517822,0.7510825396,-0.337531358,-0.3722305298,1
12.27324696,-1.640588379,9.340576172,0.2520758057,0.7118341923,-0.2579483688,-0.5030601025,1
12.29328896,-0.946481781,9.546547852,0.4769082642,0.7177770138,-0.3280806243,-0.5951411724,1
12.31332996,-0.7526348877,9.408385162,0.2802172852,0.7645700574,-0.450191617,-0.6302297711,1
12.33337196,-0.882714386,9.886191559,0.699944458,0.8520205021,-0.5580955744,-0.6409894824,1
12.35341396,-1.206940155,10.58254349,1.317410431,0.9857096672,-0.5328372717,-0.6602389812,1
12.37345496,-0.6355783081,10.41070084,0.3200344849,0.7903673649,-0.5405990481,-0.6252294183,1
12.39349696,1.110091553,9.926158447,-0.3095562744,0.3998608589,-0.6805328727,-0.4973387122,1
12.41353796,2.47001358,10.30322433,-0.7872129822,0.174171105,-0.4094327986,-0.2559688389,1
12.43357996,2.48288681,11.36122421,-0.4752616882,0.1033527106,0.05070289969,0.008006487042,1
12.45362087,1.970951385,12.34108658,-0.07948471069,-0.1187200323,0.09929420799,0.2070754021,1
12.47366288,0.02634521484,12.93415329,-0.05598358154,-0.4413937628,0.1796704084,0.5009477735,1
12.49370387,-1.330882416,13.466147,-2.02543808,-1.141175747,0.3151081204,0.7120605111,1
12.51374588,-3.292403412,13.0256131,-1.494043121,-1.540745139,0.3545839489,0.9256076813,1
12.53378687,-3.373684387,9.608069916,-1.718276825,-2.14196825,-0.2091483921,1.027077198,1
12.55382888,-4.046535187,7.474107513,-0.7780819702,-2.662956238,-1.138626456,0.9932250977,1
12.57386987,-5.254523163,9.096134491,1.169068909,-2.388006449,-1.70381546,0.7188879251,1
12.59391188,-6.870113525,12.28136078,1.549877014,-1.736877561,-1.578353882,0.607133925,1
12.61395387,-3.692371674,12.93235703,-0.1514849854,-1.666427732,-1.386612654,0.8116555214,1
12.63399488,-0.8222401428,11.19716537,-0.05882766724,-2.048815012,-0.9821360707,0.6647187471,1
12.65403687,-0.7009922791,9.790241089,0.5894741821,-1.830302119,-0.06920744479,0.7021177411,1
12.67407788,-0.3784130859,10.65110092,0.1146615601,-1.85612154,-0.2498746216,0.8816737533,1
12.69411987,-0.7237449646,11.06094864,1.724563751,-2.003753901,-0.5139392614,0.8923434615,1
12.71416088,-2.011067963,9.423354034,2.994373169,-1.790132165,0.1908613741,0.8166676164,1
12.73420287,-2.33664093,7.870333557,1.695374451,-1.569607377,1.266187549,0.7439121604,1
12.75424388,-2.508782959,7.335346069,0.5261558533,-1.577811718,1.794413567,0.6767870188,1
12.77428587,-2.058519287,7.4663237,1.000519409,-1.544670105,1.788634777,0.6439964771,1
12.79432688,-1.379980316,7.571105804,2.268532562,-1.262754679,1.75406754,0.5770270824,1
12.81436887,-1.162632294,7.152426453,2.926863556,-0.8959092498,1.885010362,0.4176254869,1
12.83440988,-1.337019653,6.151607666,4.083059235,-0.3319173753,1.74713254,0.2649915516,1
12.85445187,-1.612147522,5.130281525,3.557951202,0.3085417449,1.101176143,0.005252652802,1
12.87449388,-2.236349487,4.091441803,2.408341827,0.8178210855,0.7347486019,-0.1714769155,1
12.89453487,-1.471589813,4.169729004,3.035986633,1.236652732,0.4460706711,-0.2634626329,1
12.91457688,-1.272503815,5.275180206,5.376818848,1.673518896,0.534177959,-0.3937529325,1
12.93461787,-0.576151886,6.687343597,6.439758453,2.087371588,0.981400013,-0.5851539969,1
12.95465988,-1.246308289,8.332722015,5.56497757,2.216006517,1.052645445,-0.6916462779,1
12.97470087,-2.629432068,11.39026382,6.075416107,1.503957868,1.471324205,-0.3997329772,1
12.99474288,-0.4999603271,13.8577327,5.323529663,0.4255245626,1.393225193,-0.03976726159,1
13.01478387,1.601968689,13.2100296,5.179379425,-0.381719172,0.6207306981,0.3079676628,1
13.03482588,1.838925934,10.29005173,5.615722046,-0.4982301295,-0.1011155024,0.4894566238,1
13.05486688,-0.6888674927,9.563312988,3.813918915,-0.3088678718,-0.5729483366,0.4724493921,1
13.07490888,-4.940027161,11.27126129,3.77709549,0.3249926865,-0.7237759829,0.2088118643,1
13.09494988,-7.922724609,15.34503983,2.297123108,1.041871428,-0.1245929748,0.1528748274,1
13.11499188,-5.708978119,16.09318405,-1.207688599,0.2891164422,-0.40407601,0.5940008759,1
13.13503387,0.2496807861,7.093149719,-2.282154236,1.346136928,-1.104367375,1.122929215,1
13.15507488,0.5049000549,2.435435486,-3.246299286,1.790506005,-1.852290511,0.8878460526,1
13.17511688,-0.6765930176,2.403102722,-0.4179309082,0.03689186648,-2.376515627,-0.3246642053,1
13.19515788,-2.447410583,8.024662628,2.351310425,0.4668716788,-0.3833743334,-1.07880795,1
13.21519988,-1.806144104,11.91162964,-1.555565186,1.285609961,1.090645671,-1.103157282,1
13.23524088,0.5152285767,12.36398895,-4.641398163,0.970574677,1.696011424,-0.786827147,1
13.25528288,2.502945099,10.60155396,-1.53865036,0.3736879826,0.432992816,-0.2258237004,1
13.27532388,-0.4197271729,10.12210098,2.68646347,0.8388371468,-0.2827186286,0.08424215019,1
13.29536588,-1.993404694,9.705217896,1.109941864,1.265952468,-0.4107578993,0.1334655285,1
13.31540688,-2.282902679,9.101822662,-0.7464976501,0.9733287692,-0.6228721738,-0.01318301819,1
13.33544888,-1.747166748,8.903036041,-0.0477507019,0.7033421397,-0.520323813,-0.2825330198,1
13.35548988,-1.18059494,9.181457062,-0.1794767761,0.7514827251,-0.1140942425,-0.466127038,1
13.37553188,-0.4945715332,9.638307037,-1.53520752,0.7762662172,-0.07646031678,-0.490267843,1
13.39557288,-0.3567082214,10.15398468,-1.638043671,0.8920484185,-0.276286453,-0.3726524711,1
13.41561488,-0.8161029053,10.0170195,-0.9011260986,0.9052343369,-0.2975092232,-0.2921357453,1
13.43565688,-1.375938721,9.261690216,-0.362845459,0.9154328108,-0.3501340151,-0.3356280923,1
13.45570021,-1.531016235,8.964408417,-0.3423381042,0.8472982049,-0.2296138704,-0.43832165,1
13.47574221,-1.593735809,9.164841614,-0.09490264893,0.7676762342,-0.3229764998,-0.5122382641,1
13.49578321,-1.274749146,9.253906403,0.2264790344,0.7804370522,-0.3410904706,-0.5796939135,1
13.51582521,-1.091829529,9.380093994,0.1228944397,0.811150372,-0.3739333749,-0.6182249784,1
13.53586621,-0.9951306152,9.426048431,0.8780740356,0.8728093505,-0.3912903368,-0.6498757005,1
13.55590821,-0.7866142273,9.654772797,1.576371918,0.9847266674,-0.3990378678,-0.67137748,1
13.57594921,-0.1216969299,9.912536774,0.5307962036,0.8024774194,-0.5210592747,-0.6369358897,1
13.59599121,0.8461903381,10.4258194,-0.2917433167,0.3497104347,-0.6176861525,-0.45813483,1
13.61603221,1.834435272,10.87787933,-0.2992277527,0.1033836678,-0.3179607391,-0.247311905,1
13.63607421,2.384391632,11.23309067,-0.1986369324,-0.07180598378,-0.009701600298,-0.07859935611,1
13.65611521,1.544937286,12.1457428,-0.06316864014,-0.2297526747,0.1486211419,0.1271011233,1
13.67615721,-0.1710942078,14.063405,-0.4818479919,-0.5224493742,0.3554853797,0.419242382,1
13.69619821,-1.046773224,14.43867462,-2.21150116,-1.230435252,0.5295743942,0.6291281581,1
13.71624021,-2.161355438,13.47976868,-1.458117828,-1.749409914,0.6199848056,0.9020272493,1
13.73628121,-3.46349762,10.34723282,-1.380579071,-2.330484629,-0.09589292854,1.128865719,1
13.75632321,-4.157753906,7.736062775,0.239052887,-2.884518862,-0.9490130544,0.9464828372,1
13.77636521,-5.433550873,8.631051636,1.596879272,-2.461171627,-1.237941861,0.5156325698,1
13.79640621,-10.03662872,10.7469017,1.0776091,-1.763563871,-1.975822449,0.7667421699,1
13.81644821,-3.482657776,12.15517319,-0.3309617615,-1.620044708,-2.180536985,0.6934698224,1
13.83648921,-1.021625519,10.34019745,0.4599934387,-1.987426162,-1.642107844,0.579380393,1
13.85653121,-0.3344046021,9.589209137,1.25663681,-1.856288195,-0.8609744906,0.6217320561,1
13.87657221,-0.4746629333,11.13205078,1.449435883,-1.639141202,-0.2715532184,0.923984468,1
13.89661421,-0.05029541016,11.60057648,1.086740112,-1.757267356,-0.1741587818,1.030674219,1
13.91665521,-1.555116119,9.98318985,1.608554993,-1.750301123,0.2568134665,0.9320862889,1
13.93669721,-2.355501709,8.39184906,1.66034729,-1.762520194,1.318602324,0.9137356281,1
13.95673821,-2.433938599,7.680977325,1.532513123,-1.579576015,1.796630383,0.8969541788,1
13.97678021,-2.087109833,7.265441437,1.124311981,-1.407237053,1.714035153,0.8127272129,1
13.99682121,-1.794618073,7.10707077,1.987417145,-1.162121177,1.592405081,0.7245364189,1
14.01686321,-1.547931061,6.691834259,3.178340607,-0.6900662184,1.6182127,0.6033540368,1
14.03690421,-1.506916351,5.925428009,3.571872253,-0.09480690956,1.495711088,0.4629144669,1
14.05694621,-1.567689972,5.189707947,3.441493378,0.4957374036,1.01403904,0.2715125382,1
14.07698721,-1.364562378,4.595144348,3.706741791,1.010334969,0.7730121613,0.08099896461,1
14.09702921,-0.8720864868,4.379742279,3.691024475,1.36489439,0.707864821,-0.1530886292,1
14.11707021,-0.719254303,4.442461853,4.044140167,1.606759071,0.5754502416,-0.4003909826,1
14.13711221,-0.7619155884,5.086123352,4.81952774,1.811029077,0.6816872358,-0.7338440418,1
14.15715421,-1.334025879,7.144942017,4.916376343,1.878774166,1.014554381,-0.8942250013,1
14.17719521,-1.472487946,11.334879,6.245013428,1.419547677,1.721884012,-0.750023365,1
14.19723721,-0.02574645996,16.02058502,7.099137268,0.3434153795,2.122503042,-0.5014858842,1
14.21727821,1.954186249,15.7554863,6.0622435,-0.5127517581,0.9795603156,0.5003583431,1
14.23732021,3.985162811,10.56143738,5.423821106,-0.6760976911,-0.4240681827,0.968773365,1
14.25736121,0.9982740784,8.906329193,4.008214874,-0.2995794415,-1.071621418,0.6845377088,1
14.27740321,-4.995411987,10.22074585,3.17908905,0.8557448387,-1.721764922,0.483797133,1
14.29744421,-8.079748077,15.19984177,1.400188293,1.573736548,-0.4104955494,0.2607164681,1
14.31748621,-9.225615234,18.55286911,0.02694396973,0.4418310225,0.969296515,0.315425992,1
14.33752721,-1.516047363,8.343050537,-2.669848022,0.8605670929,-0.04313889891,0.3871515095,1
14.35756921,0.4799020386,3.244203644,-4.106410675,1.830142498,-0.8935881257,0.3338175714,1
14.37761021,0.2724334717,1.750908966,-4.264032898,0.6718991399,-1.573649526,-0.4009872079,1
14.39765221,-2.425855408,7.502248993,-1.657353516,0.2355375141,-1.131663322,-0.8867644668,1
14.41769321,-2.427202606,12.3898851,1.251098328,0.7384822369,0.1237784177,-0.7646294832,1
14.43773271,-0.9919871521,12.28749802,-0.7846682739,1.105619907,1.018055916,-0.2513039708,1
14.45777371,0.3106040955,9.673034821,-1.600322113,0.8449037075,0.07845834643,0.1374096721,1
14.47781571,-0.6738986206,8.46444809,0.6240522766,0.6852000952,-1.241363406,0.2082843333,1
14.49785671,-1.65914978,9.069190521,1.830543365,0.8474855423,-1.046689153,0.04510486871,1
14.51789871,-1.23208786,9.366622009,0.0477507019,0.8449622393,-0.8179502487,-0.2338487357,1
14.53794071,-0.1056802368,9.434431,-0.6375242615,0.8127951622,-0.4906726182,-0.428355366,1
14.55798171,0.4749623108,9.51391571,-0.5258564758,0.8315861225,-0.1230337918,-0.4837127626,1
14.57802371,0.4595443726,9.76434494,-0.1270857239,0.8538954854,-0.04627329111,-0.4260278344,1
14.59806471,-0.462538147,9.770482178,-0.01511856079,0.9134218097,-0.1405943036,-0.2929957509,1
14.61810671,-1.321152649,9.573342133,-0.4120930481,0.9631045461,-0.3387818635,-0.26157552,1
14.63814771,-1.66274231,9.047785034,-0.8095166016,0.889372766,-0.3869872689,-0.3873348236,1
14.65818971,-1.724114685,8.883875885,-0.9967771912,0.7831597328,-0.3233015835,-0.5292969346,1
14.67823071,-1.389410706,9.125323792,-0.3897894287,0.7691025734,-0.2655752003,-0.6462651491,1
14.69827271,-1.111887817,9.75386673,0.5484594727,0.8526120782,-0.2788330615,-0.6926695704,1
14.71831371,-0.6370751953,9.874066772,0.8105644226,0.973524034,-0.314378351,-0.6747899652,1
14.73835571,-0.22348526,9.740394745,0.6692582703,0.9789204001,-0.3834300041,-0.6346241832,1
14.75839671,0.1263372803,10.26205994,0.3445834351,0.8141387105,-0.4488417208,-0.6051473022,1
14.77843871,0.3793112183,11.31871262,-0.4478686523,0.5381450057,-0.3771071732,-0.5262081027,1
14.79847971,1.164877625,11.32215546,-0.5489085388,0.2224949449,-0.1254486442,-0.4268614948,1
14.81852171,1.544338531,11.15405502,-0.6417155457,-0.02593170665,0.08830371499,-0.2752096355,1
14.83856271,0.8982820129,11.32484985,-0.5643264771,-0.08970296383,0.2213769257,-0.002987500047,1
14.85860471,0.2185455322,12.36832993,-0.02574645996,-0.1721662879,0.1665603071,0.2639218271,1
14.87864571,-0.2032772827,12.73506729,-0.6180647278,-0.5358979106,0.1008654386,0.4284461439,1
14.89868771,-1.039737854,13.12051575,-1.657054138,-1.116443276,0.3224156499,0.5220748782,1
14.91872871,-2.415826263,12.32102829,-0.8976832581,-1.339601398,0.5675260425,0.6525472403,1
14.93877071,-2.88075943,9.507329407,-1.601220245,-2.027407169,0.0478415601,0.7994265556,1
14.95881171,-3.466790771,6.963818665,-0.7502398682,-2.578620195,-0.6905338168,0.7869647145,1
14.97885371,-4.657414856,7.040309601,0.3882925415,-2.471138,-1.245309711,0.674516499,1
14.99889571,-5.787415009,10.39139099,1.719324646,-2.167078257,-1.5682019,0.5939359069,1
15.01893671,-4.227059784,13.03743851,1.636397095,-1.795599341,-1.559242845,0.7362940907,1
15.03897871,-1.529519348,12.27687012,0.5248086548,-1.716622114,-1.222371459,0.5762824416,1
15.05901971,-1.125060425,9.869276733,0.02514770508,-1.848165751,-0.7875860333,0.669243753,1
15.07906171,-0.2912942505,9.845476227,0.1694476318,-1.85363102,-0.422095865,0.9344819188,1
15.09910271,-0.5319937134,11.02307739,1.287921753,-1.869155407,-0.2570710778,0.9534065723,1
15.11914471,-1.919608154,10.88641159,2.217788086,-1.812692761,0.437782824,0.9021508694,1
15.13918571,-2.797532501,9.508676605,2.268083496,-1.851450205,1.215023994,0.9033353329,1
15.15922771,-2.547851715,8.58255249,2.016606445,-1.670096397,1.591976643,0.8610178828,1
15.17926871,-1.830243988,7.78575943,1.164727936,-1.397720933,1.390604734,0.7497665882,1
15.19931071,-1.761985931,7.248077545,1.578766937,-1.240267992,1.084480047,0.6582670212,1
15.21935171,-1.555864563,6.939269714,3.695814514,-0.838806808,1.070577979,0.6246458888,1
15.23939371,-0.9189390564,6.371201019,4.111200714,-0.2837227583,1.201013088,0.4768121541,1
15.25943471,-1.152154083,5.535937958,3.585942993,0.2587231398,0.9043703675,0.2277131677,1
15.27947671,-1.739382935,4.842130737,3.321592712,0.7329764962,0.5373343825,-0.01488098595,1
15.29951771,-1.509161682,4.46626236,3.596271515,1.183268905,0.3969485164,-0.2189483941,1
15.31955971,-1.264570312,4.365521851,4.189487915,1.539980888,0.4662230015,-0.4699641168,1
15.33960071,-0.9972262573,4.671784973,5.121898956,1.855794787,0.7099300027,-0.6900600195,1
15.35964271,-0.02724334717,6.467600555,5.826483765,2.118660927,1.099200368,-0.9515045881,1
15.37968371,-0.315693512,8.953630829,3.82499588,2.070698023,1.011694908,-1.00402379,1
15.39972571,-0.5448669434,12.60304184,4.478087769,1.276822329,1.06376338,-0.6769880056,1
15.41976671,0.9972262573,15.87733292,5.940995636,0.4135910869,0.8549945354,-0.2787967324,1
15.43980888,2.569855957,14.20336395,5.977519684,-0.1519444436,-0.3241220713,0.5291537642,1
15.45984987,1.643133087,10.7403154,6.18977829,-0.1628903598,-0.7088679671,0.8644185066,1
15.47989188,-1.91541687,9.668095093,1.831441498,0.5173407793,-1.415893793,0.7664715648,1
15.49993287,-6.184389496,10.9991272,1.309776306,1.399618506,-1.247233033,0.5553497672,1
15.51997488,-8.588689728,14.51621338,2.301164703,1.587261319,-0.2812389433,0.3967852592,1
15.54001687,-2.39516922,12.52640121,0.7598199463,0.008556893095,-0.08373425901,0.1878376156,1
15.56005788,-1.513352966,5.430108032,-2.544259186,1.342041492,-0.6170658469,0.06912253797,1
15.58009987,0.2453398132,2.670297089,-3.926035767,1.331986308,-1.245708942,-0.2784918249,1
15.60014088,-1.235830078,5.564827881,-2.096989288,0.1681439579,-1.071952939,-1.018056393,1
15.62018287,-1.15844101,10.81830322,-1.036893768,0.6527838707,0.1847112477,-1.068406582,1
15.64022388,-0.03921844482,13.13024551,-1.817819824,1.079112291,1.021678209,-0.7061869502,1
15.66026588,-0.0130229187,11.5683934,-2.272873535,0.9921554327,0.3242738545,-0.1598346084,1
15.68030688,-1.015488281,9.154662781,0.4447251892,1.057199478,-0.8428005576,0.2222073525,1
15.70034888,-2.675386505,8.713081055,0.4041595459,1.045359492,-1.195739031,0.1634455621,1
15.72038988,-2.984044647,9.031468964,-0.2324665833,0.7346109152,-0.7573535442,-0.1214277595,1
15.74043188,-1.656156006,9.371711426,-0.5909710693,0.5129793882,-0.4886285067,-0.4060703218,1
15.76047288,-0.22348526,9.614506531,-1.005010071,0.4676748812,-0.1780165434,-0.5180515051,1
15.78051488,0.7481442261,9.839488678,-1.21921463,0.5554550886,-0.0628740117,-0.4706885517,1
15.80055588,0.4679269409,9.919422455,-0.5204676819,0.5831249952,-0.2223636359,-0.3531216681,1
15.82059788,-0.8640032959,9.899813232,-0.1381626892,0.667974472,-0.2577773929,-0.1981128007,1
15.84063888,-1.570683746,10.04126907,-0.3294648743,0.740837276,-0.2650167346,-0.208705321,1
15.86068088,-1.652713165,9.792935486,-0.1628613281,0.7553106546,-0.2877209187,-0.3550788164,1
15.88072188,-1.543141022,9.343270569,-0.1923500061,0.7867779732,-0.2394238114,-0.5269089937,1
15.90076388,-1.093027039,8.727600861,-0.137713623,0.8065544963,-0.139477551,-0.6704035997,1
15.92080488,-0.833915863,8.568182373,0.0860710144,0.8155230284,-0.04155797511,-0.7769675255,1
15.94084688,-0.7861651611,8.959768066,0.3393443298,0.8088955879,-0.02331748791,-0.7907704711,1
15.96088788,-0.312999115,9.364975433,0.512384491,0.7652257681,-0.04689764231,-0.7409368753,1
15.98092988,0.230969696,9.999206543,-0.4004173279,0.6046549082,-0.06536907703,-0.6520504951,1
16.00097088,0.6839277649,11.44445114,-0.3378474426,0.3824509382,0.1402747035,-0.5089440346,1
16.02101288,1.365909576,12.0315303,0.1685494995,0.2125067562,0.2443017364,-0.3337609172,1
16.04105388,1.294208679,11.55552017,-1.368753662,-0.1860985458,0.2176413983,-0.1058714241,1
16.06109588,-0.03802093506,12.51682114,-1.528621216,-0.4466553628,0.412222296,0.2596955895,1
16.08113688,-1.102307739,14.51711151,-0.6459068298,-0.6226979494,0.593601644,0.6222755909,1
16.10117888,-2.053130493,14.33598816,-2.20087326,-1.372323275,0.5177441239,0.8176631927,1
16.12121987,-3.37682785,11.3998439,-0.1453477478,-1.867987633,0.07334169,0.9278268814,1
16.14126188,-3.281176758,7.114555206,-0.6652166748,-2.398566723,-0.3734386861,0.8113991022,1
16.16130287,-4.030817871,4.844076691,-0.193996582,-2.607972383,-1.039419889,0.6389597058,1
16.18134488,-6.930288391,7.673492889,2.028731232,-2.278016806,-1.958919168,0.5587451458,1
16.20138587,-5.187462616,12.1231398,1.951791229,-1.822999358,-2.190387964,0.8172350526,1
16.22142788,-1.961371307,13.60715378,-0.09595046997,-1.865332842,-1.559889555,0.4139533341,1
16.24146887,-1.235680389,11.81912201,-0.1351689148,-2.102602005,-0.9828842282,0.4284933209,1
16.26151088,-1.683249664,10.66846481,1.217568054,-1.829217196,-0.4364302158,0.727668345,1
16.28155187,-0.8982820129,11.18459152,1.195114746,-1.630254626,-0.6626994014,1.117405415,1
16.30159388,-1.116677856,10.42537033,2.050585785,-1.502745748,-0.6575478315,1.126901865,1
16.32163487,-1.701960754,9.452543335,2.632575531,-1.377419472,-0.03034843504,1.02816546,1
16.34167688,-1.840722198,8.920100555,1.994452515,-1.523321748,1.328539491,0.9997243881,1
16.36171887,-1.436562653,8.588839417,0.8535250854,-1.593748331,1.973626256,0.9026902914,1
16.38175988,-1.389710083,7.620503082,0.2303709412,-1.586418748,1.630578995,0.7360014319,1
16.40180187,-1.805695038,6.891069946,2.272574158,-1.340041637,1.432812929,0.6028020978,1
16.42184288,-1.905238037,6.338568878,3.57112381,-0.7468641996,1.577286124,0.4854733646,1
16.44188438,-1.584006042,5.65269516,3.28791275,-0.1408389211,1.33972156,0.3396431804,1
16.46192537,-1.535357208,5.019212494,3.41544754,0.4261702299,0.8442059159,0.130727917,1
16.48196738,-1.532363434,4.74468338,3.864513702,0.9222659469,0.53999722,-0.06416954845,1
16.50200837,-1.368005219,4.50488205,3.985462189,1.349480748,0.3050040007,-0.2655856311,1
16.52205038,-1.180445251,4.838089142,4.491709442,1.673347354,0.2029968649,-0.4626997411,1
16.54209137,-0.5831872559,5.799689484,5.071453857,1.921152949,0.3039183617,-0.7263875604,1
16.56213338,-0.6486012268,7.412585449,4.435576172,2.051590681,0.4384198487,-1.003500581,1
16.58217437,-1.767075348,9.812095642,4.944517822,1.620266318,1.051523685,-0.8258380294,1
16.60221638,0.6351292419,13.98541718,7.245083771,0.6034752131,1.979889154,-0.5972057581,1
16.62225737,2.024390259,15.96100891,6.58286087,-0.3194226325,1.461941838,-0.01241430733,1
16.64229938,3.240910492,12.17672836,5.626799011,-0.8019801974,-0.5324963927,0.8784477115,1
16.66234037,2.721939697,8.919651489,5.910010071,-0.2353772074,-1.100415349,1.025749683,1
16.68238238,-2.742596741,10.27807663,1.870659943,0.9727548361,-1.099554062,0.4583359063,1
16.70242337,-7.758366394,15.56208847,-1.093176727,1.478134751,-0.4131945074,0.1223308221,1
16.72246538,-10.39648041,18.82994293,0.3433859253,0.856921196,0.3946349621,0.2677477002,1
16.74250638,-1.80659317,8.55800354,-1.765877838,0.9083252549,0.377619803,0.4025116563,1
16.76254838,0.1809736633,2.478695526,-5.000351715,1.211662531,-0.4428739846,0.2856304944,1
16.78258938,0.3240760803,0.3091072083,-3.241209869,0.3613268137,-0.9908187985,-0.3713442087,1
16.80263138,-3.284619598,6.750961304,-0.2912942505,0.1342162043,-0.7016262412,-0.9220721126,1
16.82267238,-2.544857941,12.94987061,0.2118095398,0.8555735946,0.363841176,-0.8690716624,1
16.84271438,-0.6267466736,13.88542511,-2.172133026,1.32229197,1.203682184,-0.4279805422,1
16.86275538,0.3505709839,10.74076447,-2.489473114,1.033114552,0.05879097059,0.02537346072,1
16.88279738,-0.6477030945,8.343948669,1.59134079,0.892126143,-1.432728767,0.1253854185,1
16.90283838,-2.294728088,8.587641907,2.493065643,0.9617048502,-1.198749542,0.08283408731,1
16.92288038,-1.92948761,9.267378387,-0.4525090027,0.7492293715,-0.4257590473,-0.08612313867,1
16.94292138,-0.6123765564,9.35015625,-1.22625,0.5840192437,-0.1423769742,-0.30327034,1
16.96296338,-0.04939727783,9.53382431,-0.9051676941,0.5781975389,-0.4021628201,-0.3540390432,1
16.98300438,-0.3890409851,9.945468292,-0.5968089294,0.6278563738,-0.5457683206,-0.2611630857,1
17.00304638,-0.9372010803,10.11731094,-0.1743873596,0.5742599368,-0.3623951077,-0.218654111,1
17.02308738,-1.14437027,9.968969421,-0.0288899231,0.6520932913,-0.269192934,-0.2141250074,1
17.04312938,-1.262624359,9.961784363,-0.4308041382,0.7207129598,-0.3212536573,-0.2209759355,1
17.06317038,-1.183738403,9.781858521,-0.173638916,0.7814145088,-0.3320198357,-0.3027746975,1
17.08321238,-1.190923462,9.512568512,0.1839674377,0.8567977548,-0.271695435,-0.4329976439,1
17.10325338,-0.9553134155,9.18864212,0.3126997375,0.8849017024,-0.1461861283,-0.5548179746,1
17.12329538,-0.5625302124,9.271270294,0.7536827087,0.889534235,-0.0435477607,-0.6606830359,1
17.14333638,-0.3808081055,9.40628952,1.193617859,0.9652048349,-0.1599244773,-0.7329204679,1
17.16337838,-0.4667294312,9.695488129,0.5978567505,0.9043352008,-0.2785569429,-0.713971436,1
17.18341938,-0.2637515259,10.11296997,0.02784210205,0.6968172789,-0.2516040802,-0.654799521,1
17.20346138,0.3251239014,10.24275009,-0.8472381592,0.388780117,-0.1913377941,-0.5358769298,1
17.22350238,1.031504974,10.15428406,-0.6890171814,0.2314943671,-0.09230201691,-0.3912736475,1
17.24354438,1.101858673,10.55275543,-0.8707392883,0.05763854831,0.0378100574,-0.2152724266,1
17.26358538,0.4834945679,11.4290332,-0.6947053528,-0.05605312809,0.1088213846,-0.02207235061,1
17.28362737,-0.3634442139,12.58552826,-0.03053649902,-0.1750020236,0.1706816107,0.208607778,1
17.30366838,-0.6954537964,13.49922821,-1.640139313,-0.7901235223,0.1286739856,0.3317869902,1
17.32371037,-1.644180908,14.31578018,-1.66618515,-1.427460074,0.2009598166,0.5322947502,1
17.34375138,-2.495460663,10.8344696,-0.5780978394,-1.825733066,0.1791798174,0.7823967934,1
17.36379337,-2.859204254,7.181615753,-1.179846497,-2.470981836,-0.2945128083,0.8982291818,1
17.38383438,-4.090992737,6.43901001,-0.4237687683,-2.483106613,-0.7080971003,0.75876683,1
17.40387637,-6.776558075,9.604477386,1.083147583,-2.326962471,-1.367992163,0.6105095148,1
17.42391738,-5.332960052,12.83700531,1.904639282,-2.030912638,-1.768646121,0.7564718127,1
17.4439595,-2.21853653,13.03773788,1.140178986,-2.104418755,-1.50097394,0.4169666767,1
17.4640005,-0.9553134155,10.41638901,1.056952057,-2.085221291,-0.9837632775,0.3929457664,1
17.4840425,-1.451232147,9.094188538,0.6465055847,-1.752699256,-0.379880935,0.5470753312,1
17.5040835,-1.549278259,9.637408905,0.398770752,-1.533417463,-0.8875343204,0.8900055885,1
17.5241255,-0.6457571411,10.4244722,1.482367401,-1.518850803,-1.166012406,0.9994908571,1
17.5441665,-1.102457428,9.85326004,3.394341431,-1.326092601,-0.5780184269,0.892739296,1
17.5642085,-1.659000092,8.985813904,3.299738159,-1.295138955,0.7488632202,0.8594564199,1
17.5842495,-1.384021912,8.563392334,1.616488495,-1.3296597,1.920812845,0.8042320609,1
17.6042915,-1.11039093,8.060288544,0.2517764282,-1.222843289,1.760948539,0.7005394101,1
17.6243325,-1.31636261,7.400610352,0.5647755432,-1.085706115,1.370658636,0.6022081971,1
17.6443745,-1.660646667,6.835236053,2.329904938,-0.7696065903,1.359772563,0.4840777218,1
17.6644155,-1.793121185,6.108647003,3.729344788,-0.2548982501,1.364998937,0.3898328543,1
17.6844575,-1.5819104,5.464536438,4.037703552,0.3251187205,1.089893579,0.2363523543,1
17.7044985,-1.8194664,5.199737091,3.93262207,0.8452035785,0.7395145297,0.07258580625,1
17.7245405,-1.870809631,5.863456879,3.947291565,1.165952325,0.5857334137,-0.06074062735,1
17.7445815,-1.4837146,6.58989624,4.103566589,1.340830922,0.4137192965,-0.2000762075,1
17.7646235,-1.221459961,6.950496368,4.646337891,1.45902133,0.4690797031,-0.345272243,1
17.7846645,-0.7699987793,7.116052094,4.447700958,1.576395154,0.6991573572,-0.4272406101,1
17.8047065,-0.2966830444,8.361162872,4.984634399,1.534695387,1.009938598,-0.3582333326,1
17.8247475,1.855691071,11.902798,7.223528595,1.149594545,1.741370678,-0.283680588,1
17.8447895,3.034190369,14.70631805,7.03686676,0.3074093461,1.792962432,-0.04254058748,1
17.8648305,3.008743286,13.35926926,5.759872284,-0.4245928526,0.4387820363,0.8150416613,1
17.8848725,2.236199799,10.20383102,4.789589996,-0.1361995637,-1.313836575,1.120914221,1
17.9049145,-2.685415649,10.7654631,2.737207947,0.7777481079,-1.743385673,0.6863445044,1
17.9249555,-10.50964508,14.52998474,-0.3737727356,1.354486942,-1.139055252,0.3900454938,1
17.9449975,-9.93633728,16.18958359,0.9282197571,0.5921643376,0.1981093287,0.3197579086,1
17.9650385,-1.838925934,6.918912048,0.6059399414,0.7312760949,0.9763227701,-0.05189864337,1
17.9850805,0.1905537415,2.356848907,-3.351380768,1.353557706,-0.5390230417,-0.2357600629,1
18.0051215,1.222956848,2.668800201,-4.109853516,0.6627232432,-0.9956875443,-0.7460012436,1
18.0251635,-1.230740662,9.011111298,-2.508483582,0.2801103592,-0.8480087519,-0.9498394132,1
18.0452045,-0.7993377686,13.07351349,-0.1332229614,0.7752614617,0.169837296,-0.6745593548,1
18.0652465,1.124611359,12.86275177,0.07424560547,1.318314433,0.9842653871,-0.3386250734,1
18.0852875,0.3203338623,10.06551865,-2.458487549,1.123871684,0.1320072412,-0.02175703272,1
18.1053295,-1.068478088,8.705895996,-0.3764671326,0.8884024024,-0.8494660854,0.06334706396,1
18.1253705,-2.800077209,8.610244904,0.3935316467,0.8539754152,-0.6475529075,0.01670278981,1
18.1454125,-2.865640869,8.785530396,-0.3573069763,0.6591047645,-0.3078159988,-0.1737769693,1
18.1654535,-1.978136444,9.102571106,0.0549357605,0.5583450198,-0.2994137406,-0.3942585289,1
18.1854955,-0.9583071899,9.566905518,0.1836680603,0.5729253888,-0.3335305154,-0.4572948515,1
18.2055365,-0.4096980286,10.11446686,-0.4188290405,0.6130417585,-0.4873970151,-0.3401481509,1
18.2255785,-0.3594026184,10.42147842,-0.9262738037,0.5760536194,-0.6940190792,-0.2311999649,1
18.2456195,-0.7566764832,10.07884094,-0.822689209,0.6560595632,-0.6392964721,-0.2020191848,1
18.2656605,-0.9618997192,9.555080109,-0.7764353943,0.7228001356,-0.3597697914,-0.234021455,1
18.2857025,-0.8662486267,9.237141266,-0.5872288513,0.7365351319,-0.1609455347,-0.2994506955,1
18.3057445,-0.6508465576,9.106612701,-0.3722758484,0.7348188758,-0.08748559654,-0.3550671935,1
18.3257855,-0.6342311096,9.539961548,-0.2682421875,0.7659494281,-0.1829714477,-0.4016967118,1
18.3458275,-0.8021818542,9.994416504,-0.1588197327,0.8649623394,-0.3154019713,-0.4686591923,1
18.3658685,-1.257984009,10.10967682,0.5342390442,0.9579977989,-0.3919460177,-0.5549017787,1
18.3859105,-1.363514557,9.666448517,1.718725891,0.9718937278,-0.4101490378,-0.6105849743,1
18.4059515,-0.845741272,9.496102753,0.7191046143,0.732431531,-0.3957840502,-0.6534609199,1
18.4259935,0.1731898499,10.21221359,-0.4221221924,0.4202991724,-0.393247813,-0.5753300786,1
18.44603383,1.300944672,10.86814957,-0.2544708252,0.2358092219,-0.2417403013,-0.3924743235,1
18.46607583,1.824406128,11.56689651,-0.5008584595,0.1654532999,-0.08802916855,-0.1743876338,1
18.48611683,1.17131424,12.11535599,-0.6680607605,0.003528106492,-0.06671272963,0.02474533394,1
18.50615783,-0.1311273193,12.55618927,-0.8129594421,-0.1869155318,0.15236561,0.2472612709,1
18.52619983,-0.6869215393,13.47168549,-1.540746002,-0.5417914391,0.4631770849,0.4242206514,1
18.54624083,-1.723964996,13.93347519,-1.776056671,-1.156447411,0.3843692243,0.5193654895,1
18.56628283,-2.658621368,10.92488159,-0.5077441406,-1.788244009,0.09983878583,0.5732007623,1
18.58632383,-2.874771881,6.781348114,-0.3700305176,-2.401539564,-0.1222059205,0.536288321,1
18.60636583,-3.441942444,4.389921112,0.2516267395,-2.70319581,-0.6681505442,0.4650708437,1
18.62640683,-4.845124512,7.048243103,1.609902191,-2.180770874,-1.092007518,0.326413095,1
18.64644883,-5.224286041,11.82945053,0.250279541,-1.873595595,-1.100224733,0.5262544751,1
18.66649083,-1.728605347,14.14408722,0.1538800049,-2.07519865,-0.7814878821,0.4183146358,1
18.68653183,-0.9988728333,13.05824524,0.3956272888,-2.20407629,-0.4950259626,0.3922279179,1
18.70657383,-1.861379242,11.21183487,0.9047186279,-1.695692301,-0.460282594,0.5421007276,1
18.72661483,-2.129621429,10.68597839,1.342558136,-1.348192811,-1.344243407,0.8073652387,1
18.74665683,-1.918260956,10.26161087,2.515968018,-1.275361657,-1.489545941,0.9469435811,1
18.76669783,-2.130968628,9.5525354,2.295775909,-1.277662516,-0.4501316249,0.8411310315,1
18.78673883,-2.086062012,8.843759308,1.821112976,-1.311946869,0.5760838985,0.7829065919,1
18.80678083,-1.812580719,8.26670929,0.9527687073,-1.342962861,1.255305648,0.7706564665,1
18.82682183,-1.596579895,7.452702026,0.6432124329,-1.384727478,1.18151021,0.707226038,1
18.84686383,-1.668430481,6.705306244,1.54104538,-1.225610852,1.021091342,0.5912073851,1
18.86690483,-2.049238586,6.170468445,3.068169708,-0.7990215421,1.182131171,0.4602867067,1
18.88694683,-1.8194664,6.077511749,3.177592163,-0.3065170944,1.178527713,0.2991977632,1
18.90698783,-1.640289001,5.871240692,3.259172516,0.2318827808,0.870780766,0.05982452631,1
18.92702983,-1.797312469,5.322332153,3.18732193,0.6914906502,0.4401140511,-0.1491122693,1
18.94707083,-1.442101135,5.302573242,3.723806305,0.9967028499,0.2045629323,-0.3650399148,1
18.96711283,-1.296603699,5.397176514,4.494852905,1.213935733,0.1334568113,-0.5881052613,1
18.98715383,-1.048120422,6.191125488,5.165608063,1.388876081,0.3705867827,-0.8086448312,1
19.00719583,-0.9524693298,7.952662354,5.03717514,1.457935095,0.6136204004,-0.9170695543,1
19.02723683,-1.275048523,10.58972855,6.145171051,1.100825906,1.140093684,-0.784065485,1
19.04727883,0.2698887634,13.60445938,7.768694916,0.3490286469,1.953628421,-0.4947792292,1
19.06731983,2.412533112,14.45424225,6.518943787,-0.2181566209,1.221794128,0.2783533335,1
19.08736183,4.509821777,11.01694016,4.664150848,-0.3861205578,-0.6999335885,0.9088174105,1
19.10740283,3.005300446,8.12630127,4.07886795,-0.1558039486,-1.110093117,0.7839025259,1
19.12744483,-2.754721527,8.437803497,2.037413177,0.7275868654,-0.8632093072,0.4088033438,1
19.14748583,-6.724017334,10.98385895,0.9063652039,1.317308784,0.01623522118,0.2239901274,1
19.16752783,-8.119864655,15.83152817,1.794618073,1.033649325,0.6195211411,0.1051510125,1
19.18756883,-2.393073578,14.50169357,5.28416153,0.49242118,0.2352195233,0.3083660305,1
19.20761083,-0.9779164124,7.737859039,-1.053359528,1.623675108,-0.2990077436,0.3284360766,1
19.22765183,-0.720302124,3.666026459,-6.408024445,1.109357357,-1.229534268,0.2466953546,1
19.24769383,-1.682800598,3.498824158,-1.344055023,0.07208826393,-0.936809063,-0.585398376,1
19.26773483,-3.297492828,7.448211365,2.321821747,0.004300360568,0.2307029516,-0.9875591993,1
19.28777683,-0.9060658264,11.31871262,-0.1140628052,0.5880678296,1.337522626,-1.011396766,1
19.30781783,0.6596781921,13.36450836,-3.279829559,1.058585405,1.366018534,-0.5801596045,1
19.32785983,1.406774597,12.33270401,-2.820285187,0.8696827292,0.1610046029,-0.1017222255,1
19.34790083,-1.127305756,9.479636993,1.4438974,0.7863196135,-0.8469051123,0.1743020266,1
19.36794283,-2.827320557,7.9507164,2.707868958,0.8643063307,-0.7271683216,0.171420157,1
19.38798383,-2.400707703,8.297844543,0.7337741089,0.7793578506,-0.3213611841,0.01336720586,1
19.40802583,-1.158590698,9.140592041,-0.8792715454,0.711853683,-0.4715375602,-0.1561415195,1
19.42806683,-0.2139051819,9.635762329,-1.382824402,0.709010601,-0.5706941485,-0.2759185433,1
19.44811,-0.3402424622,9.830357666,-1.091530151,0.7310606837,-0.4024414122,-0.2983914912,1
19.468151,-0.645308075,9.887838135,-0.4742138672,0.6409806609,-0.1210595742,-0.3041377366,1
19.488193,-0.9614506531,9.708061981,-0.2082170105,0.6051517129,-0.1052278429,-0.2819951177,1
19.508234,-1.262324982,9.529483337,-0.300125885,0.6921249032,-0.2857226729,-0.2535253465,1
19.528276,-1.20050354,9.368268585,-0.3849993896,0.7115879059,-0.2849990427,-0.2861412168,1
19.548317,-1.242715759,9.189091187,-0.3444337463,0.6758982539,-0.2013992816,-0.3566991389,1
19.568359,-1.265019379,9.298214264,-0.2219883728,0.6406572461,-0.2188428342,-0.4383557141,1
19.5884,-1.180894318,9.362281036,0.2609074402,0.6207364202,-0.2167907953,-0.5257110596,1
19.608442,-1.021176453,9.499695282,0.5848338318,0.6437647343,-0.2087677419,-0.5663242936,1
19.628483,-0.5074447632,9.914033661,1.115929413,0.7341615558,-0.1927416325,-0.6271491647,1
19.648525,-0.05328918457,10.51847672,0.7325765991,0.8199078441,-0.1915700287,-0.6606037021,1
19.668566,0.1405577087,11.08729385,0.08487350464,0.7356849909,-0.1383033246,-0.6648035049,1
19.688608,0.4107458496,11.17171829,-0.3290158081,0.4557828605,0.09013042599,-0.5958383679,1
19.708649,0.5821394348,11.42544067,-0.7078779602,0.1211503446,0.1919189543,-0.4173946083,1
19.728691,0.5602848816,12.53882538,-0.9181906128,-0.1431496739,0.1425209939,-0.1437595636,1
19.748732,-0.353714447,14.086008,-0.5355862427,-0.3393567502,0.1483618021,0.2005052119,1
19.768774,-0.1818717957,14.35814209,0.214354248,-0.6259273887,0.4505088627,0.3773709536,1
19.788815,-1.658251648,12.91110123,0.2230361938,-1.077532649,0.3957251012,0.5454566479,1
19.808857,-2.261497192,10.06027954,-0.02275268555,-1.639830947,0.3270002902,0.5788286328,1
19.828898,-2.628384247,6.740632782,-0.527353363,-2.327177525,0.5348249078,0.6054680347,1
19.84894,-3.000360718,5.101391602,-0.05508544922,-2.492644548,-0.03658001497,0.5605943799,1
19.868981,-4.237987061,7.900570679,1.473535767,-2.256121397,-1.122392058,0.3933992088,1
19.889023,-5.165308685,11.77451477,1.260528717,-1.72849524,-1.60032928,0.4487836063,1
19.909064,-2.560874634,12.73910889,-0.4270619202,-1.813233018,-1.106574655,0.4628495574,1
19.929106,-2.288441162,12.20292389,0.3134481812,-2.099122286,-0.5582274199,0.5568766594,1
19.949147,-1.977388,11.25000549,2.188449097,-1.724357486,-0.8675265312,0.7592269182,1
19.969189,-2.258204041,10.64765808,1.782642975,-1.299934149,-1.00724256,0.9440134168,1
19.98923,-2.273921356,9.535470886,1.51754425,-1.286987901,-1.122739434,0.946777761,1
20.009272,-2.340532837,8.596323853,1.92484726,-1.40731883,-0.7371284962,0.846852839,1
20.029313,-1.80315033,8.293503571,2.682272186,-1.442343116,0.08373113722,0.8237261176,1
20.049355,-1.042282562,8.610843658,1.930535431,-1.32395792,1.061617017,0.8861035705,1
20.069396,-0.6057902527,8.529113617,0.6578819275,-1.403825402,1.466861844,0.8698022962,1
20.089438,-1.0484198,8.141569519,1.02611618,-1.438914299,1.729115963,0.7159389257,1
20.109479,-2.170935516,6.997648315,1.885928192,-1.245483875,1.97001493,0.526909411,1
20.129521,-3.131488037,5.998925171,2.936743011,-0.812743187,1.767186403,0.3962969482,1
20.149562,-2.746488647,5.459746399,3.814966736,-0.1955676228,1.340924859,0.2866348028,1
20.169604,-2.154769135,5.431604919,4.116140442,0.4584183395,0.8466379642,0.2124707699,1
20.189645,-1.467997284,5.773493958,3.904181213,0.9298163652,0.6476398706,0.1790844649,1
20.209687,-0.7219487,5.660478973,3.682791595,1.169687271,0.489647001,0.1048101336,5
20.229728,-0.4799020386,5.452261963,4.543950806,1.350767374,0.3050733507,-0.04992802441,5
20.24977,-0.4019142151,5.915249176,5.549110565,1.697957635,0.4304088652,-0.2762847543,5
20.269811,-0.5780978394,7.072792053,5.392236786,2.014435768,0.75906533,-0.4735623896,5
20.289853,-0.6671626282,10.05578888,5.438640289,1.833169818,1.298133135,-0.4429253638,5
20.309894,0.5180726624,13.99888916,5.36604126,0.9603722692,1.604827762,-0.2030889094,5
20.329936,1.414259033,15.58469147,4.899311829,-0.1043419614,0.8176530004,0.333879739,5
20.349977,2.452649689,11.55926239,6.046226807,-0.5711948276,-0.2301620543,0.6514306664,5
20.370019,-0.09684860229,9.167536011,4.947960663,-0.3082022965,-0.3579900265,0.6240007877,5
20.39006,-3.574117584,8.752898254,2.593656464,0.3609476984,-0.3695997298,0.3774657845,5
20.410102,-5.895041199,10.85991669,2.796334991,1.039579988,0.2530456185,0.2209974974,5
20.430143,-5.639372864,15.50879929,2.219883728,0.8978814483,0.6314806342,0.1909103394,5
20.45018458,-2.225721588,13.71268433,-1.650318146,0.6513051391,-0.9613137245,0.6110116839,5
20.47022558,-1.437161407,5.877228241,-3.008593597,1.740755081,-1.403010368,0.750848949,5
20.49026758,-1.087488556,2.846630402,-2.062111816,1.312713981,-2.170975685,0.3686203659,5
20.51030858,-3.196902008,5.132526855,2.01840271,0.5199661851,-1.335403442,-0.6716694236,5
20.53035058,-3.358565826,9.256002045,-0.3522175598,0.9854674935,0.4795837402,-1.096365809,5
20.55039158,-1.237626343,11.61419815,-3.947291565,1.032529235,0.9936119914,-1.028723121,5
20.57043358,0.7415579224,11.67886368,-3.518732758,0.7674314976,0.73402071,-0.7618449926,5
20.59047458,0.7797285461,10.70932983,-0.7176077271,0.6841686964,-0.1745264381,-0.2438776046,5
20.61051658,-1.069675598,10.26220963,1.522633667,0.9074937701,-0.7750425935,0.1393232048,5
20.63055758,-1.635648651,9.370364227,0.8695417786,0.7728515267,-1.014024854,0.1774279177,5
20.65059958,-1.904489594,8.936266937,0.4610412598,0.4354070127,-1.041448236,0.0434471257,5
20.67064058,-1.346450043,8.908275146,0.4767585754,0.3874700963,-0.8586490154,-0.1117039844,5
20.69068158,0.3121009827,9.282197571,-0.4899311829,0.489238143,-0.4095078111,-0.249945119,5
20.71072358,1.524878998,9.959539032,-1.665885773,0.4476778805,-0.2068507671,-0.2296519428,5
20.73076458,1.561103668,10.55485107,-1.498683472,0.4794547558,-0.263635546,-0.1877965331,5
20.75080658,0.05104385376,10.44048889,-0.1312770081,0.5798336864,-0.1985070854,-0.09167534858,5
20.77084758,-0.8211923218,10.10488678,0.5029541016,0.6633579731,-0.1797501743,-0.1012548357,5
20.79088958,-1.282832336,9.925709381,-0.2528242493,0.6540873051,-0.1741624475,-0.2380108833,5
20.81093058,-1.588347015,9.767638092,-0.7339237976,0.6491519213,-0.1685177982,-0.4025420249,5
20.83097258,-1.526226196,9.396709442,-0.5174739075,0.6963356137,-0.1229761317,-0.5821172595,5
20.85101358,-1.235530701,8.907377014,-0.3811074829,0.7049452066,-0.09595504403,-0.720831573,5
20.87105558,-1.043031006,9.108708344,0.1426533508,0.7522369027,-0.2231535912,-0.7618562579,5
20.89109658,-1.123413849,9.734856262,0.9523196411,0.838879168,-0.4094308019,-0.7271057963,5
20.91113858,-1.375040588,9.875264282,0.4095483398,0.7567181587,-0.5019013882,-0.6497506499,5
20.93117958,-1.018781433,9.817185059,-0.1246907043,0.4550356567,-0.717259109,-0.6351622939,5
20.95122158,0.189206543,9.59355011,-0.5194198608,0.1489330381,-0.9074742794,-0.5370326042,5
20.97126258,2.086361389,9.561367035,-0.8196954346,-0.1352078617,-0.7901152968,-0.3169782758,5
20.99130458,2.144290924,10.52087173,-1.177451477,-0.3513956368,-0.3496418297,0.08804693818,5
21.01134558,0.5888754272,12.15337692,-2.597099304,-0.6917093396,0.1469650716,0.7404975891,5
21.03138758,-2.211650848,14.063405,-3.239263916,-1.222926736,0.4279150963,1.328446984,5
21.05142858,-4.032314758,14.08121796,-1.029109955,-1.471654296,0.09674245864,1.414696217,5
21.07147058,-4.207450562,12.01072357,-0.2565664673,-2.159259558,-0.890039444,0.7238119841,5
21.09151158,-8.618926849,8.312214661,2.394121399,-2.190989256,-1.597981334,0.2994012237,5
21.11155358,-7.915539551,7.660619659,2.072290649,-1.210499883,-2.00527072,0.455837816,5
21.13159458,-4.710704041,9.578431549,-1.615290985,-0.7377379537,-1.742767096,-0.05061062425,5
21.15163658,-2.996319122,10.68867279,-3.583098907,-1.146435738,-0.6034132242,-0.1347126365,5
21.17167758,-3.134481812,10.54991135,-1.375339966,-1.199167132,0.1540525854,-0.04386138916,5
21.19171958,-2.833308105,9.632469177,1.148561554,-0.5435695052,-0.3578771353,0.1508591026,5
21.21176058,-3.322191467,8.377628632,1.20050354,0.3001046479,-0.9170868397,0.1606560796,5
21.23180258,-3.832929382,7.225025482,0.6239025879,0.7946725488,-0.9057635665,0.2772283554,5
21.25184358,-2.05462738,7.060667267,0.292641449,0.5999161005,-0.2004179806,0.1837728471,5
21.27188558,-1.247954865,7.239694977,0.9238787842,0.3209113181,0.7773566842,-0.02074512839,5
21.29192658,-1.563648376,7.890990601,0.7866142273,0.4212150276,1.251544714,-0.08145268261,5
21.31196858,-1.835932159,8.674012299,-0.4769082642,0.4639605582,1.393640995,-0.07165941596,5
21.33200958,-2.04175415,9.085057526,-1.205892334,0.3041269481,1.381989002,-0.1001447067,5
21.35205158,-2.60458374,9.313332825,-0.5363346863,0.1325460821,1.154915452,-0.1329580992,5
21.37209258,-3.102747803,8.66443222,1.028211823,-0.03711219132,0.6217411757,-0.1476252824,5
21.39213458,-2.607427826,8.172704773,2.066452789,-0.1892355382,0.1557437927,-0.3382867277,5
21.41217558,-3.023562469,8.051756287,1.195713501,-0.2775208056,0.1335192323,-0.4765058458,5
21.43221758,-3.503913574,8.713979187,0.6174659729,-0.1237445623,0.4916754663,-0.4186626375,5
21.45225858,-3.088377686,10.17658768,0.5553451538,0.4459068775,0.7831947803,-0.2649350464,5
21.47230058,-2.086660767,11.71987839,-2.222578125,0.7485697865,0.8062487245,-0.2485052794,5
21.49234158,-2.077380066,11.70745422,-1.371148682,0.5090018511,0.6526914835,-0.2514680028,5
21.51238358,-1.883682861,10.61772034,0.8011340332,0.4728879929,0.2826420665,-0.1105540842,5
21.53242458,-1.726509705,8.86336853,0.7551795959,0.4978431463,-0.1659629196,-0.02482206561,5
21.55246658,-2.104174347,8.431516571,0.9660910034,0.4077113867,-0.4672113955,-0.01606699452,5
21.57250758,-2.412233734,9.240284729,0.539178772,0.213917166,-0.2243361324,-0.09105935693,5
21.59254958,-2.162253571,9.878856812,-0.6697073364,0.1035505161,0.1249993816,-0.1623911411,5
21.61259058,-1.948348389,9.840686188,-0.9038204956,0.118462421,0.2665335834,-0.1549223214,5
21.63263258,-1.782642975,9.667795715,-0.6601272583,0.1498285979,0.2152428329,-0.1207310408,5
21.65267358,-1.833088074,9.705068207,-0.0904119873,0.1602405459,0.1509186476,-0.07475045323,5
21.67271558,-1.817221069,9.928254089,0.1625619507,0.1993440837,0.08932882547,-0.008754027076,5
21.69275658,-1.896107025,9.756261749,-0.1589694214,0.2107010633,-0.1180884913,0.04665405676,5
21.71279858,-1.995799713,9.554181976,-0.4501139832,0.1806526184,-0.234120056,0.04765653983,5
21.73283958,-2.175126801,9.410331116,-0.337098999,0.1456169486,-0.1492441595,0.004250137601,5
21.75288158,-2.161056061,9.603279877,-0.1236428833,0.1056585386,0.02114766836,-0.05356701463,5
21.77292258,-1.984123993,9.665400696,0.05358856201,0.07877772301,0.06644368917,-0.05981627107,5
21.79296458,-1.848506012,9.607171783,0.08412506104,0.08078168333,-0.108110182,-0.02835220657,5
21.81300558,-1.834584961,9.702972565,0.206869812,0.0945808515,-0.2317043245,0.02090835758,5
21.83304758,-1.85344574,9.881251831,0.1841171265,0.08324943483,-0.1656992435,0.03965299204,5
21.85308858,-1.617536316,9.930948486,-0.1616638184,-0.01553672925,-0.0578626357,0.03927155584,5
21.87312958,-1.267115021,9.67542984,-0.2371069336,-0.04666182399,0.02491423674,0.0560561046,5
21.89317158,-1.152303772,9.605525208,-0.3122506714,-0.01949025691,0.02659779601,0.09712287039,5
21.91321258,-1.428030396,9.625284119,-0.2697390747,-0.01626969688,-0.001751581207,0.1146129891,5
21.93325458,-1.662442932,9.677974548,-0.093256073,-0.003641587216,0.0260182973,0.09864202887,5
21.95329558,-1.791923676,9.603579254,-0.1438508606,-0.01134657674,0.09321703762,0.05475703627,5
21.97333758,-1.704505463,9.525741119,-0.1207987976,-0.03016014583,0.1352455616,0.02484015003,5
21.99337858,-1.672771454,9.533674622,-0.1558259583,-0.02677300759,0.1619582325,0.01468602195,5
22.01342058,-1.650617523,9.582622833,-0.214354248,-0.03028877825,0.1450465024,0.01256464608,5
22.03346158,-1.689087524,9.591005402,-0.1664538574,-0.0215914268,0.1233484298,0.01111448463,5
22.05350358,-1.761087799,9.660011902,-0.033230896,0.003309261054,0.1201276407,0.00979819335,5
22.07354458,-1.809287567,9.697583771,-0.0375718689,0.03049687296,0.1311026365,0.01090774592,5
22.09358658,-1.849404144,9.640252991,-0.1927990723,0.03822403401,0.1523506641,0.009294935502,5
22.11362758,-1.847458191,9.593400421,-0.3159928894,0.0320129469,0.1439808458,0.006712255999,5
22.13366958,-1.832489319,9.636211395,-0.3219804382,0.03099368885,0.1349394172,0.007541395724,5
22.15371058,-1.912722473,9.647138672,-0.323177948,0.03150834516,0.1180937737,0.007629304193,5
22.17375258,-2.064656525,9.674082642,-0.3345542908,0.03112078644,0.09371247888,0.01352125406,5
22.19379358,-2.114652557,9.585017853,-0.2757266235,0.04102535173,0.08584936708,0.01144735608,5
22.21383558,-2.035467224,9.455686798,-0.3149450684,0.04283882678,0.07126186043,0.003704279894,5
22.23387658,-1.920805664,9.578730927,-0.3203338623,0.03633452207,0.04926663265,-0.005510642193,5
22.25391858,-1.896256714,9.665700073,-0.2978805542,0.04031541944,0.04113030434,-0.01452960074,5
22.27395958,-1.881587219,9.63097229,-0.2975811768,0.04475656897,0.04456502944,-0.02185308188,5
22.29400158,-1.912123718,9.59699295,-0.2649490356,0.04212882742,0.03481525183,-0.01758710295,5
22.31404258,-1.897304535,9.553583221,-0.1936972046,0.04492048919,0.0288573727,-0.01515687257,5
22.33408458,-1.793121185,9.558522949,-0.340841217,0.04369503632,0.007773539983,-0.01653522812,5
22.35412558,-1.872306519,9.613758087,-0.349972229,0.04296040535,-0.01208609156,-0.01641914062,5
22.37416758,-1.935026093,9.617949371,-0.2263293457,0.04856010154,0.01961805671,-0.02970112488,5
22.39420858,-1.850601654,9.51167038,-0.2766247559,0.04500118271,0.02795879543,-0.04445423558,5
22.41425058,-1.750010834,9.549691315,-0.3469784546,0.04299349338,-0.03019426204,-0.03645925596,5
22.43429158,-1.810335388,9.604327698,-0.2915936279,0.06019258499,-0.05707129464,-0.02823604271,5
22.45433325,-1.842219086,9.606123962,-0.2398013306,0.05545322224,-0.03502460942,-0.04312836751,5
22.47437425,-1.7995578,9.571994934,-0.2065704346,0.04473120347,-0.0177278202,-0.05017112568,5
22.49441625,-1.727856903,9.579778748,-0.2210902405,0.04438951984,-0.0262456201,-0.0434371978,5
22.51445725,-1.789229279,9.665849762,-0.1615141296,0.03740677983,-0.03930984437,-0.02879767865,5
22.53449925,-1.824256439,9.666747894,-0.1451980591,0.03839474916,-0.01251507923,-0.03019351512,5
22.55454025,-1.728305969,9.640402679,-0.302820282,0.02052293718,-0.01039841585,-0.03575659543,5
22.57458225,-1.665287018,9.611812134,-0.252973938,0.01490393281,-0.01234355941,-0.02524090931,5
22.59462325,-1.703457642,9.64504303,-0.1863624573,0.0185202416,-0.006391900592,-0.01694203727,5
22.61466525,-1.789678345,9.684111786,-0.1820214844,0.02538041025,-0.003968865145,-0.02077488601,5
22.63470625,-1.721420288,9.548493805,-0.2619552612,0.03225436062,-0.009096812457,-0.0252972208,5
22.65474825,-1.728455658,9.511969757,-0.2371069336,0.02847567014,-0.02093302831,-0.02476480603,5
22.67478925,-1.788630524,9.628277893,-0.09026229858,0.03014187515,-0.01418525632,-0.02844725549,5
22.69483125,-1.788929901,9.614805908,-0.1713935852,0.03861458972,-0.01331268437,-0.02702283114,5
22.71487225,-1.826801147,9.564211121,-0.2676434326,0.03883802891,-0.02817498893,-0.02143232338,5
22.73491425,-1.847158813,9.551487579,-0.2032772827,0.04278104007,-0.02841562219,-0.0240075253,5
22.75495525,-1.849404144,9.572743378,-0.2059716797,0.04756055027,-0.02336751483,-0.02629556507,5
22.77499725,-1.875899048,9.569749603,-0.2865042114,0.05115408823,-0.02705984004,-0.02465123311,5
22.79503825,-1.836830292,9.575437775,-0.2639012146,0.05305624753,-0.02023178153,-0.023208078,5
22.81508025,-1.894909515,9.625284119,-0.2803669739,0.04341766611,-0.007010991685,-0.01992897689,5
22.83512125,-1.898052979,9.623637543,-0.2686912537,0.03809287772,0.003854317823,-0.02115375549,5
22.85516325,-1.938468933,9.651180267,-0.2501298523,0.03855746612,-0.005594642833,-0.01693881676,5
22.87520425,-1.890418854,9.577982483,-0.3032693481,0.03917398304,-0.02481206879,-0.01617434435,5
22.89524525,-1.843865662,9.55612793,-0.3745211792,0.03886333108,-0.02977687865,-0.01086197048,5
22.91528725,-1.842219086,9.592502289,-0.4095483398,0.03201007843,-0.007889477536,-0.007946830243,5
22.93532825,-1.898801422,9.626032562,-0.4317022705,0.0262756981,0.02122608572,-0.00605685031,5
22.95537025,-1.968556366,9.602980499,-0.422870636,0.0285665486,0.02203379571,-0.006082345732,5
22.97541125,-2.035018158,9.532626801,-0.4418811035,0.03308899701,0.006321318448,-0.001531776274,5
22.99545325,-2.051483917,9.526190186,-0.5406756592,0.0397894457,-0.02291104756,-0.00780950021,5
23.01549425,-2.065704346,9.500593414,-0.6060896301,0.03512631357,-0.02734727599,-0.01268321555,5
23.03553625,-2.039957886,9.540410614,-0.5514532471,0.03526366875,0.003366894554,-0.02086937428,5
23.05557725,-2.037413177,9.552984467,-0.590072937,0.03831231967,0.02976157516,-0.02218846418,5
23.07561925,-2.060764618,9.535919952,-0.63887146,0.03728893399,0.024994459,-0.01832630113,5
23.09566025,-2.082020416,9.590256958,-0.6518943787,0.03617340326,0.002310152166,-0.01663734764,5
23.11570225,-2.036664734,9.55029007,-0.6518943787,0.03259664774,-0.007912805304,-0.01757221296,5
23.13574325,-2.012115784,9.522298279,-0.642613678,0.02685260773,0.01133856177,-0.01027113292,5
23.15578525,-2.002984772,9.58187439,-0.664019165,0.01765391417,0.03191314265,-0.00456925761,5
23.17582625,-1.98562088,9.564510498,-0.6773414612,0.01384719089,0.03223562613,-0.004467720166,5
23.19586825,-1.994751892,9.48008606,-0.5861810303,0.0162675418,0.04329415783,0.0003010355867,5
23.21590925,-2.053280182,9.485325165,-0.6345304871,0.01465506293,0.04365040362,0.002466306556,5
23.23595125,-2.155816956,9.565258942,-0.6021977234,0.01873102784,0.03468206897,0.002984111663,5
23.25599225,-2.180814972,9.582323456,-0.619561615,0.02377745323,0.03026982769,-0.004107030109,5
23.27603425,-2.142943726,9.542506256,-0.6578819275,0.01671275496,0.02858155593,-0.009194174781,5
23.29607525,-2.126927032,9.501940613,-0.6267466736,0.01699298434,0.03329393268,-0.00843931362,5
23.31611725,-2.164049835,9.570048981,-0.5915698242,0.01600927673,0.01710762829,-5.755363964e-05,5
23.33615825,-2.157463531,9.539811859,-0.5731581116,0.01654184423,-0.0094759278,0.0005846116692,5
23.35620025,-2.12842392,9.521998901,-0.5989045715,0.01144854911,-0.01215264481,-0.002165705897,5
23.37624125,-2.061213684,9.51167038,-0.6007008362,0.007227105554,-0.0156293679,-0.003902331227,5
23.39628325,-2.010618896,9.546547852,-0.5634283447,0.008824669756,-0.01158393919,-0.0005157086998,5
23.41632425,-2.03127594,9.594148865,-0.5538482666,0.01110799704,-0.0003954079002,0.003245158587,5
23.43636625,-2.024539948,9.538165283,-0.6589297485,0.01231700368,-0.01008350961,0.004033149686,5
23.4564075,-1.980681152,9.554032288,-0.6173162842,0.003672319464,-0.0196943637,0.001505607506,5
23.4764495,-1.949096832,9.552385712,-0.6215075684,0.002736881841,-0.04182706028,0.004479673691,5
23.4964905,-1.87559967,9.492510223,-0.605640564,-0.0117891971,-0.05192697793,0.003421235364,5
23.5165325,-1.818119202,9.579329681,-0.5363346863,-0.02066937275,-0.0308619421,-0.002086827531,5
23.5365735,-1.796863403,9.670340424,-0.4522096252,-0.006669531576,0.02500527725,-0.004579668865,5
23.5566155,-1.75165741,9.677974548,-0.5471122742,-0.004069956951,0.04004874825,0.007649178617,5
23.5766565,-1.774410095,9.62977478,-0.5858816528,-0.002592699835,0.05950241908,0.01506826375,5
23.5966985,-1.902693329,9.592651978,-0.5489085388,0.007399545517,0.06251271814,0.02605673112,5
23.6167395,-1.949695587,9.573342133,-0.5881269836,0.00889983587,0.0369149819,0.0275884252,5
23.6367815,-2.024989014,9.555678864,-0.5313949585,0.008863884956,0.04111090302,0.02288686857,5
23.6568225,-2.075284424,9.516610107,-0.4936734009,0.003775517223,0.0490206629,0.01354585588,5
23.6768645,-2.051483917,9.495503998,-0.4800517273,-0.001401734073,0.02906249091,0.003679788206,5
23.6969055,-2.057471466,9.548942871,-0.5370831299,-0.004723628052,0.01306233928,-0.0002460745163,5
23.7169475,-2.048190765,9.534872131,-0.6376739502,-0.0008190351073,0.0118400678,-0.001032336615,5
23.7369885,-2.044598236,9.550439758,-0.6698570251,0.0006800550036,0.006139669102,-0.000845761504,5
23.7570305,-2.068398743,9.592801666,-0.5857319641,0.01195042208,0.01577181183,-0.00150274788,5
23.7770715,-2.020648041,9.520801392,-0.6515950012,0.01664923504,0.01138366945,6.368942559e-05,5
23.7971125,-1.949246521,9.510921936,-0.6219566345,0.01723912545,0.003748975694,-0.004605237395,5
23.8171545,-1.981728973,9.592502289,-0.5995033264,0.01300583594,0.008846634068,-0.005387795158,5
23.8371965,-2.019151154,9.560319214,-0.5845344543,0.01120673772,0.02108664252,-0.0009782286361,5
23.8572375,-2.078577576,9.570947113,-0.6164181519,6.100558676e-05,0.02616530471,0.001029191073,5
23.8772785,-2.050735474,9.596693573,-0.6556365967,-0.008514573798,0.01447178051,0.002234461019,5
23.8973205,-2.001787262,9.556576996,-0.6973997498,-0.01301198453,0.001897389069,0.002764507895,5
23.9173615,-2.020648041,9.554331665,-0.6402186584,-0.007854507305,-0.008365395479,0.005386995152,5
23.9374035,-2.070943451,9.585766296,-0.6180647278,0.00294693769,-0.01440741774,0.006137313321,5
23.9574445,-2.061812439,9.521400146,-0.6676116943,-0.0009541900363,-0.007698599249,0.007472299039,5
23.9774865,-2.002236328,9.489067383,-0.6533912659,-0.005295543931,-0.014371912,0.004382350016,5
23.9975275,-1.948348389,9.537117462,-0.5909710693,-0.001164581161,-0.008517310023,0.002883550012,5
24.0175695,-1.995949402,9.568252716,-0.666713562,0.002356648911,-0.01186685264,0.003681642935,5
24.0376105,-2.029329987,9.595346375,-0.639919281,0.0006901099114,-0.000772153493,0.006844126619,5
24.0576525,-2.024689636,9.574240265,-0.5767506409,0.0004230592167,0.01223132387,0.006474869326,5
24.0776935,-1.963317261,9.554032288,-0.6012995911,-0.003578403732,0.0003107432276,0.005388301797,5
24.0977355,-1.936223602,9.505682831,-0.6200106812,-0.00492762588,-0.008480742574,0.009792371653,5
24.1177765,-1.964514771,9.559121704,-0.6390211487,-0.009770587087,-0.0196840018,0.01030884963,5
24.1378185,-1.942211151,9.581425323,-0.5556445312,-0.005591354333,0.003947675228,0.005030808039,5
24.1578595,-1.908680878,9.554032288,-0.6038442993,-0.007103230339,0.009105712175,0.006871513557,5
24.1779015,-1.898651733,9.535171509,-0.6303392029,-0.01101168618,-0.006941191852,0.006757069379,5
24.1979425,-1.937121735,9.549691315,-0.6382727051,-0.009171173908,0.0008502071723,0.004023190588,5
24.2179845,-1.963616638,9.592202911,-0.5813909912,-0.005816125311,0.0004940875806,0.002866190858,5
24.2380255,-1.981429596,9.598040771,-0.5307962036,0.001400109613,0.000636714045,0.003591733053,5
24.2580675,-1.983525238,9.593999176,-0.5336402893,0.0006739312084,-0.01078623161,0.002403354738,5
24.2781085,-1.92709259,9.604178009,-0.5418731689,0.0006653415039,-0.01394846663,0.001048161066,5
24.2981505,-1.886826324,9.53966217,-0.6111790466,-0.01110742614,-0.02286195382,0.003104907228,5
24.3181915,-1.889520721,9.57828186,-0.6192622375,-0.01028084941,-0.02087819017,0.008344572037,5
24.3382335,-1.947899323,9.577084351,-0.5786965942,-0.006759086624,-0.00824104622,0.009212166071,5
24.3582745,-1.968556366,9.557774506,-0.5616320801,0.0003111424157,0.002701435238,0.008059523068,5
24.3783165,-1.956880646,9.558672638,-0.5848338318,-0.001155725215,-0.01449321024,0.006851370912,5
24.3983575,-1.961820374,9.554631042,-0.5563929749,-0.00411163643,-0.03090469539,0.01540081389,5
24.4183995,-1.990859985,9.595346375,-0.5797444153,0.005533934571,-0.04673781246,0.01982115582,5
24.4384405,-1.971101074,9.594148865,-0.5544470215,0.01742967591,-0.05802026391,0.01816362701,5
24.45848296,-2.019749908,9.569599915,-0.6036946106,0.008284511976,-0.07326197624,0.02163129859,5
24.47852396,-1.98442337,9.538314972,-0.5352868652,-0.004265299533,-0.06033416837,0.01413300913,5
24.49856596,-1.998793488,9.503736877,-0.4872367859,-0.02260103263,-0.02449174225,0.006853703409,5
24.51860696,-1.886826324,9.606123962,-0.6084846497,-0.00382501306,-0.05145208165,0.01129206829,5
24.53864896,-1.898502045,9.580078125,-0.5318440247,0.006408380345,-0.03556191176,0.01305756997,5
24.55868996,-1.929637299,9.539512482,-0.6433621216,-0.003035983536,-0.02672371641,0.004976989236,5
24.57873196,-1.89670578,9.540709991,-0.5360353088,-0.006221991498,-0.02576976828,0.005837816279,5
24.59877296,-1.959275665,9.557325439,-0.5063969421,0.01611347683,-0.00220236741,0.01072641555,5
24.61881496,-1.957778778,9.603579254,-0.6370751953,0.004563211463,-0.01774134487,0.008591209538,5
24.63885596,-1.942959595,9.503886566,-0.5831872559,0.001454239246,-0.01307886466,0.001378889545,5
24.65889796,-1.967807922,9.573342133,-0.5807922363,-0.006846432574,-0.00981631875,-0.003808125388,5
24.67893896,-1.981728973,9.623338165,-0.5418731689,-0.007940795273,-0.02066768333,-0.007008473389,5
24.69897996,-1.95403656,9.587412872,-0.5757028198,-0.00596326543,-0.005130388308,-0.001575527014,5
24.71902196,-1.914967804,9.573791199,-0.6081852722,-0.006454683375,-0.01551686972,-0.003271885915,5
24.73906296,-1.953138428,9.540410614,-0.5962101746,-0.008138734847,-0.02063912898,-0.006585346069,5
24.75910496,-1.938768311,9.545500031,-0.5655239868,-0.0104793869,-0.0115609169,-0.007875451818,5
24.77914596,-1.842069397,9.528435516,-0.5626799011,-0.006479385309,-0.01134964172,-0.005503227934,5
24.79918796,-1.852547607,9.53966217,-0.4668791199,-0.003208888927,-0.009591247886,-0.003485592082,5
24.81922896,-1.919608154,9.545350342,-0.5450166321,-0.008876493201,-0.01049971953,-0.01295903977,5
24.83927096,-1.850601654,9.57364151,-0.6065386963,-0.005825311877,0.0006577803288,-0.007923314348,5
24.85931196,-1.875300293,9.621841278,-0.4905299377,-0.003115212545,0.01722577773,-0.01162665803,5
24.87935396,-1.909728699,9.576186218,-0.3553610229,-0.01022265758,0.05976655334,-0.01716436259,5
24.89939496,-1.866618347,9.626032562,-0.5716612244,0.01600861177,0.03641300276,-0.01269275323,5
24.91943696,-1.988764343,9.563312988,-0.5629792786,-0.02297993191,-0.02315054834,-0.020504307,5
24.93947796,-1.971101074,9.544152832,-0.370329895,-0.009928512387,0.04047577083,-0.02297993377,5
24.95951996,-1.864522705,9.608069916,-0.5068460083,0.01278765313,0.01393239852,-0.01274765655,5
24.97956096,-1.9681073,9.530531158,-0.4840933228,0.01810738258,0.002156583825,-0.005814459175,5
24.99960296,-2.058369598,9.522298279,-0.6105802917,0.0006255278131,0.02014123648,-0.009382079355,5
25.01964396,-2.013912048,9.571396179,-0.4891827393,0.008865348063,0.01033787429,-0.01111393329,5
25.03968596,-1.990560608,9.573192444,-0.4710704041,0.01924794912,-0.001828216016,-0.004971155431,5
25.05972696,-2.013912048,9.574389954,-0.5462141418,0.01139561832,-0.0168923866,-0.00619913917,5
25.07976896,-2.020348663,9.589358826,-0.5457650757,0.007384898141,-0.0001562563702,-0.00959979929,5
25.09980996,-1.99265625,9.532626801,-0.5616320801,0.0004560846137,-0.0194905065,-0.004429783672,5
25.11985196,-1.987566833,9.548044739,-0.5662724304,0.005733538419,-0.00863291882,0.003790959716,5
25.13989296,-1.989961853,9.561067657,-0.6200106812,0.006279753987,-0.0148763787,0.002460035728,5
25.15993496,-1.982776794,9.533225555,-0.5501060486,0.01289591286,-0.01708680764,0.0009272893658,5
25.17997596,-1.986219635,9.574389954,-0.583636322,0.01505373698,-0.02694046497,0.0001878498588,5
25.20001796,-1.983225861,9.551786957,-0.5634283447,0.01336176507,-0.02132108249,-0.00495277578,5
25.22005896,-1.939666443,9.538015594,-0.5782475281,0.009041983634,-0.008147424087,-0.002340968465,5
25.24010096,-1.96107193,9.552984467,-0.563278656,0.004197427072,-0.01589533128,-0.004828431644,5
25.26014196,-1.96107193,9.530830536,-0.5629792786,0.00957448408,0.001651346218,-0.0064524021,5
25.28018396,-1.946402435,9.560618591,-0.5998027039,0.005583138205,0.0230842866,-0.007518586703,5
25.30022496,-1.986369324,9.572294312,-0.5839356995,0.002000320237,0.01826772653,-0.007495126687,5
25.32026696,-1.975591736,9.566755829,-0.6030958557,-0.000103644561,0.01723365299,-0.006673784461,5
25.34030796,-1.916464691,9.529483337,-0.5881269836,0.001246510888,0.02099300176,-0.006072155666,1
25.36034996,-1.975891113,9.598340149,-0.5795947266,-0.004443068057,0.01217519119,-0.009217408486,1
25.38039096,-2.010618896,9.586664429,-0.5858816528,0.002196994377,0.01709312573,-0.008361816406,1
25.40043296,-2.018253021,9.517957306,-0.5704637146,0.004338240251,0.007787602954,-0.001278277719,1
25.42047396,-2.008074188,9.544601898,-0.540226593,0.003109726124,0.01166794077,-0.001839153934,1
25.44051596,-1.981728973,9.579329681,-0.5749543762,0.00561542809,0.009936945513,-0.0004514290486,1
25.46055621,-2.008822632,9.550589447,-0.6113287354,-0.002989576897,0.01508790627,-0.001335865119,1
25.48059821,-2.006427612,9.573940887,-0.5230123901,0.002968578134,0.01179228164,0.004182857461,1
25.50063921,-2.048939209,9.565109253,-0.5475613403,0.000757420552,0.0005136514083,0.005979152396,1
25.52068121,-2.050735474,9.545649719,-0.563278656,-0.004788145423,-0.004637850914,0.004231663886,1
25.54072221,-2.04878952,9.533375244,-0.6604266357,-0.004140994512,-0.006966143847,0.006203980185,1
25.56076421,-2.022294617,9.534423065,-0.6439608765,-0.009435758926,-0.001145445742,-0.005585058592,1
25.58080521,-2.006427612,9.529932404,-0.5408253479,-0.0007090477739,-0.01088607125,-0.006364108063,1
25.60084721,-2.014660492,9.51511322,-0.6357279968,0.01541046798,0.01018390805,-0.009840523824,1
25.62088821,-2.017504578,9.541907501,-0.6402186584,0.004172659945,-0.01963414252,-0.01049031224,1
25.64092921,-2.026336212,9.552984467,-0.493074646,0.01996866614,-0.008973298594,-0.01162041724,1
25.66097121,-1.982627106,9.5525354,-0.6129753113,0.02328150533,-0.005366965197,-0.007857006043,1
25.68101221,-2.031874695,9.602531433,-0.6116281128,0.01588464528,-0.02688898519,-0.003624415724,1
25.70105421,-2.082020416,9.578132172,-0.5489085388,0.004331185482,-0.01883389615,-0.00357650267,1
25.72109521,-2.038011932,9.56900116,-0.5598358154,0.006409981288,-0.02073828876,-0.004491541535,1
25.74113721,-1.960173798,9.530830536,-0.5908213806,0.004497631453,-0.04183833674,-0.002776080044,1
25.76117821,-1.942510529,9.547296295,-0.5921685791,0.01280376501,-0.0476943329,0.00109608483,1
25.78122021,-2.002236328,9.574988708,-0.5971083069,0.009222813882,-0.04554664344,0.002363823354,1
25.80126121,-2.001338196,9.55493042,-0.573457489,0.0132106971,-0.01851964369,0.001269917819,1
25.82130321,-1.941762085,9.523495789,-0.6086343384,0.01125074364,-0.02742856927,-0.003896251321,1
25.84134421,-1.97858551,9.566306763,-0.5322930908,0.01164775342,-0.03374238685,-0.001765095396,1
25.86138621,-1.974543915,9.563013611,-0.6173162842,0.01949209534,-0.02880453505,0.00238895393,1
25.88142721,-2.046095123,9.516909485,-0.5846841431,0.008015470579,-0.02104059607,-0.0002897270024,1
25.90146921,-2.013912048,9.608818359,-0.5298980713,0.01298139896,-0.01535261236,-0.005083585158,1
25.92151021,-1.953437805,9.56780365,-0.5448669434,0.002256982028,-0.04474713281,0.002443475649,1
25.94155221,-1.97155014,9.677076416,-0.5438191223,0.002484414959,-0.03009021282,0.003903029719,1
25.96159321,-2.086511078,9.73740097,-0.416434021,-0.0007880113553,-0.01828503981,0.009286728688,1
25.98163521,-1.890718231,9.760003967,-0.2814147949,-0.02316049486,-0.002855103463,0.006704072468,1
26.00167621,-1.755399628,10.06447083,-0.002395019531,-0.07064978033,-0.005187917966,0.03436347097,1
26.02171821,-1.523232422,10.27029282,0.2151026917,-0.1383080631,0.02216464654,0.05601881444,1
26.04175921,-1.225501556,10.52521271,0.229921875,-0.3011863232,-0.01115017571,0.08310324699,1
26.06180121,-1.407373352,10.8425528,0.3742218018,-0.4996527135,-0.07448848337,0.1876193881,1
26.08184221,-1.606159973,11.08444977,0.4713697815,-0.6317738295,-0.04876999184,0.2994107902,1
26.10188421,-1.297501831,10.86365891,1.152453461,-0.6028268933,0.2335877866,0.3358088136,1
26.12192521,-1.054407349,10.08842102,0.2248324585,-0.4730592966,0.9185574651,0.3606747389,1
26.14196721,-1.03434906,9.379794617,-1.530567169,-0.2215803862,1.785749793,0.4523085654,1
26.16200821,-0.4574487305,8.259524231,-2.68302063,0.09240877628,2.485073566,0.4459477365,1
26.18205021,0.3540138245,7.216193848,-2.656525726,0.1047583893,2.219130516,0.3181511462,1
26.20209121,0.03442840576,7.135361938,-1.084045715,-0.1887895316,1.387059212,0.2056708038,1
26.22213321,-1.408121796,7.913892975,-0.03577560425,-0.3752385378,1.884574413,0.1617190093,1
26.24217421,-3.003055115,8.533005524,-1.241218872,-0.5396654606,2.744354248,0.06320261955,1
26.26221621,-4.583618317,8.788075104,-1.506317596,-0.6505234838,2.936336756,-0.04631307349,1
26.28225721,-4.295766907,9.585167542,-0.7767347717,-0.4732178748,2.339958191,-0.001958681038,1
26.30229921,-3.72904541,9.7011763,-1.510658569,-0.4220609367,1.734314084,-0.008139132522,1
26.32234021,-3.179987183,8.907526703,-2.077230377,-0.5175546408,1.325493336,0.04106381536,1
26.34238221,-2.439926147,7.373666382,-1.31756012,-0.5053977966,1.147688985,0.0936928615,1
26.36242321,-1.780996399,7.086563416,-1.258882141,-0.3904702067,0.9877853394,0.1149447411,1
26.38246521,-1.986219635,10.43764481,0.03308120728,-0.5999362469,1.049640059,-0.02746522799,1
26.40250621,-1.88383255,14.82547028,1.127754822,-1.179751754,1.667647243,-0.2780382037,1
26.42254821,-1.184935913,13.57152786,1.336420898,-1.549824595,1.685549736,-0.08184898645,1
26.44258921,0.3257226562,9.992769928,2.210603027,-0.8119832277,1.103750587,0.1090444326,1
26.46263158,0.2619552612,8.665929108,2.452649689,-0.07797959447,1.554675817,0.2133266777,1
26.48267258,0.9583071899,10.16027161,-3.514691162,-0.3093518317,2.227842093,0.1941777021,1
26.50271458,1.247954865,10.2161055,-3.879482574,-0.9101241827,1.803076029,0.1208265051,1
26.52275558,-0.186512146,10.2226918,3.226989441,-0.7955251336,1.583451509,0.3494083583,1
26.54279658,-0.02948867798,9.989626465,4.71429657,-0.1636068225,2.493316889,0.4587396681,1
26.56283858,0.4650828552,9.79712677,0.8511300659,0.03988165408,3.178297043,0.3671424091,1
26.58287958,0.3579057312,9.452243958,-0.9228309631,-0.3150281012,2.809297323,0.1924009174,1
26.60292158,-0.01601669312,9.447603607,-0.1137634277,-0.3996600807,2.337750196,0.1349467933,1
26.62296258,0.04370910645,9.88604187,-0.4308041382,-0.3773320913,2.506298542,0.06369155645,1
26.64300458,-0.3709286499,9.855804749,-0.06391708374,-0.5270234346,2.829773903,-0.01862149686,1
26.66304558,-0.7180567932,9.902807007,1.025816803,-0.536655128,2.752090454,0.03900373727,1
26.68308758,-0.4971162415,10.0303418,1.068178711,-0.3694372177,2.537043333,0.08453921974,1
26.70312858,-0.3806584167,9.893825684,-0.1432521057,-0.3447332084,2.238544464,0.04974043369,1
26.72317058,-0.5469625854,9.642049255,-0.9675878906,-0.4010727704,1.871817827,0.003323161276,1
26.74321158,-0.7328759766,9.88843689,-0.6218069458,-0.4097177386,1.85927856,-0.04708806053,1
26.76325358,-1.038540344,9.983339539,-0.1652563477,-0.4377799332,2.052490711,-0.09761869907,1
26.78329458,-0.8571176147,9.921069031,0.1196012878,-0.3948235214,2.152676105,-0.1349816322,1
26.80333658,-0.6571334839,9.808353424,-0.06197113037,-0.4212546051,2.143828869,-0.2033221424,1
26.82337758,-0.5956114197,10.01133133,0.1685494995,-0.4740647078,1.875894427,-0.2678049505,1
26.84341958,-0.4079017639,9.903106384,0.1444496155,-0.3861362934,1.689185262,-0.3275539279,1
26.86346058,-0.04071533203,9.612859955,-0.6379733276,-0.3136232197,1.543584466,-0.2910869718,1
26.88350258,1.016087036,9.961634674,-1.324146423,-0.3661290109,1.642401338,-0.2885316908,1
26.90354358,1.634900208,10.71995773,-2.120041351,-0.4684464931,2.064759254,-0.3266689479,1
26.92358558,1.10455307,10.41025177,-1.563648376,-0.3960199654,2.332815647,-0.2716014385,1
26.94362658,0.5269042969,9.556277618,-0.9975256348,-0.2038129568,2.394155979,-0.2626127899,1
26.96366858,-0.2571652222,8.861422577,-1.164578247,-0.08439342678,2.181018591,-0.2904879451,1
26.98370958,-1.267115021,8.945098572,-1.355431366,-0.1485967785,1.954580307,-0.3009671271,1
27.00375158,-2.934647369,9.56780365,-1.063688049,-0.4488983452,1.903886914,-0.3527747095,1
27.02379258,-4.475093994,10.05444168,0.6143225098,-0.8432546258,1.779021025,-0.3953192532,1
27.04383458,-4.891228638,10.50395691,2.032922516,-1.120405555,1.242871642,-0.3178428113,1
27.06387558,-4.061204681,10.76725937,1.884131927,-1.561181307,0.1924497336,0.08719557524,1
27.08391758,-1.603615265,10.10803024,4.245471497,-1.747870445,0.2268433273,0.6116400361,1
27.10395858,1.540746002,10.15413437,5.445825348,-1.60396564,1.224525809,0.9115050435,1
27.12400058,2.606829071,10.55604858,4.243824921,-1.370283842,2.281284809,1.202084064,1
27.14404158,2.551743622,11.76583282,1.603315887,-1.315046549,3.015328169,1.435633302,1
27.16408358,1.924996948,12.44407242,-1.000669098,-1.214366913,2.849633694,1.287534833,1
27.18412458,1.013542328,11.38068375,-1.899699554,-1.100726008,2.667800903,1.087872028,1
27.20416658,0.1975891113,9.874964905,-1.554517365,-0.9446899891,2.238079786,1.103265882,1
27.22420758,-0.5589376831,9.17816391,-1.098864899,-0.6399093866,1.328313828,1.312797785,1
27.24424958,-0.8434959412,9.559271393,-0.1953437805,-0.4790222943,0.6043877006,1.507483721,1
27.26429058,-1.878443756,10.38016434,1.722917175,-0.411192596,1.625989795,1.421410441,1
27.28433258,-3.536545715,10.41189835,1.435963898,-0.3565817475,3.420938253,1.543655038,1
27.30437358,-2.812800751,10.25786865,-0.6915618896,-0.5835172534,4.373011112,1.711669207,1
27.32441558,-1.381327515,10.14964371,-2.400258636,-0.7426496744,4.091988087,1.634329081,1
27.34445658,-0.949176178,10.26939468,-2.262245636,-0.9351425767,3.276972055,1.515641928,1
27.36449858,-1.789828033,10.37582336,-0.0904119873,-1.011495709,2.904504776,1.388132572,1
27.38453958,-3.231929169,9.98902771,1.982028351,-0.917226851,3.12416029,1.412051678,1
27.40458158,-3.223097534,9.388476563,2.583926697,-0.793299377,3.364767075,1.444749594,1
27.42462258,-2.502496033,8.811725922,1.977837067,-0.7902457118,3.424068928,1.340489864,1
27.44466458,-2.304757233,8.440647583,1.966011658,-0.755278945,3.057576656,1.193401575,1
27.46470546,-2.618804169,7.816295929,2.602787476,-0.6288989782,2.514123201,0.9612283707,1
27.48474646,-2.491269379,7.560328217,3.196902008,-0.5105062127,2.194718122,0.6661762595,1
27.50478846,-2.161954193,7.381899261,3.59806778,-0.4154140651,1.917055488,0.4070381224,1
27.52482946,-1.570084991,7.390431519,4.180057526,-0.2545507848,1.669618726,0.2514510155,1
27.54487146,-0.4050576782,7.667655029,4.519252167,0.03335085139,1.465317845,0.2042153776,1
27.56491246,0.6179150391,7.625891876,4.411775665,0.3023160696,1.316855311,0.2527087033,1
27.58495446,1.355281677,6.748865662,4.105362854,0.5612592697,1.234909177,0.2558760047,1
27.60499546,1.425485687,6.656358032,4.371359711,0.785348475,0.9465462565,0.2676545382,1
27.62503746,1.400487671,7.922724609,4.856051788,1.035140753,0.5528460741,0.2919474244,1
27.64507846,1.247206421,9.044192505,3.843108215,1.016817451,0.2064231485,0.3594802618,1
27.66512046,0.4501139832,8.782087555,2.381846924,0.7960067391,0.09143201262,0.4970509112,1
27.68516146,0.02020797729,8.638536072,2.585573273,1.049973488,0.03213232383,0.4449837804,1
27.70520346,-1.70719986,13.96326324,2.401905212,1.167439461,-0.4085050821,-0.1764525771,1
27.72524446,-6.319558411,21.17317017,-1.224902802,-0.0715501979,-1.3024652,-0.5142243505,1
27.74528646,-1.552122345,14.43777649,4.140539703,-0.3822916448,-0.8846478462,0.2505443394,1
27.76532746,0.3104544067,4.151766357,1.908980255,0.9947577715,0.3003956079,0.07116215676,1
27.78536946,-1.890269165,1.733545074,-1.125808868,1.165292621,0.6790203452,-0.2084973902,1
27.80541046,-1.506467285,6.746620331,-3.939208374,1.247003317,0.6180073023,-0.4526248574,1
27.82545246,-1.739083557,10.38001465,-4.901706848,1.20529592,0.02729194053,-0.7663863301,1
27.84549346,-1.200204163,12.74943741,-2.341131592,0.5993122458,-1.003255367,-0.9361111522,1
27.86553546,-0.4969665527,12.19064941,6.831942902,0.5880519748,-1.250985503,-0.8891415,1
27.88557646,-0.8039781189,9.660910034,3.62261673,1.555113912,0.367783457,-0.6842826009,1
27.90561846,-0.9050180054,8.98506546,-3.83322876,1.102405071,0.9827613831,-0.6711112261,1
27.92565946,-1.137783966,8.909921722,-3.20723053,0.4747626781,0.635823667,-0.5651398897,1
27.94570146,-1.304088135,9.20974823,0.5879772949,0.6733862162,0.1235125735,-0.4070424139,1
27.96574246,-0.8545729065,9.320517883,0.7206015015,1.037993431,-0.3355118632,-0.3011144698,1
27.98578446,-0.4614903259,9.378297729,0.1442999268,1.083144426,-0.3830038011,-0.2795141339,1
28.00582546,-0.4504133606,9.751172333,-0.4884342957,0.9310988784,-0.2028161883,-0.2836331427,1
28.02586746,-0.6218069458,9.802066498,-1.004860382,0.6405364275,-0.1330671757,-0.3047274947,1
28.04590846,-0.9678872681,9.545500031,-0.1544787598,0.6322060823,-0.2359117121,-0.2414323539,1
28.06595046,-1.165626068,9.281449127,-0.1576222229,0.6866857409,-0.3505753577,-0.2357608527,1
28.08599146,-1.426982574,9.235195312,-0.3641926575,0.6162332296,-0.4294282496,-0.289034009,1
28.10603346,-1.234931946,9.224118347,-0.2647993469,0.5603508949,-0.3406446278,-0.4022647142,1
28.12607446,-0.9217831421,9.435927887,-0.5542973328,0.5758505464,-0.3000794351,-0.437731266,1
28.14611646,-0.9421408081,9.718091125,-0.1770817566,0.550534308,-0.370585829,-0.4606208503,1
28.16615746,-1.085243225,10.03573059,1.027164001,0.6540043354,-0.3993622065,-0.4549175799,1
28.18619946,-1.021625519,10.40830582,1.416654053,0.6964440346,-0.495768249,-0.4338534474,1
28.20624046,-0.835562439,10.56053925,0.4575984192,0.4933722913,-0.4859640598,-0.3990933001,1
28.22628246,-0.3815565491,10.93341385,-0.3695814514,0.1600068659,-0.3664348423,-0.3600707948,1
28.24632346,0.4117936707,11.52827682,0.3646417236,0.08924101293,-0.5369077325,-0.322787106,1
28.26636546,0.9741741943,11.00271973,-0.360151062,-0.06894149631,-0.5787141919,-0.2057847083,1
28.28640646,1.064286804,10.5876329,-0.3543132019,-0.3165599406,-0.2328539491,-0.04144392535,1
28.30644846,1.157991943,11.15016312,-0.04520599365,-0.6212753654,0.1412046552,0.1786930859,1
28.32648946,1.219514008,11.99470688,-1.378633118,-1.150431871,0.378203541,0.6129378676,1
28.34653146,-1.756746826,12.49900818,-1.345402222,-1.457691789,0.4117714167,1.212465167,1
28.36657246,-2.924917603,13.04522232,-0.4020639038,-1.887223363,-0.4234113991,1.442927599,1
28.38661446,-3.260819092,11.40089172,0.3796105957,-2.645471096,-0.9716867208,1.128170013,1
28.40665546,-3.708837433,10.10234207,1.720372467,-2.46564579,-0.8282570243,0.5832876563,1
28.42669746,-7.307953033,9.401200104,1.204844513,-1.679692745,-0.9107542038,0.4709056616,1
28.44673846,-5.500461731,9.974358215,-0.9575587463,-1.430182695,-1.518823504,0.7678304911,1
28.46678058,-1.844913483,9.638756104,-0.4114942932,-1.707392454,-1.707827926,0.6413035989,1
28.48682158,-1.838327179,9.714947662,0.7355703735,-1.667328835,-1.239688039,0.7699557543,1
28.50686358,-1.879641266,11.11259125,1.428479462,-1.298055649,-1.097561479,1.006470084,1
28.52690458,-1.607357483,11.81433197,2.473905487,-0.9986101985,-0.7230404615,1.193858385,1
28.54694658,-1.425485687,10.29094986,2.208208008,-1.011252522,0.2701644003,1.285905123,1
28.56698758,-1.094374237,8.966204681,0.9198371887,-1.207698941,1.41135478,1.212123156,1
28.58702858,-1.105002136,8.364306335,0.3350033569,-1.250113368,1.445479393,1.083523035,1
28.60707058,-1.019978943,8.218958588,1.025816803,-1.137098193,1.454333901,0.9876913428,1
28.62711158,-0.9184899902,7.864944763,2.19623291,-0.8818073869,1.527774334,0.8164957166,1
28.64715358,-1.437610474,6.847510529,2.719694366,-0.5825617313,1.616370797,0.5857573748,1
28.66719458,-1.874701538,6.16403183,3.128045197,-0.2202386707,1.511603117,0.4236728251,1
28.68723658,-1.591041412,5.787415009,3.414399719,0.2271506041,1.219118595,0.2584098279,1
28.70727758,-1.331930237,5.654042358,3.270099792,0.6020279527,0.8567141891,0.100039579,1
28.72731958,-1.00980011,5.929020538,2.945574646,0.8155590296,0.794403255,-0.07021179795,1
28.74736058,-0.7464976501,6.019282837,3.311862946,0.9306129217,0.7829115391,-0.2880943716,1
28.76740258,-0.48559021,5.975124664,4.29307251,1.169912338,0.905118525,-0.4871061146,1
28.78744358,-0.1202000427,6.677314453,4.156556396,1.401176572,0.8636814952,-0.6473827362,1
28.80748558,-0.239052887,8.754694519,5.322332153,1.445546031,0.9314886332,-0.5877613425,1
28.82752658,0.6188131714,12.16984268,5.983207855,1.13261342,1.135212064,-0.3747591674,1
28.84756858,1.203796692,14.22940979,4.577481079,0.5737532377,0.4783684909,0.1182181537,1
28.86760958,2.683619385,12.42281662,5.637726288,0.1012675241,0.3151522279,0.6409888864,1
28.88765158,3.696113892,9.43083847,4.220174103,0.06324570626,0.2037238032,0.7464276552,1
28.90769258,2.923869781,7.457492065,3.565884705,-0.07784131169,-0.09252703935,0.7027620673,1
28.92773458,0.6623725891,6.509513397,3.262765045,0.2900336385,-0.2775220275,0.4827330709,1
28.94777558,-2.730471954,7.931107178,1.995350647,1.085011005,-0.4300702214,0.04076614603,1
28.96781758,-5.218747559,11.37768997,1.062939606,1.513644814,-0.197113663,-0.3298258483,1
28.98785858,-8.390501862,18.3871637,0.9463320923,0.5822123885,-0.2976554036,-0.3335674405,1
29.00790058,-4.308340759,19.18979462,1.079255676,-0.7314219475,-0.4815780818,-0.01489333902,1
29.02794158,-0.7890092468,8.541388092,-2.844684448,0.6249432564,-0.2341312468,0.03350264207,1
29.04798358,-1.46964386,2.696791992,-5.752836914,0.7187470198,-0.3644098938,-0.09379000217,1
29.06802458,-1.650168457,3.474724274,-0.9116043091,0.3247476816,-1.248153687,-0.3092233539,1
29.08806658,-1.527573395,9.109756165,-1.113235016,0.9399049282,-1.202917457,-0.3075267971,1
29.10810758,-1.776954803,11.81672699,-2.770588531,1.257425308,-0.7503685951,-0.1450518966,1
29.12814958,0.5902226257,12.46383133,-1.905537415,0.8191750646,-1.180792332,-0.2112646401,1
29.14819058,0.8568182373,11.1158844,3.259920959,0.7121554613,-1.349398851,-0.3612262905,1
29.16823258,-1.001267853,9.480684814,1.315913544,1.00396359,-0.4523482323,-0.2929592729,1
29.18827358,-0.9731263733,8.411308594,-1.350341949,0.6952964067,-0.2725994885,-0.340075165,1
29.20831558,-0.6327342224,8.295000458,0.3947291565,0.6966066957,-0.7482215166,-0.3791551888,1
29.22835658,-0.1333726501,9.565708008,0.8693920898,1.129989982,-0.9797045588,-0.3779498339,1
29.24839858,0.08951385498,10.40635986,-0.9794132996,1.143121123,-0.9256201386,-0.4412107468,1
29.26843958,-0.1335223389,10.10608429,-0.5043013,0.9499364495,-0.8164468408,-0.4858866632,1
29.28848158,-0.254021759,9.500743103,0.172591095,0.9091588259,-0.567376554,-0.4956114292,1
29.30852258,-0.7447013855,9.09972702,-0.279768219,0.7953645587,-0.3456485271,-0.5670160055,1
29.32856458,-1.372346191,9.034313049,-0.4414320374,0.773239553,-0.3490570188,-0.6462751627,1
29.34860558,-1.342857513,9.163644104,-0.3704795837,0.8428961635,-0.3118699491,-0.6804587841,1
29.36864758,-1.211879883,9.225315857,-0.7791297913,0.8118299246,-0.4944017828,-0.7305313945,1
29.38868858,-1.206191711,9.32905014,0.01796264648,0.7816979885,-0.6885672212,-0.7586655021,1
29.40873058,-0.9889933777,9.92346405,0.5688171387,0.7955005169,-0.8781812191,-0.7224959135,1
29.42877158,-0.6836283875,10.64780777,1.068777466,0.742552042,-0.9573612809,-0.593164742,1
29.44881358,0.4963677979,10.62475571,1.018182678,0.6583551764,-0.9567301273,-0.4726912379,1
29.46885425,2.092947693,10.39064255,-0.8508306885,0.374974221,-0.6889007092,-0.3540438414,1
29.48889625,2.820584564,10.80318466,-0.2755769348,0.2140025198,-0.3408237696,-0.2295751721,1
29.50893725,1.905836792,11.41211838,0.1655557251,0.1096327156,-0.2749578655,-0.09680503607,1
29.52897925,0.9360035706,11.25988495,-0.2522254944,-0.09291014075,0.01460028067,0.05841055512,1
29.54902025,0.03308120728,11.41496246,-0.4537065125,-0.3422663808,0.2239578217,0.1522365212,1
29.56906225,-0.9008267212,12.64375717,-0.3363505554,-0.6318385601,0.4019555748,0.2346104234,1
29.58910325,-0.9586065674,12.56097931,-1.911075897,-1.234772086,0.677431047,0.3925684392,1
29.60914525,-0.8246351624,11.34954849,-1.652264099,-1.726959825,0.7945618033,0.7692953944,1
29.62918625,-1.706750793,8.982969818,-1.561702423,-2.370408297,-0.134678185,1.020973086,1
29.64922825,-3.295696564,7.916737061,1.40647522,-2.891993761,-1.299379468,0.9705477953,1
29.66926925,-4.430786133,9.914632416,3.480711823,-2.116011858,-1.036457658,0.7259388566,1
29.68931125,-5.15423172,13.07501038,-0.03592529297,-1.644214869,-0.5256920457,0.5542844534,1
29.70935225,-3.315605164,13.82195709,-1.431922302,-2.025568724,-0.5999163389,0.6047877073,1
29.72939425,-1.424138489,12.14888626,-0.2493814087,-2.181807518,-0.675827384,0.4999669492,1
29.74943525,-1.475631409,10.87817871,0.7940986633,-1.872035384,-0.4569956362,0.6781229377,1
29.76947725,-1.144220581,10.583741,1.614093475,-1.382879972,-0.8302813172,0.9046581388,1
29.78951825,-1.546434174,9.739047546,1.259780273,-1.281599522,-0.7367966175,0.9970409274,1
29.80955925,-2.835254059,8.615783386,1.565444641,-1.589357495,0.3627689779,0.8642596006,1
29.82960125,-4.059857483,8.178243256,2.087259521,-1.69425106,1.43971324,0.7677538395,1
29.84964325,-3.490591278,8.108039246,1.66274231,-1.518932819,1.693104386,0.7661457062,1
29.86968425,-2.170187073,8.133636017,1.102607117,-1.371410966,1.390396476,0.7878541946,1
29.88972625,-0.7610174561,8.117469635,1.585353241,-1.138183355,1.392730594,0.8332919478,1
29.90976725,0.1676513672,7.835306396,2.532134399,-0.770573616,1.646562099,0.6483717561,1
29.92980925,-0.4439767456,6.735992432,2.891387329,-0.3229566813,1.624554276,0.4046253264,1
29.94985025,-1.166823578,5.261708221,2.901566162,0.1479683816,1.248243093,0.1921544969,1
29.96989125,-1.408870239,4.050277405,3.445085907,0.6035248637,0.9396796823,-0.04907017201,1
29.98993325,-1.337319031,4.309089203,3.658392334,1.031894088,0.7237443328,-0.2879282534,1
30.00997425,-1.237776031,5.117707672,4.246369629,1.328707695,0.5669856071,-0.5086482763,1
30.03001625,-0.8869056702,6.15819397,4.707859955,1.541822314,0.6377295852,-0.6809918284,1
30.05005725,-0.6086343384,7.512876892,3.834875336,1.686490536,0.5184912086,-0.8356665969,1
30.07009925,-1.81482605,9.030271454,4.447102203,1.607529402,0.5437844992,-0.8128149509,1
30.09014025,-1.034498749,11.56944122,6.596033478,1.022708416,1.268817186,-0.4799360931,1
30.11018225,1.006656647,14.38837921,5.74984314,0.3051989377,1.041043997,-0.05067586154,1
30.13022325,3.16861084,13.58799362,5.782924347,-0.3400111496,0.129275322,0.5632299185,1
30.15026525,3.310815125,9.618398438,5.521118774,-0.4238024354,-0.3869497776,0.8354437947,1
30.17030625,1.407223663,8.116272125,4.296066284,-0.05771946907,-0.3919181228,0.8078834414,1
30.19034825,-2.481090546,9.111702118,3.267106018,0.70672822,-0.4147773385,0.516335845,1
30.21038925,-5.922134857,14.24198364,2.386786652,1.557561874,-0.08189252019,0.2186557353,1
30.23043125,-6.791377258,20.19106247,-1.425036621,0.7859128118,-0.4392540455,0.2214315087,1
30.25047225,-1.718276825,10.05983047,-2.497256927,0.7873410583,-0.6860134006,0.7326178551,1
30.27051425,0.004790039062,3.847449188,-1.845961304,1.428036928,-0.4270603657,0.5723549724,1
30.29055525,-0.6821315002,0.9792636108,-0.6965016174,-0.265758425,-1.502794623,-0.4006839693,1
30.31059725,-3.324287109,5.749244385,2.102078705,0.2803063095,-0.3065851331,-1.037996769,1
30.33063825,-2.622097321,10.92188782,-2.380649414,1.261537671,0.5095038414,-0.9673271179,1
30.35068025,-0.3484753418,12.99328033,-4.785249023,1.066261888,1.184649825,-0.8722112775,1
30.37072125,1.300944672,12.54166946,-1.195264435,0.6992604136,0.7070437074,-0.4540746808,1
30.39076325,0.5372328186,9.860594788,2.631078644,0.8388944864,-0.8793489337,-0.01754151471,1
30.41080425,-1.915716248,9.350455627,2.127525787,1.135248661,-0.9197171926,0.1377938688,1
30.43084625,-2.207010498,8.915160828,-0.5336402893,0.8200265765,-0.5983631611,0.1115638539,1
30.45088758,-0.9996212769,8.50770813,-0.7604187012,0.5563503504,-0.7191117406,-0.08698568493,1
30.47092958,-0.6756948853,9.026978302,-0.4996609497,0.7240871191,-0.3824236393,-0.3702713847,1
30.49097058,-0.4233197021,10.0647702,-1.224753113,0.7928016782,-0.04276153445,-0.4598523974,1
30.51101258,-0.1776805115,10.49138306,-0.959355011,0.7778286338,-0.1069743931,-0.3872139156,1
30.53105358,-0.513432312,10.1285376,-0.204175415,0.7906455994,-0.1838088036,-0.2884455621,1
30.55109558,-1.390907593,9.313632202,-0.2549198914,0.8205792308,-0.3457159698,-0.2354261279,1
30.57113658,-1.541195068,8.998986511,-0.7367678833,0.7199191451,-0.3245429397,-0.294821769,1
30.59117858,-1.598525848,9.470805359,-0.3517684937,0.6105821133,-0.3007382751,-0.405754298,1
30.61121958,-1.147214355,9.658964081,0.1734892273,0.6855930686,-0.2953618765,-0.5125423074,1
30.63126158,-0.6360273743,9.559271393,-0.09684860229,0.7033179402,-0.3320662677,-0.5742448568,1
30.65130258,-0.4963677979,9.55837326,0.3963757324,0.7336086631,-0.3573907912,-0.5830468535,1
30.67134458,-0.5502557373,9.996661835,1.498683472,0.8508331776,-0.3498756588,-0.5566723347,1
30.69138558,-0.2806663513,10.42956161,0.6899153137,0.7597456574,-0.3302536011,-0.5139542222,1
30.71142758,0.3632945251,10.55275543,-0.2959346008,0.4583601952,-0.2815366089,-0.4201521277,1
30.73146858,1.259480896,10.74076447,0.1466949463,0.2338922173,-0.2582864761,-0.2915378511,1
30.75151058,1.650168457,10.79300583,0.1020877075,0.08598337322,-0.2463551611,-0.1545434296,1
30.77155158,1.464255066,10.78342575,0.09639953613,-0.04949296266,-0.1591429263,-0.04303709418,1
30.79159358,0.9148974609,11.04268661,-0.07274871826,-0.2124264836,-0.007875595242,0.05472899973,1
30.81163458,0.1465452576,11.65087189,0.06930587769,-0.4562711716,0.1122956425,0.1825179905,1
30.83167658,-0.07514373779,11.76209061,-0.1231938171,-0.9236886501,0.2323800325,0.396140933,1
