time,seconds_elapsed,z,y,x
1781039427534428200,-1.75657177734375,-0.10055647045373917,0.06464344263076782,0.12210428714752197
1781039427544468500,-1.746531494140625,-0.12689268589019775,0.15562310814857483,0.038307227194309235
1781039427554570000,-1.736429931640625,-0.17717093229293823,0.24660277366638184,-0.0694318488240242
1781039427564640800,-1.726359130859375,-10.663774490356445,-1.1851298809051514,-0.545877993106842
1781039427604954400,-1.686045654296875,-0.07900865375995636,-0.31842881441116333,0.09576806426048279
1781039427625126400,-1.66587353515625,0.17717093229293823,-0.06703764945268631,-0.6272808313369751
1781039427635197200,-1.655802734375,0.40701428055763245,0.009576806798577309,-0.2298433631658554
1781039427655369500,-1.635630615234375,0.38546648621559143,0.12449848651885986,-0.15322890877723694
1781039427665440300,-1.625559814453125,0.3878606855869293,0.181959331035614,-0.2298433631658554
1781039427675541500,-1.61545849609375,0.31603461503982544,0.21787235140800476,-0.17477671802043915
1781039427685642800,-1.605357177734375,0.26815059781074524,0.090979665517807,-0.17238251864910126
1781039427695744300,-1.595255859375,0.22026655077934265,0.035913024097681046,0.033518824726343155
1781039427705815000,-1.58518505859375,0.15083470940589905,-0.1149216815829277,0.15322890877723694
1781039427725956600,-1.56504345703125,0.12928688526153564,-0.0694318488240242,0.16998831927776337
1781039427735997000,-1.555003173828125,0.12689268589019775,-0.08140286058187485,0.16759411990642548
1781039427746067700,-1.544932373046875,0.05506663769483566,-0.08379705995321274,0.1412578970193863
1781039427756169000,-1.5348310546875,-0.026336219161748886,0,0.15562310814857483
1781039427786381300,-1.50461865234375,-0.20111294090747833,0.08140286058187485,0.0694318488240242
1781039427806553600,-1.4844462890625,-0.08379705995321274,0.19871874153614044,-0.14365209639072418
1781039427816593700,-1.47440625,0.10534487664699554,0.10534487664699554,-0.2059013396501541
1781039427826634000,-1.464365966796875,0.2753331959247589,-0.19632454216480255,-0.24899697303771973
1781039427836735500,-1.454264404296875,0.3758896589279175,-0.3519476354122162,-0.181959331035614
1781039427867008800,-1.4239912109375,0.26336219906806946,-0.12210428714752197,-0.10773907601833344
1781039427877049000,-1.413950927734375,0.06464344263076782,0.05027823522686958,-0.23942017555236816
1781039427887089400,-1.40391064453125,-0.0071826050989329815,0.1364694982767105,-0.16519992053508759
1781039427897160200,-1.39383984375,-0.05985504388809204,0.10773907601833344,-0.002394201699644327
1781039427907231000,-1.38376904296875,-0.08379705995321274,0.09576806426048279,0.05027823522686958
1781039427917332200,-1.373667724609375,-0.047884032130241394,0.021547814831137657,0.10055647045373917
1781039427927403000,-1.363596923828125,-0.035913024097681046,-0.17477671802043915,0.12210428714752197
1781039427937443300,-1.353556640625,0,-0.2082955539226532,0.06703764945268631
1781039427947544800,-1.343455078125,0.035913024097681046,-0.1867477297782898,0.009576806798577309
1781039427957585000,-1.3334150390625,0.08140286058187485,-0.06703764945268631,-0.05746084079146385
1781039427967655700,-1.32334423828125,0.09816227108240128,0.11971008777618408,0.0454898327589035
1781039427977726700,-1.313273193359375,0.090979665517807,0.026336219161748886,0.05985504388809204
1781039427987797500,-1.303202392578125,0.0694318488240242,-0.035913024097681046,0.05027823522686958
1781039427997898800,-1.293101318359375,0.10295066982507706,-0.0454898327589035,0.10534487664699554
1781039428008000000,-1.283,0.021547814831137657,-0.08379705995321274,0.1364694982767105
1781039428018101200,-1.272898681640625,-0.047884032130241394,0.019153613597154617,0.1412578970193863
1781039428028172000,-1.262827880859375,-0.10773907601833344,0.002394201699644327,0.1173158809542656
1781039428038273500,-1.2527265625,-0.0071826050989329815,0.15083470940589905,0.028730420395731926
1781039428048344300,-1.24265576171875,0.004788403399288654,0.1604115068912506,0.10055647045373917
1781039428078617600,-1.21238232421875,0.2753331959247589,-0.05746084079146385,0.14604631066322327
1781039428088658000,-1.202342041015625,0.33518823981285095,-0.10295066982507706,0.181959331035614
1781039428098728700,-1.192271240234375,0.3208230137825012,-0.07182604819536209,0.10295066982507706
1781039428108799500,-1.182200439453125,0.2825157940387726,0.033518824726343155,0.0933738648891449
1781039428118870300,-1.172129638671875,0.16998831927776337,-0.002394201699644327,0.06464344263076782
1781039428128971800,-1.1620283203125,0.24181437492370605,0.07661445438861847,0.07422025501728058
1781039428139042600,-1.15195751953125,0.1843535304069519,0.10295066982507706,0.040701430290937424
1781039428259831000,-1.0311689453125,0.24899697303771973,0.043095629662275314,0.16519992053508759
1781039428269901800,-1.02109814453125,0.24181437492370605,-0.011971008032560349,0.10773907601833344
1781039428278942200,-1.012057861328125,0.16998831927776337,0.019153613597154617,0.13407529890537262
1781039428288952000,-1.0020478515625,0.11013327538967133,0.16519992053508759,0.0694318488240242
1781039428299053300,-0.99194677734375,0.11013327538967133,0.16519992053508759,0.0694318488240242
1781039428314098400,-0.976901611328125,0.1867477297782898,0.20111294090747833,0.009576806798577309
1781039428334240000,-0.956760009765625,0.19153612852096558,-0.023942016065120697,0.011971008032560349
1781039428344310800,-0.946689208984375,0.10295066982507706,0.0071826050989329815,0.10773907601833344
1781039428354381600,-0.936618408203125,0.019153613597154617,0.1364694982767105,0.1173158809542656
1781039428364483000,-0.926516845703125,-0.021547814831137657,0.12928688526153564,0.14844051003456116
1781039428394695400,-0.8963046875,0.12449848651885986,-0.026336219161748886,0.10534487664699554
1781039428414867500,-0.876132568359375,0.19632454216480255,-0.08619125932455063,0.011971008032560349
1781039428424938200,-0.866061767578125,0.10055647045373917,-0.14365209639072418,0.10055647045373917
1781039428434978600,-0.856021484375,0.11013327538967133,-0.023942016065120697,0.1628057211637497
1781039428445049300,-0.84595068359375,0.0454898327589035,-0.05027823522686958,0.14365209639072418
1781039428455089700,-0.835910400390625,0.0071826050989329815,-0.028730420395731926,0.15083470940589905
1781039428465160400,-0.825839599609375,-0.023942016065120697,0.026336219161748886,0.09576806426048279
1781039428475231200,-0.815768798828125,0,0.12928688526153564,0.09576806426048279
1781039428515545000,-0.775454833984375,0.13168109953403473,0.10295066982507706,-0.1388636976480484
1781039428535717000,-0.755282958984375,0.07182604819536209,0.06703764945268631,-0.1173158809542656
1781039428545788000,-0.745212158203125,0.035913024097681046,0.18914192914962769,-0.08140286058187485
1781039428555858700,-0.735141357421875,-0.047884032130241394,0.23702596127986908,-0.15322890877723694
1781039428565960000,-0.7250400390625,-0.05027823522686958,0.16998831927776337,-0.18914192914962769
1781039428576030700,-0.71496923828125,-0.05506663769483566,0.17238251864910126,-0.21547815203666687
1781039428586101500,-0.7048984375,-0.090979665517807,0.14604631066322327,-0.16998831927776337
1781039428596111400,-0.694888671875,-0.08379705995321274,0.0454898327589035,-0.14604631066322327
1781039428606212600,-0.684787353515625,-0.08858546614646912,0.043095629662275314,-0.15801730751991272
1781039428626385000,-0.664614990234375,-0.12210428714752197,0.019153613597154617,-0.08140286058187485
1781039428636394500,-0.65460546875,-0.10773907601833344,0.019153613597154617,0.0071826050989329815
1781039428646496000,-0.64450390625,-0.047884032130241394,0.14365209639072418,-0.05267243832349777
1781039428656566800,-0.63443310546875,-0.016759412363171577,-0.004788403399288654,-0.0694318488240242
1781039428666637600,-0.624362548828125,0.0071826050989329815,-0.043095629662275314,-0.009576806798577309
1781039428676708400,-0.614291748046875,-0.07422025501728058,-0.08140286058187485,-0.0694318488240242
1781039428686809600,-0.6041904296875,-0.090979665517807,0.014365210197865963,-0.004788403399288654
1781039428696880400,-0.59411962890625,-0.10295066982507706,0.1149216815829277,-0.031124621629714966
1781039428706951200,-0.584048828125,-0.1867477297782898,0.15562310814857483,-0.028730420395731926
1781039428737194200,-0.5538056640625,0.15801730751991272,0.014365210197865963,-0.07422025501728058
1781039428747234300,-0.543765625,0.1604115068912506,0.016759412363171577,-0.038307227194309235
1781039428757335800,-0.533664306640625,0.07661445438861847,-0.05267243832349777,-0.035913024097681046
1781039428767437000,-0.52356298828125,0.09816227108240128,0.05506663769483566,-0.07182604819536209
1781039428777507800,-0.5134921875,0.0694318488240242,0.1867477297782898,-0.06224924325942993
1781039428797679900,-0.493320068359375,-0.026336219161748886,0.17477671802043915,-0.2082955539226532
1781039428807781400,-0.483218505859375,-0.09816227108240128,0.033518824726343155,-0.33279404044151306
1781039428848034000,-0.442966064453125,-0.5386953949928284,-0.06464344263076782,-0.5291185975074768
1781039428858135300,-0.43286474609375,-0.8667010068893433,-0.0071826050989329815,-0.8451532125473022
1781039428868206000,-0.4227939453125,-1.1492167711257935,0.05985504388809204,-1.2330138683319092
1781039428878276900,-0.41272314453125,-1.3982137441635132,0.05746084079146385,-1.5969325304031372
1781039428888347600,-0.40265234375,-1.7405846118927002,-0.0694318488240242,-1.6519991159439087
1781039428898418400,-0.39258154296875,-2.2218191623687744,-0.1173158809542656,-1.7477672100067139
1781039428908520000,-0.38247998046875,-2.5234885215759277,-0.040701430290937424,-1.6304513216018677
1781039428918621200,-0.37237890625,-2.937685489654541,0.1604115068912506,-1.7573440074920654
1781039428928722400,-0.362277587890625,-3.2609026432037354,0.043095629662275314,-1.9033904075622559
1781039428938762800,-0.3522373046875,-3.624821424484253,-0.12928688526153564,-2.0039467811584473
1781039428948864000,-0.342135986328125,-3.8379054069519043,-0.2106897532939911,-2.1523873805999756
1781039428958965200,-0.33203466796875,-4.041412353515625,-0.3208230137825012,-1.8818424940109253
1781039428979137500,-0.311862548828125,-4.271255970001221,-0.272938996553421,-1.6735470294952393
1781039428989208300,-0.301791748046875,-4.606443881988525,-0.3016694188117981,-1.5873557329177856
1781039428999309600,-0.2916904296875,-5.039794445037842,-0.31603461503982544,-1.7812861204147339
1781039429009350000,-0.281650146484375,-5.370194435119629,-0.17717093229293823,-1.9105730056762695
1781039429019451100,-0.271548828125,-5.592854976654053,0.05027823522686958,-1.8602946996688843
1781039429029522000,-0.26147802734375,-5.856217384338379,0.24181437492370605,-1.4915876388549805
1781039429039592700,-0.2514072265625,-5.913678169250488,0.44771572947502136,-1.1827356815338135
1781039429049633000,-0.241366943359375,-5.987898349761963,0.5937620401382446,-0.9744400978088379
1781039429059673300,-0.23132666015625,-5.928043365478516,0.5817909836769104,-0.8858546018600464
1781039429069744000,-0.221255859375,-6.277596950531006,0.35913026332855225,-0.993593692779541
1781039429079815000,-0.21118505859375,-6.72531270980835,0.2825157940387726,-1.213860273361206
1781039429089855200,-0.201144775390625,-6.981492042541504,0.45489832758903503,-1.599326729774475
1781039429099956500,-0.19104345703125,-6.995857238769531,0.7158663272857666,-2.2888567447662354
1781039429110058000,-0.18094189453125,-7.237671852111816,0.8212111592292786,-2.8610711097717285
1781039429120128800,-0.170871337890625,-7.132327079772949,0.6799532771110535,-3.7445313930511475
1781039429130169000,-0.160830810546875,-7.134721279144287,0.011971008032560349,-4.6734819412231445
1781039429160412000,-0.130588134765625,-6.696582317352295,-1.9560627937316895,-7.240066051483154
1781039429170482700,-0.120517333984375,-6.550535678863525,-2.3319525718688965,-7.766790390014648
1781039429180584000,-0.110416015625,-6.054935932159424,-2.1116859912872314,-7.927201747894287
1781039429190654700,-0.10034521484375,-5.640739440917969,-1.6855180263519287,-8.018181800842285
1781039429200725500,-0.0902744140625,-4.757278919219971,-1.6160861253738403,-8.339004516601562
1781039429210796500,-0.080203369140625,-1.256955862045288,-3.4524388313293457,-9.694122314453125
1781039429281322500,-0.009677490234375,4.824316501617432,-7.845798969268799,-1.1540051698684692
1781039429301494800,0.010494873046875,3.998316764831543,-4.821922302246094,-2.75812029838562
1781039429311565600,0.020565673828125,4.0964789390563965,-2.647987127304077,-2.9041666984558105
1781039429321666800,0.030666748046875,3.7014358043670654,-0.19632454216480255,-2.7676970958709717
1781039429341778000,0.05077783203125,2.4420857429504395,2.9903578758239746,-2.1475989818573
1781039429351818200,0.060818359375,1.7334020137786865,3.339911460876465,-1.5921441316604614
1781039429361919500,0.07091943359375,0.871489405632019,2.3295583724975586,-1.403002142906189
1781039429371990300,0.080990234375,0.4644751250743866,1.0797849893569946,-1.173158884048462
1781039429382061000,0.09106103515625,0.507570743560791,0.18914192914962769,-0.7805097699165344
1781039429392101400,0.101101318359375,0.3878606855869293,-0.6488286852836609,-0.3902548849582672
1781039429402172200,0.111172119140625,0.5410895943641663,-1.4939818382263184,0.07182604819536209
1781039429412212500,0.12121240234375,0.7469909191131592,-2.1140801906585693,0.33518823981285095
1781039429422313700,0.131313720703125,0.9265560507774353,-2.6647465229034424,0.6727706789970398
1781039429442516500,0.1515166015625,0.6057330369949341,-3.3423056602478027,0.8762778043746948
1781039429452617700,0.16161767578125,0.4141969084739685,-3.6391866207122803,0.7086837291717529
1781039429462658000,0.171657958984375,0.28730419278144836,-3.7852327823638916,0.49559974670410156
1781039429472759300,0.18175927734375,0.1364694982767105,-3.864241600036621,0.38067805767059326
1781039429503002000,0.212002197265625,0.035913024097681046,-3.754108190536499,0.9864110946655273
1781039429553356300,0.262356201171875,0.7110779285430908,-3.6176388263702393,2.1332337856292725
1781039429573497900,0.282497802734375,0.7757213711738586,-3.4141316413879395,2.2601263523101807
1781039429583568600,0.292568603515625,0.8236053586006165,-3.268085241317749,2.3056161403656006
1781039429623851800,0.332851806640625,0.507570743560791,-2.3989901542663574,2.252943754196167
1781039429684307200,0.39330712890625,0.0071826050989329815,-1.1180921792984009,0.14844051003456116
1781039429694378000,0.4033779296875,-0.11013327538967133,-0.8523358106613159,-0.7805097699165344
1781039429704479200,0.413479248046875,-0.20111294090747833,-0.7996633648872375,-1.5897499322891235
1781039429714519600,0.42351953125,-0.6177040338516235,-0.7733271718025208,-2.1308395862579346
1781039429724560000,0.433559814453125,-1.3000515699386597,-0.8212111592292786,-2.6360161304473877
1781039429734630700,0.443630615234375,-2.078166961669922,-0.7613561153411865,-3.098097085952759
1781039429744701400,0.453701416015625,-2.779668092727661,-0.8188169598579407,-3.579331636428833
1781039429754772200,0.463772216796875,-3.093308687210083,-0.9169792532920837,-3.8498764038085938
1781039429764843000,0.473843017578125,-3.2082302570343018,-1.1085153818130493,-3.7229835987091064
1781039429774944300,0.4839443359375,-3.028665065765381,-1.2425906658172607,-3.19865345954895
1781039429785015300,0.494015380859375,-2.7102363109588623,-1.3694833517074585,-2.3487119674682617
1781039429795086000,0.504086181640625,-2.363077163696289,-1.3096283674240112,-1.721431016921997
1781039429805187300,0.514187255859375,-1.9991583824157715,-1.1228805780410767,-1.2713210582733154
1781039429895916000,0.604916015625,-2.8371291160583496,1.2976573705673218,-3.4141316413879395
1781039429986766800,0.695766845703125,-2.9257144927978516,3.3710360527038574,-2.9281086921691895
1781039430037243000,0.746242919921875,-2.3511061668395996,3.864241600036621,-3.361459255218506
1781039430067516400,0.776516357421875,-2.188300371170044,4.098873138427734,-3.6152446269989014
1781039430128124400,0.83712451171875,-1.4532804489135742,3.8091750144958496,-2.0901381969451904
1781039430138195200,0.8471953125,-1.3263877630233765,3.620033025741577,-1.6974890232086182
1781039430168499000,0.8774990234375,-0.45250412821769714,2.7533318996429443,-0.31603461503982544
1781039430188701700,0.89770166015625,0.12449848651885986,1.922544002532959,0.2849099934101105
1781039430198772500,0.9077724609375,0.26336219906806946,1.6519991159439087,0.28730419278144836
1781039430208843300,0.91784326171875,0.3519476354122162,1.4484920501708984,0.3495534360408783
1781039430218944500,0.927944580078125,0.363918662071228,1.3215993642807007,0.3495534360408783
1781039430229046000,0.9380458984375,0.3280056416988373,1.1420341730117798,0.4692635238170624
1781039430239147300,0.948147216796875,0.3423708379268646,0.8954314589500427,0.5937620401382446
1781039430249187600,0.9581875,0.33997663855552673,0.8164227604866028,0.608127236366272
1781039430259319300,0.9683193359375,0.12210428714752197,0.5051765441894531,0.6512228846549988
1781039430269420800,0.9784208984375,0.10773907601833344,0.38546648621559143,0.7948749661445618
1781039430279522000,0.98852197265625,0.12210428714752197,0.3256114423274994,0.849941611289978
1781039430289592800,0.9985927734375,0.20350714027881622,0.22266076505184174,0.8690952062606812
1781039430299724500,1.008724609375,0.2513911724090576,0.12449848651885986,0.9576807022094727
1781039430309826000,1.018825927734375,0.2992752194404602,0.0933738648891449,1.113303780555725
1781039430319927300,1.02892724609375,0.304063618183136,-0.026336219161748886,1.2713210582733154
1781039430329967600,1.038967529296875,0.24420857429504395,-0.07661445438861847,1.3742717504501343
1781039430340099300,1.049099365234375,0.17956513166427612,-0.3208230137825012,1.5729905366897583
1781039430360302000,1.069302001953125,0.028730420395731926,-0.8212111592292786,1.7501614093780518
1781039430370372900,1.079372802734375,0.009576806798577309,-1.0031704902648926,1.6376339197158813
1781039430390606000,1.099606201171875,0.47884035110473633,-1.702277421951294,0.8882488012313843
1781039430400676900,1.1096767578125,0.646434485912323,-1.9823989868164062,0.5506663918495178
1781039430451061200,1.160061279296875,1.0869675874710083,-1.721431016921997,-1.1875240802764893
1781039430471233500,1.180233642578125,1.2186486721038818,-2.427720546722412,-1.436521053314209
1781039430481334800,1.190334716796875,1.237802267074585,-2.7293899059295654,-1.1085153818130493
1781039430501446000,1.21044580078125,1.601720929145813,-2.9472622871398926,-0.2537853717803955
1781039430511547100,1.220547119140625,1.8722656965255737,-3.4117374420166016,-0.038307227194309235
1781039430531719200,1.24071923828125,3.0885202884674072,-5.116408824920654,0.5386953949928284
1781039430541698600,1.250698486328125,3.8355112075805664,-5.949591159820557,0.9672574996948242
1781039430551799800,1.2607998046875,4.4508209228515625,-6.600813865661621,1.3311761617660522
1781039430582073300,1.2910732421875,4.632780075073242,-8.40843677520752,2.188300371170044
1781039430592144100,1.30114404296875,4.663905143737793,-8.647856712341309,2.03507137298584
1781039430602215000,1.31121484375,4.4723687171936035,-8.611943244934082,1.9297266006469727
1781039430612224800,1.321224853515625,4.383783340454102,-8.360552787780762,1.9057846069335938
1781039430622326000,1.331325927734375,4.508281707763672,-8.224082946777344,2.0039467811584473
1781039430632427300,1.34142724609375,4.6255974769592285,-8.310274124145508,2.276885747909546
1781039430642467600,1.351467529296875,4.687847137451172,-8.47786808013916,2.4133553504943848
1781039430652538400,1.361538330078125,4.817133903503418,-8.808267593383789,2.389413356781006
1781039430672710400,1.38171044921875,4.376600742340088,-9.409213066101074,2.1978771686553955
1781039430692913200,1.4019130859375,3.6152446269989014,-8.93037223815918,1.9608511924743652
1781039430702953500,1.411953369140625,3.292027235031128,-9.162610054016113,1.8746598958969116
1781039430723125500,1.43212548828125,3.0885202884674072,-10.194510459899902,1.5849615335464478
1781039430733226800,1.442226806640625,2.765302896499634,-10.347740173339844,1.2282254695892334
1781039430743297500,1.452297607421875,2.2697031497955322,-9.9000244140625,0.7948749661445618
1781039430753337900,1.462337890625,1.5610195398330688,-9.083600997924805,0.19632454216480255
1781039430763378200,1.472378173828125,0.8834604024887085,-8.106766700744629,-0.1628057211637497
1781039430773449000,1.482448974609375,0.30885201692581177,-7.623138427734375,-0.44771572947502136
1781039430783550200,1.49255029296875,0.035913024097681046,-7.206547260284424,-0.6440402865409851
1781039430793621200,1.502621337890625,0.06464344263076782,-6.909666061401367,-0.8667010068893433
1781039430803692000,1.512692138671875,0.0694318488240242,-7.017405033111572,-1.015141487121582
1781039430813762800,1.5227626953125,-0.08379705995321274,-6.900089263916016,-1.0534487962722778
1781039430823803100,1.53280322265625,-0.016759412363171577,-6.435614109039307,-1.2976573705673218
1781039430833874000,1.5428740234375,-0.40222588181495667,-6.236895561218262,-1.6855180263519287
1781039430843975200,1.55297509765625,-0.7709329724311829,-5.829881191253662,-1.9177556037902832
1781039430854046000,1.5630458984375,-1.0342950820922852,-5.339069843292236,-2.1715409755706787
1781039430864116700,1.57311669921875,-1.4197616577148438,-5.032611846923828,-2.5043349266052246
1781039430874218000,1.583218017578125,-1.338358759880066,-4.730942726135254,-2.935291290283203
1781039430904400000,1.61339990234375,-0.8307880163192749,-6.145915985107422,-4.2975921630859375
1781039430914440200,1.623440185546875,-1.115697979927063,-5.827486991882324,-4.4723687171936035
1781039430924541400,1.63354150390625,-1.5921441316604614,-4.8482584953308105,-4.54419469833374
1781039430934581800,1.643581787109375,-2.363077163696289,-3.557783842086792,-5.173870086669922
1781039430944683300,1.653683349609375,-3.1004912853240967,-2.3511061668395996,-6.007051944732666
1781039430954754000,1.663754150390625,-3.8379054069519043,-1.6543933153152466,-6.710947513580322
1781039431025310500,1.734310546875,-3.801992416381836,0.8571242094039917,-6.287173748016357
1781039431095775700,1.804775634765625,-2.631227731704712,-1.7166426181793213,-5.027823448181152
1781039431105846500,1.814846435546875,-2.7557260990142822,-0.5099649429321289,-5.078101634979248
1781039431115947800,1.82494775390625,-2.978386878967285,0.40462008118629456,-5.530605792999268
1781039431126018600,1.8350185546875,-2.853888511657715,1.4700398445129395,-5.8873419761657715
1781039431136089300,1.84508935546875,-2.7676970958709717,1.7741034030914307,-6.203376770019531
1781039431146129700,1.855129638671875,-2.3965959548950195,1.7501614093780518,-6.179434776306152
1781039431156231000,1.86523095703125,-1.802833914756775,1.625662922859192,-5.856217384338379
1781039431166301700,1.8753017578125,-1.802833914756775,1.2880805730819702,-5.12119722366333
1781039431176372500,1.88537255859375,-1.1971008777618408,1.0342950820922852,-4.726154327392578
1781039431196514300,1.905514404296875,-0.8595184087753296,1.0247182846069336,-3.7684733867645264
1781039431216686300,1.925686279296875,-1.522712230682373,2.626439332962036,-2.319981336593628
1781039431226726700,1.9357265625,-2.298433542251587,1.8291701078414917,-1.8124107122421265
1781039431246898700,1.955898681640625,-1.9536685943603516,0.9097966551780701,-1.036689281463623
1781039431256969500,1.965969482421875,-1.7501614093780518,0.42377370595932007,-0.8044517636299133
1781039431337474800,2.046474853515625,0.5410895943641663,0.4213795065879822,0.9792284965515137
1781039431347545600,2.056545654296875,0.7182605266571045,0.4644751250743866,0.5793967843055725
1781039431357586000,2.0665859375,0.9002198576927185,0.40462008118629456,0.4908113479614258
1781039431367626200,2.076626220703125,0.8092401623725891,0.07661445438861847,0.6033388376235962
1781039431427959600,2.13695947265625,1.5825673341751099,0.14604631066322327,1.5634137392044067
1781039431518596600,2.2275966796875,1.1540051698684692,0.8690952062606812,1.3623007535934448
1781039431578991000,2.2879912109375,-0.033518824726343155,0.5722141861915588,1.9752163887023926
1781039431589092400,2.29809228515625,-0.033518824726343155,0.727837324142456,1.968033790588379
1781039431599132700,2.308132568359375,0.0694318488240242,0.6224924325942993,1.900996208190918
1781039431609203500,2.318203369140625,0.40222588181495667,0.45489832758903503,1.8962076902389526
1781039431619304700,2.3283046875,0.7924807667732239,0.2585737705230713,1.7070658206939697
1781039431629314600,2.338314453125,1.2401964664459229,0.06703764945268631,1.7621324062347412
1781039431639415800,2.348415771484375,1.292868971824646,-0.304063618183136,1.9249382019042969
1781039431659557400,2.368557373046875,0.8738836050033569,-0.3495534360408783,2.4013843536376953
1781039431669597700,2.37859765625,0.363918662071228,-0.38546648621559143,2.4588451385498047
1781039431679607600,2.388607666015625,-0.06703764945268631,-0.3016694188117981,2.5546131134033203
1781039431689678300,2.39867822265625,-0.33518823981285095,-0.1867477297782898,2.7485435009002686
1781039431699779600,2.408779541015625,-0.29209262132644653,-0.2585737705230713,2.6791117191314697
1781039431709850400,2.418850341796875,-0.18914192914962769,-0.45250412821769714,2.6024973392486572
1781039431719921200,2.428921142578125,0.11013327538967133,-0.35673606395721436,2.6599581241607666
1781039431730022400,2.4390224609375,0.31364041566848755,-0.2992752194404602,2.7054479122161865
1781039431740093200,2.44909326171875,0.5937620401382446,-0.2537853717803955,2.671929121017456
1781039431750103000,2.45910302734375,0.545877993106842,-0.10055647045373917,2.63362193107605
1781039431800457000,2.50945703125,0.13407529890537262,0.9720458984375,2.3127987384796143
1781039431860912400,2.569912353515625,1.4867992401123047,-0.3711012601852417,1.2545616626739502
1781039431931469000,2.640468994140625,1.0199298858642578,-1.4221558570861816,0.8188169598579407
1781039431951641000,2.66064111328125,1.6831238269805908,-3.737348794937134,0.7709329724311829
1781039431961742600,2.67074267578125,1.7166426181793213,-4.99669885635376,0.871489405632019
1781039431971813400,2.6808134765625,1.5753847360610962,-4.922478675842285,1.3646949529647827
1781039431981884200,2.69088427734375,1.2761094570159912,-4.2329487800598145,1.45806884765625
1781039431991985400,2.7009853515625,0.933738648891449,-3.9839515686035156,1.3024457693099976
1781039432002056200,2.71105615234375,0.6177040338516235,-3.995922565460205,1.1180921792984009
1781039432012127000,2.721126953125,0.5482721924781799,-4.084507942199707,1.158793568611145
1781039432022228200,2.731228271484375,0.3423708379268646,-4.110844135284424,1.37906014919281
1781039432032329700,2.741329833984375,0.1388636976480484,-3.869029998779297,1.4939818382263184
1781039432042400500,2.751400390625,-0.023942016065120697,-3.442862033843994,1.4915876388549805
1781039432052501800,2.761501708984375,-0.18914192914962769,-2.808398485183716,1.1683704853057861
1781039432072704300,2.781704345703125,-0.5913678407669067,-1.6927006244659424,0.8619126081466675
1781039432082805800,2.7918056640625,-0.689530074596405,-1.0438719987869263,0.7493851184844971
1781039432092907000,2.801906982421875,-1.0845733880996704,-0.45250412821769714,0.6847416758537292
1781039432103008300,2.81200830078125,-1.6519991159439087,0.4836287498474121,0.7589619159698486
1781039432113109800,2.82210986328125,-2.166752576828003,1.6496049165725708,0.8858546018600464
1781039432123211000,2.8322109375,-2.3343467712402344,2.9281086921691895,0.7709329724311829
1781039432133312300,2.842312255859375,-2.0829553604125977,4.137180328369141,0.16998831927776337
1781039432143413500,2.85241357421875,-1.7262194156646729,4.568136692047119,-0.6607996821403503
1781039432214122800,2.923122802734375,-3.181894063949585,6.646304130554199,-1.5634137392044067
1781039432224224300,2.933224365234375,-3.1866824626922607,6.909666061401367,-1.381454348564148
1781039432234325500,2.943325439453125,-3.1435868740081787,7.050923824310303,-1.237802267074585
1781039432244396300,2.953396240234375,-3.002328872680664,7.117961883544922,-1.2090718746185303
1781039432264629500,2.97362939453125,-2.518700122833252,7.0126166343688965,-1.2210428714752197
1781039432284801500,2.993801513671875,-2.52109432220459,7.3454108238220215,-1.0989385843276978
1781039432315136000,3.024135986328125,-2.2242133617401123,6.19379997253418,-1.5610195398330688
1781039432355480300,3.064480224609375,-0.5937620401382446,2.389413356781006,-2.2385785579681396
1781039432365581600,3.07458154296875,-0.05027823522686958,2.1787235736846924,-2.3965959548950195
1781039432375682800,3.084682861328125,0.37828385829925537,2.233790159225464,-2.5522189140319824
1781039432385784300,3.094784423828125,0.5650315880775452,2.3487119674682617,-2.5258827209472656
1781039432395885600,3.104885498046875,0.5913678407669067,2.956839084625244,-2.5665841102600098
1781039432405986800,3.11498681640625,0.6943184733390808,3.514688014984131,-2.5043349266052246
1781039432416088000,3.125088134765625,0.8930372595787048,3.955221176147461,-2.647987127304077
1781039432426189600,3.135189453125,0.9864110946655273,4.067748546600342,-2.693476915359497
1781039432436290800,3.145290771484375,1.1420341730117798,4.043806552886963,-2.5905263423919678
1781039432446331100,3.1553310546875,1.0893617868423462,4.084507942199707,-2.52109432220459
1781039432456432400,3.165432373046875,1.1994950771331787,4.256890773773193,-2.650381326675415
1781039432466503200,3.175503173828125,0.9959878921508789,4.355052947998047,-2.801215887069702
1781039432476574000,3.185573974609375,0.5578489899635315,4.285621166229248,-2.8993782997131348
1781039432486644700,3.195644775390625,-0.2537853717803955,4.218583583831787,-3.117250680923462
1781039432496685000,3.20568505859375,-1.0606313943862915,4.189853191375732,-3.2800562381744385
1781039432516826600,3.22582666015625,-1.821987509727478,4.790797710418701,-3.8283286094665527
1781039432577190400,3.2861904296875,-0.26096799969673157,2.8850131034851074,-5.942408561706543
1781039432617382100,3.326382080078125,0.3280056416988373,0.05027823522686958,-7.254431247711182
1781039432637523700,3.346523681640625,0.8810662031173706,-1.1300631761550903,-7.340622425079346
1781039432647564000,3.35656396484375,1.2761094570159912,-1.7142484188079834,-7.082048416137695
1781039432657665300,3.366665283203125,1.6424223184585571,-2.3056161403656006,-6.873753070831299
1781039432687877600,3.396877685546875,2.5929205417633057,-3.251325845718384,-5.793968200683594
1781039432708080400,3.417080322265625,2.691082715988159,-3.5960910320281982,-4.7836151123046875
1781039432718151200,3.427151123046875,2.5019407272338867,-3.7852327823638916,-4.402936935424805
1781039432728161000,3.4371611328125,2.3726539611816406,-3.7876269817352295,-4.127603530883789
1781039432738231800,3.447231689453125,2.0901381969451904,-3.914519786834717,-3.914519786834717
1781039432748333000,3.4573330078125,1.965639591217041,-4.2090067863464355,-3.6607344150543213
1781039432758434300,3.467434326171875,1.9393033981323242,-4.448426723480225,-3.406949043273926
1781039432768474600,3.477474609375,1.9560627937316895,-4.8051629066467285,-3.1076738834381104
1781039432798748200,3.507748046875,2.0590133666992188,-4.855441093444824,-1.920149803161621
1781039432808819000,3.51781884765625,2.1787235736846924,-4.513070106506348,-1.5131354331970215
1781039432818920200,3.527920166015625,2.118868589401245,-4.367023944854736,-1.414973258972168
1781039432829021400,3.538021484375,1.9393033981323242,-4.261679172515869,-1.5203180313110352
1781039432839061800,3.548061767578125,1.742978811264038,-4.2975921630859375,-1.7908629179000854
1781039432849163000,3.5581630859375,1.3455413579940796,-4.405331134796143,-1.965639591217041
1781039432859234000,3.568234130859375,0.9169792532920837,-4.390965938568115,-2.121262788772583
1781039432869274000,3.578274169921875,0.5722141861915588,-4.522646903991699,-2.3127987384796143
1781039432879375600,3.588375732421875,0.33758243918418884,-4.7620673179626465,-2.535459518432617
1781039432889385200,3.59838525390625,0.19153612852096558,-4.941632270812988,-2.432508945465088
1781039432899486700,3.60848681640625,0.17477671802043915,-5.063736438751221,-1.9512743949890137
1781039432909588000,3.618587890625,0.3471592366695404,-5.288791656494141,-1.0678139925003052
1781039432919719700,3.6287197265625,0.5386953949928284,-5.446808815002441,-0.09816227108240128
1781039432990185000,3.69918505859375,-0.6871358752250671,-5.856217384338379,0.26575639843940735
1781039433000255700,3.709255859375,-0.6584054827690125,-6.00226354598999,0.23942017555236816
1781039433010326500,3.719326416015625,-0.31603461503982544,-6.256049156188965,0.6272808313369751
1781039433020397300,3.729397216796875,0.3687070608139038,-6.746860504150391,1.1563993692398071
1781039433111065000,3.820065185546875,1.86508309841156,-5.717353820800781,1.6615760326385498
1781039433121166300,3.830166259765625,1.920149803161621,-5.736507415771484,1.6831238269805908
1781039433131237000,3.840237060546875,1.7693150043487549,-5.389348030090332,1.86508309841156
1781039433171489800,3.88048974609375,1.5442601442337036,-3.6152446269989014,2.03507137298584
1781039433231975700,3.9409755859375,1.3910311460494995,-1.1348515748977661,-0.13407529890537262
1781039433242046500,3.95104638671875,1.2114660739898682,-0.8475474119186401,-0.5099649429321289
1781039433252117200,3.9611171875,0.9552865028381348,-0.7015010714530945,-0.7613561153411865
1781039433262188000,3.97118798828125,0.871489405632019,-0.7110779285430908,-0.9911994934082031
1781039433272289300,3.981289306640625,0.8475474119186401,-0.6751648783683777,-1.2952631711959839
1781039433282390800,3.991390869140625,0.8595184087753296,-0.7086837291717529,-1.5203180313110352
1781039433292461600,4.001461669921875,0.7254431247711182,-0.6512228846549988,-1.7741034030914307
1781039433302532400,4.011532470703125,0.6991068720817566,-0.5195417404174805,-2.075772762298584
1781039433312633600,4.021633544921875,0.4381389021873474,-0.2992752194404602,-2.4612393379211426
1781039433322704400,4.031704345703125,0.05506663769483566,-0.12449848651885986,-2.913743495941162
1781039433342785000,4.051784912109375,-0.9672574996948242,-0.1628057211637497,-3.3207578659057617
1781039433352886300,4.06188623046875,-1.2306196689605713,0.033518824726343155,-3.4308910369873047
1781039433362957000,4.07195703125,-1.237802267074585,-0.0933738648891449,-3.6727054119110107
1781039433372967000,4.081966796875,-1.3742717504501343,-0.4692635238170624,-3.995922565460205
1781039433383037700,4.09203759765625,-1.6879122257232666,-0.8068459630012512,-4.558559894561768
1781039433393139000,4.102138916015625,-1.802833914756775,-1.0893617868423462,-5.006275653839111
1781039433453624800,4.162624755859375,-3.050212860107422,-0.18914192914962769,-8.678980827331543
1781039433463695600,4.172695556640625,-3.1435868740081787,-0.4381389021873474,-8.96389102935791
1781039433473766400,4.182766357421875,-3.315969467163086,-0.5554547905921936,-8.932766914367676
1781039433483806700,4.192806640625,-3.6176388263702393,-0.7254431247711182,-8.645462036132812
1781039433493877500,4.20287744140625,-3.6798880100250244,-1.113303780555725,-8.303091049194336
1781039433503948300,4.2129482421875,-3.8283286094665527,-1.3838485479354858,-7.965508937835693
1781039433514049500,4.223049560546875,-3.818751811981201,-1.6304513216018677,-7.723694801330566
1781039433524120300,4.233120361328125,-3.5960910320281982,-1.5634137392044067,-7.8098859786987305
1781039433534221800,4.243221923828125,-3.3255462646484375,-1.6136919260025024,-8.267178535461426
1781039433544323000,4.253322998046875,-3.160346269607544,-1.98958158493042,-8.274360656738281
1781039433554393900,4.263393798828125,-2.9903578758239746,-2.3247697353363037,-8.307879447937012
1781039433614818600,4.323818603515625,-2.4133553504943848,-1.3311761617660522,-7.55131196975708
1781039433624920000,4.333920166015625,-2.5713725090026855,-1.802833914756775,-7.630321025848389
1781039433715618300,4.424618408203125,-2.564189910888672,0.5434837937355042,-5.861005783081055
1781039433725658400,4.434658447265625,-2.6001031398773193,0.4812345504760742,-5.427655220031738
1781039433735729400,4.4447294921875,-2.762908697128296,0.5674257874488831,-5.1595048904418945
1781039433745800200,4.45480029296875,-3.3901896476745605,0.7829039692878723,-4.838681697845459
1781039433755871000,4.46487109375,-3.794809579849243,1.1276689767837524,-4.4292731285095215
1781039433765941800,4.474941650390625,-4.1874589920043945,1.4437036514282227,-4.041412353515625
1781039433776012500,4.485012451171875,-4.455609321594238,1.3742717504501343,-3.8738183975219727
1781039433846386000,4.555385986328125,-3.550601005554199,0.8044517636299133,-3.220201253890991
1781039433926891500,4.6358916015625,-2.0805611610412598,-0.8451532125473022,-2.410961151123047
1781039433936992800,4.64599267578125,-2.734178304672241,-0.8882488012313843,-2.5282769203186035
1781039433947063600,4.6560634765625,-3.270479440689087,-0.8092401623725891,-2.4612393379211426
1781039433967205000,4.676205078125,-3.581725835800171,-1.1468225717544556,-1.4628572463989258
1781039433977306400,4.686306396484375,-3.2369606494903564,-1.359906554222107,-1.1516109704971313
1781039433987377200,4.696377197265625,-3.1100680828094482,-1.6687586307525635,-1.1827356815338135
1781039433997448000,4.706447998046875,-2.674323320388794,-1.86508309841156,-1.1971008777618408
1781039434007518700,4.716518798828125,-2.300827741622925,-2.2002713680267334,-1.091755986213684
1781039434017620200,4.7266201171875,-2.298433542251587,-2.5665841102600098,-0.9816226959228516
1781039434027721500,4.736721435546875,-2.0925323963165283,-2.80361008644104,-0.5027823448181152
1781039434037792300,4.746792236328125,-2.0925323963165283,-3.3255462646484375,-0.15322890877723694
1781039434047863000,4.756863037109375,-2.1356279850006104,-3.7493197917938232,0.22505496442317963
1781039434057964300,4.76696435546875,-1.601720929145813,-4.079719543457031,0.14365209639072418
1781039434088237800,4.79723779296875,-0.09576806426048279,-4.201824188232422,-0.05746084079146385
1781039434098339000,4.807339111328125,0.3471592366695404,-4.381389141082764,-0.5291185975074768
1781039434108409900,4.817409912109375,0.768538773059845,-4.553771495819092,-0.7206547260284424
1781039434118511400,4.827511474609375,0.8810662031173706,-5.04218864440918,-0.6177040338516235
1781039434128612600,4.837612548828125,0.9169792532920837,-5.509057998657227,-0.4429273009300232
1781039434138744300,4.847744384765625,1.0031704902648926,-5.765237808227539,-0.38067805767059326
1781039434148845800,4.857845703125,1.137245774269104,-6.14831018447876,-0.2322375625371933
1781039434158947000,4.867947021484375,1.216254472732544,-6.279991149902344,-0.12928688526153564
1781039434239696600,4.948696533203125,3.090914487838745,-4.580107688903809,-1.434126853942871
1781039434290203100,4.999203125,-0.004788403399288654,-1.8387469053268433,-0.21787235140800476
1781039434310406000,5.019406005859375,0.8427590131759644,-1.9057846069335938,0.4429273009300232
1781039434320507100,5.029507080078125,0.9265560507774353,-2.1356279850006104,0.811634361743927
1781039434330608400,5.0396083984375,0.8379706144332886,-2.250549554824829,1.1300631761550903
1781039434340709600,5.049709716796875,0.5793967843055725,-2.410961151123047,1.0749965906143188
1781039434360942800,5.06994287109375,0.49320554733276367,-1.9608511924743652,0.5339069962501526
1781039434371044400,5.08004443359375,0.8595184087753296,-1.5729905366897583,0.26815059781074524
1781039434381145600,5.0901455078125,1.05105459690094,-0.9313444495201111,0.4213795065879822
1781039434391246800,5.100246826171875,1.0127472877502441,-0.1412578970193863,0.727837324142456
1781039434401348000,5.11034814453125,0.8355764150619507,0.4836287498474121,0.5482721924781799
1781039434421550800,5.13055078125,0.4357447028160095,0.8882488012313843,0.6584054827690125
1781039434441753300,5.15075341796875,0.05027823522686958,0.6272808313369751,0.7206547260284424
1781039434502300400,5.211300537109375,0.14604631066322327,0.15083470940589905,1.5921441316604614
1781039434512371200,5.22137109375,0.002394201699644327,0.20350714027881622,1.6208745241165161
1781039434522442000,5.23144189453125,0.1628057211637497,0.3663128614425659,1.647210717201233
1781039434532543200,5.241543212890625,0.3878606855869293,0.5746083855628967,1.5849615335464478
1781039434542644500,5.25164453125,0.7493851184844971,0.8619126081466675,1.3407529592514038
1781039434552715300,5.26171533203125,1.194706678390503,0.9241618514060974,1.1540051698684692
1781039434562816800,5.271816650390625,1.2737152576446533,0.7709329724311829,0.9433154463768005
1781039434572918000,5.28191796875,1.4245500564575195,0.646434485912323,0.8547300100326538
1781039434582988800,5.29198876953125,1.5275006294250488,0.8068459630012512,0.8188169598579407
1781039434603130400,5.31213037109375,1.2234370708465576,1.1109095811843872,1.1444283723831177
1781039434623272000,5.33227197265625,0.849941611289978,1.4389152526855469,1.4293384552001953
1781039434633342700,5.3423427734375,0.6631938815116882,1.6639702320098877,1.45806884765625
1781039434643413500,5.35241357421875,0.5722141861915588,1.8698714971542358,1.4269442558288574
1781039434653515000,5.362514892578125,0.7350199222564697,2.0877439975738525,1.6519991159439087
1781039434663616300,5.3726162109375,0.8882488012313843,1.9752163887023926,1.8171991109848022
1781039434673717500,5.382717529296875,1.137245774269104,1.9991583824157715,2.2457611560821533
1781039434683757800,5.3927578125,1.53707754611969,1.7884687185287476,2.6360161304473877
1781039434693828600,5.40282861328125,1.6759412288665771,1.3886369466781616,2.896984100341797
1781039434703929900,5.412929931640625,1.800439715385437,0.9409212470054626,3.00711727142334
1781039434714031400,5.42303125,1.7334020137786865,0.7661445140838623,2.9712042808532715
1781039434724102100,5.43310205078125,1.7573440074920654,0.8762778043746948,2.9257144927978516
1781039434734203400,5.443203369140625,1.9321208000183105,1.2018892765045166,2.7246015071868896
1781039434744243700,5.45324365234375,1.9608511924743652,1.5682021379470825,2.5546131134033203
1781039434754314500,5.463314453125,1.9105730056762695,1.824381709098816,2.609679937362671
1781039434784588000,5.493588134765625,1.8100165128707886,0.9600749015808105,2.626439332962036
1781039434794689300,5.503689208984375,1.6328455209732056,0.8619126081466675,2.583343744277954
1781039434804699100,5.51369921875,1.534683346748352,0.8690952062606812,2.473210334777832
1781039434855053000,5.564052978515625,1.522712230682373,0.9193734526634216,2.276885747909546
1781039434865123800,5.574123779296875,1.4317326545715332,0.8834604024887085,2.2577321529388428
1781039434905346000,5.614345947265625,0.5578489899635315,1.5610195398330688,1.843535304069519
1781039434945537500,5.65453759765625,0.8834604024887085,2.4636335372924805,1.659181833267212
1781039434955608300,5.6646083984375,1.1899182796478271,1.580173134803772,1.3287819623947144
1781039434965618200,5.6746181640625,1.5394717454910278,0.7589619159698486,1.335964560508728
1781039434975719400,5.684719482421875,1.659181833267212,0.07422025501728058,1.6519991159439087
1781039434985790200,5.694790283203125,1.3934253454208374,-0.45489832758903503,1.7836803197860718
1781039434995891700,5.7048916015625,0.8690952062606812,-0.6919242739677429,1.8124107122421265
1781039435005962500,5.71496240234375,0.3232172429561615,-0.7015010714530945,1.678335428237915
1781039435016063700,5.725063720703125,-0.3687070608139038,-0.4812345504760742,1.556231141090393
1781039435026104000,5.73510400390625,-0.9409212470054626,0.15562310814857483,1.3670891523361206
1781039435036205300,5.745205322265625,-1.0342950820922852,0.8307880163192749,1.3479355573654175
1781039435046245600,5.75524560546875,-1.115697979927063,1.3718775510787964,1.2306196689605713
1781039435066417700,5.775417724609375,-0.5051765441894531,1.036689281463623,0.7445967197418213
1781039435076519200,5.785519287109375,-0.06224924325942993,0.10534487664699554,0.40462008118629456
1781039435086590000,5.79558984375,0.12210428714752197,-0.9720458984375,0.1843535304069519
1781039435147045000,5.856045166015625,-0.3495534360408783,-0.15322890877723694,-0.4381389021873474
1781039435177288200,5.8862880859375,-0.8906430602073669,0.49799394607543945,-1.237802267074585
1781039435237743400,5.946743408203125,-1.3335703611373901,-0.4141969084739685,-2.873042106628418
1781039435247783700,5.95678369140625,-1.3024457693099976,0.09816227108240128,-3.2968156337738037
1781039435257885000,5.966885009765625,-1.4484920501708984,0.5722141861915588,-3.2848446369171143
1781039435267956000,5.9769560546875,-1.6208745241165161,0.9528923034667969,-3.2393548488616943
1781039435277996000,5.98699609375,-1.625662922859192,0.9361328482627869,-3.4524388313293457
1781039435288066800,5.99706689453125,-1.7118542194366455,1.1109095811843872,-3.44765043258667
1781039435298137900,6.007137939453125,-1.6352397203445435,1.482010841369629,-3.552995204925537
1781039435308239000,6.017239013671875,-1.6112977266311646,1.8052281141281128,-3.8283286094665527
1781039435318310000,6.027309814453125,-1.7908629179000854,2.22660756111145,-4.144362926483154
1781039435328411100,6.0374111328125,-2.0470423698425293,2.5713725090026855,-4.2760443687438965
1781039435338482000,6.04748193359375,-2.410961151123047,2.808398485183716,-4.367023944854736
1781039435348552700,6.057552734375,-2.647987127304077,3.095702886581421,-4.343081951141357
1781039435358623500,6.06762353515625,-2.691082715988159,3.3686418533325195,-4.347870349884033
1781039435368725000,6.07772509765625,-2.5953147411346436,3.5625722408294678,-4.268861770629883
1781039435378795800,6.087795654296875,-2.5067291259765625,3.883395195007324,-3.950432777404785
1781039435388866600,6.097866455078125,-2.1571757793426514,4.141968727111816,-3.471592426300049
1781039435398937300,6.107937255859375,-1.9345149993896484,4.5825018882751465,-2.75812029838562
1781039435459392500,6.168392578125,-3.7636849880218506,3.6559460163116455,-2.540247917175293
1781039435469463300,6.17846337890625,-3.7660791873931885,2.896984100341797,-2.9328970909118652
1781039435479503600,6.188503662109375,-3.6128504276275635,2.1811177730560303,-3.1459810733795166
1781039435489605000,6.198605224609375,-3.4332852363586426,1.8914192914962769,-3.1244332790374756
1781039435499676000,6.208676025390625,-3.0885202884674072,1.845929503440857,-3.0765492916107178
1781039435509777200,6.218777099609375,-3.043030261993408,1.6352397203445435,-3.069366693496704
1781039435550029800,6.25902978515625,-3.5027170181274414,-0.49799394607543945,-3.711012601852417
1781039435610393600,6.3193935546875,-1.3215993642807007,-0.507570743560791,-1.9105730056762695
1781039435620494800,6.329494873046875,-0.8212111592292786,-0.8044517636299133,-1.8411411046981812
1781039435630565600,6.339565673828125,-0.4668693244457245,-1.0127472877502441,-1.9177556037902832
1781039435640667100,6.349667236328125,-0.40222588181495667,-0.9600749015808105,-2.1045033931732178
1781039435701152800,6.41015283203125,0.11252748221158981,-2.4013843536376953,-4.4723687171936035
1781039435721294600,6.430294677734375,1.2521674633026123,-3.3854012489318848,-5.0685248374938965
1781039435741436200,6.450436279296875,1.7046716213226318,-4.0533833503723145,-5.018246650695801
1781039435751507000,6.4605068359375,1.845929503440857,-4.491522312164307,-5.125985622406006
1781039435761547300,6.47054736328125,1.9081788063049316,-4.853046894073486,-5.523423194885254
1781039435771618000,6.4806181640625,1.9847931861877441,-5.4228668212890625,-5.7987565994262695
1781039435781688800,6.490688720703125,2.118868589401245,-5.925649166107178,-5.92325496673584
1781039435791759600,6.500759521484375,2.410961151123047,-6.54574728012085,-5.6910176277160645
1781039435801830400,6.510830322265625,2.827552318572998,-7.237671852111816,-5.092466831207275
1781039435811901200,6.520901123046875,3.294421434402466,-7.836222171783447,-4.3406877517700195
1781039435821941500,6.53094140625,3.603273630142212,-8.1139497756958,-3.5913026332855225
1781039435832042800,6.541042724609375,3.797203779220581,-8.271966934204102,-3.0597896575927734
1781039435842144000,6.55114404296875,3.9193081855773926,-8.157045364379883,-2.7102363109588623
1781039435852214800,6.56121484375,3.732560396194458,-7.951143741607666,-2.4157495498657227
1781039435862285600,6.57128564453125,3.4165258407592773,-7.745242595672607,-2.3726539611816406
1781039435872387000,6.581386962890625,3.3039982318878174,-7.68538761138916,-2.4660277366638184
1781039435882457900,6.591457763671875,3.2752678394317627,-7.836222171783447,-2.3965959548950195
1781039435902630000,6.6116298828125,2.9041666984558105,-7.9176249504089355,-2.1523873805999756
1781039435912700700,6.62170068359375,2.655169725418091,-7.920019149780273,-1.900996208190918
1781039435932842200,6.64184228515625,2.717418909072876,-7.9846625328063965,-1.3000515699386597
1781039435983227000,6.692226806640625,2.0422539710998535,-8.133103370666504,0.9433154463768005
1781039435993328000,6.702328125,1.900996208190918,-8.257601737976074,1.1971008777618408
1781039436003429400,6.712429443359375,1.965639591217041,-8.322244644165039,1.5107412338256836
1781039436063854300,6.772854248046875,2.4133553504943848,-8.595184326171875,3.5936968326568604
1781039436073955600,6.78295556640625,2.0805611610412598,-8.125920295715332,3.7421371936798096
1781039436094097200,6.80309716796875,1.702277421951294,-6.84981107711792,3.268085241317749
1781039436104198400,6.813198486328125,1.5394717454910278,-6.2416839599609375,3.002328872680664
1781039436124340200,6.83334033203125,1.400607943534851,-5.03021764755249,2.252943754196167
1781039436134472000,6.843471923828125,1.3215993642807007,-4.37420654296875,1.9393033981323242
1781039436144573200,6.8535732421875,1.3455413579940796,-3.8522706031799316,1.522712230682373
1781039436154674700,6.8636748046875,1.2425906658172607,-3.3016040325164795,0.9983820915222168
1781039436164684300,6.873684326171875,0.9911994934082031,-2.652775526046753,0.38307225704193115
1781039436174785800,6.883785888671875,0.7206547260284424,-1.8195933103561401,-0.2106897532939911
1781039436184887000,6.893886962890625,0.40940847992897034,-1.0893617868423462,-0.8834604024887085
1781039436194988300,6.90398828125,0.17956513166427612,-0.40940847992897034,-1.2689268589019775
1781039436205028600,6.914028564453125,0.05267243832349777,-0.040701430290937424,-1.3694833517074585
1781039436225231400,6.9342314453125,0.45250412821769714,0.023942016065120697,-1.01753568649292
1781039436245373000,6.954373046875,0.7781155705451965,-0.17956513166427612,-0.8427590131759644
1781039436255443700,6.964443603515625,0.6607996821403503,-0.21308395266532898,-1.1468225717544556
1781039436265575400,6.974575439453125,0.42377370595932007,-0.26096799969673157,-1.5945383310317993
1781039436275676700,6.9846767578125,0.038307227194309235,-0.05746084079146385,-2.0422539710998535
1781039436295849000,7.004848876953125,-0.44771572947502136,0.14604631066322327,-2.676717519760132
1781039436305950200,7.0149501953125,-0.49799394607543945,0.27054479718208313,-2.851494312286377
1781039436316051500,7.025051513671875,-0.3926490843296051,0.09816227108240128,-3.028665065765381
1781039436346355500,7.05535546875,-0.47644615173339844,-0.22505496442317963,-3.643975019454956
1781039436366558200,7.07555810546875,0.19871874153614044,-0.4908113479614258,-3.93367338180542
1781039436376659500,7.085659423828125,0.44532153010368347,-0.5482721924781799,-3.9408559799194336
1781039436386760700,7.0957607421875,0.5626373887062073,-0.4884171485900879,-3.869029998779297
1781039436437298000,7.1462978515625,-1.2497732639312744,0.23702596127986908,-5.590460777282715
1781039436508037600,7.21703759765625,-1.5610195398330688,0.8451532125473022,-7.393294811248779
1781039436518139000,7.227138916015625,-1.824381709098816,0.9792284965515137,-7.534552574157715
1781039436528240400,7.237240478515625,-2.10210919380188,1.01753568649292,-7.4316020011901855
1781039436548443000,7.25744287109375,-1.7357962131500244,0.5506663918495178,-6.926425457000732
1781039436568645600,7.277645751953125,-1.7597382068634033,0.31124621629714966,-6.7923502922058105
1781039436578747000,7.287746826171875,-1.7549498081207275,0.40701428055763245,-6.809109687805176
1781039436598949400,7.307949462890625,-2.2385785579681396,0.2537853717803955,-6.900089263916016
1781039436609051000,7.31805078125,-2.494758129119873,0.1149216815829277,-6.868964672088623
1781039436629253400,7.33825341796875,-2.52109432220459,0.35673606395721436,-6.8378400802612305
1781039436639324200,7.34832421875,-2.212242364883423,-0.026336219161748886,-7.038952827453613
1781039436649456000,7.3584560546875,-2.3774423599243164,-0.2849099934101105,-7.137115478515625
1781039436659527000,7.36852685546875,-2.185906171798706,-0.3926490843296051,-7.182605266571045
1781039436669628200,7.378628173828125,-2.161964178085327,-0.011971008032560349,-6.9910688400268555
1781039436679729400,7.3887294921875,-2.3343467712402344,-0.028730420395731926,-6.856993675231934
1781039436689800400,7.398800537109375,-2.367865562438965,-0.19632454216480255,-6.833051681518555
1781039436709911300,7.418911376953125,-1.8148049116134644,-0.7350199222564697,-7.560888767242432
1781039436720012800,7.4290126953125,-2.121262788772583,-1.094150185585022,-8.13789176940918
1781039436730053000,7.43905322265625,-2.6575639247894287,-1.1994950771331787,-8.31985092163086
1781039436740124000,7.4491240234375,-3.0190882682800293,-0.4357447028160095,-8.161833763122559
1781039436750194700,7.459194580078125,-3.4093432426452637,0.706289529800415,-7.548917770385742
1781039436760296000,7.4692958984375,-3.5434184074401855,1.644816517829895,-6.514622688293457
1781039436770366700,7.47936669921875,-3.3255462646484375,2.403778553009033,-5.154716491699219
1781039436780468000,7.489468017578125,-2.9281086921691895,2.456450939178467,-4.261679172515869
1781039436790538800,7.499538818359375,-2.4636335372924805,2.1356279850006104,-3.7924153804779053
1781039436800609500,7.509609619140625,-2.27209734916687,1.4987702369689941,-3.4979286193847656
1781039436810649900,7.51964990234375,-2.387019157409668,1.0845733880996704,-3.4332852363586426
1781039436820720600,7.529720703125,-2.5306711196899414,1.556231141090393,-3.5625722408294678
1781039436830791400,7.53979150390625,-2.920926094055176,2.1116859912872314,-3.533841609954834
1781039436850902500,7.559902587890625,-3.095702886581421,3.380612850189209,-2.6216509342193604
1781039436861004000,7.570004150390625,-2.6575639247894287,3.6583402156829834,-2.2146365642547607
1781039436871105300,7.580105224609375,-2.032677173614502,3.3925838470458984,-2.1068975925445557
1781039436881145600,7.5901455078125,-1.1204863786697388,2.7461493015289307,-2.2242133617401123
1781039436891246800,7.600246826171875,-0.23942017555236816,2.030282974243164,-2.4588451385498047
1781039436901287200,7.610287109375,-0.5267243981361389,1.5514427423477173,-2.3367409706115723
1781039436911388400,7.620388427734375,-0.13407529890537262,2.0231003761291504,-2.248155355453491
1781039436921459200,7.630459228515625,-0.7086837291717529,2.3989901542663574,-2.097320795059204
1781039436931530000,7.640530029296875,-1.192312479019165,2.7988216876983643,-1.9512743949890137
1781039436941600800,7.650600830078125,-1.6424223184585571,2.8610711097717285,-2.03507137298584
1781039436951641000,7.66064111328125,-1.7836803197860718,2.5689783096313477,-2.0829553604125977
1781039436971813400,7.6808134765625,-1.702277421951294,1.0103530883789062,-2.7509377002716064
1781039436991985400,7.7009853515625,-0.9050082564353943,1.9584569931030273,-2.7222073078155518
1781039437002056200,7.71105615234375,-0.7206547260284424,2.2218191623687744,-3.0095114707946777
1781039437012127000,7.721126953125,-0.9696516990661621,1.845929503440857,-3.181894063949585
1781039437022228200,7.731228271484375,-1.6831238269805908,0.8451532125473022,-2.7126305103302
1781039437032329700,7.741329833984375,-1.8339585065841675,-0.6488286852836609,-2.073378562927246
1781039437042461400,7.75146142578125,-1.8124107122421265,-1.213860273361206,-1.5753847360610962
1781039437052562700,7.761562744140625,-1.5682021379470825,-1.9081788063049316,-0.6200982332229614
1781039437062664200,7.771664306640625,-1.314416766166687,-2.980781078338623,0.5410895943641663
1781039437072765400,7.781765380859375,-0.3471592366695404,-3.8067808151245117,1.0893617868423462
1781039437082866700,7.79186669921875,0.33279404044151306,-4.46518611907959,1.0223240852355957
1781039437092907000,7.801906982421875,1.0223240852355957,-5.521028995513916,0.6727706789970398
1781039437103008300,7.81200830078125,0.9552865028381348,-6.433219909667969,0.6823474764823914
1781039437113109800,7.82210986328125,1.194706678390503,-6.54574728012085,0.7134721279144287
1781039437123180500,7.8321806640625,1.623268723487854,-5.846640586853027,0.3208230137825012
1781039437133251300,7.842251220703125,2.5713725090026855,-4.800374507904053,-0.667982280254364
1781039437143322000,7.852322021484375,2.5306711196899414,-3.952826976776123,-1.0749965906143188
1781039437163402800,7.87240283203125,1.7525556087493896,-2.0039467811584473,-0.9864110946655273
1781039437193645600,7.9026455078125,-0.10773907601833344,-1.4844050407409668,-0.3663128614425659
1781039437203655400,7.912655517578125,-0.545877993106842,-1.6831238269805908,0.10773907601833344
1781039437213756700,7.922756591796875,-1.0223240852355957,-1.8052281141281128,0.22026655077934265
1781039437243938600,7.9529384765625,-1.1061211824417114,-1.3455413579940796,0.7805097699165344
1781039437254039800,7.963039794921875,-0.9409212470054626,-0.8954314589500427,0.5123591423034668
1781039437264110600,7.973110595703125,-0.7589619159698486,-0.2322375625371933,0.5147533416748047
1781039437274211800,7.9832119140625,-0.4165911078453064,0.1364694982767105,0.5554547905921936
1781039437284252200,7.993252197265625,-0.13407529890537262,0.3208230137825012,0.7469909191131592
1781039437304424400,8.013424560546875,0.33039984107017517,0.26815059781074524,0.6727706789970398
1781039437314434000,8.02343408203125,0.06703764945268631,0.31603461503982544,0.363918662071228
1781039437324504800,8.0335048828125,-0.1867477297782898,0.20111294090747833,0.19632454216480255
1781039437334606300,8.0436064453125,-0.22505496442317963,0.2298433631658554,0.0454898327589035
1781039437344677000,8.053677001953124,-0.3423708379268646,0.4836287498474121,-0.016759412363171577
1781039437354748000,8.063747802734374,-0.24899697303771973,0.7876923680305481,-0.1149216815829277
1781039437364788200,8.073788330078125,0.07661445438861847,0.9481038451194763,-0.33997663855552673
1781039437374889500,8.083889404296874,0.4668693244457245,0.8834604024887085,-0.4429273009300232
1781039437384990700,8.09399072265625,1.0414776802062988,0.7445967197418213,-0.40940847992897034
1781039437405163000,8.1141630859375,1.5753847360610962,-0.019153613597154617,0.023942016065120697
1781039437415264300,8.12426416015625,1.6400281190872192,-0.15801730751991272,0.2777273952960968
1781039437435466800,8.144466796875,1.4460978507995605,0.33279404044151306,0.40462008118629456
1781039437455608300,8.1646083984375,1.2449848651885986,0.3926490843296051,0.10295066982507706
1781039437465709800,8.174709716796874,1.0127472877502441,0.3495534360408783,0.0071826050989329815
1781039437475780600,8.184780517578124,0.9097966551780701,0.42377370595932007,-0.09816227108240128
1781039437485851400,8.194851318359374,0.6871358752250671,0.40462008118629456,0.2801215946674347
1781039437546276000,8.255276123046874,0.7565677165985107,2.190694570541382,0.9600749015808105
1781039437576488400,8.285488525390624,1.6328455209732056,1.9105730056762695,0.9409212470054626
1781039437637035500,8.346035400390624,1.941697597503662,0.3208230137825012,1.5059528350830078
1781039437717540900,8.426540771484374,2.0853497982025146,1.8770540952682495,1.479616641998291
1781039437798198800,8.50719873046875,1.357512354850769,2.5785553455352783,1.5394717454910278
1781039437848552700,8.557552734375,1.237802267074585,1.9393033981323242,1.1635819673538208
1781039437909038600,8.61803857421875,0.05985504388809204,2.2888567447662354,0.2106897532939911
1781039437989696500,8.698696533203124,-0.5482721924781799,-0.8858546018600464,-1.2210428714752197
1781039438070232600,8.779232666015625,-2.7533318996429443,0.2849099934101105,-2.5905263423919678
1781039438140728000,8.84972802734375,-1.4077905416488647,-2.2864625453948975,-3.8307228088378906
1781039438150798800,8.859798828125,-1.9800047874450684,-1.9512743949890137,-4.1156325340271
1781039438160839200,8.869839111328124,-2.011129379272461,-1.9369091987609863,-4.5609540939331055
1781039438170849000,8.87984912109375,-1.6711528301239014,-2.8562827110290527,-5.272032260894775
1781039438180950300,8.8899501953125,-1.4700398445129395,-3.8810009956359863,-6.265625953674316
1781039438201091800,8.910091796875,-0.9911994934082031,-4.132391929626465,-7.220912456512451
1781039438211162600,8.92016259765625,-0.950498104095459,-3.6296098232269287,-6.938396453857422
1781039438221264000,8.930263916015624,-0.8954314589500427,-2.892195701599121,-6.387730121612549
1781039438231365400,8.940365478515625,-1.1085153818130493,-2.1811177730560303,-5.774814605712891
1781039438241466600,8.950466552734374,-1.5729905366897583,-1.1109095811843872,-4.999093055725098
1781039438251537400,8.960537353515624,-1.9776105880737305,-0.45250412821769714,-4.383783340454102
1781039438261608200,8.970608154296874,-2.5115175247192383,0.11013327538967133,-4.261679172515869
1781039438271709400,8.98070947265625,-2.980781078338623,1.05105459690094,-3.6798880100250244
1781039438281780200,8.9907802734375,-2.8371291160583496,1.8052281141281128,-2.8371291160583496
1781039438312023300,9.021023193359374,-1.623268723487854,4.110844135284424,0.4118026793003082
1781039438322033000,9.031032958984374,-1.1468225717544556,4.422090530395508,1.3431471586227417
1781039438332134400,9.041134521484375,-0.7805097699165344,4.350264549255371,2.054224967956543
1781039438342174700,9.0511748046875,-0.6440402865409851,4.113238334655762,2.408566951751709
1781039438362346800,9.0713466796875,-0.40701428055763245,3.3925838470458984,2.22660756111145
1781039438372448000,9.081447998046874,-0.40462008118629456,2.9975404739379883,1.7717092037200928
1781039438392620000,9.1016201171875,-1.1659762859344482,2.7317841053009033,0.8978256583213806
1781039438443004700,9.152004638671874,-1.2761094570159912,2.6144683361053467,-1.05105459690094
1781039438453106000,9.16210595703125,-0.9744400978088379,2.0614075660705566,-1.7525556087493896
1781039438463207400,9.17220751953125,-0.49799394607543945,1.3694833517074585,-2.6599581241607666
1781039438473308700,9.18230859375,-0.05506663769483566,0.6033388376235962,-3.3662476539611816
1781039438483349000,9.192348876953124,0.2777273952960968,0.023942016065120697,-3.8379054069519043
1781039438493480700,9.202480712890624,0.5434837937355042,-0.4812345504760742,-4.086902141571045
1781039438503582000,9.21258203125,0.689530074596405,-0.8930372595787048,-4.1395745277404785
1781039438564159500,9.273159423828124,1.359906554222107,-2.8802247047424316,-3.4380736351013184
1781039438594494000,9.303493896484374,2.7054479122161865,-4.5154643058776855,-2.889801502227783
1781039438655071200,9.3640712890625,2.3056161403656006,-5.889736175537109,-3.426102638244629
1781039438695446000,9.404446044921874,2.806004285812378,-7.333439826965332,-3.0885202884674072
1781039438735851300,9.444851318359374,3.050212860107422,-8.7268648147583,-1.8914192914962769
1781039438745952800,9.454952880859375,3.5889084339141846,-9.131484985351562,-1.6711528301239014
1781039438756054000,9.465053955078124,3.667917013168335,-9.32302188873291,-1.4676456451416016
1781039438766155300,9.4751552734375,3.737348794937134,-9.378087997436523,-1.1468225717544556
1781039438776256500,9.485256591796874,3.514688014984131,-9.208099365234375,-0.6153098344802856
1781039438786358000,9.49535791015625,3.3710360527038574,-8.99740982055664,-0.1388636976480484
1781039438796459300,9.505459228515624,3.4093432426452637,-9.030928611755371,0.3998316824436188
1781039438806530000,9.515530029296874,3.4356794357299805,-8.911218643188477,0.9624691009521484
1781039438826763300,9.53576318359375,3.2369606494903564,-8.911218643188477,2.1954829692840576
1781039438836864500,9.545864501953124,2.9951462745666504,-8.769960403442383,2.319981336593628
1781039438846965800,9.5559658203125,2.8826189041137695,-8.712499618530273,2.0398597717285156
1781039438857006000,9.566006103515624,2.873042106628418,-8.774748802185059,2.011129379272461
1781039438867107600,9.576107666015625,2.9328970909118652,-8.793902397155762,1.647210717201233
1781039438877178400,9.586178466796875,2.96162748336792,-8.614337921142578,1.436521053314209
1781039438887249200,9.596249267578125,2.8586769104003906,-8.391676902770996,1.2713210582733154
1781039438897320000,9.60631982421875,2.6647465229034424,-8.085219383239746,1.2449848651885986
1781039438907390700,9.616390625,2.5043349266052246,-7.68538761138916,1.2856862545013428
1781039438927532300,9.6365322265625,1.8842366933822632,-6.840234279632568,1.1252747774124146
1781039438937603000,9.64660302734375,1.821987509727478,-6.617573261260986,0.8403648138046265
1781039438947704300,9.656704345703124,1.766920804977417,-6.256049156188965,0.44532153010368347
1781039438957775000,9.666775146484374,1.7812861204147339,-5.837063789367676,-0.10295066982507706
1781039438967785000,9.676784912109374,1.6735470294952393,-5.468356609344482,-0.6871358752250671
1781039438977886200,9.68688623046875,1.8770540952682495,-5.494692802429199,-1.5179238319396973
1781039438987957000,9.69695703125,2.011129379272461,-5.729324817657471,-2.367865562438965
1781039438998027800,9.70702783203125,1.920149803161621,-5.899312973022461,-3.112462282180786
1781039439008098600,9.7170986328125,1.821987509727478,-5.537788391113281,-3.138798475265503
1781039439028240400,9.737240478515625,0.8212111592292786,0,-1.4389152526855469
1781039439038311200,9.747311279296875,0.17956513166427612,2.3271639347076416,-0.7134721279144287
1781039439048382000,9.7573818359375,-0.26575639843940735,3.928884983062744,-0.26575639843940735
1781039439058452700,9.76745263671875,-0.5961562395095825,5.109226226806641,-0.3663128614425659
1781039439068554000,9.777553955078124,-0.8810662031173706,5.856217384338379,-0.3280056416988373
1781039439078624800,9.787624755859374,-1.0630255937576294,5.679046630859375,-0.1364694982767105
1781039439088695600,9.797695556640624,-0.7445967197418213,4.93923807144165,0.4429273009300232
1781039439118908000,9.827907958984374,-0.1628057211637497,2.741360902786255,1.45806884765625
1781039439129009400,9.838009521484375,0.047884032130241394,2.3989901542663574,1.5203180313110352
1781039439139080200,9.848080078125,0.11013327538967133,2.0470423698425293,1.3096283674240112
1781039439149151000,9.85815087890625,0.16998831927776337,1.6184803247451782,0.7829039692878723
1781039439159221800,9.8682216796875,0,1.3838485479354858,0.2801215946674347
1781039439169292500,9.87829248046875,-0.15083470940589905,0.8331822156906128,-0.038307227194309235
1781039439179332900,9.888332763671874,-0.19153612852096558,0.45250412821769714,-0.1149216815829277
1781039439189403600,9.898403564453124,-0.028730420395731926,-0.0454898327589035,-0.15562310814857483
1781039439199505000,9.9085048828125,0.2513911724090576,-0.5339069962501526,-0.2059013396501541
1781039439209606100,9.918606201171874,0.6560112833976746,-0.9696516990661621,-0.4644751250743866
1781039439270092000,9.979092041015624,0.6392518281936646,-1.3862427473068237,0.23942017555236816
1781039439280162800,9.989162841796874,0.6631938815116882,-1.800439715385437,0.4165911078453064
1781039439290233600,9.999233642578124,0.6416460275650024,-2.011129379272461,0.5051765441894531
1781039439300304400,10.009304443359374,0.5937620401382446,-2.075772762298584,0.5889736413955688
1781039439310375200,10.019375244140624,0.5051765441894531,-2.0374655723571777,0.6392518281936646
1781039439320446200,10.0294462890625,0.31603461503982544,-1.9800047874450684,0.7541735172271729
1781039439360729300,10.069729248046874,0.181959331035614,-1.9584569931030273,0.8212111592292786
1781039439370800000,10.079800048828124,0.24660277366638184,-2.1068975925445557,0.9313444495201111
1781039439421154000,10.130154052734374,0.7182605266571045,-2.190694570541382,1.7477672100067139
1781039439431224800,10.140224853515624,0.8092401623725891,-2.298433542251587,1.7884687185287476
1781039439441326300,10.150326416015625,0.7661445140838623,-2.3487119674682617,1.5921441316604614
1781039439451397000,10.160397216796875,0.6344634294509888,-2.4420857429504395,1.3407529592514038
1781039439461498400,10.170498291015624,0.5339069962501526,-2.6623523235321045,1.0295066833496094
1781039439471569200,10.180569091796874,0.45489832758903503,-2.978386878967285,0.8738836050033569
1781039439481640000,10.190639892578124,0.6224924325942993,-3.488351821899414,0.40462008118629456
1781039439491710700,10.200710693359374,0.6512228846549988,-3.840299606323242,-0.12689268589019775
1781039439501781500,10.210781494140624,0.646434485912323,-4.0533833503723145,-0.8930372595787048
1781039439511882800,10.2208828125,0.5171475410461426,-4.434061527252197,-1.5753847360610962
1781039439531993900,10.240993896484374,-0.026336219161748886,-4.855441093444824,-2.7485435009002686
1781039439552105000,10.26110498046875,-0.3663128614425659,-4.534617900848389,-3.3303346633911133
1781039439562175700,10.27117578125,-0.31603461503982544,-4.264073371887207,-3.581725835800171
1781039439572246500,10.28124658203125,-0.19632454216480255,-4.563348293304443,-3.5889084339141846
1781039439582317300,10.2913173828125,-0.12449848651885986,-5.018246650695801,-3.6607344150543213
1781039439592418800,10.301418701171874,0.002394201699644327,-5.185841083526611,-3.758896589279175
1781039439602489600,10.311489501953124,0.17238251864910126,-5.513846397399902,-4.156333923339844
1781039439612560400,10.321560302734374,-0.1412578970193863,-6.050147533416748,-4.455609321594238
1781039439622631200,10.331631103515624,-0.2513911724090576,-5.801150798797607,-4.790797710418701
1781039439632732400,10.341732421875,-0.06224924325942993,-5.329493045806885,-4.78122091293335
1781039439642772700,10.351772705078124,0.19871874153614044,-4.812345504760742,-4.759673118591309
1781039439652843500,10.361843505859374,0.4213795065879822,-4.4939165115356445,-4.659116744995117
1781039439662944800,10.37194482421875,0.646434485912323,-4.558559894561768,-4.637568473815918
1781039439673015600,10.382015625,0.6177040338516235,-4.929661273956299,-4.7405195236206055
1781039439683055900,10.392055908203124,0.4213795065879822,-5.03021764755249,-4.896142482757568
1781039439693126700,10.402126708984374,0.17956513166427612,-5.006275653839111,-5.197812080383301
1781039439703197400,10.412197509765624,-0.2513911724090576,-4.821922302246094,-5.700594425201416
1781039439713207300,10.422207275390624,-0.5889736413955688,-4.572925090789795,-6.078877925872803
1781039439723278000,10.432278076171874,-0.646434485912323,-4.350264549255371,-6.540958881378174
1781039439733348900,10.442348876953124,-0.8906430602073669,-3.9671921730041504,-6.950367450714111
1781039439743450000,10.4524501953125,-1.0199298858642578,-3.622427225112915,-7.3454108238220215
1781039439753551600,10.462551513671874,-0.9840168952941895,-3.44765043258667,-7.726089000701904
1781039439763592000,10.472592041015625,-1.3215993642807007,-3.442862033843994,-8.147468566894531
1781039439773693200,10.482693115234374,-1.5705963373184204,-3.294421434402466,-8.135497093200684
1781039439783764000,10.492763916015624,-1.7956513166427612,-3.157952070236206,-7.864952564239502
1781039439793865200,10.502865234375,-2.205059766769409,-2.911349296569824,-7.673416614532471
1781039439803905500,10.512905517578124,-2.564189910888672,-2.535459518432617,-7.824251174926758
1781039439824077600,10.53307763671875,-3.5889084339141846,-2.0638017654418945,-8.279149055480957
1781039439834148400,10.5431484375,-3.9695863723754883,-2.0925323963165283,-8.358158111572266
1781039439844188700,10.553188720703124,-3.5889084339141846,-1.0989385843276978,-7.814674377441406
1781039439934887000,10.643886962890624,-4.323928356170654,1.0103530883789062,-5.7556610107421875
1781039439944957700,10.653957763671874,-3.845088005065918,1.070208191871643,-5.595249176025391
1781039439965130000,10.6741298828125,-3.464409828186035,1.3503297567367554,-5.583278179168701
1781039439985302000,10.694302001953124,-3.912125587463379,0.6224924325942993,-5.853823184967041
1781039439995372800,10.704372802734374,-4.359841346740723,0.5746083855628967,-6.030993938446045
1781039440005443600,10.714443603515624,-4.728548526763916,0.6751648783683777,-6.119579315185547
1781039440015514400,10.724514404296874,-4.874594688415527,0.7972691655158997,-6.086060523986816
1781039440035656000,10.744656005859374,-4.54419469833374,0.24660277366638184,-5.892130374908447
1781039440045726700,10.754726806640624,-4.292803764343262,-0.3280056416988373,-5.473145008087158
1781039440055797800,10.7647978515625,-4.065354347229004,-0.8810662031173706,-4.910507678985596
1781039440065899000,10.77489892578125,-3.998316764831543,-1.4532804489135742,-4.446032524108887
1781039440086071000,10.795071044921874,-3.339911460876465,-2.6384103298187256,-3.7397429943084717
1781039440096141800,10.805141845703124,-2.8874073028564453,-2.1715409755706787,-3.5745432376861572
1781039440186779100,10.895779052734374,0.5506663918495178,-4.32871675491333,-2.940079689025879
1781039440267345400,10.976345458984374,2.2601263523101807,-4.252102375030518,-1.460463047027588
1781039440277416200,10.986416259765624,2.140416383743286,-4.034229755401611,-1.3862427473068237
1781039440287487000,10.996487060546874,1.9847931861877441,-3.9217023849487305,-1.381454348564148
1781039440297558000,11.00655810546875,1.9943699836730957,-3.5960910320281982,-1.3431471586227417
1781039440317699600,11.026699462890624,2.2625205516815186,-2.674323320388794,-1.2952631711959839
1781039440327770400,11.036770263671874,1.9584569931030273,-2.5258827209472656,-0.9840168952941895
1781039440337841200,11.046841064453124,1.3934253454208374,-2.3942017555236816,-0.7445967197418213
1781039440347942400,11.0569423828125,1.2617442607879639,-1.9823989868164062,-0.2537853717803955
1781039440358013200,11.06701318359375,1.1420341730117798,-1.4676456451416016,0.21547815203666687
1781039440368084000,11.077083984375,0.7781155705451965,-0.8882488012313843,0.6727706789970398
1781039440378154800,11.08715478515625,0.4692635238170624,-0.4213795065879822,0.9888052940368652
1781039440388225500,11.0972255859375,0.24420857429504395,0.07900865375995636,1.2761094570159912
1781039440398327000,11.1073271484375,0.33279404044151306,0.3256114423274994,1.1971008777618408
1781039440408428300,11.11742822265625,0.6967126727104187,0.2082955539226532,1.2282254695892334
1781039440418499000,11.1274990234375,1.3000515699386597,-0.2777273952960968,1.2665326595306396
1781039440489147100,11.198147216796874,-0.24660277366638184,1.2665326595306396,1.6759412288665771
1781039440529430500,11.238430419921874,0.9672574996948242,0.4165911078453064,2.1739351749420166
1781039440539531800,11.24853173828125,0.9193734526634216,0.026336219161748886,2.9065608978271484
1781039440549633000,11.258633056640624,0.8475474119186401,0.15083470940589905,3.1292216777801514
1781039440559734500,11.268734619140625,0.6440402865409851,0.5889736413955688,3.35667085647583
1781039440569805300,11.278805419921875,0.6153098344802856,1.3215993642807007,3.2968156337738037
1781039440579876000,11.2888759765625,0.6775590777397156,1.8411411046981812,3.0190882682800293
1781039440589977300,11.298977294921874,0.6919242739677429,2.274491548538208,2.8562827110290527
1781039440600078600,11.30907861328125,0.9026140570640564,2.387019157409668,2.8826189041137695
1781039440610180000,11.31918017578125,0.9457096457481384,2.032677173614502,3.1747114658355713
1781039440630382600,11.339382568359374,1.4437036514282227,1.2306196689605713,3.466804027557373
1781039440640483800,11.34948388671875,1.721431016921997,0.9648633003234863,2.956839084625244
1781039440701091800,11.410091796875,0.3734954595565796,2.097320795059204,3.442862033843994
1781039440711193000,11.420193115234374,0.31603461503982544,2.2625205516815186,3.488351821899414
1781039440721263900,11.430263916015624,0.524330198764801,2.250549554824829,3.1699230670928955
1781039440731395800,11.440395751953124,0.5195417404174805,2.123656988143921,2.853888511657715
1781039440761669000,11.470669189453124,0.7637503147125244,2.542642116546631,2.0207061767578125
1781039440771770600,11.4807705078125,0.7996633648872375,2.3511061668395996,1.766920804977417
1781039440781871900,11.490871826171874,0.8020575642585754,2.008735179901123,1.5634137392044067
1781039440791973000,11.50097314453125,0.706289529800415,1.7860745191574097,1.5969325304031372
1781039440802044000,11.5110439453125,0.4836287498474121,1.656787633895874,1.7046716213226318
1781039440812145400,11.5211455078125,0.3471592366695404,1.4987702369689941,1.721431016921997
1781039440832378400,11.54137841796875,0.1364694982767105,0.9600749015808105,1.8411411046981812
1781039440842449200,11.55144921875,0.08619125932455063,0.7613561153411865,1.9512743949890137
1781039440852550700,11.561550537109374,-0.11013327538967133,0.871489405632019,2.1787235736846924
1781039440862652000,11.57165185546875,-0.2298433631658554,1.2186486721038818,2.343923568725586
1781039440872722700,11.58172265625,-0.1867477297782898,1.4269442558288574,2.1954829692840576
1781039440882824000,11.591823974609374,-0.19871874153614044,1.6759412288665771,2.1595699787139893
1781039440892925400,11.601925537109375,-0.011971008032560349,1.7764976024627686,2.2170307636260986
1781039440913128000,11.6221279296875,-0.07182604819536209,2.3056161403656006,2.1954829692840576
1781039440963604000,11.67260400390625,-0.9696516990661621,4.120420932769775,1.280897855758667
1781039440973736000,11.68273583984375,-0.871489405632019,3.955221176147461,1.3024457693099976
1781039440983837200,11.692837158203124,-0.8044517636299133,3.883395195007324,0.9600749015808105
1781039440993938400,11.7029384765625,-0.6943184733390808,3.514688014984131,0.6416460275650024
1781039441003948300,11.7129482421875,-0.768538773059845,2.3558945655822754,0.11013327538967133
1781039441014049500,11.723049560546874,-0.8331822156906128,1.1803414821624756,-0.1173158809542656
1781039441024120300,11.733120361328124,-0.7038952708244324,-0.026336219161748886,-0.15801730751991272
1781039441104839400,11.81383935546875,-2.0254945755004883,-2.3965959548950195,-3.3925838470458984
1781039441114910200,11.82391015625,-2.0590133666992188,-3.047818660736084,-3.7158010005950928
1781039441124981000,11.83398095703125,-2.1571757793426514,-3.6152446269989014,-4.10366153717041
1781039441135051800,11.8440517578125,-2.300827741622925,-3.8498764038085938,-4.73573112487793
1781039441145122600,11.85412255859375,-2.6599581241607666,-3.691859006881714,-4.941632270812988
1781039441155223800,11.864223876953124,-3.095702886581421,-3.1531636714935303,-4.60165548324585
1781039441165294600,11.874294677734374,-3.2393548488616943,-2.8371291160583496,-4.304774761199951
1781039441175335000,11.8843349609375,-3.5242648124694824,-2.4444799423217773,-4.120420932769775
1781039441205516800,11.914516845703124,-2.1571757793426514,-1.316810965538025,-4.886565685272217
1781039441215618300,11.924618408203125,-1.7932571172714233,-1.115697979927063,-5.0876784324646
1781039441225719600,11.934719482421874,-1.6424223184585571,-1.1683704853057861,-5.190629482269287
1781039441235790300,11.944790283203124,-1.6208745241165161,-0.9481038451194763,-5.22175407409668
1781039441245861000,11.954861083984374,-1.7597382068634033,-0.6703764796257019,-5.197812080383301
1781039441255901400,11.9649013671875,-1.9105730056762695,0.016759412363171577,-4.9799394607543945
1781039441266002700,11.975002685546874,-2.22660756111145,0.8092401623725891,-4.920084476470947
1781039441276073500,11.985073486328124,-2.6647465229034424,1.599326729774475,-4.8602294921875
1781039441286113800,11.99511376953125,-2.964021682739258,1.9991583824157715,-4.874594688415527
1781039441366771700,12.075771728515624,-3.7205893993377686,0.6224924325942993,-5.590460777282715
1781039441386913300,12.095913330078124,-4.7189717292785645,1.9584569931030273,-5.1810526847839355
1781039441427257600,12.136257568359374,-4.23773717880249,2.717418909072876,-5.669469833374023
1781039441437267500,12.146267333984374,-3.797203779220581,2.2649147510528564,-5.602431774139404
1781039441487621400,12.196621337890624,-2.985569477081299,0.8140285611152649,-2.2864625453948975
1781039441517864200,12.2268642578125,-2.7006595134735107,0.8619126081466675,-2.011129379272461
1781039441548137700,12.2571376953125,-1.9273324012756348,-0.5051765441894531,-2.8179752826690674
1781039441558208500,12.26720849609375,-1.5394717454910278,-1.036689281463623,-3.339911460876465
1781039441588482000,12.29748193359375,-0.49799394607543945,-3.045424461364746,-4.060565948486328
1781039441628856800,12.33785693359375,0.5793967843055725,-3.9839515686035156,-4.098873138427734
1781039441648998400,12.357998291015624,0.42377370595932007,-3.8283286094665527,-5.099649429321289
1781039441659069200,12.368069091796874,0.33279404044151306,-3.93367338180542,-5.521028995513916
1781039441669140000,12.378139892578124,0.4118026793003082,-4.4508209228515625,-5.758055210113525
1781039441679210800,12.388210693359374,0.8236053586006165,-5.078101634979248,-5.743690013885498
1781039441689281500,12.398281494140624,1.1516109704971313,-5.815515995025635,-5.442020416259766
1781039441699352300,12.408352294921874,1.45806884765625,-6.471527099609375,-4.98472785949707
1781039441709423000,12.418423095703124,1.6615760326385498,-6.912060260772705,-4.548983097076416
1781039441729564700,12.438564697265624,2.0398597717285156,-7.331045627593994,-3.8738183975219727
1781039441739605000,12.44860498046875,2.011129379272461,-7.247248649597168,-3.4308910369873047
1781039441749706200,12.458706298828124,2.0829553604125977,-7.084442615509033,-3.0119056701660156
1781039441759777000,12.468777099609374,2.2625205516815186,-7.000645637512207,-2.669534921646118
1781039441769878500,12.47887841796875,2.3127987384796143,-6.938396453857422,-2.31758713722229
1781039441779918800,12.4889189453125,2.63362193107605,-7.048529624938965,-1.920149803161621
1781039441790020000,12.49902001953125,2.9089550971984863,-7.206547260284424,-1.8171991109848022
1781039441799999200,12.508999267578124,3.0573954582214355,-7.3669586181640625,-1.764526605606079
1781039441810070000,12.519070068359374,3.1651346683502197,-7.572859764099121,-1.7980455160140991
1781039441850353400,12.559353515625,2.674323320388794,-8.159439086914062,-0.7565677165985107
1781039441860424200,12.569424072265624,2.650381326675415,-8.334216117858887,-0.45489832758903503
1781039441890606000,12.599606201171875,3.1723172664642334,-8.820239067077637,0.768538773059845
1781039441900676900,12.6096767578125,3.3662476539611816,-9.01895809173584,1.0319008827209473
1781039441910717200,12.61971728515625,3.5960910320281982,-9.10993766784668,1.2689268589019775
1781039441920726800,12.629726806640624,3.4787750244140625,-9.277531623840332,1.4460978507995605
1781039441930828300,12.639828369140625,3.335123062133789,-9.17936897277832,1.4197616577148438
1781039441940899000,12.649899169921875,3.0621838569641113,-9.08838939666748,1.357512354850769
1781039441950969900,12.659969970703125,2.8203697204589844,-9.02135181427002,1.3479355573654175
1781039441960979500,12.6699794921875,2.540247917175293,-8.990227699279785,1.4508862495422363
1781039441981151700,12.69015185546875,2.322375535964966,-9.162610054016113,2.188300371170044
1781039441991222500,12.700222412109374,2.27209734916687,-9.157821655273438,2.454056739807129
1781039442011364000,12.720364013671874,2.1954829692840576,-9.050082206726074,2.5546131134033203
1781039442021404400,12.730404296875,2.1595699787139893,-8.793902397155762,2.38462495803833
1781039442031475200,12.74047509765625,2.030282974243164,-8.425195693969727,2.126051187515259
1781039442041546000,12.7505458984375,1.9560627937316895,-8.02536392211914,1.7573440074920654
1781039442051647200,12.760647216796874,1.7764976024627686,-7.582436561584473,1.4987702369689941
1781039442071758300,12.78075830078125,1.3551181554794312,-6.624756336212158,1.1109095811843872
1781039442081798700,12.790798583984374,1.256955862045288,-6.117185115814209,0.8188169598579407
1781039442091900000,12.80089990234375,1.1180921792984009,-5.758055210113525,0.5267243981361389
1781039442101970700,12.810970703125,1.091755986213684,-5.5114521980285645,0.1843535304069519
1781039442122112300,12.8311123046875,1.192312479019165,-5.135562419891357,-0.16519992053508759
1781039442132152600,12.841152587890624,1.0821791887283325,-4.867412090301514,-0.40940847992897034
1781039442142253800,12.85125390625,1.0007762908935547,-4.491522312164307,-0.507570743560791
1781039442152294100,12.861294189453124,0.8595184087753296,-4.089296340942383,-0.6727706789970398
1781039442162395600,12.871395751953125,0.7589619159698486,-3.6367924213409424,-0.8906430602073669
1781039442212749600,12.92174951171875,0.33039984107017517,-1.525106430053711,-2.3774423599243164
1781039442222850800,12.931850830078124,0.15322890877723694,-0.8786720037460327,-2.631227731704712
1781039442293407500,13.002407470703124,-0.7445967197418213,1.9991583824157715,-4.338293552398682
1781039442394115600,13.103115478515624,-0.49799394607543945,3.7445313930511475,1.50355863571167
1781039442404186400,13.113186279296874,-0.05267243832349777,3.404554843902588,1.9536685943603516
1781039442434490400,13.143490478515625,0.9864110946655273,2.367865562438965,1.8052281141281128
1781039442464702700,13.17370263671875,0.1388636976480484,2.298433542251587,1.1635819673538208
1781039442555431400,13.264431396484374,1.479616641998291,-1.6903064250946045,0.05746084079146385
1781039442595745300,13.304745361328125,3.0837318897247314,-7.637503623962402,-0.9217676520347595
1781039442615947800,13.32494775390625,2.75812029838562,-6.418854713439941,0.033518824726343155
1781039442626018600,13.3350185546875,2.492363929748535,-5.513846397399902,0.24181437492370605
1781039442636119800,13.345119873046874,2.2649147510528564,-4.90571928024292,0.38546648621559143
1781039442646221300,13.35522119140625,2.2409727573394775,-4.460397720336914,0.26336219906806946
1781039442656322600,13.365322509765624,2.6408045291900635,-4.280832767486572,-0.09576806426048279
1781039442666423800,13.375423828125,2.7246015071868896,-4.1395745277404785,-0.38546648621559143
1781039442676494600,13.38549462890625,2.829946517944336,-4.003105163574219,-0.4572925269603729
1781039442686535000,13.395534912109374,2.6240451335906982,-4.314351558685303,-0.4812345504760742
1781039442696636200,13.40563623046875,2.229001760482788,-4.623203277587891,-0.5793967843055725
1781039442706707000,13.41570703125,1.824381709098816,-4.745307922363281,-0.6655880808830261
1781039442747051300,13.45605126953125,1.1540051698684692,-3.663128614425659,-1.0247182846069336
1781039442767254000,13.47625390625,0.7374141216278076,-2.980781078338623,-1.8555063009262085
1781039442777385700,13.4863857421875,0.23942017555236816,-2.8658595085144043,-2.4396915435791016
1781039442787487000,13.496487060546874,-0.37828385829925537,-2.3798365592956543,-2.7269957065582275
1781039442797588500,13.50658837890625,-0.8188169598579407,-1.5729905366897583,-2.8443117141723633
1781039442807689700,13.516689697265624,-1.5634137392044067,-0.7924807667732239,-2.7916390895843506
1781039442827892500,13.536892578125,-2.7676970958709717,0.090979665517807,-1.9943699836730957
1781039442837993700,13.54699365234375,-2.5330653190612793,0.35673606395721436,-0.828393816947937
1781039442848095000,13.557094970703124,-1.8411411046981812,0.608127236366272,-0.8619126081466675
1781039442858196200,13.5671962890625,-1.8411411046981812,0.7876923680305481,-0.8427590131759644
1781039442868328200,13.577328125,-1.6328455209732056,1.381454348564148,-0.7110779285430908
1781039442878429400,13.587429443359374,-1.5873557329177856,2.27209734916687,-0.5291185975074768
1781039442888530700,13.59753076171875,-1.9297266006469727,3.0813376903533936,-0.45489832758903503
1781039442898632200,13.607632080078124,-2.296039342880249,3.8115692138671875,-0.3926490843296051
1781039442908733400,13.6177333984375,-2.8203697204589844,4.357447147369385,-0.4884171485900879
1781039442918834700,13.627834716796874,-3.1675288677215576,4.5825018882751465,-0.49799394607543945
1781039442928936200,13.637936279296875,-3.399766445159912,4.2951979637146,-0.7326257228851318
1781039442939037400,13.648037353515624,-3.6080620288848877,3.885789394378662,-1.1635819673538208
1781039442949138700,13.658138671875,-3.6798880100250244,3.646369218826294,-1.5466543436050415
1781039442959270700,13.668270751953125,-3.909731388092041,3.4739866256713867,-1.8962076902389526
1781039442969310700,13.678310791015624,-3.823540210723877,3.3039982318878174,-2.0901381969451904
1781039442979412200,13.688412109375,-3.7876269817352295,3.050212860107422,-2.1356279850006104
1781039442989513500,13.698513427734374,-3.9671921730041504,2.765302896499634,-1.8148049116134644
1781039443009655000,13.718655029296874,-4.180276393890381,2.5953147411346436,-1.0127472877502441
1781039443019756300,13.72875634765625,-3.993528366088867,2.4372973442077637,-0.5363011956214905
1781039443039928600,13.748928466796874,-3.7828385829925537,1.7334020137786865,-0.4357447028160095
1781039443050060300,13.759060302734374,-3.6798880100250244,1.436521053314209,-0.5171475410461426
1781039443070263000,13.779262939453124,-3.2345664501190186,0.8236053586006165,-0.3878606855869293
1781039443080333800,13.789333740234374,-2.691082715988159,0.2777273952960968,-0.13407529890537262
1781039443090465500,13.799465576171874,-2.2026655673980713,-0.6272808313369751,-0.3734954595565796
1781039443141002800,13.850002685546874,-0.7182605266571045,0.24181437492370605,-1.764526605606079
1781039443181377500,13.89037744140625,-1.6041151285171509,-0.004788403399288654,-0.7613561153411865
1781039443201519000,13.91051904296875,-1.534683346748352,-0.2106897532939911,-0.035913024097681046
1781039443211590000,13.92058984375,-1.4053963422775269,0.07422025501728058,-0.1628057211637497
1781039443221630200,13.930630126953124,-1.4437036514282227,0.4429273009300232,-0.35913026332855225
1781039443231701000,13.940700927734374,-1.41257905960083,0.2777273952960968,-0.35434186458587646
1781039443241802200,13.95080224609375,-0.8379706144332886,-0.05267243832349777,-0.4644751250743866
1781039443261913300,13.970913330078124,-0.20350714027881622,-0.7924807667732239,0.1412578970193863
1781039443271984000,13.980984130859374,0.24181437492370605,-1.3072341680526733,0.1628057211637497
1781039443282024400,13.9910244140625,0.33758243918418884,-1.7812861204147339,0.10773907601833344
1781039443322338000,14.031338134765624,0.1843535304069519,-1.05105459690094,0.545877993106842
1781039443372692200,14.081692138671874,-0.019153613597154617,0.28969839215278625,0.9888052940368652
1781039443413005800,14.122005859375,0.5626373887062073,0.8523358106613159,1.335964560508728
1781039443473491700,14.18249169921875,1.1061211824417114,0.5793967843055725,1.8962076902389526
1781039443513744400,14.222744384765624,1.070208191871643,0.9097966551780701,1.8363527059555054
1781039443594311000,14.303310791015624,1.3910311460494995,1.5490485429763794,1.316810965538025
1781039443664806400,14.373806396484374,1.5969325304031372,1.0271124839782715,2.008735179901123
1781039443745373000,14.454373046875,0.7661445140838623,1.37906014919281,2.8131868839263916
1781039443795787800,14.504787841796874,0.5674257874488831,2.1763293743133545,2.049436569213867
1781039443805889300,14.51488916015625,0.5722141861915588,1.98958158493042,2.1068975925445557
1781039443846203000,14.555202880859374,0.40701428055763245,2.0254945755004883,1.5442601442337036
1781039443856304000,14.56530419921875,0.2537853717803955,2.360682964324951,1.5322890281677246
1781039443866375000,14.575375,0.15801730751991272,2.7078421115875244,1.4317326545715332
1781039443886516700,14.595516845703125,-0.1149216815829277,3.294421434402466,1.1013327836990356
1781039443896618000,14.605617919921874,-0.2059013396501541,3.3279404640197754,0.9816226959228516
1781039443906719200,14.61571923828125,-0.4357447028160095,3.404554843902588,0.8403648138046265
1781039443916820500,14.625820556640624,-0.6560112833976746,3.442862033843994,0.8188169598579407
1781039443926891500,14.6358916015625,-0.9528923034667969,3.6343982219696045,0.8212111592292786
1781039443936962300,14.64596240234375,-1.256955862045288,3.797203779220581,0.586579442024231
1781039444007549400,14.716549560546875,-1.5682021379470825,0.6919242739677429,-1.4484920501708984
1781039444068035000,14.77703515625,-2.097320795059204,0.3663128614425659,-5.078101634979248
1781039444078106000,14.787106201171875,-2.2385785579681396,-1.889025092124939,-5.726930618286133
1781039444088207400,14.797207275390624,-2.1811177730560303,-3.821146011352539,-5.810727596282959
1781039444098278100,14.807278076171874,-1.6711528301239014,-4.369418144226074,-5.633556365966797
1781039444108349000,14.817348876953124,-1.3670891523361206,-3.9025487899780273,-5.262455463409424
1781039444118389200,14.82738916015625,-1.1109095811843872,-3.0837318897247314,-4.534617900848389
1781039444128460000,14.8374599609375,-0.8427590131759644,-2.557007312774658,-4.177882194519043
1781039444138530800,14.84753076171875,-0.9026140570640564,-2.073378562927246,-4.062960147857666
1781039444148601600,14.8576015625,-1.070208191871643,-1.7860745191574097,-4.412513732910156
1781039444158611500,14.867611572265625,-1.1468225717544556,-2.099714994430542,-5.1595048904418945
1781039444168712700,14.877712646484374,-2.099714994430542,-2.4636335372924805,-5.784391403198242
1781039444178783500,14.887783447265624,-2.477998733520508,-2.978386878967285,-6.600813865661621
1781039444188854300,14.897854248046874,-2.7557260990142822,-4.10366153717041,-7.326257228851318
1781039444198894600,14.90789453125,-2.806004285812378,-4.841075897216797,-7.795520782470703
1781039444208995800,14.917995849609374,-2.741360902786255,-4.3406877517700195,-8.154650688171387
1781039444219066600,14.928066650390624,-2.5234885215759277,-3.093308687210083,-8.214506149291992
1781039444299724500,15.008724609375,-0.8882488012313843,0.5171475410461426,-3.5266590118408203
1781039444319866400,15.028866455078125,-0.6991068720817566,1.2449848651885986,-1.7094600200653076
1781039444380321500,15.089321533203124,0.3663128614425659,1.5059528350830078,2.051830768585205
1781039444420635400,15.129635498046875,1.1994950771331787,1.0582371950149536,1.1228805780410767
1781039444440715800,15.1497158203125,-0.15322890877723694,1.216254472732544,0.6823474764823914
1781039444460918500,15.16991845703125,-0.4572925269603729,0.7637503147125244,0.4429273009300232
1781039444491161300,15.200161376953124,0.5147533416748047,-0.9768342971801758,-0.5434837937355042
1781039444501232000,15.210232177734374,0.8259995579719543,-1.403002142906189,-1.3431471586227417
1781039444521373700,15.230373779296874,-0.14365209639072418,-1.6879122257232666,-3.9887399673461914
1781039444531414000,15.2404140625,-0.0694318488240242,-2.1356279850006104,-4.402936935424805
1781039444541484800,15.25048486328125,0.3902548849582672,-2.7269957065582275,-4.443638324737549
1781039444551586300,15.26058642578125,0.8738836050033569,-3.6583402156829834,-4.091690540313721
1781039444561687600,15.2706875,1.7334020137786865,-4.532223701477051,-3.708618402481079
1781039444571758300,15.28075830078125,2.2649147510528564,-5.219359874725342,-3.0119056701660156
1781039444581829000,15.2908291015625,2.43011474609375,-5.56173038482666,-2.427720546722412
1781039444591930400,15.300930419921874,2.497152328491211,-5.556941986083984,-2.1739351749420166
1781039444602031900,15.311031982421875,2.3247697353363037,-5.377377033233643,-1.987187385559082
1781039444632244200,15.341244140625,1.8411411046981812,-4.960785865783691,-1.8746598958969116
1781039444642345500,15.351345458984374,1.9488801956176758,-5.099649429321289,-1.802833914756775
1781039444652416300,15.361416259765624,1.6759412288665771,-5.114014625549316,-1.53707754611969
1781039444662517500,15.371517578125,1.4077905416488647,-4.98472785949707,-1.3287819623947144
1781039444672619000,15.381618896484374,1.1971008777618408,-4.857835292816162,-1.2521674633026123
1781039444722973000,15.431972900390624,1.5897499322891235,-5.884947776794434,-1.400607943534851
1781039444753246500,15.46224658203125,2.126051187515259,-6.423643112182617,-0.38546648621559143
1781039444763347700,15.47234765625,2.300827741622925,-6.562506675720215,-0.004788403399288654
1781039444773449000,15.482448974609374,2.6791117191314697,-6.744466304779053,0.29209262132644653
1781039444793651700,15.502651611328124,2.5522189140319824,-6.744466304779053,0.828393816947937
1781039444803753000,15.5127529296875,2.5234885215759277,-6.936002254486084,1.0342950820922852
1781039444854137600,15.5631376953125,2.959233283996582,-7.2352776527404785,1.3862427473068237
1781039444914623200,15.623623291015624,2.609679937362671,-7.115567684173584,-0.38307225704193115
1781039444924694000,15.633694091796874,2.9257144927978516,-7.182605266571045,-1.0031704902648926
1781039444944896800,15.653896728515624,3.00711727142334,-6.167463779449463,-1.2018892765045166
1781039444954998000,15.663998046875,2.9712042808532715,-5.099649429321289,-0.7086837291717529
1781039444985271600,15.694271484375,1.7357962131500244,-1.0558429956436157,1.37906014919281
1781039444995342300,15.70434228515625,1.50355863571167,-0.09576806426048279,1.6711528301239014
1781039445005443600,15.714443603515624,1.4413094520568848,0.40462008118629456,1.7836803197860718
1781039445015544800,15.724544921875,1.0295066833496094,0.7158663272857666,1.821987509727478
1781039445035747600,15.74474755859375,0.6344634294509888,1.170764684677124,2.190694570541382
1781039445086284800,15.795284912109375,0.9265560507774353,0.14604631066322327,2.7700912952423096
1781039445106456800,15.815456787109374,1.0462661981582642,-0.9481038451194763,2.425326347351074
1781039445126690000,15.83568994140625,1.0797849893569946,-1.7741034030914307,2.7676970958709717
1781039445197429800,15.9064296875,1.6208745241165161,-5.477933406829834,0.17477671802043915
1781039445247936300,15.956936279296874,1.259350061416626,-7.8745293617248535,-1.922544002532959
1781039445268169500,15.97716943359375,0.6967126727104187,-6.89530086517334,-3.485957622528076
1781039445288372200,15.997372314453125,0.3447650372982025,-6.023811340332031,-4.331110954284668
1781039445318645500,16.0276455078125,0.05746084079146385,-4.568136692047119,-3.663128614425659
1781039445328777500,16.037777587890623,0.06703764945268631,-4.620809078216553,-3.5625722408294678
1781039445338848300,16.04784814453125,0.033518824726343155,-4.932055473327637,-3.5913026332855225
1781039445348980000,16.05797998046875,0.016759412363171577,-4.975151062011719,-3.397372245788574
1781039445359081200,16.068081298828126,-0.12449848651885986,-4.618414878845215,-3.3039982318878174
1781039445369243600,16.07824365234375,-0.2944868206977844,-4.280832767486572,-3.4356794357299805
1781039445379345000,16.088344970703126,-0.6440402865409851,-3.93367338180542,-3.773261785507202
1781039445389476900,16.098476806640626,-1.0869675874710083,-3.603273630142212,-4.292803764343262
1781039445399608600,16.108608642578126,-1.678335428237915,-3.335123062133789,-4.733336925506592
1781039445460216600,16.169216552734376,-2.607285737991333,-3.9671921730041504,-6.687005519866943
1781039445510814700,16.219814697265626,-2.4851813316345215,-2.1045033931732178,-5.195417881011963
1781039445520885500,16.229885498046876,-2.3702597618103027,-1.889025092124939,-5.008669853210449
1781039445551250400,16.26025048828125,-2.583343744277954,-2.0207061767578125,-4.6471452713012695
1781039445571483600,16.280483642578126,-2.8131868839263916,-0.36152446269989014,-4.24970817565918
1781039445642101200,16.351101318359376,-2.7916390895843506,0.2944868206977844,-2.3558945655822754
1781039445652172000,16.361172119140626,-2.3343467712402344,0.9528923034667969,-1.702277421951294
1781039445722728700,16.431728759765626,-3.2537200450897217,3.071760892868042,-2.013523578643799
1781039445732799500,16.441799560546876,-3.5410242080688477,3.2609026432037354,-1.5945383310317993
1781039445742839800,16.45183984375,-3.7277719974517822,3.4093432426452637,-1.4413094520568848
1781039445752910600,16.46191064453125,-3.8355112075805664,3.5697548389434814,-1.4724340438842773
1781039445762981400,16.4719814453125,-3.8570590019226074,3.4141316413879395,-1.6759412288665771
1781039445773052200,16.48205224609375,-3.909731388092041,3.555389642715454,-1.9273324012756348
1781039445783123200,16.492123291015623,-3.9384617805480957,4.048594951629639,-2.0805611610412598
1781039445793194000,16.502194091796873,-4.185064792633057,4.458003520965576,-1.824381709098816
1781039445803203600,16.51220361328125,-4.177882194519043,4.458003520965576,-1.5466543436050415
1781039445813274400,16.5222744140625,-4.077325344085693,4.086902141571045,-1.3670891523361206
1781039445843548000,16.5525478515625,-2.5498247146606445,4.223371982574463,-1.656787633895874
1781039445863689500,16.572689453125,-3.064578056335449,5.044582843780518,-1.8267759084701538
1781039445873790700,16.582790771484376,-3.9647979736328125,5.142745018005371,-1.644816517829895
1781039445883892200,16.592892333984373,-4.563348293304443,5.525817394256592,-1.3024457693099976
1781039445893993500,16.602993408203126,-4.776432514190674,5.705382823944092,-1.0055646896362305
1781039445904064300,16.613064208984376,-4.829104900360107,5.389348030090332,-0.7781155705451965
1781039445914104600,16.6231044921875,-4.54419469833374,4.750096321105957,-0.8212111592292786
1781039445924145000,16.633144775390626,-4.173093795776367,4.326322555541992,-0.9672574996948242
1781039445934215700,16.643215576171876,-3.713406801223755,3.584120035171509,-1.0869675874710083
1781039445984569600,16.693569580078126,-3.045424461364746,0.3519476354122162,1.0606313943862915
1781039446004741600,16.71374169921875,-1.0869675874710083,-1.1683704853057861,1.0031704902648926
1781039446014812400,16.7238125,-0.6368576288223267,-1.4197616577148438,0.43095630407333374
1781039446075267800,16.784267822265626,-0.2825157940387726,-0.9481038451194763,0.06224924325942993
1781039446085338600,16.794338623046876,1.0558429956436157,-1.5610195398330688,-0.10534487664699554
1781039446095409400,16.804409423828126,1.7597382068634033,-2.1954829692840576,-0.043095629662275314
1781039446115581700,16.824581787109373,1.8602946996688843,-1.4245500564575195,0.11013327538967133
1781039446125621800,16.834621826171876,1.7166426181793213,-0.9193734526634216,0.2513911724090576
1781039446145824500,16.854824462890626,0.828393816947937,-1.036689281463623,0.646434485912323
1781039446155895300,16.864895263671876,0.4596867263317108,-0.730231523513794,0.646434485912323
1781039446165966000,16.874966064453126,-0.09816227108240128,-0.2106897532939911,0.4836287498474121
1781039446176036900,16.885036865234376,-0.0071826050989329815,0.40462008118629456,0.1604115068912506
1781039446186107600,16.895107666015626,-0.016759412363171577,0.6105214357376099,-0.2346317619085312
1781039446196178400,16.905178466796876,0.3471592366695404,0.47405192255973816,-0.5985504388809204
1781039446206249200,16.915249267578126,0.7158663272857666,-0.08379705995321274,-0.7924807667732239
1781039446216320000,16.925320068359376,1.1492167711257935,-0.6392518281936646,-0.7398083209991455
1781039446226390800,16.935390869140626,1.0127472877502441,-1.0271124839782715,-0.40940847992897034
1781039446236461800,16.9454619140625,1.070208191871643,-0.6727706789970398,-0.090979665517807
1781039446256633900,16.9656337890625,0.7757213711738586,0.12210428714752197,0.2059013396501541
1781039446276775400,16.985775390625,0.8930372595787048,0.2801215946674347,0.2992752194404602
1781039446286876700,16.995876708984376,1.1779472827911377,0.3519476354122162,0.3447650372982025
1781039446296947500,17.005947509765626,0.9768342971801758,0.33758243918418884,0.49320554733276367
1781039446307049000,17.016049072265623,0.689530074596405,0.629675030708313,0.7493851184844971
1781039446317058600,17.02605859375,0.33039984107017517,0.8667010068893433,0.9792284965515137
1781039446327160000,17.03616015625,-0.090979665517807,1.0127472877502441,1.072602391242981
1781039446337230800,17.04623095703125,-0.2537853717803955,1.0606313943862915,1.2665326595306396
1781039446347301600,17.056301513671876,-0.1149216815829277,1.1540051698684692,1.381454348564148
1781039446357342000,17.066342041015623,0.42856210470199585,1.0582371950149536,1.5298948287963867
1781039446367443200,17.076443115234376,0.9385270476341248,0.608127236366272,1.5394717454910278
1781039446437999900,17.146999755859376,1.3455413579940796,0.5674257874488831,1.6950948238372803
1781039446478252500,17.18725244140625,1.0821791887283325,1.3910311460494995,1.4844050407409668
1781039446498424600,17.207424560546876,0.5530605912208557,2.0590133666992188,0.6799532771110535
1781039446508495400,17.217495361328126,0.4213795065879822,2.6886885166168213,0.31603461503982544
1781039446518535700,17.22753564453125,0.6368576288223267,3.1651346683502197,0.13407529890537262
1781039446528637000,17.237636962890626,0.9217676520347595,3.3279404640197754,0.1867477297782898
1781039446538707700,17.247707763671876,0.9696516990661621,3.2130186557769775,0.6823474764823914
1781039446548809200,17.257809326171873,0.993593692779541,2.7772738933563232,0.8786720037460327
1781039446558880000,17.2678798828125,0.9744400978088379,1.9823989868164062,1.1252747774124146
1781039446568920300,17.27792041015625,0.9289502501487732,1.1755530834197998,1.3670891523361206
1781039446579021600,17.288021484375,0.727837324142456,0.8906430602073669,1.5179238319396973
1781039446589122800,17.298122802734376,0.5386953949928284,0.9864110946655273,1.4532804489135742
1781039446639476700,17.348476806640626,1.137245774269104,1.845929503440857,1.6855180263519287
1781039446659679500,17.368679443359376,1.173158884048462,1.7764976024627686,1.5873557329177856
1781039446669750300,17.378750244140626,1.3766659498214722,1.7142484188079834,1.4844050407409668
1781039446679821000,17.388821044921876,1.3670891523361206,1.577778935432434,1.558625340461731
1781039446689861400,17.398861328125,1.3000515699386597,1.745373010635376,1.9800047874450684
1781039446699962600,17.408962646484376,1.1971008777618408,1.9536685943603516,2.1284453868865967
1781039446770358300,17.479358154296875,-0.19632454216480255,3.335123062133789,2.1954829692840576
1781039446790530300,17.4995302734375,0.06224924325942993,4.113238334655762,1.3551181554794312
1781039446800631800,17.5096318359375,0.4620809257030487,4.19224739074707,0.9457096457481384
1781039446810702600,17.51970263671875,0.9169792532920837,3.97916316986084,0.6320692300796509
1781039446820773400,17.5297734375,1.1755530834197998,3.840299606323242,0.2561795711517334
1781039446830844200,17.53984423828125,1.194706678390503,3.6774938106536865,0.07182604819536209
1781039446840915000,17.5499150390625,0.5817909836769104,3.2824504375457764,0.1412578970193863
1781039446851016200,17.56001611328125,-0.08858546614646912,3.0310592651367188,0.26096799969673157
1781039446861117400,17.570117431640625,-0.8092401623725891,2.8179752826690674,0.33758243918418884
1781039446871188500,17.5801884765625,-1.7477672100067139,2.477998733520508,0.4692635238170624
1781039446881259300,17.59025927734375,-2.5929205417633057,2.1930887699127197,0.629675030708313
1781039446891360500,17.600360595703126,-3.0190882682800293,1.9704279899597168,0.5386953949928284
1781039446901431300,17.610431396484376,-2.276885747909546,1.4963760375976562,0.023942016065120697
1781039446911502000,17.620502197265626,-1.6903064250946045,0.9385270476341248,-0.5099649429321289
1781039446931613200,17.64061328125,0.5506663918495178,0.1604115068912506,-2.1571757793426514
1781039446941714400,17.65071435546875,1.1468225717544556,-1.0965443849563599,-3.1914708614349365
1781039446951816000,17.66081591796875,1.0007762908935547,-1.9991583824157715,-3.1244332790374756
1781039446971926800,17.6809267578125,-0.12928688526153564,-2.190694570541382,-2.43011474609375
1781039446982028300,17.6910283203125,-1.048660397529602,-1.9488801956176758,-2.5067291259765625
1781039446992129500,17.701129638671876,-1.9297266006469727,-1.4317326545715332,-2.5929205417633057
1781039447002230800,17.711230712890625,-2.516305923461914,-0.9193734526634216,-2.719813108444214
1781039447012332300,17.721332275390626,-2.8826189041137695,-0.5003881454467773,-2.8443117141723633
1781039447022403000,17.731403076171876,-2.58813214302063,-0.22744916379451752,-3.1866824626922607
1781039447032473900,17.741473876953126,-2.011129379272461,-0.49799394607543945,-3.73016619682312
1781039447042575000,17.7515751953125,-1.525106430053711,-0.9720458984375,-4.177882194519043
1781039447103091500,17.812091552734376,0.5195417404174805,-3.445256233215332,-3.2417490482330322
1781039447163516200,17.87251611328125,-2.3032219409942627,-1.1085153818130493,-4.393360137939453
1781039447193759200,17.90275927734375,-4.060565948486328,-0.9193734526634216,-3.8738183975219727
1781039447203830000,17.912830078125,-4.022258758544922,-1.0893617868423462,-3.5266590118408203
1781039447213931300,17.92293115234375,-3.861847400665283,-0.8259995579719543,-3.2848446369171143
1781039447224002000,17.933001953125,-3.5051112174987793,-0.38067805767059326,-3.069366693496704
1781039447234072800,17.94307275390625,-2.786850690841675,0.181959331035614,-2.889801502227783
1781039447254275600,17.963275634765626,-0.9528923034667969,1.0055646896362305,-2.7533318996429443
1781039447274447600,17.983447509765625,0.19632454216480255,1.4245500564575195,-2.650381326675415
1781039447284548900,17.993548828125,0.20350714027881622,1.4844050407409668,-2.427720546722412
1781039447294650400,18.003650390625,-0.11013327538967133,1.7405846118927002,-2.1787235736846924
1781039447304751600,18.013751708984376,-0.6153098344802856,1.8483237028121948,-1.580173134803772
1781039447314822400,18.023822509765626,-1.2018892765045166,1.9584569931030273,-0.6129156351089478
1781039447324923600,18.033923583984375,-1.3838485479354858,1.886630892753601,0.3974374830722809
1781039447335025200,18.044025146484376,-1.2258312702178955,1.6639702320098877,1.5107412338256836
1781039447345096000,18.054095947265626,-0.7565677165985107,1.4101848602294922,2.647987127304077
1781039447365237500,18.074237548828126,0.2944868206977844,0.6847416758537292,4.618414878845215
1781039447375338800,18.0843388671875,0.5793967843055725,0.40701428055763245,5.384559631347656
1781039447395480300,18.104480224609375,0.6344634294509888,0.2849099934101105,5.499481201171875
1781039447405551000,18.114551025390625,0.49799394607543945,0.5530605912208557,4.7620673179626465
1781039447415622000,18.124621826171875,-0.12210428714752197,1.1755530834197998,2.5474305152893066
1781039447425723400,18.134723388671876,-0.5147533416748047,1.2330138683319092,1.6065093278884888
1781039447435763500,18.144763427734375,-0.6823474764823914,1.0678139925003052,0.8236053586006165
1781039447445895400,18.1548955078125,-0.8738836050033569,0.8667010068893433,0.12928688526153564
1781039447455996700,18.16499658203125,-0.5937620401382446,0.45010992884635925,-0.4357447028160095
1781039447466128600,18.175128662109376,-0.3495534360408783,-0.047884032130241394,-0.8307880163192749
1781039447506534000,18.215533935546876,1.3982137441635132,-1.9991583824157715,-1.3431471586227417
1781039447516635100,18.22563525390625,1.5705963373184204,-2.322375535964966,-1.580173134803772
1781039447526767000,18.23576708984375,1.7405846118927002,-2.786850690841675,-1.965639591217041
1781039447536868400,18.245868408203126,1.8962076902389526,-3.134010076522827,-2.1284453868865967
1781039447587405300,18.2964052734375,2.868253707885742,-4.410119533538818,-2.6575639247894287
1781039447617709300,18.326709228515625,3.246537446975708,-5.420472621917725,-2.980781078338623
1781039447627810600,18.336810546875,3.2154128551483154,-5.6455278396606445,-3.002328872680664
1781039447637912000,18.346912109375,3.2082302570343018,-5.863399982452393,-2.9520506858825684
1781039447658114600,18.367114501953125,3.466804027557373,-6.361393928527832,-2.8874073028564453
1781039447668185300,18.377185302734375,3.6607344150543213,-6.63433313369751,-2.937685489654541
1781039447698489300,18.4074892578125,3.9647979736328125,-7.46033239364624,-2.7293899059295654
1781039447708590600,18.417590576171875,4.1180267333984375,-7.711723804473877,-2.7054479122161865
1781039447718661600,18.42766162109375,4.165910720825195,-7.888894557952881,-2.4803929328918457
1781039447728793300,18.43779345703125,4.3622355461120605,-8.33182144165039,-2.212242364883423
1781039447738894600,18.44789453125,4.479551315307617,-8.71728801727295,-1.867477297782898
1781039447748996000,18.45799609375,4.764461517333984,-8.978256225585938,-1.4700398445129395
1781039447759097300,18.468097412109376,5.0685248374938965,-9.272743225097656,-1.036689281463623
1781039447779330600,18.48833056640625,5.245696067810059,-9.588777542114258,-0.4189853072166443
1781039447799533000,18.508532958984375,5.2911858558654785,-9.710882186889648,0.031124621629714966
1781039447819766300,18.528766357421876,5.284003257751465,-9.737217903137207,0.38546648621559143
1781039447829867500,18.538867431640625,5.34625244140625,-9.744400978088379,0.6440402865409851
1781039447839968800,18.54896875,5.216965675354004,-9.59596061706543,0.8547300100326538
1781039447850070300,18.5590703125,5.286397457122803,-9.41400146484375,0.8786720037460327
1781039447860141000,18.56914111328125,5.238513469696045,-9.318233489990234,0.9002198576927185
1781039447870272800,18.579272705078125,5.123591423034668,-9.150638580322266,1.0558429956436157
1781039447930789000,18.6397890625,3.708618402481079,-8.075642585754395,1.01753568649292
1781039447940890600,18.649890625,3.337517261505127,-7.886500358581543,0.9217676520347595
1781039447950961400,18.65996142578125,3.1004912853240967,-7.682993412017822,0.9026140570640564
1781039447961032200,18.6700322265625,3.0190882682800293,-7.489062786102295,0.9528923034667969
1781039447981173800,18.690173828125,2.5689783096313477,-6.98628044128418,0.9265560507774353
1781039447991275000,18.70027490234375,2.3343467712402344,-6.627150535583496,0.8020575642585754
1781039448011416600,18.72041650390625,1.889025092124939,-5.705382823944092,0.2777273952960968
1781039448031527700,18.740527587890625,1.5538369417190552,-4.934449672698975,-0.524330198764801
1781039448041598500,18.750598388671875,1.4173674583435059,-4.577713489532471,-0.768538773059845
1781039448051669200,18.760669189453125,1.3479355573654175,-4.264073371887207,-0.993593692779541
1781039448061740000,18.770739990234375,1.3527239561080933,-3.9001545906066895,-1.115697979927063
1781039448071810800,18.780810791015625,1.237802267074585,-3.576937437057495,-1.2856862545013428
1781039448081851100,18.79085107421875,1.1875240802764893,-3.1914708614349365,-1.3239935636520386
1781039448091952600,18.80095263671875,1.0845733880996704,-2.849100112915039,-1.3335703611373901
1781039448122165000,18.8311650390625,0.8212111592292786,-1.9991583824157715,-1.4173674583435059
1781039448162509000,18.871509033203125,0.8595184087753296,-0.9840168952941895,-1.702277421951294
1781039448212832800,18.921832763671876,0.3471592366695404,0.10055647045373917,-1.7621324062347412
1781039448222903600,18.931903564453126,0.40222588181495667,0.19153612852096558,-1.7357962131500244
1781039448243075600,18.95207568359375,0.4213795065879822,0.05746084079146385,-1.3455413579940796
1781039448253176800,18.9621767578125,0.47884035110473633,0.17717093229293823,-1.1540051698684692
1781039448263278300,18.9722783203125,0.6200982332229614,0.24181437492370605,-1.0127472877502441
1781039448283450400,18.992450439453126,0.9624691009521484,0.16998831927776337,-0.7445967197418213
1781039448333834800,19.042834716796875,0.6943184733390808,-0.524330198764801,-2.279279947280884
1781039448364047400,19.07304736328125,2.3104045391082764,-0.6129156351089478,-2.183511972427368
1781039448374118100,19.0831181640625,2.8371291160583496,-0.8427590131759644,-2.0015525817871094
1781039448384189000,19.09318896484375,2.853888511657715,-1.5921441316604614,-1.8770540952682495
1781039448394290200,19.103290283203126,2.9305028915405273,-2.2457611560821533,-2.0015525817871094
1781039448404361000,19.11336083984375,2.564189910888672,-2.717418909072876,-2.145204782485962
1781039448434603800,19.143603759765625,1.6687586307525635,-1.9919757843017578,-2.3702597618103027
1781039448484958000,19.1939580078125,2.073378562927246,-1.6089035272598267,-2.6886885166168213
1781039448495028700,19.20402880859375,1.8483237028121948,-0.9193734526634216,-2.2433669567108154
1781039448505099500,19.214099609375,1.7764976024627686,-0.13407529890537262,-1.5945383310317993
1781039448515139800,19.224139892578126,1.4844050407409668,0.09816227108240128,-1.0438719987869263
1781039448525210600,19.234210693359376,1.1635819673538208,0.0071826050989329815,-0.5650315880775452
1781039448535281400,19.244281494140626,1.3623007535934448,0.22266076505184174,-0.5770025849342346
1781039448545382700,19.254382568359375,1.3263877630233765,0.3974374830722809,-0.5985504388809204
1781039448565524200,19.274524169921875,1.2306196689605713,0.8044517636299133,-0.6560112833976746
1781039448575595000,19.284594970703125,0.3687070608139038,1.3096283674240112,-0.6584054827690125
1781039448585665800,19.294665771484375,-0.20350714027881622,1.6089035272598267,-0.8810662031173706
1781039448595736800,19.30473681640625,-0.36152446269989014,1.659181833267212,-0.9816226959228516
1781039448605838000,19.314838134765626,-0.524330198764801,1.9177556037902832,-0.7661445140838623
1781039448615908900,19.324908935546876,-0.42616790533065796,2.583343744277954,-0.3256114423274994
1781039448626010000,19.335010009765625,-0.2322375625371933,3.069366693496704,-0.035913024097681046
1781039448636081000,19.345080810546875,-0.6991068720817566,3.246537446975708,0.2561795711517334
1781039448646151700,19.355151611328125,-1.2665326595306396,3.3925838470458984,0.28730419278144836
1781039448656222500,19.365222412109375,-2.166752576828003,3.4739866256713867,0.33758243918418884
1781039448666324000,19.375323974609376,-3.2393548488616943,3.691859006881714,0.5003881454467773
1781039448676364000,19.385364013671875,-3.825934410095215,4.132391929626465,0.6344634294509888
1781039448686465500,19.395465576171876,-4.426878929138184,4.086902141571045,0.6991068720817566
1781039448696536300,19.405536376953126,-4.821922302246094,3.7253777980804443,0.6129156351089478
1781039448736819500,19.4458193359375,-3.4524388313293457,4.055777549743652,1.460463047027588
1781039448746890200,19.45589013671875,-3.0597896575927734,4.146757125854492,1.05105459690094
1781039448756961000,19.4659609375,-2.9975404739379883,4.0533833503723145,0.4836287498474121
1781039448767062300,19.476062255859375,-3.028665065765381,3.9049429893493652,0.20350714027881622
1781039448787234600,19.496234619140626,-3.265691041946411,5.018246650695801,0.06703764945268631
1781039448797335800,19.506335693359375,-2.126051187515259,5.284003257751465,-1.0007762908935547
1781039448877902300,19.58690234375,0.2322375625371933,1.8387469053268433,1.316810965538025
1781039448958590700,19.6675908203125,0.10295066982507706,1.8842366933822632,0.5626373887062073
1781039448998873900,19.707873779296875,1.5298948287963867,-0.6991068720817566,-0.031124621629714966
1781039449049258500,19.758258544921876,-1.3335703611373901,-2.4851813316345215,1.4844050407409668
1781039449099643000,19.808642822265625,-1.1803414821624756,0.047884032130241394,0.33758243918418884
1781039449190371800,19.899371826171876,-0.7254431247711182,1.7405846118927002,-0.4381389021873474
1781039449240756200,19.949756103515625,1.0821791887283325,-0.043095629662275314,-0.13407529890537262
1781039449291110100,20.000110107421875,0.26575639843940735,0.5219359993934631,0.3974374830722809
1781039449301181000,20.010180908203125,0.33518823981285095,0.4692635238170624,0.4692635238170624
1781039449321322800,20.03032275390625,0.2537853717803955,0.7709329724311829,0.49559974670410156
1781039449331424000,20.040424072265626,0.5195417404174805,1.1420341730117798,0.3687070608139038
1781039449341494800,20.050494873046876,0.37828385829925537,1.3239935636520386,0.2106897532939911
1781039449361636400,20.07063623046875,0.8762778043746948,1.721431016921997,0.4141969084739685
