time,seconds_elapsed,z,y,x
1781033784208002600,0.39700244140625,-43.462501525878906,18.67500114440918,4.331250190734863
1781033784227534000,0.4165341796875,-40.556251525878906,19.125,3.093750238418579
1781033784247766800,0.436766845703125,-37.875,20.8125,3.0375001430511475
1781033784267918800,0.4569189453125,-38.8125,21.356250762939453,2.4937500953674316
1781033784288037400,0.477037353515625,-39.73125076293945,20.962501525878906,2.0250000953674316
1781033784308270600,0.4972705078125,-38.8125,21.5625,2.512500047683716
1781033784328267300,0.517267333984375,-36.97500228881836,20.73750114440918,2.1937501430511475
1781033784348271400,0.537271240234375,-38.73750305175781,19.293750762939453,3.093750238418579
1781033784368268000,0.55726806640625,-39.16875076293945,19.51875114440918,3.543750047683716
1781033784388272000,0.577272216796875,-37.368751525878906,19.668750762939453,3.3375000953674316
1781033784408276500,0.5972763671875,-39.16875076293945,20.15625,4.237500190734863
1781033784428044300,0.617044189453125,-41.04375076293945,21.09375,3.731250047683716
1781033784448048400,0.63704833984375,-41.51250076293945,21.506250381469727,3.9750001430511475
1781033784468045000,0.657045166015625,-38.493751525878906,20.36250114440918,4.668750286102295
1781033784488041700,0.677041748046875,-36,18.86250114440918,2.8125
1781033784508274700,0.697274658203125,-37.125,19.5,3.5250000953674316
1781033784528271400,0.717271240234375,-38.92500305175781,19.575000762939453,4.387500286102295
1781033784548268000,0.73726806640625,-40.06875228881836,19.200000762939453,4.350000381469727
1781033784568272100,0.757272216796875,-40.29375076293945,20.025001525878906,4.856250286102295
1781033784588269000,0.77726904296875,-39.88125228881836,21.131250381469727,4.556250095367432
1781033784608265700,0.797265625,-38.98125076293945,21.506250381469727,4.368750095367432
1781033784628033800,0.81703369140625,-39.618751525878906,21.1875,5.400000095367432
1781033784648030500,0.837030517578125,-40.95000076293945,20.92500114440918,6.618750095367432
1781033784668034600,0.85703466796875,-40.96875,20.4375,5.325000286102295
1781033784688039000,0.877038818359375,-39.88125228881836,21.30000114440918,4.162500381469727
1781033784708271600,0.897271728515625,-37.16250228881836,22.275001525878906,4.875
1781033784728276000,0.91727587890625,-36.056251525878906,22.575000762939453,3.843750238418579
1781033784748272600,0.937272705078125,-37.40625,22.23750114440918,4.237500190734863
1781033784768269300,0.957269287109375,-38.08125305175781,22.6875,4.912500381469727
1781033784788273400,0.9772734375,-37.21875,22.98750114440918,4.106250286102295
1781033784808270000,0.99727001953125,-34.743751525878906,23.700000762939453,3.543750047683716
1781033784828038100,1.0170380859375,-33.39375305175781,25.631250381469727,4.162500381469727
1781033784848042200,1.037042236328125,-35.92500305175781,27.262500762939453,4.96875
1781033784868039200,1.0570390625,-35.75625228881836,27.525001525878906,3.3375000953674316
1781033784888043300,1.077043212890625,-35.10000228881836,26.850000381469727,2.0062501430511475
1781033784908276200,1.097276123046875,-36.525001525878906,28.593751907348633,2.0062501430511475
1781033784928173600,1.117173583984375,-34.78125,30.825000762939453,1.1812500953674316
1781033784948010800,1.1370107421875,-32.118751525878906,32.0625,0.26250001788139343
1781033784967771600,1.156771728515625,-29.662500381469727,34.76250076293945,0.7312500476837158
1781033784987768300,1.176768310546875,-28.818750381469727,36.01875305175781,-0.16875000298023224
1781033785007871700,1.196871826171875,-27.731250762939453,36.46875,-1.8000000715255737
1781033785027799300,1.21679931640625,-29.962501525878906,36.1875,-0.768750011920929
1781033785048031700,1.23703173828125,-29.962501525878906,36.1875,-0.768750011920929
1781033785068036000,1.2570361328125,-29.962501525878906,36.41250228881836,-0.3375000059604645
1781033785088032500,1.277032470703125,-30.693750381469727,36.73125076293945,-1.3312500715255737
1781033785108265500,1.297265380859375,-30.20625114440918,36.82500076293945,-0.07500000298023224
1781033785128269800,1.317269775390625,-30.243751525878906,37.51875305175781,-1.03125
1781033785148266500,1.3372666015625,-30.262500762939453,37.29375076293945,-1.4812500476837158
1781033785168270800,1.357270751953125,-29.962501525878906,35.79375076293945,-1.0125000476837158
1781033785188275000,1.37727490234375,-28.631250381469727,35.493751525878906,-2.1000001430511475
1781033785208271600,1.397271728515625,-27.993751525878906,37.03125,-2.15625
1781033785228039400,1.417039306640625,-32.34375,37.05000305175781,-2.7375001907348633
1781033785248036000,1.4370361328125,-32.34375,37.05000305175781,-2.7375001907348633
1781033785268032800,1.45703271484375,-30.037500381469727,36.86250305175781,-2.15625
1781033785288037000,1.477037109375,-30.48750114440918,36.86250305175781,-2.15625
1781033785308270000,1.49727001953125,-31.162500381469727,36.50625228881836,-1.9687501192092896
1781033785328266800,1.517266845703125,-30.262500762939453,36.48750305175781,-1.9875000715255737
1781033785348271000,1.53727099609375,-29.17500114440918,38.56875228881836,-2.1750001907348633
1781033785368267800,1.557267822265625,-30.562501907348633,38.94375228881836,-2.53125
1781033785388272000,1.577272216796875,-30.562501907348633,38.94375228881836,-2.53125
1781033785408276200,1.597276123046875,-30.562501907348633,38.94375228881836,-2.53125
1781033785428044000,1.6170439453125,-32.32500076293945,36.46875,-2.5875000953674316
1781033785448048400,1.63704833984375,-31.387500762939453,34.89375305175781,-3.187500238418579
1781033785468045000,1.657045166015625,-30.225000381469727,34.931251525878906,-2.3625001907348633
1781033785488041700,1.677041748046875,-31.406251907348633,35.868751525878906,-2.8687500953674316
1781033785508275000,1.69727490234375,-31.856250762939453,35.0625,-3.375000238418579
1781033785528271400,1.717271240234375,-31.89375114440918,36.41250228881836,-3.2250001430511475
1781033785548268000,1.73726806640625,-31.462501525878906,37.14375305175781,-3.7687501907348633
1781033785568272100,1.757272216796875,-30.843751907348633,37.80000305175781,-5.15625
1781033785588268800,1.777268798828125,-32.17500305175781,36.712501525878906,-4.650000095367432
1781033785608265500,1.797265380859375,-32.56875228881836,33.97500228881836,-5.362500190734863
1781033785628033500,1.817033447265625,-30.093751907348633,34.275001525878906,-6.168750286102295
1781033785648030200,1.8370302734375,-30.150001525878906,36.16875076293945,-6.393750190734863
1781033785668034600,1.85703466796875,-30.48750114440918,36.97500228881836,-8.793750762939453
1781033785688039000,1.877038818359375,-28.687501907348633,36.67500305175781,-9.90000057220459
1781033785708271900,1.89727197265625,-28.181251525878906,38.19375228881836,-7.237500190734863
1781033785728169500,1.91716943359375,-27.543750762939453,38.90625,-7.987500190734863
1781033785747998700,1.936998779296875,-27.58125114440918,38.41875076293945,-9.506250381469727
1781033785767759400,1.95675927734375,-27.075000762939453,36.50625228881836,-9.300000190734863
1781033785787763700,1.976763671875,-25.406251907348633,35.79375076293945,-8.137500762939453
1781033785807867000,1.996866943359375,-24.075000762939453,36.35625076293945,-8.081250190734863
1781033785827794700,2.016794677734375,-23.681251525878906,36.82500076293945,-9.71250057220459
1781033785848034600,2.03703466796875,-26.906251907348633,36.95625305175781,-11.11875057220459
1781033785868031200,2.05703125,-27.150001525878906,36.11250305175781,-12.05625057220459
1781033785888035600,2.07703564453125,-25.98750114440918,36.375,-10.987500190734863
1781033785908276200,2.097276123046875,-24.39375114440918,36.35625076293945,-11.006250381469727
1781033785928273000,2.11727294921875,-22.368751525878906,36.07500076293945,-11.887500762939453
1781033785948277200,2.13727734375,-23.73750114440918,37.087501525878906,-11.34375
1781033785968273700,2.157273681640625,-24.243751525878906,37.59375,-12.318750381469727
1781033785988270300,2.177270263671875,-23.08125114440918,35.98125076293945,-13.143750190734863
1781033786008274700,2.197274658203125,-22.368751525878906,36.88125228881836,-11.381250381469727
1781033786028035000,2.21703515625,-22.59375,38.28750228881836,-10.387500762939453
1781033786048031700,2.23703173828125,-22.78125,38.400001525878906,-8.925000190734863
1781033786068035800,2.257035888671875,-22.743751525878906,38.47500228881836,-7.668750286102295
1781033786088032500,2.277032470703125,-21.20625114440918,38.53125,-9.543750762939453
1781033786108265500,2.297265380859375,-20.043750762939453,38.79375076293945,-8.287500381469727
1781033786128269800,2.317269775390625,-19.481250762939453,38.400001525878906,-5.625
1781033786148266500,2.3372666015625,-19.743751525878906,37.931251525878906,-6.918750286102295
1781033786168270800,2.357270751953125,-19.556251525878906,39.65625,-6.731250286102295
1781033786188275000,2.37727490234375,-18.20625114440918,40.44375228881836,-6.450000286102295
1781033786208271600,2.397271728515625,-17.26875114440918,40.23750305175781,-6.281250476837158
1781033786228039400,2.417039306640625,-17.306251525878906,40.368751525878906,-7.312500476837158
1781033786248036000,2.4370361328125,-16.42500114440918,40.875,-8.081250190734863
1781033786268032800,2.45703271484375,-18.46875,41.34375,-7.181250095367432
1781033786288036900,2.477036865234375,-16.818750381469727,40.61250305175781,-6.243750095367432
1781033786308270000,2.49727001953125,-16.950000762939453,39.41250228881836,-4.293750286102295
1781033786328266800,2.517266845703125,-19.668750762939453,40.10625076293945,-3.1500000953674316
1781033786348271000,2.53727099609375,-17.006250381469727,41.55000305175781,-4.050000190734863
1781033786368267800,2.557267822265625,-16.856250762939453,41.98125076293945,-5.887500286102295
1781033786388272000,2.577272216796875,-16.162500381469727,42.20625305175781,-5.4375
1781033786408276200,2.597276123046875,-17.025001525878906,41.493751525878906,-4.893750190734863
1781033786428044300,2.617044189453125,-17.493751525878906,41.10000228881836,-5.137500286102295
1781033786448048400,2.63704833984375,-14.96250057220459,41.47500228881836,-4.706250190734863
1781033786468045000,2.657045166015625,-14.77500057220459,41.8125,-5.306250095367432
1781033786488041500,2.67704150390625,-16.818750381469727,42.056251525878906,-5.043750286102295
1781033786508274700,2.697274658203125,-16.33125114440918,41.73750305175781,-4.050000190734863
1781033786528164400,2.717164306640625,-15.862500190734863,41.94375228881836,-3.6000001430511475
1781033786547993900,2.736993896484375,-17.45625114440918,42.375,-3.3375000953674316
1781033786567762400,2.756762451171875,-19.350000381469727,42.48750305175781,-4.762500286102295
1781033786587759000,2.776759033203125,-21.168750762939453,41.0625,-6.356250286102295
1781033786607862500,2.796862548828125,-18.450000762939453,41.38125228881836,-6.543750286102295
1781033786627797500,2.816797607421875,-18.450000762939453,42,-6.075000286102295
1781033786648030000,2.837030029296875,-21.375,41.56875228881836,-4.631250381469727
1781033786668034300,2.857034423828125,-20.025001525878906,41.868751525878906,-5.4375
1781033786688038400,2.877038330078125,-20.231250762939453,40.5,-6.018750190734863
1781033786708271400,2.897271240234375,-22.481250762939453,39.993751525878906,-5.212500095367432
1781033786728275700,2.917275634765625,-22.5,40.556251525878906,-5.568750381469727
1781033786748272400,2.9372724609375,-23.17500114440918,40.38750076293945,-5.15625
1781033786768269000,2.95726904296875,-23.137500762939453,40.06875228881836,-4.368750095367432
1781033786788273400,2.9772734375,-21.318750381469727,40.650001525878906,-4.106250286102295
1781033786808270000,2.99727001953125,-22.05000114440918,39.525001525878906,-6.318750381469727
1781033786828038000,3.017037841796875,-24.76875114440918,40.20000076293945,-5.587500095367432
1781033786848042200,3.037042236328125,-27.543750762939453,43.20000076293945,-4.40625
1781033786868039000,3.057038818359375,-27.318750381469727,42.78750228881836,-4.650000095367432
1781033786888043300,3.077043212890625,-25.650001525878906,41.92500305175781,-3.1125001907348633
1781033786908276200,3.097276123046875,-24.95625114440918,41.51250076293945,-3.356250047683716
1781033786928273000,3.11727294921875,-23.306251525878906,41.23125076293945,-1.5187500715255737
1781033786948277200,3.13727734375,-22.837501525878906,40.650001525878906,-1.3875000476837158
1781033786968274000,3.15727392578125,-25.106250762939453,39.84375,-2.4937500953674316
1781033786988278000,3.177278076171875,-27.843751907348633,40.5,-1.9875000715255737
1781033787008282400,3.197282470703125,-29.418750762939453,39.9375,-1.818750023841858
1781033787028042800,3.217042724609375,-28.781251907348633,39.65625,-3.1125001907348633
1781033787048039400,3.237039306640625,-28.500001907348633,38.94375228881836,-2.3625001907348633
1781033787068036000,3.2570361328125,-31.875001907348633,38.51250076293945,-0.9187500476837158
1781033787088032800,3.27703271484375,-32.83125305175781,38.00625228881836,-2.8312501907348633
1781033787108265700,3.297265625,-33.22500228881836,36.91875076293945,-1.912500023841858
1781033787128270000,3.31727001953125,-32.53125,37.14375305175781,-1.2750000953674316
1781033787148266800,3.337266845703125,-31.218751907348633,38.60625076293945,-1.9500000476837158
1781033787168271000,3.35727099609375,-32.88750076293945,38.70000076293945,-3.8062500953674316
1781033787188275200,3.377275146484375,-30.825000762939453,35.587501525878906,-6.656250476837158
1781033787208271600,3.397271728515625,-28.387500762939453,37.06875228881836,-7.143750190734863
1781033787228039700,3.417039794921875,-29.606250762939453,39.75,-7.256250381469727
1781033787248036400,3.437036376953125,-28.70625114440918,40.51875305175781,-7.181250095367432
1781033787268033000,3.457032958984375,-26.250001907348633,41.587501525878906,-7.912500381469727
1781033787288037400,3.477037353515625,-24.937501907348633,41.025001525878906,-10.068750381469727
1781033787308270300,3.497270263671875,-22.462501525878906,41.34375,-10.6875
1781033787328145000,3.517144775390625,-19.5,41.90625,-10.237500190734863
1781033787347966500,3.536966552734375,-18.65625,41.34375,-12.600000381469727
1781033787368024000,3.557024169921875,-20.043750762939453,40.48125076293945,-14.137500762939453
1781033787388028400,3.5770283203125,-22.818750381469727,39.84375,-15.637500762939453
1781033787408154600,3.597154541015625,-24.843751907348633,38.08125305175781,-16.650001525878906
1781033787428097500,3.61709765625,-24.562501907348633,34.3125,-18.09375
1781033787448040700,3.637040771484375,-26.212501525878906,33.58125305175781,-20.64375114440918
1781033787468037400,3.657037353515625,-25.33125114440918,33.31875228881836,-21.318750381469727
1781033787488034000,3.677033935546875,-23.231250762939453,32.17500305175781,-21.037500381469727
1781033787508274700,3.697274658203125,-25.762500762939453,31.931251525878906,-22.087501525878906
1781033787528271600,3.717271728515625,-26.718751907348633,31.256250381469727,-23.83125114440918
1781033787548268000,3.73726806640625,-25.556251525878906,31.668750762939453,-23.15625
1781033787568272400,3.7572724609375,-23.775001525878906,31.593751907348633,-23.8125
1781033787588276500,3.7772763671875,-22.443750381469727,31.068750381469727,-25.537500381469727
1781033787608273200,3.797273193359375,-21.731250762939453,31.725000381469727,-24.225000381469727
1781033787628041000,3.817041015625,-21.9375,31.162500381469727,-24.281251907348633
1781033787648037600,3.83703759765625,-22.21875,31.256250381469727,-25.51875114440918
1781033787668034300,3.857034423828125,-23.850000381469727,32.4375,-25.593751907348633
1781033787688038400,3.877038330078125,-23.15625,32.45625305175781,-24.975000381469727
1781033787708271400,3.897271240234375,-25.575000762939453,30.825000762939453,-24.075000762939453
1781033787728275700,3.917275634765625,-29.850000381469727,29.981250762939453,-23.306251525878906
1781033787748272400,3.9372724609375,-28.068750381469727,32.53125,-22.21875
1781033787768269000,3.95726904296875,-26.625001907348633,32.26875305175781,-20.381250381469727
1781033787788273400,3.9772734375,-26.568750381469727,32.400001525878906,-18.48750114440918
1781033787808270000,3.99727001953125,-25.931251525878906,33.9375,-18.337501525878906
1781033787828038000,4.017037841796875,-29.775001525878906,34.05000305175781,-17.25
1781033787848042200,4.037042236328125,-32.00625228881836,33.78750228881836,-15.99375057220459
1781033787868039000,4.057038818359375,-31.537500381469727,34.20000076293945,-15.543750762939453
1781033787888043300,4.077043212890625,-32.868751525878906,34.931251525878906,-13.575000762939453
1781033787908276200,4.097276123046875,-30.525001525878906,34.63125228881836,-11.96250057220459
1781033787928273000,4.11727294921875,-29.606250762939453,35.85000228881836,-10.800000190734863
1781033787948277000,4.137277099609375,-28.98750114440918,36.525001525878906,-11.981250762939453
1781033787968273700,4.157273681640625,-28.350000381469727,38.025001525878906,-12.450000762939453
1781033787988278000,4.177278076171875,-29.662500381469727,37.96875,-10.78125
1781033788008282000,4.1972822265625,-29.193750381469727,38.00625228881836,-10.162500381469727
1781033788028042500,4.21704248046875,-28.98750114440918,39.5625,-9.768750190734863
1781033788048039200,4.2370390625,-31.275001525878906,38.60625076293945,-10.27500057220459
1781033788068035800,4.257035888671875,-33.28125,37.91250228881836,-9.506250381469727
1781033788088032500,4.277032470703125,-32.36250305175781,38.53125,-8.8125
1781033788108265500,4.297265380859375,-32.775001525878906,37.42500305175781,-8.30625057220459
1781033788128140000,4.31714013671875,-34.29375076293945,37.38750076293945,-6.225000381469727
1781033788147954200,4.3369541015625,-33.58125305175781,38.26875305175781,-4.668750286102295
1781033788168011800,4.35701171875,-33.11250305175781,37.48125076293945,-4.762500286102295
1781033788188016000,4.37701611328125,-32.681251525878906,37.837501525878906,-5.137500286102295
1781033788208142600,4.397142578125,-30.86250114440918,38.19375228881836,-5.118750095367432
1781033788228085200,4.417085205078125,-28.98750114440918,38.26875305175781,-3.8812501430511475
1781033788248028700,4.437028564453125,-30.131250381469727,39.09375,-3.1500000953674316
1781033788268025300,4.457025390625,-31.80000114440918,39.993751525878906,-4.293750286102295
1781033788288029200,4.477029296875,-30.656251907348633,38.53125,-5.700000286102295
1781033788308269800,4.497269775390625,-30.39375114440918,35.98125076293945,-6.412500381469727
1781033788328266500,4.5172666015625,-31.575000762939453,37.125,-6.900000095367432
1781033788348270800,4.537270751953125,-31.837501525878906,37.650001525878906,-7.462500095367432
1781033788368267500,4.557267578125,-32.75625228881836,36.84375,-8.381250381469727
1781033788388264200,4.57726416015625,-33.91875076293945,36.78750228881836,-9.206250190734863
1781033788408268300,4.597268310546875,-34.63125228881836,35.94375228881836,-10.537500381469727
1781033788428036400,4.617036376953125,-34.42500305175781,35.26875305175781,-11.86875057220459
1781033788448040400,4.63704052734375,-32.51250076293945,33.82500076293945,-10.36875057220459
1781033788468044800,4.657044921875,-31.537500381469727,32.493751525878906,-9.90000057220459
1781033788488041500,4.67704150390625,-33.900001525878906,33.35625076293945,-11.662500381469727
1781033788508274400,4.6972744140625,-33.69375228881836,34.10625076293945,-11.793750762939453
1781033788528271000,4.71727099609375,-31.89375114440918,34.06875228881836,-12.018750190734863
1781033788548267800,4.737267822265625,-32.32500076293945,34.91250228881836,-11.100000381469727
1781033788568272100,4.757272216796875,-32.98125076293945,34.98750305175781,-10.03125
1781033788588268800,4.777268798828125,-32.306251525878906,35.55000305175781,-10.18125057220459
1781033788608265500,4.797265380859375,-30.95625114440918,38.36250305175781,-8.231250762939453
1781033788628033300,4.817033203125,-30.281251907348633,38.118751525878906,-8.68125057220459
1781033788648030000,4.837030029296875,-30.543750762939453,36.63750076293945,-10.706250190734863
1781033788668034000,4.857033935546875,-32.04375076293945,36.056251525878906,-8.25
1781033788688038400,4.877038330078125,-31.481250762939453,33.86250305175781,-6.843750476837158
1781033788708271400,4.897271240234375,-31.687501907348633,33.28125,-6.900000095367432
1781033788728275700,4.917275634765625,-33.5625,35.025001525878906,-7.106250286102295
1781033788748272400,4.9372724609375,-32.60625076293945,33.69375228881836,-6.637500286102295
1781033788768269000,4.95726904296875,-32.04375076293945,32.493751525878906,-4.481250286102295
1781033788788273400,4.9772734375,-32.73750305175781,32.66250228881836,-4.875
1781033788808270000,4.99727001953125,-32.118751525878906,33.150001525878906,-6.075000286102295
1781033788828038000,5.017037841796875,-31.687501907348633,32.70000076293945,-6.956250190734863
1781033788848042200,5.037042236328125,-31.462501525878906,32.868751525878906,-7.350000381469727
1781033788868046600,5.057046630859375,-30.562501907348633,34.06875228881836,-6.412500381469727
1781033788888051000,5.077051025390625,-29.606250762939453,33.337501525878906,-5.662500381469727
1781033788908268500,5.0972685546875,-28.23750114440918,33.31875228881836,-5.681250095367432
1781033788928127700,5.117127685546875,-30.375001907348633,33.78750228881836,-7.687500476837158
1781033788947919000,5.136919189453125,-30.20625114440918,34.650001525878906,-9.05625057220459
1781033788967969300,5.15696923828125,-29.287500381469727,34.462501525878906,-8.86875057220459
1781033788987981000,5.17698095703125,-31.98750114440918,32.51250076293945,-9.46875
1781033789008183600,5.19718359375,-31.51875114440918,32.306251525878906,-9.71250057220459
1781033789028149200,5.217149169921875,-29.568750381469727,34.29375076293945,-11.175000190734863
1781033789048092400,5.237092529296875,-31.200000762939453,34.875,-11.30625057220459
1781033789068096800,5.2570966796875,-32.775001525878906,35.775001525878906,-9.956250190734863
1781033789088032300,5.2770322265625,-30.918750762939453,35.38125228881836,-9.600000381469727
1781033789108265500,5.297265380859375,-31.781251907348633,32.681251525878906,-9.881250381469727
1781033789128269600,5.31726953125,-32.025001525878906,32.85000228881836,-10.27500057220459
1781033789148266200,5.337266357421875,-30.20625114440918,34.01250076293945,-9.75
1781033789168270600,5.3572705078125,-31.51875114440918,33.35625076293945,-8.550000190734863
1781033789188275000,5.37727490234375,-32.212501525878906,34.368751525878906,-7.818750381469727
1781033789208271600,5.397271728515625,-31.293750762939453,35.38125228881836,-7.087500095367432
1781033789228039400,5.417039306640625,-31.256250381469727,34.650001525878906,-6.543750286102295
1781033789248036000,5.4370361328125,-31.80000114440918,35.51250076293945,-7.912500381469727
1781033789268032800,5.45703271484375,-31.350000381469727,34.650001525878906,-9.037500381469727
1781033789288036900,5.477036865234375,-29.475000381469727,35.118751525878906,-7.556250095367432
1781033789308270000,5.49727001953125,-29.943750381469727,37.35000228881836,-6.056250095367432
1781033789328266500,5.5172666015625,-31.98750114440918,36.82500076293945,-5.681250095367432
1781033789348270800,5.537270751953125,-33.337501525878906,35.025001525878906,-6.900000095367432
1781033789368267500,5.557267578125,-31.762500762939453,34.16250228881836,-8.0625
1781033789388271600,5.577271728515625,-29.887500762939453,34.05000305175781,-6.618750095367432
1781033789408276000,5.59727587890625,-30.075000762939453,34.29375076293945,-5.756250381469727
1781033789428044000,5.6170439453125,-29.83125114440918,33.337501525878906,-5.868750095367432
1781033789448048400,5.63704833984375,-30.750001907348633,33.31875228881836,-6.281250476837158
1781033789468045000,5.657045166015625,-33.67500305175781,33.46875,-4.575000286102295
1781033789488041700,5.677041748046875,-36.31875228881836,31.687501907348633,-3.075000047683716
1781033789508274700,5.697274658203125,-35.66250228881836,31.80000114440918,-4.106250286102295
1781033789528271400,5.717271240234375,-34.81875228881836,33.48750305175781,-4.556250095367432
1781033789548267800,5.737267822265625,-33.26250076293945,34.98750305175781,-4.612500190734863
1781033789568272100,5.757272216796875,-32.55000305175781,34.650001525878906,-4.03125
1781033789588268800,5.777268798828125,-32.306251525878906,34.875,-3.3937501907348633
1781033789608265500,5.797265380859375,-30.975000381469727,36.01875305175781,-3.281250238418579
1781033789628033300,5.817033203125,-31.218751907348633,35.36250305175781,-4.387500286102295
1781033789648030000,5.837030029296875,-31.875001907348633,32.98125076293945,-5.681250095367432
1781033789668034000,5.857033935546875,-31.14375114440918,33.67500305175781,-3.9562501907348633
1781033789688038400,5.877038330078125,-31.912500381469727,36.150001525878906,-4.5
1781033789708271400,5.897271240234375,-33.07500076293945,35.306251525878906,-5.625
1781033789728146200,5.917146240234375,-33.48750305175781,34.80000305175781,-4.631250381469727
1781033789747960300,5.936960205078125,-34.81875228881836,34.66875076293945,-4.012500286102295
1781033789768018000,5.957017822265625,-31.912500381469727,34.743751525878906,-5.268750190734863
1781033789788022000,5.97702197265625,-30.637500762939453,35.94375228881836,-7.031250476837158
1781033789808148500,5.9971484375,-32.15625,35.28750228881836,-5.643750190734863
1781033789828091400,6.01709130859375,-34.35000228881836,35.13750076293945,-2.71875
1781033789848034600,6.03703466796875,-35.0625,36.31875228881836,-2.5875000953674316
1781033789868031200,6.05703125,-33.75,35.56875228881836,-4.762500286102295
1781033789888035600,6.07703564453125,-33.09375,35.08125305175781,-6.281250476837158
1781033789908276000,6.09727587890625,-33.09375,34.23750305175781,-7.200000286102295
1781033789928273000,6.11727294921875,-35.587501525878906,33.69375228881836,-7.237500190734863
1781033789948277000,6.137277099609375,-33.86250305175781,36.09375,-8.231250762939453
1781033789968273700,6.157273681640625,-30.48750114440918,37.20000076293945,-8.362500190734863
1781033789988278000,6.177278076171875,-29.287500381469727,36.69375228881836,-7.181250095367432
1781033790008282000,6.1972822265625,-30.225000381469727,36.431251525878906,-8.231250762939453
1781033790028042500,6.21704248046875,-32.53125,35.38125228881836,-9.787500381469727
1781033790048039200,6.2370390625,-32.98125076293945,36.22500228881836,-9.05625057220459
1781033790068035800,6.257035888671875,-31.181251525878906,36.97500228881836,-9
1781033790088032500,6.277032470703125,-29.812501907348633,36.31875228881836,-9.71250057220459
1781033790108158700,6.29715869140625,-30.731250762939453,36.50625228881836,-9.90000057220459
1781033790128162800,6.317162841796875,-32.775001525878906,35.56875228881836,-9.975000381469727
1781033790148159500,6.337159423828125,-33.01875305175781,34.91250228881836,-11.081250190734863
1781033790168163800,6.357163818359375,-30.075000762939453,35.66250228881836,-11.02500057220459
1781033790188275000,6.37727490234375,-30.037500381469727,35.53125,-10.200000762939453
1781033790208271600,6.397271728515625,-31.856250762939453,35.587501525878906,-9.5625
1781033790228039400,6.417039306640625,-32.04375076293945,36.67500305175781,-7.781250476837158
1781033790248036000,6.4370361328125,-32.962501525878906,37.462501525878906,-7.687500476837158
1781033790268032800,6.45703271484375,-31.837501525878906,36.41250228881836,-8.850000381469727
1781033790288036900,6.477036865234375,-32.71875,35.493751525878906,-8.30625057220459
1781033790308269800,6.497269775390625,-34.931251525878906,35.493751525878906,-6.206250190734863
1781033790328266500,6.5172666015625,-35.41875076293945,36.431251525878906,-6.525000095367432
1781033790348270600,6.5372705078125,-35.47500228881836,36.69375228881836,-8.15625
1781033790368267300,6.557267333984375,-33.86250305175781,35.70000076293945,-8.49375057220459
1781033790388271600,6.577271728515625,-30.86250114440918,36.73125076293945,-6.750000476837158
1781033790408276000,6.59727587890625,-33.150001525878906,36.806251525878906,-6.300000190734863
1781033790428044000,6.6170439453125,-36.09375,35.85000228881836,-6.787500381469727
1781033790448048400,6.63704833984375,-33.60000228881836,36.5625,-6.937500476837158
1781033790468044800,6.657044921875,-32.47500228881836,37.368751525878906,-6.243750095367432
1781033790488041500,6.67704150390625,-32.04375076293945,37.48125076293945,-7.275000095367432
1781033790508244000,6.697243896484375,-32.493751525878906,36.09375,-8.043750762939453
1781033790528111000,6.717111083984375,-34.01250076293945,35.26875305175781,-6.450000286102295
1781033790547902500,6.73690234375,-33.11250305175781,36.26250076293945,-5.737500190734863
1781033790567670800,6.7566708984375,-32.868751525878906,36.900001525878906,-4.818750381469727
1781033790587698000,6.776697998046875,-32.88750076293945,36.84375,-5.662500381469727
1781033790607824100,6.79682421875,-32.17500305175781,36.48750305175781,-5.081250190734863
1781033790627797500,6.816797607421875,-33.30000305175781,36.54375076293945,-4.443750381469727
1781033790648030200,6.8370302734375,-33.30000305175781,36.54375076293945,-4.443750381469727
1781033790668034300,6.857034423828125,-33.50625228881836,35.587501525878906,-4.556250095367432
1781033790688038700,6.87703857421875,-33.75,36.993751525878906,-3.562500238418579
1781033790708271600,6.897271728515625,-32.19375228881836,38.08125305175781,-4.087500095367432
1781033790728276000,6.91727587890625,-30.787500381469727,36.69375228881836,-4.462500095367432
1781033790748272600,6.937272705078125,-32.32500076293945,36.88125228881836,-2.1187500953674316
1781033790768269000,6.95726904296875,-31.350000381469727,37.20000076293945,-0.45000001788139343
1781033790788265700,6.977265625,-30.900001525878906,36.806251525878906,-0.28125
1781033790808262400,6.997262451171875,-28.668750762939453,36.63750076293945,-2.4000000953674316
1781033790828030200,7.0170302734375,-33.69375228881836,37.743751525878906,-1.2000000476837158
1781033790848034600,7.03703466796875,-33.69375228881836,37.743751525878906,-1.2000000476837158
1781033790868039000,7.057038818359375,-35.64375305175781,35.53125,-0.16875000298023224
1781033790888043000,7.07704296875,-34.275001525878906,35.306251525878906,-0.4125000238418579
1781033790908276000,7.09727587890625,-32.71875,35.587501525878906,-1.6500000953674316
1781033790928272600,7.117272705078125,-31.162500381469727,34.875,-3.3937501907348633
1781033790948277000,7.137277099609375,-29.325000762939453,35.45625305175781,-2.7375001907348633
1781033790968273700,7.157273681640625,-29.325000762939453,35.45625305175781,-2.7375001907348633
1781033790988278000,7.177278076171875,-27.712501525878906,38.85000228881836,-6.112500190734863
1781033791008282000,7.1972822265625,-28.61250114440918,37.05000305175781,-7.350000381469727
1781033791028042500,7.21704248046875,-28.61250114440918,36.63750076293945,-7.818750381469727
1781033791048039000,7.237038818359375,-28.856250762939453,37.650001525878906,-7.068750381469727
1781033791068035600,7.25703564453125,-29.531251907348633,36.84375,-7.781250476837158
1781033791088032300,7.2770322265625,-31.125001907348633,36.48750305175781,-7.593750476837158
1781033791108265500,7.297265380859375,-27.918750762939453,36.243751525878906,-7.650000095367432
1781033791128269800,7.317269775390625,-26.17500114440918,37.650001525878906,-9.1875
1781033791148266200,7.337266357421875,-29.64375114440918,37.80000305175781,-10.387500762939453
1781033791168270600,7.3572705078125,-26.887500762939453,36,-11.02500057220459
1781033791188274700,7.377274658203125,-25.275001525878906,36.82500076293945,-9.90000057220459
1781033791208271400,7.397271240234375,-26.850000381469727,35.85000228881836,-10.40625
1781033791228039400,7.417039306640625,-27.525001525878906,34.44375228881836,-11.381250381469727
1781033791248036000,7.4370361328125,-27.825000762939453,36.16875076293945,-11.40000057220459
1781033791268032800,7.45703271484375,-28.33125114440918,37.650001525878906,-12.281250953674316
1781033791288037000,7.477037109375,-28.537500381469727,36.30000305175781,-12.43125057220459
1781033791308232000,7.49723193359375,-28.687501907348633,35.25,-11.081250190734863
1781033791328106500,7.5171064453125,-26.625001907348633,37.087501525878906,-9.24375057220459
1781033791347882500,7.536882568359375,-27.093751907348633,38.28750228881836,-8.700000762939453
1781033791367925000,7.556925048828125,-29.156251907348633,38.08125305175781,-9.112500190734863
1781033791387967500,7.576967529296875,-24.543750762939453,37.743751525878906,-7.518750190734863
1781033791408093400,7.597093505859375,-23.381250381469727,37.80000305175781,-6.487500190734863
1781033791428082200,7.617082275390625,-25.443750381469727,38.38125228881836,-7.031250476837158
1781033791448040400,7.63704052734375,-25.650001525878906,39.65625,-5.212500095367432
1781033791468037400,7.657037353515625,-20.381250381469727,39.86250305175781,-3.9937500953674316
1781033791488034000,7.677033935546875,-17.006250381469727,40.125,-5.25
1781033791508274700,7.697274658203125,-17.681251525878906,39.9375,-5.268750190734863
1781033791528271000,7.71727099609375,-19.668750762939453,39.30000305175781,-3.8625001907348633
1781033791548267800,7.737267822265625,-20.55000114440918,37.96875,-3.7875001430511475
1781033791568272100,7.757272216796875,-19.837501525878906,37.20000076293945,-3.6750001907348633
1781033791588268800,7.777268798828125,-22.368751525878906,37.61250305175781,-3.8062500953674316
1781033791608265500,7.797265380859375,-22.650001525878906,37.70625305175781,-5.043750286102295
1781033791628033300,7.817033203125,-21.9375,37.76250076293945,-4.21875
1781033791648030000,7.837030029296875,-22.42500114440918,37.875,-5.231250286102295
1781033791668034300,7.857034423828125,-22.293750762939453,37.462501525878906,-8.40000057220459
1781033791688038700,7.87703857421875,-24.150001525878906,36.375,-10.59375
1781033791708271400,7.897271240234375,-24.225000381469727,35.41875076293945,-13.200000762939453
1781033791728275700,7.917275634765625,-23.8125,34.25625228881836,-16.03125
1781033791748272400,7.9372724609375,-24.337501525878906,32.88750076293945,-19.087501525878906
1781033791768269000,7.95726904296875,-23.493751525878906,31.462501525878906,-22.78125
1781033791788273200,7.977273193359375,-24.20625114440918,29.587501525878906,-25.068750381469727
1781033791808270000,7.99727001953125,-27.375001907348633,29.26875114440918,-24.656251907348633
1781033791828038000,8.017037841796874,-30.562501907348633,30.150001525878906,-23.700000762939453
1781033791848042000,8.0370419921875,-27.562501907348633,28.968751907348633,-23.64375114440918
1781033791868038700,8.05703857421875,-23.231250762939453,27.67500114440918,-24.86250114440918
1781033791888043000,8.07704296875,-24.39375114440918,27.637500762939453,-25.481250762939453
1781033791908276000,8.09727587890625,-28.293750762939453,28.05000114440918,-25.818750381469727
1781033791928272600,8.117272705078125,-27.412500381469727,30.825000762939453,-24.48750114440918
1781033791948277000,8.137277099609374,-28.068750381469727,33.35625076293945,-21.28125
1781033791968273700,8.157273681640625,-31.875001907348633,31.51875114440918,-20.83125114440918
1781033791988277800,8.17727783203125,-32.45625305175781,29.493751525878906,-19.80000114440918
1781033792008282000,8.1972822265625,-30.918750762939453,32.64375305175781,-18.431251525878906
1781033792028042500,8.21704248046875,-28.200000762939453,36.41250228881836,-16.368751525878906
1781033792048039200,8.2370390625,-26.531251907348633,36.97500228881836,-13.406250953674316
1781033792068035800,8.257035888671876,-28.087501525878906,37.5,-11.68125057220459
1781033792088032500,8.277032470703125,-28.556251525878906,39.30000305175781,-10.65000057220459
1781033792108196900,8.29719677734375,-26.325000762939453,41.212501525878906,-10.46250057220459
1781033792128064300,8.317064208984375,-24.262500762939453,41.25,-9.637500762939453
1781033792147824600,8.33682470703125,-22.89375114440918,42.45000076293945,-8.68125057220459
1781033792167829000,8.3568291015625,-24.48750114440918,43.29375076293945,-7.743750095367432
1781033792187901700,8.376901611328124,-25.781251907348633,41.400001525878906,-7.725000381469727
1781033792208035000,8.39703515625,-24.900001525878906,42.150001525878906,-7.875000476837158
1781033792228039400,8.417039306640625,-24.468751907348633,43.14375305175781,-7.350000381469727
1781033792248036000,8.4370361328125,-23.962501525878906,44.025001525878906,-5.587500095367432
1781033792268032800,8.45703271484375,-24.450000762939453,44.17500305175781,-6.187500476837158
1781033792288037000,8.477037109375,-26.043750762939453,43.35000228881836,-7.312500476837158
1781033792308270000,8.49727001953125,-25.950000762939453,42.76875305175781,-4.668750286102295
1781033792328266800,8.517266845703125,-26.45625114440918,42.69375228881836,-5.925000190734863
1781033792348271000,8.53727099609375,-27.450000762939453,43.51875305175781,-7.912500381469727
1781033792368267800,8.557267822265626,-26.718751907348633,43.61250305175781,-6.656250476837158
1781033792388271900,8.57727197265625,-24.825000762939453,42.31875228881836,-5.568750381469727
1781033792408276200,8.597276123046875,-24.150001525878906,43.125,-4.650000095367432
1781033792428044000,8.6170439453125,-24.618751525878906,43.10625076293945,-5.0625
1781033792448048400,8.63704833984375,-26.662500381469727,43.33125305175781,-5.025000095367432
1781033792468045000,8.657045166015624,-26.437501907348633,42.50625228881836,-5.737500190734863
1781033792488041700,8.677041748046875,-20.943750381469727,42.07500076293945,-5.418750286102295
1781033792508274700,8.697274658203124,-17.981250762939453,43.875,-3.7875001430511475
1781033792528271000,8.71727099609375,-17.043750762939453,43.72500228881836,-3.187500238418579
1781033792548267800,8.737267822265625,-15.206250190734863,43.33125305175781,-3.0562500953674316
1781033792568272000,8.75727197265625,-14.568750381469727,44.212501525878906,-3.9937500953674316
1781033792588268500,8.7772685546875,-14.381250381469727,46.181251525878906,-3.375000238418579
1781033792608265200,8.79726513671875,-12.075000762939453,46.181251525878906,-2.9625000953674316
1781033792628033300,8.817033203125,-10.18125057220459,44.28750228881836,-2.15625
1781033792648030000,8.837030029296875,-9.881250381469727,45.056251525878906,0.8437500596046448
1781033792668034300,8.857034423828125,-7.781250476837158,45.525001525878906,2.325000047683716
1781033792688038700,8.87703857421875,-9.600000381469727,44.15625,1.5750000476837158
1781033792708271600,8.897271728515625,-11.643750190734863,43.80000305175781,1.7625000476837158
1781033792728276000,8.91727587890625,-13.031250953674316,43.78125,1.1437500715255737
1781033792748272600,8.937272705078126,-13.050000190734863,44.73750305175781,1.0500000715255737
1781033792768269000,8.95726904296875,-10.350000381469727,43.80000305175781,-0.956250011920929
1781033792788273400,8.9772734375,-10.162500381469727,42.26250076293945,-3.6187500953674316
1781033792808270000,8.99727001953125,-13.612500190734863,42.03750228881836,-4.650000095367432
1781033792828038000,9.017037841796874,-15.24375057220459,41.38125228881836,-5.962500095367432
1781033792848042200,9.037042236328125,-15.750000953674316,41.08125305175781,-7.650000095367432
1781033792868039000,9.057038818359375,-18.30000114440918,41.83125305175781,-8.381250381469727
1781033792888043300,9.077043212890626,-17.887500762939453,42.13125228881836,-9.600000381469727
1781033792908161800,9.097161865234375,-18.150001525878906,41.04375076293945,-11.381250381469727
1781033792927991000,9.116990966796875,-17.4375,39.243751525878906,-12.206250190734863
1781033792948064000,9.13706396484375,-16.51875114440918,39.243751525878906,-12
1781033792968083500,9.15708349609375,-16.556251525878906,39.76875305175781,-12.787500381469727
1781033792988194800,9.17719482421875,-15.468750953674316,38.025001525878906,-15.487500190734863
1781033793008366000,9.197365966796875,-15.468750953674316,37.59375,-16.14375114440918
1781033793028057900,9.217057861328126,-16.012500762939453,39.84375,-16.950000762939453
1781033793048031500,9.237031494140625,-13.818750381469727,40.875,-18.525001525878906
1781033793068035600,9.25703564453125,-11.362500190734863,40.06875228881836,-21.131250381469727
1781033793088032300,9.2770322265625,-13.218750953674316,41.04375076293945,-21.431251525878906
1781033793108265200,9.29726513671875,-14.86875057220459,40.96875,-22.668750762939453
1781033793128269600,9.31726953125,-18.09375,39.31875228881836,-24.900001525878906
1781033793148266200,9.337266357421875,-21.01875114440918,38.17500305175781,-25.200000762939453
1781033793168270600,9.3572705078125,-23.962501525878906,37.06875228881836,-25.087501525878906
1781033793188274700,9.377274658203126,-27.975000381469727,37.743751525878906,-21.86250114440918
1781033793208271400,9.397271240234375,-29.08125114440918,38.25,-20.325000762939453
1781033793228039400,9.417039306640625,-31.33125114440918,39.337501525878906,-18.9375
1781033793248036000,9.4370361328125,-30.750001907348633,40.05000305175781,-14.081250190734863
1781033793268032500,9.457032470703124,-29.83125114440918,40.66875076293945,-13.406250953674316
1781033793288036900,9.477036865234375,-31.05000114440918,43.14375305175781,-13.950000762939453
1781033793308269800,9.497269775390626,-30.525001525878906,43.29375076293945,-11.643750190734863
1781033793328266500,9.5172666015625,-30.20625114440918,42.88125228881836,-9.206250190734863
1781033793348270800,9.537270751953125,-31.14375114440918,42.46875,-10.068750381469727
1781033793368267500,9.557267578125,-34.16250228881836,42.58125305175781,-11.475000381469727
1781033793388271900,9.57727197265625,-37.80000305175781,42.84375,-11.21250057220459
1781033793408276000,9.59727587890625,-38.26875305175781,41.025001525878906,-12.656250953674316
1781033793428044000,9.6170439453125,-38.25,40.42500305175781,-12.937500953674316
1781033793448048400,9.63704833984375,-37.181251525878906,41.88750076293945,-13.818750381469727
1781033793468044800,9.657044921875,-36.11250305175781,42.91875076293945,-15.187500953674316
1781033793488041500,9.67704150390625,-35.47500228881836,43.81875228881836,-16.125
1781033793508274400,9.6972744140625,-32.34375,44.04375076293945,-17.587501525878906
1781033793528271000,9.71727099609375,-30.243751525878906,42.900001525878906,-17.325000762939453
1781033793548267800,9.737267822265625,-30.750001907348633,42.5625,-19.21875
1781033793568272000,9.75727197265625,-32.15625,42.31875228881836,-20.26875114440918
1781033793588268500,9.7772685546875,-31.42500114440918,40.98750305175781,-20.006250381469727
1781033793608265200,9.79726513671875,-32.98125076293945,38.45625305175781,-20.90625
1781033793628033300,9.817033203125,-34.98750305175781,36.9375,-20.83125114440918
1781033793648030000,9.837030029296875,-31.856250762939453,36.97500228881836,-22.51875114440918
1781033793668034300,9.857034423828125,-28.968751907348633,36.11250305175781,-25.968751907348633
1781033793687992600,9.87699267578125,-28.012500762939453,35.98125076293945,-24.95625114440918
1781033793708096000,9.897095947265624,-26.681251525878906,38.55000305175781,-23.64375114440918
1781033793727864300,9.9168642578125,-25.200000762939453,41.75625228881836,-24.150001525878906
1781033793747868700,9.93686865234375,-23.587501525878906,41.587501525878906,-23.55000114440918
1781033793767911000,9.956910888671874,-23.493751525878906,39.35625076293945,-22.556251525878906
1781033793788045000,9.977045166015625,-21.1875,39.58125305175781,-21.712501525878906
1781033793808277500,9.997277587890625,-20.53125,40.125,-22.068750381469727
1781033793828038000,10.017037841796874,-19.725000381469727,38.53125,-19.96875
1781033793848042200,10.037042236328125,-15.318750381469727,39.45000076293945,-16.98750114440918
1781033793868038700,10.05703857421875,-14.625000953674316,41.94375228881836,-14.437500953674316
1781033793888043000,10.07704296875,-14.850000381469727,43.556251525878906,-13.218750953674316
1781033793908276000,10.09727587890625,-12.356250762939453,44.73750305175781,-12.487500190734863
1781033793928272600,10.117272705078125,-10.518750190734863,45.525001525878906,-11.793750762939453
1781033793948277000,10.137277099609374,-10.96875,46.59375,-10.425000190734863
1781033793968273700,10.157273681640625,-10.200000762939453,46.16250228881836,-8.193750381469727
1781033793988270300,10.177270263671875,-10.631250381469727,45.618751525878906,-7.631250381469727
1781033794008274700,10.197274658203124,-10.350000381469727,44.681251525878906,-7.312500476837158
1781033794028034800,10.217034912109375,-8.30625057220459,44.25,-7.800000190734863
1781033794048031200,10.23703125,-8.831250190734863,44.51250076293945,-9.43125057220459
1781033794068035600,10.25703564453125,-9.956250190734863,43.33125305175781,-10.18125057220459
1781033794088032300,10.2770322265625,-12.24375057220459,42.525001525878906,-11.0625
1781033794108265200,10.29726513671875,-12.750000953674316,42.618751525878906,-12.52500057220459
1781033794128269600,10.31726953125,-11.21250057220459,41.45625305175781,-15.15000057220459
1781033794148266200,10.337266357421875,-12.168750762939453,40.743751525878906,-17.306251525878906
1781033794168270600,10.3572705078125,-13.781250953674316,40.5,-18.150001525878906
1781033794188274700,10.377274658203126,-14.287500381469727,37.78125,-21.337501525878906
1781033794208271600,10.397271728515625,-15.881250381469727,35.94375228881836,-23.418750762939453
1781033794228039700,10.417039794921875,-16.631250381469727,35.8125,-25.293750762939453
1781033794248036400,10.437036376953126,-17.137500762939453,33.67500305175781,-28.42500114440918
1781033794268032800,10.45703271484375,-17.850000381469727,32.60625076293945,-30.000001907348633
1781033794288036900,10.477036865234375,-19.6875,32.56875228881836,-31.031251907348633
1781033794308269800,10.497269775390626,-20.568750381469727,30.825000762939453,-31.42500114440918
1781033794328266500,10.5172666015625,-19.200000762939453,29.812501907348633,-31.950000762939453
1781033794348270800,10.537270751953125,-20.793750762939453,28.98750114440918,-32.868751525878906
1781033794368267500,10.557267578125,-20.381250381469727,29.287500381469727,-34.087501525878906
1781033794388271900,10.57727197265625,-18.131250381469727,31.443750381469727,-33.03750228881836
1781033794408276000,10.59727587890625,-19.743751525878906,31.218751907348633,-33.88125228881836
1781033794428044000,10.6170439453125,-23.212501525878906,32.98125076293945,-33.86250305175781
1781033794448048400,10.63704833984375,-23.92500114440918,35.41875076293945,-32.13750076293945
1781033794468045000,10.657045166015624,-23.193750381469727,35.71875,-30.656251907348633
1781033794487919600,10.676919677734375,-22.70625114440918,35.98125076293945,-29.381250381469727
1781033794507970000,10.696969970703124,-26.343751907348633,36.63750076293945,-29.062501907348633
1781033794528027600,10.717027587890625,-27.95625114440918,38.66250228881836,-27.787500381469727
1781033794548024300,10.7370244140625,-25.631250381469727,39.76875305175781,-25.406251907348633
1781033794568150500,10.757150634765624,-28.51875114440918,39.97500228881836,-23.0625
1781033794588329700,10.777329833984375,-30.993751525878906,40.33125305175781,-21.131250381469727
1781033794608265200,10.79726513671875,-30.693750381469727,41.0625,-18.975000381469727
1781033794628033300,10.817033203125,-31.631250381469727,41.66250228881836,-18.67500114440918
1781033794648030000,10.837030029296875,-33.41250228881836,41.55000305175781,-17.850000381469727
1781033794668034300,10.857034423828125,-35.625,39.9375,-16.743751525878906
1781033794688038700,10.87703857421875,-35.53125,37.48125076293945,-16.181251525878906
1781033794708271400,10.897271240234375,-34.63125228881836,36.60000228881836,-17.55000114440918
1781033794728275700,10.917275634765625,-34.98750305175781,37.96875,-19.89375114440918
1781033794748272400,10.9372724609375,-34.63125228881836,38.98125076293945,-21.86250114440918
1781033794768268800,10.957268798828125,-35.36250305175781,39.056251525878906,-23.512500762939453
1781033794788273200,10.977273193359375,-35.15625,40.03125,-23.418750762939453
1781033794808269800,10.997269775390626,-33.82500076293945,39.09375,-25.406251907348633
1781033794828037600,11.01703759765625,-32.28750228881836,38.32500076293945,-27.993751525878906
1781033794848042000,11.0370419921875,-32.56875228881836,36.993751525878906,-30.431251525878906
1781033794868038700,11.05703857421875,-31.42500114440918,34.95000076293945,-32.118751525878906
1781033794888043000,11.07704296875,-30.506250381469727,33.31875228881836,-33.13125228881836
1781033794908276000,11.09727587890625,-32.306251525878906,32.17500305175781,-33.45000076293945
1781033794928272600,11.117272705078125,-32.45625305175781,31.725000381469727,-31.631250381469727
1781033794948277000,11.137277099609374,-29.868751525878906,31.256250381469727,-29.625001907348633
1781033794968273400,11.1572734375,-26.025001525878906,31.725000381469727,-30.431251525878906
1781033794988277800,11.17727783203125,-24.656251907348633,30.731250762939453,-30.76875114440918
1781033795008282000,11.1972822265625,-24.356250762939453,31.087501525878906,-28.218751907348633
1781033795028042200,11.217042236328124,-24.637500762939453,34.06875228881836,-27.075000762939453
1781033795048039000,11.237038818359375,-24.656251907348633,36.26250076293945,-25.781251907348633
1781033795068035600,11.25703564453125,-24.58125114440918,36.618751525878906,-23.45625114440918
1781033795088032300,11.2770322265625,-22.21875,37.81875228881836,-19.818750381469727
1781033795108265500,11.297265380859375,-20.36250114440918,40.10625076293945,-16.875
1781033795128269600,11.31726953125,-20.587501525878906,41.962501525878906,-15.225000381469727
1781033795148266200,11.337266357421875,-17.756250381469727,43.125,-11.793750762939453
1781033795168270300,11.357270263671875,-13.425000190734863,44.10000228881836,-10.668750762939453
1781033795188274700,11.377274658203126,-13.143750190734863,44.400001525878906,-8.981250762939453
1781033795208271400,11.397271240234375,-12.112500190734863,43.837501525878906,-6.150000095367432
1781033795228039400,11.417039306640625,-7.293750286102295,44.4375,-4.875
1781033795248036000,11.4370361328125,-8.193750381469727,45.54375076293945,-2.8687500953674316
1781033795267979300,11.456979248046874,-9.112500190734863,45.712501525878906,-3.468750238418579
1781033795287862000,11.476862060546875,-6.825000286102295,44.70000076293945,-3.8062500953674316
1781033795307859500,11.496859375,-6.562500476837158,43.72500228881836,-3.918750047683716
1781033795327856000,11.516856201171874,-5.025000095367432,43.181251525878906,-5.868750095367432
1781033795347913700,11.536913818359375,-6.281250476837158,44.55000305175781,-8.40000057220459
1781033795368032000,11.557031982421876,-7.743750095367432,46.80000305175781,-9.393750190734863
1781033795388271600,11.577271728515624,-7.500000476837158,45.20625305175781,-10.40625
1781033795408276000,11.59727587890625,-8.456250190734863,41.868751525878906,-14.30625057220459
1781033795428044000,11.6170439453125,-9.28125,41.36250305175781,-18.712501525878906
1781033795448048000,11.637048095703125,-10.21875,40.087501525878906,-20.71875
1781033795468044800,11.657044921875,-11.8125,37.66875076293945,-22.631250381469727
1781033795488041500,11.67704150390625,-14.58750057220459,36.78750228881836,-24.787500381469727
1781033795508274400,11.6972744140625,-17.36250114440918,34.70625305175781,-27.48750114440918
1781033795528271000,11.71727099609375,-18.506250381469727,32.28750228881836,-29.400001525878906
1781033795548267800,11.737267822265625,-17.381250381469727,30.993751525878906,-31.218751907348633
1781033795568272100,11.757272216796874,-18.543750762939453,29.137500762939453,-33.28125
1781033795588268500,11.7772685546875,-21.075000762939453,27.243751525878906,-35.962501525878906
1781033795608265500,11.797265380859375,-19.537500381469727,27.075000762939453,-38.08125305175781
1781033795628033300,11.817033203125,-18.150001525878906,26.906251907348633,-37.48125076293945
1781033795648030000,11.837030029296875,-19.743751525878906,27.543750762939453,-36.993751525878906
1781033795668034300,11.857034423828125,-20.231250762939453,28.51875114440918,-36.65625
1781033795688038700,11.87703857421875,-19.80000114440918,29.662500381469727,-36.95625305175781
1781033795708271600,11.897271728515625,-21.225000381469727,34.05000305175781,-34.81875228881836
1781033795728275700,11.917275634765625,-23.0625,36.28125,-33.30000305175781
1781033795748272400,11.9372724609375,-22.14375114440918,36.95625305175781,-31.98750114440918
1781033795768269000,11.95726904296875,-22.59375,39.60000228881836,-29.812501907348633
1781033795788273400,11.9772734375,-24.187501907348633,41.26875305175781,-28.162500381469727
1781033795808269800,11.997269775390626,-24.356250762939453,41.41875076293945,-26.26875114440918
1781033795828038000,12.017037841796874,-26.587501525878906,41.71875,-24.975000381469727
1781033795848042200,12.037042236328125,-29.962501525878906,43.087501525878906,-22.70625114440918
1781033795868039000,12.057038818359375,-31.23750114440918,43.3125,-19.537500381469727
1781033795888043300,12.077043212890626,-29.850000381469727,42.13125228881836,-19.6875
1781033795908276200,12.097276123046875,-31.650001525878906,39.993751525878906,-20.53125
1781033795928272600,12.117272705078125,-34.76250076293945,38.775001525878906,-19.387500762939453
1781033795948277200,12.13727734375,-35.04375076293945,38.64375305175781,-21.056251525878906
1781033795968274000,12.15727392578125,-35.775001525878906,37.33125305175781,-23.700000762939453
1781033795988278000,12.177278076171875,-35.55000305175781,38.34375,-22.96875
1781033796008274700,12.197274658203124,-33.26250076293945,37.931251525878906,-22.818750381469727
1781033796028034800,12.217034912109375,-30.356250762939453,37.14375305175781,-25.23750114440918
1781033796048031500,12.237031494140625,-29.793750762939453,37.25625228881836,-28.968751907348633
1781033796067913700,12.256913818359376,-28.89375114440918,36.16875076293945,-30.543750762939453
1781033796087750700,12.276750732421876,-29.36250114440918,37.368751525878906,-30.000001907348633
1781033796108052500,12.297052490234375,-30.056251525878906,36.150001525878906,-31.162500381469727
1781033796128072000,12.317072021484375,-29.793750762939453,32.75625228881836,-33
1781033796148183000,12.33718310546875,-31.181251525878906,31.500001907348633,-34.57500076293945
1781033796168354300,12.357354248046875,-29.08125114440918,30.356250762939453,-34.10625076293945
1781033796188290000,12.3772900390625,-27.168750762939453,29.906251907348633,-31.875001907348633
1781033796208271600,12.397271728515625,-28.275001525878906,30.843751907348633,-29.887500762939453
1781033796228039700,12.417039794921875,-25.950000762939453,31.068750381469727,-28.837501525878906
1781033796248036400,12.437036376953126,-25.950000762939453,31.068750381469727,-28.837501525878906
1781033796268033000,12.457032958984374,-23.0625,34.57500076293945,-27.656251907348633
1781033796288037000,12.477037109375,-25.031251907348633,35.41875076293945,-24.225000381469727
1781033796308270000,12.49727001953125,-24.281251907348633,36.5625,-21.600000381469727
1781033796328266500,12.5172666015625,-22.40625,38.71875,-17.850000381469727
1781033796348270800,12.537270751953125,-18.037500381469727,41.587501525878906,-14.662500381469727
1781033796368267500,12.557267578125,-17.08125114440918,42.28125,-12.71250057220459
1781033796388271900,12.57727197265625,-16.743751525878906,41.493751525878906,-10.106250762939453
1781033796408276200,12.597276123046875,-13.293750762939453,42.97500228881836,-7.687500476837158
1781033796428044000,12.6170439453125,-8.137500762939453,43.81875228881836,-2.8500001430511475
1781033796448048000,12.637048095703125,-8.137500762939453,43.81875228881836,-2.8500001430511475
1781033796468045000,12.657045166015624,-7.143750190734863,44.8125,0.581250011920929
1781033796488041700,12.677041748046875,-7.575000286102295,45.67500305175781,1.725000023841858
1781033796508274700,12.697274658203124,-7.575000286102295,45.67500305175781,1.725000023841858
1781033796528271400,12.717271240234375,-8.21250057220459,44.400001525878906,2.418750047683716
1781033796548267800,12.737267822265625,-7.537500381469727,44.13750076293945,1.7625000476837158
1781033796568272000,12.75727197265625,-7.368750095367432,44.23125076293945,0.3187500238418579
1781033796588268500,12.7772685546875,-7.200000286102295,43.23750305175781,-2.71875
1781033796608265200,12.79726513671875,-6.618750095367432,43.38750076293945,-6.037500381469727
1781033796628033300,12.817033203125,-6.468750476837158,43.01250076293945,-8.568750381469727
1781033796648030000,12.837030029296875,-9.9375,42.54375076293945,-10.256250381469727
1781033796668034000,12.857033935546875,-12.093750953674316,41.55000305175781,-13.875000953674316
1781033796688038400,12.877038330078125,-14.643750190734863,39.63750076293945,-16.96875
1781033796708271400,12.897271240234375,-18.168750762939453,38.19375228881836,-21.693750381469727
1781033796728275700,12.917275634765625,-19.368751525878906,34.42500305175781,-26.45625114440918
1781033796748272400,12.9372724609375,-20.25,31.256250381469727,-28.05000114440918
1781033796768268800,12.957268798828125,-21.168750762939453,30.450000762939453,-28.743751525878906
1781033796788273200,12.977273193359375,-24.11250114440918,28.875001907348633,-29.718751907348633
1781033796808277500,12.997277587890625,-24.600000381469727,27.993751525878906,-31.481250762939453
1781033796828045600,13.017045654296876,-22.80000114440918,28.106250762939453,-32.32500076293945
1781033796848034600,13.03703466796875,-21.693750381469727,28.631250381469727,-32.681251525878906
1781033796867901400,13.0569013671875,-22.837501525878906,29.475000381469727,-31.743751525878906
1781033796887700500,13.076700439453125,-25.125001907348633,30.281251907348633,-31.650001525878906
1781033796907979000,13.09697900390625,-25.837501525878906,30.412500381469727,-32.66250228881836
1781033796927991000,13.116990966796875,-27.881250381469727,31.068750381469727,-31.950000762939453
1781033796948125000,13.137125,-26.718751907348633,33.54375076293945,-29.400001525878906
1781033796968319200,13.1573193359375,-25.387500762939453,36.525001525878906,-27.618751525878906
1781033796988270300,13.177270263671875,-30.39375114440918,38.868751525878906,-25.23750114440918
1781033797008274400,13.1972744140625,-31.725000381469727,39.618751525878906,-23.0625
1781033797028034800,13.217034912109375,-28.687501907348633,40.125,-20.962501525878906
1781033797048031500,13.237031494140625,-30.000001907348633,41.08125305175781,-18.356250762939453
1781033797068035800,13.257035888671876,-31.406251907348633,42.67500305175781,-17.962501525878906
1781033797088032500,13.277032470703125,-31.631250381469727,43.48125076293945,-17.25
1781033797108265500,13.297265380859375,-30.86250114440918,41.625,-16.40625
1781033797128269600,13.31726953125,-33.150001525878906,41.66250228881836,-16.387500762939453
1781033797148266200,13.337266357421875,-38.41875076293945,41.70000076293945,-16.743751525878906
1781033797168270600,13.3572705078125,-37.48125076293945,39.46875,-18.243751525878906
1781033797188275000,13.37727490234375,-36.375,39.375,-19.3125
1781033797208271600,13.397271728515625,-34.368751525878906,37.40625,-22.462501525878906
1781033797228039400,13.417039306640625,-31.031251907348633,36.337501525878906,-25.931251525878906
1781033797248036000,13.4370361328125,-31.312501907348633,37.05000305175781,-26.681251525878906
1781033797268032800,13.45703271484375,-30.86250114440918,36.60000228881836,-27.562501907348633
1781033797288036900,13.477036865234375,-30.693750381469727,37.06875228881836,-28.98750114440918
1781033797308270000,13.49727001953125,-30.01875114440918,35.83125305175781,-30.375001907348633
1781033797328266800,13.517266845703125,-29.531251907348633,32.83125305175781,-31.743751525878906
1781033797348270800,13.537270751953125,-30.431251525878906,30.806251525878906,-33.41250228881836
1781033797368267500,13.557267578125,-30.20625114440918,30.787500381469727,-33.618751525878906
1781033797388271600,13.577271728515624,-27.243751525878906,30.76875114440918,-33.45000076293945
1781033797408276000,13.59727587890625,-25.406251907348633,30.58125114440918,-33.07500076293945
1781033797428044000,13.6170439453125,-26.475000381469727,29.92500114440918,-31.668750762939453
1781033797448048000,13.637048095703125,-26.92500114440918,29.962501525878906,-31.23750114440918
1781033797468044800,13.657044921875,-24.225000381469727,30.450000762939453,-31.837501525878906
1781033797488041500,13.67704150390625,-22.818750381469727,31.350000381469727,-29.681251525878906
1781033797508274400,13.6972744140625,-25.05000114440918,32.118751525878906,-27.48750114440918
1781033797528271000,13.71727099609375,-22.743751525878906,33.54375076293945,-25.89375114440918
1781033797548267800,13.737267822265625,-19.05000114440918,35.0625,-22.856250762939453
1781033797568272000,13.75727197265625,-20.118751525878906,36.84375,-19.51875114440918
1781033797588268500,13.7772685546875,-20.137500762939453,39.46875,-17.793750762939453
1781033797608265200,13.79726513671875,-15.956250190734863,40.368751525878906,-15.018750190734863
1781033797628033000,13.817032958984376,-14.737500190734863,41.38125228881836,-11.381250381469727
1781033797648029700,13.83702978515625,-14.512500762939453,43.42500305175781,-9.693750381469727
1781033797667904500,13.856904541015625,-12.187500953674316,44.493751525878906,-7.518750190734863
1781033797687718700,13.87671875,-10.050000190734863,45.07500076293945,-4.350000381469727
1781033797708005000,13.897005126953125,-8.381250381469727,45.41250228881836,-2.043750047683716
1781033797728009200,13.91700927734375,-6.262500286102295,45.337501525878906,0
1781033797748135700,13.9371357421875,-4.612500190734863,44.625,0.956250011920929
1781033797768322300,13.957322265625,-4.856250286102295,44.400001525878906,0.5250000357627869
1781033797788273200,13.977273193359375,-4.181250095367432,44.34375,-0.13125000894069672
1781033797808269800,13.997269775390626,-5.831250190734863,43.21875,-2.9437501430511475
1781033797828037600,14.01703759765625,-8.21250057220459,43.23750305175781,-5.606250286102295
1781033797848042000,14.0370419921875,-9.46875,44.60625076293945,-8.362500190734863
1781033797868038700,14.05703857421875,-11.831250190734863,44.25,-11.100000381469727
1781033797888043000,14.07704296875,-11.15625,42.375,-12.975000381469727
1781033797908276000,14.09727587890625,-11.043750762939453,40.89375305175781,-17.71875
1781033797928272600,14.117272705078125,-14.137500762939453,39.60000228881836,-22.818750381469727
1781033797948277000,14.137277099609374,-17.08125114440918,37.875,-23.400001525878906
1781033797968273700,14.157273681640625,-19.481250762939453,34.05000305175781,-23.587501525878906
1781033797988270300,14.177270263671875,-21.318750381469727,30.168750762939453,-27.11250114440918
1781033798008274400,14.1972744140625,-20.700000762939453,28.98750114440918,-30.168750762939453
1781033798028034800,14.217034912109375,-18.46875,27.243751525878906,-32.66250228881836
1781033798048031500,14.237031494140625,-19.387500762939453,26.193750381469727,-34.21875
1781033798068035600,14.25703564453125,-21.506250381469727,26.906251907348633,-35.38125228881836
1781033798088032300,14.2770322265625,-21.75,26.250001907348633,-36.69375228881836
1781033798108265200,14.29726513671875,-23.55000114440918,28.181251525878906,-34.181251525878906
1781033798128269600,14.31726953125,-25.162500381469727,30.187501907348633,-33.11250305175781
1781033798148266200,14.337266357421875,-24.95625114440918,30.337501525878906,-33.50625228881836
1781033798168270600,14.3572705078125,-25.89375114440918,33.95625305175781,-31.650001525878906
1781033798188274700,14.377274658203126,-25.031251907348633,36.31875228881836,-30.562501907348633
1781033798208271400,14.397271240234375,-26.325000762939453,36.07500076293945,-28.912500381469727
1781033798228039400,14.417039306640625,-28.781251907348633,38.04375076293945,-25.762500762939453
1781033798248036000,14.4370361328125,-29.193750381469727,39.806251525878906,-22.650001525878906
1781033798268032500,14.457032470703124,-27.975000381469727,39.97500228881836,-20.15625
1781033798288036900,14.477036865234375,-30.450000762939453,39.88125228881836,-19.3125
1781033798308270000,14.49727001953125,-32.025001525878906,40.76250076293945,-17.943750381469727
1781033798328266800,14.517266845703125,-32.45625305175781,43.10625076293945,-14.77500057220459
1781033798348270800,14.537270751953125,-35.625,42.993751525878906,-14.137500762939453
1781033798368267500,14.557267578125,-36.26250076293945,41.25,-14.325000762939453
1781033798388271600,14.577271728515624,-37.556251525878906,39.01875305175781,-13.725000381469727
1781033798408276000,14.59727587890625,-39.16875076293945,37.76250076293945,-15.300000190734863
1781033798428043800,14.617043701171875,-40.59375,38.26875305175781,-16.6875
1781033798448002300,14.637002197265625,-38.587501525878906,38.34375,-17.943750381469727
1781033798467869400,14.656869384765624,-37.3125,38.71875,-20.625
1781033798487645700,14.676645751953124,-36.20625305175781,38.19375228881836,-22.350000381469727
1781033798507894000,14.69689404296875,-35.8125,39.50625228881836,-22.837501525878906
1781033798527936500,14.7169365234375,-35.212501525878906,39.900001525878906,-25.293750762939453
1781033798548062500,14.7370625,-31.61250114440918,37.70625305175781,-28.481250762939453
1781033798568287500,14.75728759765625,-31.181251525878906,36.60000228881836,-30.48750114440918
1781033798588268500,14.7772685546875,-29.83125114440918,35.53125,-31.650001525878906
1781033798608265500,14.797265380859375,-27.506250381469727,33.13125228881836,-32.56875228881836
1781033798628033300,14.817033203125,-26.981250762939453,30.431251525878906,-32.64375305175781
1781033798648030000,14.837030029296875,-25.650001525878906,29.92500114440918,-34.181251525878906
1781033798668034300,14.857034423828125,-25.687501907348633,30.056251525878906,-34.98750305175781
1781033798688038400,14.877038330078125,-26.062501907348633,30.806251525878906,-32.625
1781033798708271600,14.897271728515625,-24.881250381469727,30.95625114440918,-30.318750381469727
1781033798728275700,14.917275634765625,-24.356250762939453,31.89375114440918,-27.731250762939453
1781033798748272400,14.9372724609375,-24.787500381469727,33.1875,-25.912500381469727
1781033798768269300,14.957269287109375,-22.51875114440918,35.38125228881836,-24.243751525878906
1781033798788273400,14.9772734375,-20.625,36.97500228881836,-20.55000114440918
1781033798808270000,14.99727001953125,-21.150001525878906,38.13750076293945,-15.000000953674316
1781033798828038100,15.0170380859375,-18.84375,41.868751525878906,-10.65000057220459
1781033798848042200,15.037042236328125,-13.74375057220459,43.38750076293945,-7.425000190734863
1781033798868039000,15.057038818359375,-12.075000762939453,44.962501525878906,-3.731250047683716
1781033798888043000,15.07704296875,-11.96250057220459,45.63750076293945,0.30000001192092896
1781033798908276000,15.09727587890625,-6.675000190734863,44.85000228881836,1.2000000476837158
1781033798928272600,15.117272705078125,-3.450000047683716,46.10625076293945,2.981250047683716
1781033798948277000,15.137277099609374,-5.475000381469727,46.38750076293945,4.068750381469727
1781033798968273700,15.157273681640625,-6.750000476837158,44.36250305175781,5.100000381469727
1781033798988277800,15.17727783203125,-5.737500190734863,42.95625305175781,7.031250476837158
1781033799008282000,15.1972822265625,-6.018750190734863,43.44375228881836,5.831250190734863
1781033799028042500,15.21704248046875,-6.993750095367432,44.118751525878906,4.256250381469727
1781033799048039000,15.237038818359375,-7.481250286102295,43.25625228881836,2.90625
1781033799068035600,15.25703564453125,-8.21250057220459,44.36250305175781,1.9875000715255737
1781033799088032300,15.2770322265625,-5.362500190734863,44.47500228881836,-1.350000023841858
1781033799108265200,15.29726513671875,-2.9625000953674316,44.19375228881836,-4.725000381469727
1781033799128269600,15.31726953125,-3.0187501907348633,44.868751525878906,-6.112500190734863
1781033799148266200,15.337266357421875,-4.5,44.025001525878906,-10.143750190734863
1781033799168270600,15.3572705078125,-6.412500381469727,43.03125,-13.575000762939453
1781033799188274700,15.377274658203126,-9.450000762939453,41.88750076293945,-16.78125
1781033799208271400,15.397271240234375,-10.65000057220459,39.09375,-21.243751525878906
1781033799228039400,15.417039306640625,-14.793750762939453,36.01875305175781,-24.86250114440918
1781033799247952100,15.4369521484375,-20.756250381469727,32.98125076293945,-28.05000114440918
1781033799267804400,15.456804443359376,-22.368751525878906,31.312501907348633,-30.093751907348633
1781033799287572500,15.476572509765624,-23.0625,30.881250381469727,-30.975000381469727
1781033799307858700,15.496858642578125,-25.106250762939453,29.73750114440918,-31.275001525878906
1781033799327939300,15.516939208984375,-25.33125114440918,29.493751525878906,-31.931251525878906
1781033799348088000,15.537088134765625,-22.443750381469727,30.11250114440918,-33.76875305175781
1781033799368321000,15.557321044921874,-24.525001525878906,31.912500381469727,-32.92500305175781
1781033799388271900,15.57727197265625,-25.631250381469727,33.03750228881836,-30.918750762939453
1781033799408276000,15.59727587890625,-22.42500114440918,34.03125,-29.793750762939453
1781033799428036000,15.6170361328125,-22.912500381469727,36.243751525878906,-28.312501907348633
1781033799448040400,15.63704052734375,-26.793750762939453,38.90625,-26.943750381469727
1781033799468037000,15.657037109375,-28.368751525878906,40.21875,-24.918750762939453
1781033799488033800,15.67703369140625,-30.131250381469727,41.212501525878906,-22.087501525878906
1781033799508274400,15.6972744140625,-31.162500381469727,41.88750076293945,-18.037500381469727
1781033799528271000,15.71727099609375,-31.256250381469727,41.98125076293945,-14.081250190734863
1781033799548267800,15.737267822265625,-33.09375,43.81875228881836,-12.825000762939453
1781033799568272000,15.75727197265625,-33.712501525878906,42.54375076293945,-12.112500190734863
1781033799588268500,15.7772685546875,-37.21875,39.431251525878906,-10.350000381469727
1781033799608265200,15.79726513671875,-39.50625228881836,40.72500228881836,-8.925000190734863
1781033799628033300,15.817033203125,-36.76875305175781,41.08125305175781,-8.700000762939453
1781033799648029700,15.83702978515625,-36.95625305175781,38.51250076293945,-9.825000762939453
1781033799668034000,15.857033935546875,-41.94375228881836,37.837501525878906,-9.43125057220459
1781033799688038100,15.8770380859375,-43.80000305175781,36.58125305175781,-11.21250057220459
1781033799708271400,15.897271240234375,-41.32500076293945,35.23125076293945,-13.668750762939453
1781033799728275500,15.917275390625,-38.90625,36.20625305175781,-15.675000190734863
1781033799748272000,15.937272216796876,-35.400001525878906,37.25625228881836,-19.33125114440918
1781033799768269000,15.95726904296875,-32.51250076293945,37.03125,-21.881250381469727
1781033799788273200,15.977273193359375,-32.75625228881836,36.39375305175781,-22.78125
1781033799808269800,15.997269775390626,-31.012500762939453,36,-25.350000381469727
1781033799828038000,16.017037841796874,-31.200000762939453,33.806251525878906,-26.418750762939453
1781033799848042000,16.0370419921875,-31.42500114440918,31.387500762939453,-28.125001907348633
1781033799868038700,16.05703857421875,-29.64375114440918,29.850000381469727,-30.600000381469727
1781033799888042800,16.077042724609374,-28.031251907348633,29.625001907348633,-30.637500762939453
1781033799908275700,16.097275634765627,-27.637500762939453,29.718751907348633,-32.10000228881836
1781033799928272600,16.117272705078125,-28.293750762939453,29.17500114440918,-31.725000381469727
1781033799948276700,16.13727685546875,-26.906251907348633,29.587501525878906,-30.86250114440918
1781033799968273400,16.1572734375,-24.918750762939453,31.256250381469727,-31.537500381469727
1781033799988277800,16.17727783203125,-25.350000381469727,32.73750305175781,-29.718751907348633
1781033800008282000,16.1972822265625,-25.70625114440918,33.993751525878906,-25.61250114440918
1781033800028042200,16.217042236328126,-24.056251525878906,36.150001525878906,-21.86250114440918
1781033800047939800,16.23693994140625,-22.668750762939453,37.40625,-20.26875114440918
1781033800067776800,16.25677685546875,-19.181251525878906,37.91250228881836,-17.756250381469727
1781033800087537700,16.27653759765625,-17.26875114440918,39.73125076293945,-13.406250953674316
1781033800107770600,16.2967705078125,-16.23750114440918,42.03750228881836,-7.968750476837158
1781033800127874000,16.3168740234375,-13.612500190734863,43.462501525878906,-3.450000047683716
1781033800148030500,16.337030517578125,-8.981250762939453,43.368751525878906,-1.21875
1781033800168270300,16.357270263671875,-6.675000190734863,43.81875228881836,0.05625000223517418
1781033800188206000,16.3772060546875,-4.275000095367432,43.81875228881836,3.356250047683716
1781033800208202800,16.39720263671875,-2.1750001907348633,44.32500076293945,5.268750190734863
1781033800227970800,16.416970703125,-4.668750286102295,44.8125,6.393750190734863
1781033800247967200,16.43696728515625,-6.206250190734863,43.72500228881836,7.106250286102295
1781033800268032800,16.45703271484375,-6.468750476837158,43.275001525878906,6.018750190734863
1781033800288036900,16.477036865234375,-9.1875,43.76250076293945,6.937500476837158
1781033800308269800,16.497269775390624,-11.49375057220459,44.75625228881836,6.862500190734863
1781033800328266500,16.5172666015625,-10.74375057220459,45.78750228881836,2.8125
1781033800348270600,16.5372705078125,-8.30625057220459,44.962501525878906,-0.22500000894069672
1781033800368267300,16.557267333984374,-9.693750381469727,43.53750228881836,-1.6125000715255737
1781033800388271600,16.577271728515626,-10.6875,44.38125228881836,-3.6000001430511475
1781033800408276000,16.59727587890625,-9.412500381469727,44.34375,-6.525000095367432
1781033800428044000,16.6170439453125,-10.875,42.525001525878906,-10.875
1781033800448048400,16.63704833984375,-12.375000953674316,42.03750228881836,-15.281250953674316
1781033800468045000,16.657045166015624,-14.943750381469727,39.07500076293945,-19.537500381469727
1781033800488041500,16.67704150390625,-18.356250762939453,35.66250228881836,-22.162500381469727
1781033800508274400,16.6972744140625,-19.537500381469727,34.53750228881836,-24.76875114440918
1781033800528271000,16.71727099609375,-20.26875114440918,31.200000762939453,-28.89375114440918
1781033800548267800,16.737267822265625,-20.55000114440918,29.868751525878906,-31.312501907348633
1781033800568272000,16.75727197265625,-21.037500381469727,29.381250381469727,-32.8125
1781033800588268500,16.7772685546875,-22.837501525878906,26.418750762939453,-34.368751525878906
1781033800608265200,16.79726513671875,-23.962501525878906,25.42500114440918,-35.10000228881836
1781033800628033300,16.817033203125,-22.856250762939453,25.950000762939453,-35.47500228881836
1781033800648029700,16.83702978515625,-23.325000762939453,27.562501907348633,-34.462501525878906
1781033800668034000,16.857033935546873,-24.468751907348633,28.781251907348633,-33.900001525878906
1781033800688038400,16.877038330078125,-24.037500381469727,29.55000114440918,-33.806251525878906
1781033800708271400,16.897271240234375,-26.26875114440918,30.468751907348633,-32.025001525878906
1781033800728275500,16.917275390625,-27.356250762939453,31.23750114440918,-29.437501907348633
1781033800748272000,16.937272216796874,-27.67500114440918,35.53125,-28.762500762939453
1781033800768269000,16.95726904296875,-27.525001525878906,37.80000305175781,-29.137500762939453
1781033800788273200,16.977273193359373,-26.118751525878906,37.44375228881836,-28.368751525878906
1781033800808269800,16.997269775390624,-26.587501525878906,41.10000228881836,-25.668750762939453
1781033800828037600,17.01703759765625,-26.850000381469727,44.70000076293945,-23.606250762939453
1781033800847912200,17.036912109375,-27.075000762939453,45.73125076293945,-22.650001525878906
1781033800867695900,17.05669580078125,-28.856250762939453,44.83125305175781,-22.125
1781033800887464400,17.07646435546875,-31.33125114440918,43.53750228881836,-21.806251525878906
1781033800907697400,17.096697509765626,-30.637500762939453,43.95000076293945,-21.356250762939453
1781033800927823600,17.11682373046875,-32.25,44.775001525878906,-21.056251525878906
1781033800948041000,17.137041015625,-34.57500076293945,43.275001525878906,-23.681251525878906
1781033800968273400,17.1572734375,-32.55000305175781,42.16875076293945,-25.293750762939453
1781033800988270000,17.17727001953125,-32.04375076293945,41.00625228881836,-25.200000762939453
1781033801008274400,17.1972744140625,-32.0625,38.34375,-27.58125114440918
1781033801028034800,17.217034912109376,-30.450000762939453,35.92500305175781,-29.100000381469727
1781033801048031500,17.237031494140624,-29.306251525878906,35.47500228881836,-29.793750762939453
1781033801068035600,17.25703564453125,-28.856250762939453,35.212501525878906,-30.450000762939453
1781033801088032300,17.2770322265625,-27.95625114440918,33.993751525878906,-31.42500114440918
1781033801108265500,17.297265380859375,-26.625001907348633,32.64375305175781,-33.88125228881836
1781033801128269600,17.31726953125,-25.537500381469727,32.306251525878906,-35.79375076293945
1781033801148266200,17.337266357421875,-26.681251525878906,31.481250762939453,-36.69375228881836
1781033801168270600,17.3572705078125,-26.418750762939453,29.943750381469727,-36.65625
1781033801188274700,17.377274658203124,-24.356250762939453,28.950000762939453,-36.993751525878906
1781033801208271400,17.397271240234375,-24.318750381469727,25.968751907348633,-38.15625
1781033801228039400,17.417039306640625,-25.200000762939453,26.043750762939453,-37.3125
1781033801248036000,17.4370361328125,-22.668750762939453,27.075000762939453,-35.962501525878906
1781033801268032800,17.45703271484375,-21.9375,27.168750762939453,-34.51875305175781
1781033801288036900,17.477036865234375,-23.100000381469727,29.400001525878906,-33
1781033801308270000,17.49727001953125,-23.287500381469727,30.11250114440918,-31.256250381469727
1781033801328274200,17.517274169921876,-24.76875114440918,30.975000381469727,-27.187501907348633
1781033801348278500,17.537278564453125,-23.381250381469727,34.087501525878906,-23.962501525878906
1781033801368275200,17.557275146484375,-22.181251525878906,36.63750076293945,-20.15625
1781033801388279300,17.577279296875,-24.76875114440918,37.42500305175781,-14.850000381469727
1781033801408276000,17.59727587890625,-25.350000381469727,38.10000228881836,-11.006250381469727
1781033801428044000,17.6170439453125,-24.131250381469727,38.868751525878906,-7.818750381469727
1781033801448048000,17.637048095703125,-20.15625,40.48125076293945,-3.3187501430511475
1781033801468044800,17.657044921875,-15.731250762939453,42.46875,1.03125
1781033801488041500,17.67704150390625,-15.956250190734863,43.89375305175781,2.231250047683716
1781033801508274400,17.6972744140625,-15.675000190734863,43.40625,3.4312500953674316
1781033801528271000,17.71727099609375,-14.193750381469727,41.60625076293945,5.287500381469727
1781033801548267800,17.737267822265625,-13.987500190734863,41.55000305175781,4.668750286102295
1781033801568272100,17.757272216796874,-13.631250381469727,42.76875305175781,2.90625
1781033801588268800,17.777268798828125,-16.087501525878906,41.85000228881836,3.262500047683716
1781033801608273000,17.79727294921875,-18.168750762939453,40.837501525878906,1.912500023841858
1781033801628041000,17.817041015625,-17.118751525878906,41.23125076293945,-0.5437500476837158
1781033801647893000,17.83689306640625,-17.118751525878906,41.23125076293945,-0.5437500476837158
1781033801667661300,17.856661376953124,-15.90000057220459,42.50625228881836,-3.9562501907348633
1781033801687658000,17.876657958984374,-18.01875114440918,41.94375228881836,-6.712500095367432
1781033801707891000,17.896890869140623,-19.462501525878906,39.5625,-10.706250190734863
1781033801728039700,17.917039794921877,-18.356250762939453,38.41875076293945,-13.125000953674316
1781033801748272000,17.937272216796874,-18.168750762939453,38.56875228881836,-13.950000762939453
1781033801768268800,17.957268798828125,-18.693750381469727,36.9375,-17.868751525878906
1781033801788273200,17.977273193359373,-18.506250381469727,34.01250076293945,-21.09375
1781033801808269600,17.99726953125,-20.850000381469727,33.056251525878906,-24.30000114440918
1781033801828037600,18.01703759765625,-24.787500381469727,29.306251525878906,-29.043750762939453
1781033801848042000,18.0370419921875,-24.787500381469727,29.306251525878906,-29.043750762939453
1781033801868038700,18.05703857421875,-22.256250381469727,27.075000762939453,-30.356250762939453
1781033801888043000,18.07704296875,-21.39375114440918,26.568750381469727,-32.08125305175781
1781033801908276000,18.09727587890625,-24.39375114440918,25.875001907348633,-34.21875
1781033801928272600,18.117272705078125,-25.61250114440918,27.356250762939453,-35.28750228881836
1781033801948277000,18.137277099609374,-25.14375114440918,27.975000381469727,-34.38750076293945
1781033801968273700,18.157273681640625,-24.937501907348633,27.750001907348633,-34.837501525878906
1781033801988277800,18.17727783203125,-25.89375114440918,29.043750762939453,-35.71875
1781033802008282000,18.1972822265625,-24.506250381469727,31.781251907348633,-32.32500076293945
1781033802028042200,18.217042236328126,-27.656251907348633,36.41250228881836,-27.000001907348633
1781033802048039000,18.237038818359373,-27.656251907348633,36.41250228881836,-27.000001907348633
1781033802068035600,18.25703564453125,-27.656251907348633,36.41250228881836,-27.000001907348633
1781033802088032300,18.2770322265625,-29.625001907348633,40.29375076293945,-21.356250762939453
1781033802108265200,18.29726513671875,-32.10000228881836,43.275001525878906,-17.662500381469727
1781033802128269600,18.31726953125,-32.94375228881836,43.650001525878906,-15.131250381469727
1781033802148266200,18.337266357421875,-33.78750228881836,43.181251525878906,-13.93125057220459
1781033802168270300,18.357270263671875,-34.6875,42.60000228881836,-14.193750381469727
1781033802188274700,18.377274658203124,-35.85000228881836,43.61250305175781,-13.65000057220459
1781033802208271400,18.397271240234375,-36.30000305175781,44.0625,-12.768750190734863
1781033802228039400,18.417039306640625,-38.34375,41.25,-14.925000190734863
1781033802248036000,18.4370361328125,-37.01250076293945,40.125,-16.931251525878906
1781033802268032500,18.457032470703126,-37.29375076293945,40.40625,-18.5625
1781033802288036900,18.477036865234375,-39.22500228881836,41.23125076293945,-20.73750114440918
1781033802308269800,18.497269775390624,-36.30000305175781,41.0625,-22.462501525878906
1781033802328266500,18.5172666015625,-34.01250076293945,38.775001525878906,-24.600000381469727
1781033802348270800,18.537270751953123,-33.30000305175781,36.58125305175781,-25.462501525878906
1781033802368267500,18.557267578125,-32.625,36.375,-25.70625114440918
1781033802388271600,18.577271728515626,-32.681251525878906,35.83125305175781,-28.05000114440918
1781033802408276000,18.59727587890625,-31.80000114440918,34.931251525878906,-29.606250762939453
1781033802428044000,18.6170439453125,-31.556251525878906,33.50625228881836,-30.806251525878906
1781033802447865600,18.636865478515624,-29.043750762939453,32.88750076293945,-30.900001525878906
1781033802467626500,18.65662646484375,-27.431251525878906,33.50625228881836,-30.01875114440918
1781033802487623000,18.676622802734375,-26.943750381469727,32.75625228881836,-29.700000762939453
1781033802507856100,18.696856201171876,-26.962501525878906,33.5625,-29.193750381469727
1781033802528035000,18.71703515625,-27.131250381469727,33.243751525878906,-28.181251525878906
1781033802548267800,18.737267822265625,-24.356250762939453,32.53125,-27.037500381469727
1781033802568272000,18.75727197265625,-25.312501907348633,34.05000305175781,-27.281251907348633
1781033802588268500,18.7772685546875,-24.39375114440918,36.525001525878906,-24.731250762939453
1781033802608265200,18.79726513671875,-23.418750762939453,38.10000228881836,-21.431251525878906
1781033802628033000,18.817032958984374,-19.51875114440918,39.09375,-20.325000762939453
1781033802648029700,18.83702978515625,-16.98750114440918,40.16250228881836,-18.150001525878906
1781033802668034000,18.857033935546873,-18.075000762939453,41.90625,-15.450000762939453
1781033802688038400,18.877038330078125,-16.40625,43.06875228881836,-12.43125057220459
1781033802708271400,18.897271240234375,-17.212501525878906,42.525001525878906,-9.356250762939453
1781033802728275700,18.917275634765623,-16.481250762939453,43.21875,-7.406250476837158
1781033802748272400,18.9372724609375,-13.27500057220459,44.4375,-5.850000381469727
1781033802768268800,18.957268798828125,-9.825000762939453,44.85000228881836,-5.006250381469727
1781033802788273200,18.977273193359373,-6.150000095367432,44.88750076293945,-3.7875001430511475
1781033802808269800,18.997269775390624,-7.950000286102295,44.71875,-3.5812501907348633
1781033802828037600,19.01703759765625,-9.131250381469727,44.88750076293945,-4.181250095367432
1781033802848042000,19.0370419921875,-8.418750762939453,45.54375076293945,-3.075000047683716
1781033802868038700,19.05703857421875,-9.506250381469727,44.64375305175781,-2.325000047683716
1781033802888043000,19.07704296875,-9.99375057220459,43.14375305175781,-4.575000286102295
1781033802908276000,19.09727587890625,-12.356250762939453,41.98125076293945,-8.006250381469727
1781033802928272400,19.1172724609375,-15.168750762939453,42.01875305175781,-10.481250762939453
1781033802948276700,19.13727685546875,-14.981250762939453,40.70625305175781,-12.693750381469727
1781033802968273400,19.1572734375,-13.912500381469727,39.50625228881836,-15.956250190734863
1781033802988277800,19.17727783203125,-17.606250762939453,37.875,-18.1875
1781033803008282000,19.1972822265625,-18.30000114440918,35.36250305175781,-20.943750381469727
1781033803028042200,19.217042236328126,-18.168750762939453,32.90625,-26.006250381469727
1781033803048039200,19.2370390625,-21.86250114440918,29.981250762939453,-29.83125114440918
1781033803068035800,19.257035888671876,-23.25,28.950000762939453,-31.181251525878906
1781033803088032500,19.277032470703126,-23.26875114440918,29.512500762939453,-31.33125114440918
1781033803108265500,19.297265380859375,-22.14375114440918,28.668750762939453,-32.26875305175781
1781033803128269600,19.31726953125,-21.39375114440918,25.350000381469727,-33.03750228881836
1781033803148266200,19.337266357421875,-22.80000114440918,25.481250762939453,-34.05000305175781
1781033803168270600,19.3572705078125,-23.83125114440918,27.056251525878906,-36.375
1781033803188275000,19.37727490234375,-24.262500762939453,27.525001525878906,-35.28750228881836
1781033803208187600,19.397187744140624,-28.087501525878906,28.89375114440918,-32.8125
1781033803227955500,19.41695556640625,-30.618751525878906,29.493751525878906,-32.92500305175781
1781033803247715800,19.4367158203125,-31.087501525878906,30.075000762939453,-33.07500076293945
1781033803267765800,19.456765869140625,-31.762500762939453,30.750001907348633,-31.743751525878906
1781033803287854000,19.47685400390625,-31.462501525878906,31.05000114440918,-30.037500381469727
1781033803308086800,19.497086669921874,-30.525001525878906,32.94375228881836,-27.562501907348633
1781033803328319700,19.51731982421875,-28.031251907348633,35.94375228881836,-25.593751907348633
1781033803348270800,19.537270751953123,-27.39375114440918,39.09375,-24.20625114440918
1781033803368267500,19.557267578125,-30.843751907348633,41.53125,-23.08125114440918
1781033803388271600,19.577271728515626,-32.66250228881836,41.400001525878906,-22.462501525878906
1781033803408276000,19.59727587890625,-32.83125305175781,40.91250228881836,-21.262500762939453
1781033803428043800,19.617043701171873,-33.30000305175781,41.70000076293945,-21.168750762939453
1781033803448048000,19.637048095703125,-33.50625228881836,41.53125,-20.756250381469727
1781033803468044800,19.657044921875,-35.775001525878906,40.81875228881836,-20.400001525878906
1781033803488041500,19.67704150390625,-36.63750076293945,39.50625228881836,-20.118751525878906
1781033803508274400,19.6972744140625,-35.53125,39,-21.65625
1781033803528271000,19.71727099609375,-35.17500305175781,37.53750228881836,-25.968751907348633
1781033803548267500,19.737267578125,-35.19375228881836,35.45625305175781,-28.275001525878906
1781033803568272000,19.75727197265625,-33.35625076293945,35.45625305175781,-27.881250381469727
1781033803588268500,19.7772685546875,-32.23125076293945,36.431251525878906,-27.58125114440918
1781033803608265200,19.79726513671875,-31.593751907348633,37.5,-28.500001907348633
1781033803628033000,19.817032958984374,-29.381250381469727,37.96875,-29.718751907348633
1781033803648029700,19.83702978515625,-28.462501525878906,37.33125305175781,-30.431251525878906
1781033803668033800,19.85703369140625,-28.218751907348633,35.90625,-31.42500114440918
1781033803688038100,19.8770380859375,-26.83125114440918,36.54375076293945,-30.318750381469727
1781033803708271400,19.897271240234375,-24.506250381469727,36.88125228881836,-28.012500762939453
1781033803728275700,19.917275634765623,-25.650001525878906,36.46875,-28.668750762939453
1781033803748272000,19.937272216796874,-26.73750114440918,36.16875076293945,-27.656251907348633
1781033803768268800,19.957268798828125,-24.39375114440918,35.493751525878906,-25.875001907348633
1781033803788273200,19.977273193359373,-22.556251525878906,35.118751525878906,-25.312501907348633
1781033803808269600,19.99726953125,-22.03125,37.3125,-21.543750762939453
1781033803828038000,20.017037841796874,-22.668750762939453,38.625,-19.087501525878906
1781033803848042000,20.0370419921875,-22.89375114440918,39.243751525878906,-18.825000762939453
1781033803868038700,20.05703857421875,-19.387500762939453,41.4375,-14.02500057220459
1781033803888043000,20.07704296875,-14.887500762939453,41.98125076293945,-8.40000057220459
1781033803908276000,20.09727587890625,-12.356250762939453,44.625,-5.850000381469727
1781033803928272600,20.117272705078125,-8.662500381469727,45.900001525878906,-3.450000047683716
1781033803948276700,20.13727685546875,-5.850000381469727,45.20625305175781,-1.8937500715255737
1781033803968273400,20.1572734375,-6.037500381469727,44.90625,-0.675000011920929
1781033803988277800,20.17727783203125,-7.425000190734863,45.31875228881836,-0.6187500357627869
1781033804008175000,20.197175048828125,-8.325000762939453,45.97500228881836,0.30000001192092896
1781033804027935500,20.216935546875,-7.143750190734863,46.63125228881836,1.818750023841858
1781033804047696400,20.2366962890625,-6.637500286102295,44.306251525878906,1.5562500953674316
1781033804067715800,20.2567158203125,-8.831250190734863,42.28125,2.4000000953674316
1781033804087819300,20.2768193359375,-11.231250762939453,43.875,0.09375
1781033804108052200,20.29705224609375,-10.893750190734863,44.025001525878906,-3.2062501907348633
1781033804128292400,20.317292236328125,-11.606250762939453,43.3125,-5.15625
1781033804148266200,20.337266357421875,-10.59375,44.26875305175781,-7.762500286102295
1781033804168270300,20.357270263671875,-8.418750762939453,45.22500228881836,-10.18125057220459
1781033804188274700,20.377274658203124,-9.675000190734863,45.5625,-13.668750762939453
1781033804208271400,20.397271240234375,-13.612500190734863,43.25625228881836,-17.231250762939453
1781033804228039400,20.417039306640625,-15.15000057220459,39.09375,-19.33125114440918
1781033804248035800,20.437035888671875,-14.981250762939453,35.94375228881836,-23.212501525878906
1781033804268032500,20.457032470703126,-19.33125114440918,34.087501525878906,-25.668750762939453
1781033804288036900,20.477036865234375,-23.45625114440918,32.70000076293945,-27.225000381469727
1781033804308269800,20.497269775390624,-22.59375,29.306251525878906,-31.556251525878906
1781033804328266500,20.5172666015625,-19.875,28.593751907348633,-32.92500305175781
1781033804348270800,20.537270751953123,-19.650001525878906,29.606250762939453,-32.19375228881836
1781033804368267500,20.557267578125,-21.975000381469727,28.51875114440918,-34.368751525878906
1781033804388271600,20.577271728515626,-23.36250114440918,28.89375114440918,-34.72500228881836
1781033804408276000,20.59727587890625,-21.9375,30.01875114440918,-32.118751525878906
1781033804428043800,20.617043701171873,-21.48750114440918,30.225000381469727,-31.89375114440918
1781033804448047900,20.6370478515625,-23.381250381469727,32.94375228881836,-31.781251907348633
1781033804468044500,20.65704443359375,-24.58125114440918,35.681251525878906,-31.275001525878906
1781033804488041200,20.677041259765623,-24.787500381469727,36.97500228881836,-29.250001907348633
1781033804508274400,20.6972744140625,-24.506250381469727,37.087501525878906,-27.58125114440918
1781033804528270800,20.717270751953127,-25.912500381469727,40.06875228881836,-26.625001907348633
1781033804548267800,20.737267822265625,-28.200000762939453,41.90625,-25.350000381469727
1781033804568272000,20.75727197265625,-29.475000381469727,41.118751525878906,-23.34375
1781033804588268500,20.7772685546875,-29.400001525878906,41.28750228881836,-20.83125114440918
1781033804608265200,20.79726513671875,-30.562501907348633,41.88750076293945,-20.756250381469727
1781033804628033000,20.817032958984374,-31.650001525878906,40.98750305175781,-20.006250381469727
1781033804648029700,20.83702978515625,-30.318750381469727,42.91875076293945,-19.59375
1781033804668034000,20.857033935546873,-30.618751525878906,44.83125305175781,-19.80000114440918
1781033804688038100,20.8770380859375,-29.418750762939453,42.28125,-20.306251525878906
1781033804708271000,20.89727099609375,-30.075000762939453,39.69375228881836,-21.825000762939453
1781033804728275500,20.917275390625,-31.218751907348633,38.88750076293945,-22.537500381469727
1781033804748279800,20.93727978515625,-31.968751907348633,39.337501525878906,-24.337501525878906
1781033804768276500,20.9572763671875,-32.92500305175781,39.46875,-25.575000762939453
1781033804788235000,20.977235107421876,-30.656251907348633,39.01875305175781,-26.062501907348633
1781033804808102000,20.997101806640625,-29.568750381469727,39.243751525878906,-27.918750762939453
1781033804827862300,21.0168623046875,-28.256250381469727,37.275001525878906,-31.275001525878906
1781033804847866400,21.036866455078126,-26.64375114440918,35.0625,-32.15625
1781033804867908900,21.056908935546875,-27.900001525878906,33.69375228881836,-30.20625114440918
1781033804888042800,21.077042724609374,-29.493751525878906,32.26875305175781,-31.593751907348633
1781033804908276000,21.09727587890625,-28.631250381469727,31.968751907348633,-33.09375
1781033804928272600,21.117272705078125,-26.325000762939453,32.212501525878906,-31.837501525878906
1781033804948276700,21.13727685546875,-25.61250114440918,31.23750114440918,-31.743751525878906
1781033804968273400,21.1572734375,-24.431251525878906,31.312501907348633,-30.712501525878906
1781033804988270000,21.17727001953125,-23.287500381469727,32.98125076293945,-28.668750762939453
1781033805008274400,21.1972744140625,-22.125,34.85625076293945,-26.381250381469727
1781033805028034600,21.21703466796875,-23.025001525878906,37.51875305175781,-24.225000381469727
1781033805048031200,21.23703125,-23.92500114440918,39.63750076293945,-21.46875
1781033805068035600,21.25703564453125,-21.28125,39.86250305175781,-17.73750114440918
1781033805088032300,21.2770322265625,-20.08125114440918,41.025001525878906,-14.700000762939453
1781033805108265200,21.29726513671875,-19.98750114440918,42.056251525878906,-11.043750762939453
1781033805128269600,21.31726953125,-17.8125,41.47500228881836,-7.800000190734863
1781033805148266200,21.337266357421875,-15.750000953674316,43.33125305175781,-5.737500190734863
1781033805168270300,21.357270263671875,-14.287500381469727,44.10000228881836,-2.7562501430511475
1781033805188274700,21.377274658203124,-11.081250190734863,44.32500076293945,-1.725000023841858
1781033805208271400,21.397271240234375,-9.225000381469727,43.556251525878906,-1.40625
1781033805228039400,21.417039306640625,-8.21250057220459,43.14375305175781,1.2375000715255737
1781033805248036000,21.4370361328125,-6.187500476837158,44.70000076293945,1.5937501192092896
1781033805268032500,21.457032470703126,-6.693750381469727,45,0.6000000238418579
1781033805288036900,21.477036865234375,-6.918750286102295,45.39375305175781,0.6375000476837158
1781033805308269800,21.497269775390624,-8.53125,45.39375305175781,0.24375000596046448
1781033805328274000,21.51727392578125,-8.77500057220459,44.34375,-1.125
1781033805348278300,21.5372783203125,-9.693750381469727,42.712501525878906,-2.53125
1781033805368275000,21.55727490234375,-8.625,41.71875,-5.568750381469727
1781033805388279300,21.577279296875,-9.1875,42.30000305175781,-8.21250057220459
1781033805408276000,21.59727587890625,-11.96250057220459,42.88125228881836,-8.737500190734863
1781033805428043800,21.617043701171873,-11.381250381469727,42.78750228881836,-12.506250381469727
1781033805448048000,21.637048095703125,-13.293750762939453,41.212501525878906,-16.200000762939453
1781033805468044800,21.657044921875,-15.33750057220459,38.98125076293945,-18.30000114440918
1781033805488041500,21.67704150390625,-18.20625114440918,38.94375228881836,-22.03125
1781033805508274400,21.6972744140625,-18.262500762939453,37.368751525878906,-25.312501907348633
1781033805528271000,21.71727099609375,-16.21875,35.681251525878906,-26.981250762939453
1781033805548275200,21.737275146484375,-18.543750762939453,35.45625305175781,-28.012500762939453
1781033805568279300,21.757279296875,-20.606250762939453,32.56875228881836,-31.012500762939453
1781033805588169200,21.777169189453126,-20.587501525878906,29.793750762939453,-32.36250305175781
1781033805607998700,21.796998779296874,-22.350000381469727,29.100000381469727,-31.593751907348633
1781033805627759000,21.816759033203127,-22.856250762939453,31.256250381469727,-31.14375114440918
1781033805647755800,21.836755859375,-22.23750114440918,33.54375076293945,-31.312501907348633
1781033805667867000,21.856866943359375,-23.850000381469727,34.556251525878906,-30.76875114440918
1781033805688038400,21.877038330078125,-24.056251525878906,35.868751525878906,-28.743751525878906
1781033805708271400,21.897271240234375,-23.8125,36.67500305175781,-28.05000114440918
1781033805728275500,21.917275390625,-25.181251525878906,38.118751525878906,-26.83125114440918
1781033805748272000,21.937272216796874,-26.73750114440918,39.03750228881836,-25.068750381469727
1781033805768268800,21.957268798828125,-28.368751525878906,41.45625305175781,-23.73750114440918
1781033805788273200,21.977273193359373,-29.006250381469727,41.962501525878906,-22.012500762939453
1781033805808269800,21.997269775390624,-28.275001525878906,42.07500076293945,-20.34375
1781033805828037600,22.01703759765625,-28.05000114440918,42.88125228881836,-19.837501525878906
1781033805848042000,22.0370419921875,-30.01875114440918,44.306251525878906,-16.33125114440918
1781033805868038400,22.057038330078125,-31.087501525878906,46.125,-12.375000953674316
1781033805888042800,22.077042724609374,-32.23125076293945,45.35625076293945,-12.862500190734863
1781033805908276000,22.09727587890625,-35.45625305175781,45.69375228881836,-14.062500953674316
1781033805928272600,22.117272705078125,-36.150001525878906,44.08125305175781,-15.262500762939453
1781033805948277000,22.137277099609374,-34.10625076293945,41.15625,-18.09375
1781033805968273700,22.157273681640625,-33.73125076293945,41.38125228881836,-20.36250114440918
1781033805988278000,22.177278076171874,-35.400001525878906,42.63750076293945,-21.881250381469727
1781033806008281900,22.19728173828125,-34.06875228881836,42.337501525878906,-22.96875
1781033806028042200,22.217042236328126,-30.637500762939453,40.48125076293945,-24.243751525878906
1781033806048039000,22.237038818359373,-30.000001907348633,39.13125228881836,-27.093751907348633
1781033806068035600,22.25703564453125,-30.281251907348633,38.775001525878906,-29.212501525878906
1781033806088032300,22.2770322265625,-29.400001525878906,38.118751525878906,-30.337501525878906
1781033806108265200,22.29726513671875,-26.681251525878906,38.41875076293945,-30.95625114440918
1781033806128269300,22.317269287109376,-23.962501525878906,38.56875228881836,-30.95625114440918
1781033806148266200,22.337266357421875,-24.562501907348633,36.13125228881836,-30.39375114440918
1781033806168270600,22.3572705078125,-26.306251525878906,35.118751525878906,-28.818750381469727
1781033806188274700,22.377274658203124,-26.512500762939453,36.16875076293945,-27.450000762939453
1781033806208271400,22.397271240234375,-26.26875114440918,35.17500305175781,-27.975000381469727
1781033806228039200,22.4170390625,-26.437501907348633,33.91875076293945,-26.868751525878906
1781033806248035800,22.437035888671875,-26.83125114440918,36.28125,-23.26875114440918
1781033806268032500,22.457032470703126,-24.76875114440918,37.72500228881836,-21.46875
1781033806288036900,22.477036865234375,-21.787500381469727,37.35000228881836,-20.90625
1781033806308269800,22.497269775390624,-20.625,39,-19.068750381469727
1781033806328274000,22.51727392578125,-20.756250381469727,39.63750076293945,-15.468750953674316
1781033806348278300,22.5372783203125,-19.537500381469727,40.40625,-12.487500190734863
1781033806368282600,22.55728271484375,-18.806251525878906,43.14375305175781,-8.850000381469727
1781033806388172300,22.57717236328125,-16.875,43.16250228881836,-5.756250381469727
1781033806407994000,22.596994140625,-13.36875057220459,42.09375,-3.825000047683716
1781033806427762200,22.61676220703125,-11.02500057220459,42.60000228881836,-1.7062500715255737
1781033806447758800,22.6367587890625,-11.756250381469727,44.17500305175781,-1.3125
1781033806467870000,22.656869873046876,-11.550000190734863,44.08125305175781,-2.5875000953674316
1781033806488041500,22.67704150390625,-11.100000381469727,43.6875,-2.625
1781033806508274400,22.6972744140625,-13.106250762939453,41.56875228881836,-3.0562500953674316
1781033806528271000,22.71727099609375,-12.225000381469727,40.21875,-5.700000286102295
1781033806548267800,22.737267822265625,-13.256250381469727,41.23125076293945,-7.875000476837158
1781033806568036000,22.7570361328125,-13.800000190734863,41.00625228881836,-11.006250381469727
1781033806608029400,22.797029541015625,-13.218750953674316,40.556251525878906,-14.606250762939453
1781033806627797500,22.816797607421876,-14.606250762939453,39.69375228881836,-16.14375114440918
1781033806648029700,22.83702978515625,-12.61875057220459,38.118751525878906,-19.23750114440918
1781033806668034000,22.857033935546873,-12.693750381469727,37.125,-22.481250762939453
1781033806688038100,22.8770380859375,-17.100000381469727,36,-25.481250762939453
1781033806708271000,22.89727099609375,-18.693750381469727,34.20000076293945,-26.906251907348633
1781033806728275700,22.917275634765623,-17.53125,31.556251525878906,-28.668750762939453
1781033806748272400,22.9372724609375,-18.075000762939453,30.975000381469727,-31.631250381469727
1781033806768269000,22.95726904296875,-17.212501525878906,30.656251907348633,-33.13125228881836
1781033806788273200,22.977273193359373,-19.256250381469727,29.475000381469727,-34.06875228881836
1781033806808269800,22.997269775390624,-22.200000762939453,29.325000762939453,-33.86250305175781
1781033806828037600,23.01703759765625,-21.30000114440918,31.556251525878906,-31.950000762939453
1781033806848042000,23.0370419921875,-20.681251525878906,34.462501525878906,-31.650001525878906
1781033806868038700,23.05703857421875,-20.887500762939453,34.91250228881836,-30.562501907348633
1781033806888042800,23.077042724609374,-22.21875,35.41875076293945,-29.231250762939453
1781033806908275700,23.097275634765627,-23.681251525878906,39.30000305175781,-28.80000114440918
1781033806928272400,23.1172724609375,-24.843751907348633,41.94375228881836,-27.037500381469727
1781033806948276700,23.13727685546875,-22.78125,43.57500076293945,-25.218751907348633
1781033806968273400,23.1572734375,-22.068750381469727,45.46875,-22.950000762939453
1781033806988277800,23.17727783203125,-23.83125114440918,46.05000305175781,-20.36250114440918
1781033807008282000,23.1972822265625,-23.381250381469727,47.681251525878906,-18.9375
1781033807028042200,23.217042236328126,-22.668750762939453,47.94375228881836,-17.887500762939453
1781033807048039000,23.237038818359373,-26.025001525878906,46.837501525878906,-17.756250381469727
1781033807068035600,23.25703564453125,-29.17500114440918,46.20000076293945,-16.556251525878906
1781033807088032300,23.2770322265625,-30.037500381469727,45.30000305175781,-15.80625057220459
1781033807108265200,23.29726513671875,-33.712501525878906,44.04375076293945,-17.775001525878906
1781033807128269300,23.317269287109376,-34.650001525878906,43.20000076293945,-19.125
1781033807148266000,23.337265869140627,-32.625,42.900001525878906,-20.418750762939453
1781033807168270300,23.357270263671875,-30.600000381469727,42.39375305175781,-21.731250762939453
1781033807188160300,23.37716015625,-31.481250762939453,40.85625076293945,-21.900001525878906
1781033807207989800,23.39698974609375,-31.98750114440918,39.11250305175781,-24.787500381469727
1781033807227757600,23.416757568359376,-30.712501525878906,37.44375228881836,-29.343751907348633
1781033807247754200,23.436754150390627,-30.30000114440918,37.53750228881836,-30.600000381469727
1781033807267865300,23.456865234375,-29.006250381469727,38.36250305175781,-32.19375228881836
1781033807288036900,23.477036865234375,-27.67500114440918,37.21875,-34.61250305175781
1781033807308269800,23.497269775390624,-28.125001907348633,34.81875228881836,-35.90625
1781033807328266500,23.5172666015625,-26.475000381469727,32.47500228881836,-36.16875076293945
1781033807348270600,23.5372705078125,-23.943750381469727,31.687501907348633,-36.09375
1781033807368267300,23.557267333984374,-24.375001907348633,31.125001907348633,-35.92500305175781
1781033807388271600,23.577271728515626,-25.068750381469727,31.106250762939453,-36.337501525878906
1781033807408276000,23.59727587890625,-23.475000381469727,30.48750114440918,-36.63750076293945
1781033807428043800,23.617043701171873,-22.912500381469727,30.918750762939453,-33.26250076293945
1781033807448048000,23.637048095703125,-22.912500381469727,30.918750762939453,-33.26250076293945
1781033807468044800,23.657044921875,-21.356250762939453,31.443750381469727,-33.63750076293945
1781033807488041700,23.677041748046875,-18.95625114440918,32.868751525878906,-29.343751907348633
1781033807508274700,23.697274658203124,-19.856250762939453,37.01250076293945,-25.125001907348633
1781033807528271400,23.717271240234375,-18.693750381469727,39.900001525878906,-22.125
1781033807548267800,23.737267822265625,-16.762500762939453,40.95000076293945,-17.850000381469727
1781033807568272000,23.75727197265625,-16.42500114440918,42,-13.781250953674316
1781033807588268500,23.7772685546875,-13.818750381469727,43.01250076293945,-9.75
1781033807608265200,23.79726513671875,-11.68125057220459,44.775001525878906,-6.243750095367432
1781033807628033000,23.817032958984374,-9.168750762939453,44.26875305175781,0.5437500476837158
1781033807648029700,23.83702978515625,-9.168750762939453,44.26875305175781,0.5437500476837158
1781033807668034000,23.857033935546873,-7.781250476837158,45.11250305175781,1.8750001192092896
1781033807688038100,23.8770380859375,-7.781250476837158,45.11250305175781,1.8750001192092896
1781033807708271000,23.89727099609375,-10.762500762939453,42.056251525878906,-1.1437500715255737
1781033807728275500,23.917275390625,-12.99375057220459,42.01875305175781,0.5437500476837158
1781033807748272000,23.937272216796874,-14.21250057220459,43.48125076293945,-0.5437500476837158
1781033807768268800,23.957268798828125,-14.287500381469727,42.46875,-3.9750001430511475
1781033807788273200,23.977273193359373,-13.200000762939453,42.150001525878906,-5.681250095367432
1781033807808269600,23.99726953125,-11.68125057220459,42.95625305175781,-7.687500476837158
1781033807828037600,24.01703759765625,-11.100000381469727,41.681251525878906,-12
1781033807848042000,24.0370419921875,-10.46250057220459,40.14375305175781,-14.68125057220459
1781033807868038700,24.05703857421875,-11.53125,40.42500305175781,-19.012500762939453
1781033807888042800,24.077042724609374,-12.356250762939453,40.743751525878906,-22.70625114440918
1781033807908276000,24.09727587890625,-15.05625057220459,37.78125,-24.468751907348633
1781033807928272400,24.1172724609375,-18.262500762939453,34.53750228881836,-27.281251907348633
1781033807948269000,24.13726904296875,-15.80625057220459,32.53125,-30.86250114440918
1781033807968265700,24.157265625,-16.293750762939453,30.412500381469727,-33.78750228881836
1781033807988171000,24.1771708984375,-19.931251525878906,29.08125114440918,-34.33125305175781
1781033808008015600,24.197015625,-18.28125,27.750001907348633,-33.63750076293945
1781033808027783700,24.21678369140625,-18.95625114440918,26.343751907348633,-34.63125228881836
1781033808047780000,24.236780029296874,-18.787500381469727,27.037500381469727,-35.79375076293945
1781033808067875800,24.256875732421875,-19.725000381469727,29.437501907348633,-34.48125076293945
1781033808088032300,24.2770322265625,-22.462501525878906,30.093751907348633,-33.97500228881836
1781033808108265200,24.29726513671875,-23.850000381469727,31.500001907348633,-33.1875
1781033808128269300,24.317269287109376,-26.08125114440918,34.650001525878906,-29.906251907348633
1781033808148266000,24.337265869140627,-25.61250114440918,35.51250076293945,-28.575000762939453
1781033808168270300,24.357270263671875,-27.468751907348633,36.900001525878906,-28.200000762939453
1781033808188274400,24.3772744140625,-29.287500381469727,38.36250305175781,-26.981250762939453
1781033808208271400,24.397271240234375,-28.61250114440918,40.20000076293945,-25.33125114440918
1781033808228039200,24.4170390625,-29.062501907348633,41.66250228881836,-23.71875
1781033808248035800,24.437035888671875,-31.98750114440918,42.375,-22.14375114440918
1781033808268032500,24.457032470703126,-33.54375076293945,43.5,-20.137500762939453
1781033808288036900,24.477036865234375,-33.73125076293945,42.16875076293945,-19.856250762939453
1781033808308269800,24.497269775390624,-35.306251525878906,42.67500305175781,-18.543750762939453
1781033808328266500,24.5172666015625,-34.78125,43.85625076293945,-15.506250381469727
1781033808348270600,24.5372705078125,-36.35625076293945,42.07500076293945,-16.51875114440918
1781033808368267300,24.557267333984374,-36.84375,41.19375228881836,-18.056251525878906
1781033808388271600,24.577271728515626,-33.900001525878906,41.118751525878906,-18.712501525878906
1781033808408276000,24.59727587890625,-33.46875,41.23125076293945,-19.762500762939453
1781033808428043800,24.617043701171873,-34.14375305175781,40.462501525878906,-19.837501525878906
1781033808448047900,24.6370478515625,-35.08125305175781,37.96875,-22.59375
1781033808468044500,24.65704443359375,-34.275001525878906,37.91250228881836,-25.950000762939453
1781033808488041500,24.67704150390625,-32.73750305175781,37.96875,-27.618751525878906
1781033808508274400,24.6972744140625,-30.693750381469727,37.48125076293945,-28.725000381469727
1781033808528271000,24.71727099609375,-29.83125114440918,37.556251525878906,-30.187501907348633
1781033808568272000,24.75727197265625,-27.037500381469727,34.38750076293945,-30.975000381469727
1781033808588268500,24.7772685546875,-32.025001525878906,33.30000305175781,-31.031251907348633
1781033808608265200,24.79726513671875,-33.35625076293945,30.937501907348633,-32.118751525878906
1781033808628033000,24.817032958984374,-30.58125114440918,29.981250762939453,-31.631250381469727
1781033808648029700,24.83702978515625,-27.30000114440918,30.337501525878906,-28.70625114440918
1781033808668033800,24.85703369140625,-26.306251525878906,30.281251907348633,-26.418750762939453
1781033808688038100,24.8770380859375,-28.818750381469727,30.937501907348633,-25.70625114440918
1781033808708271000,24.89727099609375,-29.681251525878906,32.306251525878906,-23.043750762939453
1781033808728275700,24.917275634765623,-29.83125114440918,34.29375076293945,-19.293750762939453
1781033808748272400,24.9372724609375,-27.056251525878906,36.20625305175781,-16.200000762939453
1781033808768276500,24.9572763671875,-23.36250114440918,38.32500076293945,-12.881250381469727
1781033808788220000,24.977219970703125,-23.512500762939453,39.75,-8.981250762939453
1781033808808095000,24.997094970703124,-20.53125,42.39375305175781,-6.225000381469727
1781033808827862800,25.01686279296875,-14.137500762939453,44.75625228881836,-4.143750190734863
1781033808847859500,25.036859375,-10.856250762939453,44.51250076293945,-1.7062500715255737
1781033808867917000,25.0569169921875,-10.293750762939453,43.10625076293945,0.22500000894069672
1781033808888042800,25.077042724609374,-10.65000057220459,41.88750076293945,1.9687501192092896
1781033808908276000,25.09727587890625,-12.918750762939453,42.16875076293945,2.8500001430511475
1781033808928272600,25.117272705078125,-14.062500953674316,42.16875076293945,2.6437501907348633
1781033808948276700,25.13727685546875,-13.08750057220459,39.86250305175781,2.8125
1781033808968273400,25.1572734375,-16.96875,38.90625,1.912500023841858
1781033808988270000,25.17727001953125,-19.3125,40.21875,1.03125
1781033809008274200,25.197274169921876,-17.512500762939453,40.72500228881836,0.45000001788139343
1781033809028034600,25.21703466796875,-14.662500381469727,41.681251525878906,-1.7625000476837158
1781033809048031200,25.23703125,-12.937500953674316,41.79375076293945,-5.325000286102295
1781033809068035600,25.25703564453125,-13.968750953674316,42.76875305175781,-7.912500381469727
1781033809088032300,25.2770322265625,-12.225000381469727,44.212501525878906,-8.8125
1781033809108265200,25.29726513671875,-10.27500057220459,43.72500228881836,-12.825000762939453
1781033809128269300,25.317269287109376,-11.49375057220459,42.54375076293945,-16.068750381469727
1781033809148266000,25.337265869140627,-13.987500190734863,40.98750305175781,-16.837501525878906
1781033809168270300,25.357270263671875,-16.293750762939453,39.95625305175781,-18.39375114440918
1781033809188274400,25.3772744140625,-17.25,38.212501525878906,-21.28125
1781033809208271000,25.39727099609375,-16.162500381469727,36.056251525878906,-24.637500762939453
1781033809228039200,25.4170390625,-17.8125,34.10625076293945,-27.95625114440918
1781033809248035800,25.437035888671875,-21,31.687501907348633,-30.075000762939453
1781033809268032300,25.4570322265625,-22.23750114440918,33.35625076293945,-31.125001907348633
1781033809288036600,25.47703662109375,-22.725000381469727,34.53750228881836,-30.993751525878906
1781033809308269800,25.497269775390624,-22.443750381469727,33.60000228881836,-30.468751907348633
1781033809328274000,25.51727392578125,-20.775001525878906,32.71875,-29.118751525878906
1781033809348278300,25.5372783203125,-22.106250762939453,34.06875228881836,-26.475000381469727
1781033809368275000,25.55727490234375,-24.243751525878906,35.94375228881836,-27.693750381469727
1781033809388279000,25.577279052734376,-27.093751907348633,34.556251525878906,-25.950000762939453
1781033809408275700,25.597275634765627,-30.243751525878906,36.993751525878906,-21.918750762939453
1781033809428043800,25.617043701171873,-29.981250762939453,38.47500228881836,-20.08125114440918
1781033809448047900,25.6370478515625,-28.350000381469727,40.16250228881836,-17.625
1781033809468044800,25.657044921875,-29.700000762939453,41.04375076293945,-16.068750381469727
1781033809488041500,25.67704150390625,-33.712501525878906,41.306251525878906,-13.08750057220459
1781033809508274400,25.6972744140625,-36.618751525878906,42.50625228881836,-10.425000190734863
1781033809528270800,25.717270751953127,-35.212501525878906,41.34375,-10.36875057220459
1781033809548267500,25.737267578125,-35.4375,40.57500076293945,-10.237500190734863
1781033809568272000,25.75727197265625,-40.650001525878906,39.09375,-10.55625057220459
1781033809588215000,25.777215087890625,-42.618751525878906,36.82500076293945,-10.36875057220459
1781033809608082000,25.79708203125,-43.14375305175781,37.3125,-11.77500057220459
1781033809627850000,25.81685009765625,-42.07500076293945,36.73125076293945,-14.343750953674316
1781033809647861800,25.83686181640625,-40.21875,36.13125228881836,-14.21250057220459
1781033809667919600,25.856919677734375,-40.72500228881836,36.45000076293945,-15.206250190734863
1781033809688053500,25.877053466796873,-42.35625076293945,36.39375305175781,-16.462501525878906
1781033809708286500,25.897286376953126,-41.0625,38.212501525878906,-17.512500762939453
1781033809728275500,25.917275390625,-38.19375228881836,38.17500305175781,-20.25
1781033809748272000,25.937272216796874,-38.625,37.837501525878906,-19.668750762939453
1781033809768268800,25.957268798828125,-37.96875,37.76250076293945,-20.71875
1781033809788273000,25.97727294921875,-35.98125076293945,36.76875305175781,-23.34375
1781033809808269600,25.99726953125,-35.025001525878906,37.25625228881836,-21.84375
1781033809828037600,26.01703759765625,-35.04375076293945,36.84375,-22.293750762939453
1781033809848042000,26.0370419921875,-33.1875,35.23125076293945,-22.912500381469727
1781033809868038700,26.05703857421875,-31.98750114440918,33.712501525878906,-22.462501525878906
1781033809888042800,26.077042724609374,-32.681251525878906,33.50625228881836,-22.89375114440918
1781033809908275700,26.097275634765627,-31.950000762939453,34.181251525878906,-21.375
1781033809928272100,26.117272216796874,-29.887500762939453,34.57500076293945,-20.71875
1781033809948276500,26.1372763671875,-25.087501525878906,35.17500305175781,-19.668750762939453
1781033809968273200,26.157273193359377,-25.51875114440918,36.07500076293945,-17.887500762939453
1781033809988277200,26.17727734375,-27.562501907348633,38.15625,-15.975000381469727
1781033810008281600,26.197281494140626,-25.70625114440918,39.01875305175781,-14.231250762939453
1781033810028041700,26.217041748046874,-22.6875,40.16250228881836,-11.231250762939453
1781033810048038400,26.237038330078125,-20.587501525878906,41.4375,-8.8125
1781033810068035000,26.25703515625,-19.42500114440918,41.51250076293945,-7.781250476837158
1781033810088031700,26.27703173828125,-16.068750381469727,42.01875305175781,-2.7562501430511475
1781033810108265000,26.297264892578124,-13.762500762939453,42.63750076293945,-1.6687500476837158
1781033810128269300,26.317269287109376,-13.125000953674316,43.96875,-1.537500023841858
1781033810148266000,26.337265869140627,-12.075000762939453,43.03125,1.4812500476837158
1781033810168270000,26.35727001953125,-13.08750057220459,41.90625,4.481250286102295
1781033810188274400,26.3772744140625,-14.456250190734863,42.95625305175781,5.4375
1781033810208271000,26.39727099609375,-14.475000381469727,42.69375228881836,4.368750095367432
1781033810228039200,26.4170390625,-14.175000190734863,40.20000076293945,4.518750190734863
1781033810248035800,26.437035888671875,-13.74375057220459,39.54375076293945,3.4125001430511475
1781033810267796700,26.456796630859376,-14.531250953674316,41.98125076293945,2.418750047683716
1781033810287800800,26.47680078125,-13.631250381469727,42.75,2.71875
1781033810308033800,26.49703369140625,-12.787500381469727,41.73750305175781,-0.5250000357627869
1781033810328030500,26.517030517578124,-13.331250190734863,41.73750305175781,-3.2437500953674316
1781033810348270600,26.5372705078125,-13.893750190734863,43.57500076293945,-4.6875
1781033810368267300,26.557267333984374,-14.906250953674316,43.556251525878906,-7.818750381469727
1781033810388172300,26.57717236328125,-15.468750953674316,41.681251525878906,-12.787500381469727
1781033810408017200,26.59701708984375,-16.912500381469727,39.31875228881836,-16.575000762939453
1781033810427785000,26.616784912109374,-20.775001525878906,36.28125,-19.368751525878906
1781033810447789300,26.636789306640626,-21.975000381469727,33.525001525878906,-23.193750381469727
1781033810467648800,26.656648681640625,-23.17500114440918,33.41250228881836,-25.068750381469727
1781033810508038000,26.697037841796874,-24.618751525878906,32.04375076293945,-28.537500381469727
1781033810528034600,26.71703466796875,-26.400001525878906,31.312501907348633,-28.181251525878906
1781033810548267500,26.737267578125,-26.437501907348633,30.000001907348633,-30.412500381469727
