time,seconds_elapsed,z,y,x
1781215304919290600,-1.21770947265625,-0.11850785464048386,0.35674530267715454,0.04153883829712868
1781215304929092000,-1.207907958984375,-0.05864306539297104,0.24434609711170197,-0.024434609338641167
1781215304938762800,-1.1982373046875,0.010995574295520782,0.23457226157188416,-0.1368338167667389
1781215304948603100,-1.18839697265625,-0.030543262138962746,-0.02076941914856434,0.07452555745840073
1781215304958504400,-1.17849560546875,0.02932153269648552,-0.04764748737215996,0.036651913076639175
1781215304968575200,-1.1684248046875,0.09040805697441101,0.0024434609804302454,-0.02076941914856434
1781215304978707000,-1.15829296875,0.09651670604944229,0.00733038317412138,-0.04764748737215996
1781215304988747300,-1.148252685546875,0.09407325088977814,0.0012217304902151227,-0.07452555745840073
1781215304998818000,-1.138181884765625,0.0806342139840126,-0.0024434609804302454,-0.09162978827953339
1781215305008888800,-1.128111083984375,0.06963863968849182,0.00366519158706069,-0.10018189996480942
1781215305018990300,-1.118009765625,0.06475171446800232,0.012217304669320583,-0.09896016865968704
1781215305029122000,-1.1078779296875,0.05864306539297104,0.01466076634824276,-0.09285151958465576
1781215305039192800,-1.09780712890625,0.04886921867728233,0.015882495790719986,-0.08552113175392151
1781215305049263600,-1.087736328125,0.039095375686883926,0.01710422709584236,-0.07941248267889023
1781215305069374700,-1.067625244140625,0.030543262138962746,0.01710422709584236,-0.028099801391363144
1781215305079476000,-1.05752392578125,0.02932153269648552,0.02321287989616394,0
1781215305099648300,-1.037351806640625,0.0354301854968071,0.03787364438176155,0.03420845419168472
1781215305109719000,-1.027281005859375,0.03176499158143997,0.0354301854968071,0.025656340643763542
1781215305119820300,-1.0171796875,0.030543262138962746,0.028099801391363144,0.01466076634824276
1781215305129891000,-1.00710888671875,0.030543262138962746,0.02321287989616394,0.004886921960860491
1781215305140023000,-0.99697705078125,0.030543262138962746,0.02076941914856434,0.0024434609804302454
1781215305150124300,-0.986875732421875,0.025656340643763542,0.018325956538319588,-0.00366519158706069
1781215305160195000,-0.976804931640625,0.019547687843441963,0.015882495790719986,-0.02076941914856434
1781215305170165800,-0.966834228515625,0.019547687843441963,0.006108652334660292,-0.045204028487205505
1781215305180236500,-0.956763427734375,0.01710422709584236,-0.00366519158706069,-0.08429940044879913
1781215305190338000,-0.946661865234375,0.00855211354792118,-0.01710422709584236,-0.10384709388017654
1781215305200408800,-0.936591064453125,0.01466076634824276,-0.03176499158143997,-0.08185594528913498
1781215305210479600,-0.926520263671875,0.025656340643763542,-0.02932153269648552,-0.042760565876960754
1781215305220550400,-0.91644970703125,0.02932153269648552,-0.02321287989616394,-0.012217304669320583
1781215305230651600,-0.906348388671875,0.03420845419168472,-0.0354301854968071,0.006108652334660292
1781215305240722400,-0.896277587890625,0.0354301854968071,-0.04642575979232788,0.01466076634824276
1781215305250793200,-0.886206787109375,0.036651913076639175,-0.04642575979232788,0.0354301854968071
1781215305260894700,-0.876105224609375,0.05619960278272629,-0.036651913076639175,0.0659734457731247
1781215305270965500,-0.866034423828125,0.08185594528913498,-0.02321287989616394,0.0708603709936142
1781215305281036300,-0.855963623046875,0.09773843735456467,-0.028099801391363144,0.03176499158143997
1781215305301238800,-0.83576123046875,0.1014036312699318,-0.07330382615327835,-0.0806342139840126
1781215305311309600,-0.8256904296875,0.10873401165008545,-0.07941248267889023,-0.10995574295520782
1781215305321411000,-0.8155888671875,0.11972958594560623,-0.08307767659425735,-0.13072516024112701
1781215305331420700,-0.805579345703125,0.12095131725072861,-0.09162978827953339,-0.1563815027475357
1781215305351562200,-0.785437744140625,0.11972958594560623,-0.07452555745840073,-0.1966986060142517
1781215305361633000,-0.775366943359375,0.1270599663257599,-0.06230825558304787,-0.18325957655906677
1781215305371704000,-0.7652958984375,0.12950342893600464,-0.03787364438176155,-0.15515977144241333
1781215305381774800,-0.75522509765625,0.12950342893600464,-0.02076941914856434,-0.12339477986097336
1781215305391845600,-0.745154296875,0.1270599663257599,-0.018325956538319588,-0.08674286305904388
1781215305401947000,-0.73505322265625,0.1258382350206375,-0.01710422709584236,-0.05497787147760391
1781215305412048100,-0.724951904296875,0.12828169763088226,0.010995574295520782,-0.039095375686883926
1781215305422119000,-0.714881103515625,0.12950342893600464,0.04886921867728233,-0.02932153269648552
1781215305432189700,-0.704810302734375,0.13927727937698364,0.05497787147760391,-0.013439035043120384
1781215305442291200,-0.694708740234375,0.1417207419872284,0.02687807008624077,0.0012217304902151227
1781215305452362000,-0.684637939453125,0.12217304855585098,-0.03420845419168472,0.02076941914856434
1781215305462463200,-0.674536865234375,0.12217304855585098,-0.03420845419168472,0.02076941914856434
1781215305482635300,-0.65436474609375,0.12950342893600464,-0.02321287989616394,0.16249015927314758
1781215305492736800,-0.64426318359375,0.13805554807186127,-0.04153883829712868,0.27000242471694946
1781215305502807600,-0.6341923828125,0.12828169763088226,-0.04153883829712868,0.3701843321323395
1781215305512878300,-0.62412158203125,0.12095131725072861,-0.0354301854968071,0.44715335965156555
1781215305522949000,-0.61405078125,0.13072516024112701,-0.036651913076639175,0.46792277693748474
1781215305533020000,-0.60397998046875,0.14905111491680145,-0.04153883829712868,0.4043927788734436
1781215305573364200,-0.5636357421875,0.19425514340400696,-0.09162978827953339,-0.10506882518529892
1781215305593475000,-0.54352490234375,0.2125810980796814,-0.08796459436416626,-0.20402899384498596
1781215305603607000,-0.53339306640625,0.23090706765651703,-0.08918632566928864,-0.16493362188339233
1781215305613677800,-0.523322265625,0.2565633952617645,-0.08674286305904388,-0.10018189996480942
1781215305623748600,-0.51325146484375,0.28955012559890747,-0.09651670604944229,-0.04764748737215996
1781215305633849900,-0.503150146484375,0.3225368559360504,-0.11362093687057495,-0.021991148591041565
1781215305643920600,-0.493079345703125,0.3543018400669098,-0.14294247329235077,-0.03298672288656235
1781215305674194200,-0.462805908203125,0.4593706727027893,-0.23457226157188416,-0.31154128909111023
1781215305684295400,-0.45270458984375,0.5009095072746277,-0.26145032048225403,-0.44593164324760437
1781215305694397000,-0.44260302734375,0.5485569834709167,-0.2883284091949463,-0.5839871764183044
1781215305704467700,-0.4325322265625,0.5998696684837341,-0.3188716471195221,-0.7318165898323059
1781215305714538500,-0.42246142578125,0.656069278717041,-0.3579670190811157,-0.8772025108337402
1781215305724609300,-0.412390625,0.7171558141708374,-0.4031710624694824,-1.0286970138549805
1781215305734710500,-0.40228955078125,0.7819074988365173,-0.45204028487205505,-1.1789699792861938
1781215305744781300,-0.39221875,0.8600982427597046,-0.504574716091156,-1.3280210494995117
1781215305764984000,-0.372015869140625,1.0616837739944458,-0.5583308339118958,-1.712866187095642
1781215305775085300,-0.361914794921875,1.1484266519546509,-0.5766568183898926,-1.9853121042251587
1781215305795257300,-0.34174267578125,1.281595230102539,-0.5754350423812866,-2.5888469219207764
1781215305805358800,-0.33164111328125,1.3329079151153564,-0.5534439086914062,-2.937040090560913
1781215305815429600,-0.3215703125,1.351233959197998,-0.5265658497810364,-3.3011157512664795
1781215305825469700,-0.3115302734375,1.3548991680145264,-0.48869219422340393,-3.656639337539673
1781215305845672400,-0.29132763671875,1.3927727937698364,-0.2981022298336029,-4.351803779602051
1781215305855743200,-0.2812568359375,1.4196507930755615,-0.22846360504627228,-4.7635273933410645
1781215305885925000,-0.251074951171875,1.4037683010101318,-0.24556782841682434,-6.564357757568359
1781215305895996000,-0.241004150390625,1.3952162265777588,-0.32009339332580566,-7.250970363616943
1781215305906066700,-0.230933349609375,1.3524556159973145,-0.40072759985923767,-8.003556251525879
1781215305916137500,-0.220862548828125,1.2217304706573486,-0.504574716091156,-8.759807586669922
1781215305926239000,-0.210760986328125,1.0629055500030518,-0.656069278717041,-9.362120628356934
1781215305941375500,-0.19562451171875,0.9553932547569275,-0.8527678847312927,-9.671218872070312
1781215305946411000,-0.190589111328125,0.9089674949645996,-1.0335839986801147,-9.706648826599121
1781215305956512300,-0.18048779296875,0.8588765263557434,-1.1374311447143555,-9.465968132019043
1781215305966613500,-0.170386474609375,0.7489207983016968,-1.1520918607711792,-8.92718505859375
1781215305986694100,-0.150305908203125,0.39706242084503174,-1.017701506614685,-7.159340858459473
1781215305996826000,-0.140173828125,0.2125810980796814,-0.9468411207199097,-6.106208801269531
1781215306006927400,-0.13007275390625,0.07330382615327835,-0.9053022861480713,-5.083620548248291
1781215306017028600,-0.119971435546875,-0.010995574295520782,-0.9004153609275818,-4.202753067016602
1781215306027099400,-0.109900634765625,-0.0708603709936142,-0.9334021210670471,-3.5222489833831787
1781215306037231400,-0.0997685546875,-0.13439035415649414,-1.0005972385406494,-3.0750956535339355
1781215306047332600,-0.08966748046875,-0.19058994948863983,-1.0726794004440308,-2.8405234813690186
1781215306057464300,-0.07953564453125,-0.21380282938480377,-1.1313223838806152,-2.6841418743133545
1781215306077667000,-0.0593330078125,-0.21380282938480377,-1.254717230796814,-2.431243658065796
1781215306087768300,-0.049231689453125,-0.2590068578720093,-1.301142930984497,-2.4214699268341064
1781215306102905000,-0.034094970703125,-0.3701843321323395,-1.3683381080627441,-2.6193902492523193
1781215306107940600,-0.029059326171875,-0.3701843321323395,-1.3683381080627441,-2.6193902492523193
1781215306118041900,-0.018958251953125,-0.4447098970413208,-1.4208725690841675,-2.7818803787231445
1781215306128173600,-0.008826416015625,-0.44226643443107605,-1.6945401430130005,-3.1862730979919434
1781215306138275000,0.001275146484375,-0.5057964324951172,-1.8020524978637695,-3.115412712097168
1781215306148376300,0.011376220703125,-0.6157521605491638,-1.8655824661254883,-2.7708847522735596
1781215306158477600,0.0214775390625,-0.7342600226402283,-1.8643606901168823,-2.2992968559265137
1781215306168579000,0.0315791015625,-0.8295549750328064,-1.7996090650558472,-1.8545868396759033
1781215306178680300,0.041680419921875,-0.9175195693969727,-1.6872098445892334,-1.5809192657470703
1781215306188781600,0.051781494140625,-0.9676105380058289,-1.5894713401794434,-1.3939944505691528
1781215306208984300,0.071984375,-1.1227703094482422,-1.5063936710357666,-1.0702359676361084
1781215306219085600,0.08208544921875,-1.2400563955307007,-1.4758504629135132,-0.8234463334083557
1781215306229156400,0.09215625,-1.340238332748413,-1.4501941204071045,-0.5326744914054871
1781215306239227100,0.10222705078125,-1.4184291362762451,-1.4220943450927734,-0.24923302233219147
1781215306249359000,0.112359130859375,-1.4734070301055908,-1.3927727937698364,-0.015882495790719986
1781215306269561600,0.1325615234375,-1.4770721197128296,-1.2852604389190674,0.2736676335334778
1781215306279662800,0.142662841796875,-1.4721852540969849,-1.2412781715393066,0.3286454975605011
1781215306289764400,0.152764404296875,-1.4746286869049072,-1.2107349634170532,0.3274237811565399
1781215306299865600,0.162865478515625,-1.4611896276474,-1.1899654865264893,0.32986724376678467
1781215306309966800,0.172966796875,-1.4404202699661255,-1.1850786209106445,0.37629300355911255
1781215306320068000,0.183068115234375,-1.4257594347000122,-1.1801916360855103,0.43737950921058655
1781215306330169600,0.193169677734375,-1.3976596593856812,-1.1691961288452148,0.48747047781944275
1781215306340240400,0.203240478515625,-1.3365731239318848,-1.1557570695877075,0.5216789245605469
1781215306350341600,0.213341552734375,-1.2718214988708496,-1.1386528015136719,0.5448917746543884
1781215306360473600,0.2234736328125,-1.2180652618408203,-1.1239920854568481,0.5839871764183044
1781215306370574800,0.233574951171875,-1.1545352935791016,-1.1081095933914185,0.6450737118721008
1781215306380645600,0.243645751953125,-1.1007791757583618,-1.0751228332519531,0.6890559792518616
1781215306400787200,0.263787109375,-0.9957103729248047,-1.026253581047058,0.6939429044723511
1781215306410888400,0.273888427734375,-0.9382890462875366,-1.0054842233657837,0.6487388610839844
1781215306420928800,0.2839287109375,-0.8808676600456238,-0.978606104850769,0.6059783101081848
1781215306431030000,0.294030029296875,-0.8210029006004333,-0.950506329536438,0.5656611919403076
1781215306441100800,0.304100830078125,-0.7586946487426758,-0.9224064946174622,0.5204572081565857
1781215306451141000,0.31414111328125,-0.7024950385093689,-0.8918632864952087,0.4508185386657715
1781215306461212000,0.3242119140625,-0.6438519954681396,-0.8576548099517822,0.39217549562454224
1781215306471252200,0.334252197265625,-0.5827654600143433,-0.8246681094169617,0.3628539443016052
1781215306481353700,0.344353759765625,-0.5302310585975647,-0.7843509912490845,0.3433062732219696
1781215306491424500,0.354424560546875,-0.48747047781944275,-0.740368664264679,0.28955012559890747
1781215306501434000,0.36443408203125,-0.42638394236564636,-0.6939429044723511,0.28466320037841797
1781215306511505000,0.3745048828125,-0.36163222789764404,-0.6536257863044739,0.2590068578720093
1781215306521575700,0.38457568359375,-0.31520646810531616,-0.6108652353286743,0.18814650177955627
1781215306531616000,0.394615966796875,-0.2736676335334778,-0.5900958180427551,0.16493362188339233
1781215306541656300,0.40465625,-0.24190263450145721,-0.5742133259773254,0.1612684279680252
1781215306551757600,0.414757568359375,-0.21135938167572021,-0.5497786998748779,0.14416420459747314
1781215306561828400,0.424828369140625,-0.17959438264369965,-0.5400048494338989,0.08918632566928864
1781215306612213000,0.475212890625,-0.09896016865968704,-0.5705481171607971,-0.33108896017074585
1781215306642455800,0.505455810546875,-0.05009094998240471,-0.5522221922874451,-0.11362093687057495
1781215306682708500,0.54570849609375,0.1417207419872284,-0.7049384713172913,-0.48380526900291443
1781215306692810000,0.55581005859375,0.2174680233001709,-0.779464066028595,-0.4691445231437683
1781215306763305500,0.626305419921875,1.0543533563613892,-1.5271631479263306,0.3481931984424591
1781215306823761000,0.686760986328125,2.311514139175415,-2.012190103530884,2.4251351356506348
1781215306864044000,0.7270439453125,3.5491271018981934,-1.4746286869049072,5.334075450897217
1781215306884246800,0.747246826171875,4.111123085021973,-0.8014551997184753,5.477017879486084
1781215306964843500,0.827843505859375,4.57904577255249,2.8173105716705322,6.894225120544434
1781215306984954600,0.84795458984375,4.344473838806152,3.0469958782196045,5.9754838943481445
1781215306995025400,0.858025390625,4.156327247619629,2.9297096729278564,5.855754375457764
1781215307005127000,0.868126953125,3.8789942264556885,2.785545587539673,6.059783458709717
1781215307055450400,0.918450439453125,2.0781636238098145,2.0842721462249756,1.6420058012008667
1781215307095672600,0.958672607421875,0.7330383062362671,1.036027431488037,-1.1313223838806152
1781215307135986200,0.998986083984375,-0.6316346526145935,0.4141666293144226,-3.0579915046691895
1781215307166107100,1.029107177734375,-1.1826350688934326,0.07208210229873657,-3.1899383068084717
1781215307246765000,1.10976513671875,-1.292590856552124,0.024434609338641167,0.5180137157440186
1781215307287139800,1.150139892578125,-1.813048005104065,-0.009773843921720982,-1.0787880420684814
1781215307297210600,1.160210693359375,-1.6884315013885498,-0.1014036312699318,-0.8210029006004333
1781215307317382700,1.180382568359375,-1.1191051006317139,-0.06230825558304787,1.1704177856445312
1781215307397888000,1.260887939453125,-0.8637634515762329,0.5326744914054871,2.079385280609131
1781215307407958800,1.270958740234375,-0.8918632864952087,0.5436700582504272,2.054950714111328
1781215307418029600,1.281029541015625,-0.9138544201850891,0.5265658497810364,2.026850938796997
1781215307428100400,1.291100341796875,-0.8979719281196594,0.4447098970413208,1.9620991945266724
1781215307438171100,1.301171142578125,-0.8283332586288452,0.34086281061172485,1.853365182876587
1781215307448242000,1.311241943359375,-0.797789990901947,0.3139847218990326,1.587027907371521
1781215307458282200,1.3212822265625,-0.8881980776786804,0.20891591906547546,1.0225883722305298
1781215307468353000,1.33135302734375,-0.9175195693969727,0.07819075137376785,0.394618958234787
1781215307488464100,1.351464111328125,-1.0592403411865234,0.024434609338641167,-0.10506882518529892
1781215307518707200,1.381707275390625,-0.9028588533401489,0.2577851414680481,-0.3127630054950714
1781215307528778000,1.391778076171875,-0.8955284357070923,0.28099802136421204,-0.44226643443107605
1781215307548950000,1.411949951171875,-0.5766568183898926,0.3335324227809906,0.051312681287527084
1781215307569061000,1.43206103515625,-0.26633724570274353,0.41661009192466736,0.4153883755207062
1781215307579162400,1.442162353515625,-0.18081611394882202,0.42149701714515686,0.2382374405860901
1781215307589233200,1.452233154296875,-0.1258382350206375,0.4153883755207062,-0.1160643994808197
1781215307599334700,1.462334716796875,-0.07330382615327835,0.39706242084503174,-0.5229006409645081
1781215307609405400,1.472405517578125,-0.039095375686883926,0.36529740691185,-0.8686503767967224
1781215307619506700,1.482506591796875,-0.010995574295520782,0.3543018400669098,-1.0714576244354248
1781215307629547000,1.492547119140625,0.042760565876960754,0.3677408695220947,-1.1753047704696655
1781215307639587300,1.50258740234375,0.11239920556545258,0.4031710624694824,-1.2192870378494263
1781215307679901000,1.54290087890625,0.2528982162475586,0.4288274049758911,-1.2192870378494263
1781215307710205000,1.573204833984375,0.23945917189121246,0.4239404797554016,-1.047023057937622
1781215307720275700,1.583275634765625,0.18081611394882202,0.38728857040405273,-1.0225883722305298
1781215307750518500,1.6135185546875,0.16737708449363708,0.34086281061172485,-0.5729916095733643
1781215307810943500,1.673943603515625,-0.06108652427792549,0.46303585171699524,-0.36529740691185
1781215307831085000,1.6940849609375,-0.1820378452539444,0.5070181488990784,-0.8087855577468872
1781215307841155800,1.70415576171875,-0.16982053220272064,0.4593706727027893,-0.8246681094169617
1781215307851226600,1.7142265625,-0.12950342893600464,0.44715335965156555,-0.6707300543785095
1781215307861297400,1.72429736328125,-0.039095375686883926,0.455705463886261,-0.35552358627319336
1781215307871337700,1.734337646484375,0.2834414839744568,0.44104471802711487,0.5485569834709167
1781215307891448800,1.75444873046875,0.22846360504627228,0.384845107793808,0.46181413531303406
1781215307921691600,1.784691650390625,-0.12828169763088226,-0.0806342139840126,-0.15393804013729095
1781215307931762400,1.794762451171875,-0.10018189996480942,-0.21135938167572021,0.05864306539297104
1781215307941833200,1.804833251953125,-0.10751228034496307,-0.2834414839744568,0.32009339332580566
1781215307951873500,1.81487353515625,-0.10384709388017654,-0.3396410644054413,0.5827654600143433
1781215307961975000,1.82497509765625,-0.11484266817569733,-0.3885102868080139,0.836885392665863
1781215307972045800,1.8350458984375,-0.16004669666290283,-0.44226643443107605,1.0653489828109741
1781215307982147000,1.84514697265625,-0.2272418737411499,-0.5143485069274902,1.273043155670166
1781215308022460700,1.885460693359375,-0.3689626157283783,-0.8124507665634155,2.4996604919433594
1781215308042663400,1.905663330078125,-0.3481931984424591,-0.8674286603927612,3.0494391918182373
1781215308052764700,1.9157646484375,-0.35552358627319336,-0.8759807348251343,3.2082643508911133
1781215308062805000,1.925804931640625,-0.3885102868080139,-0.8955284357070923,3.3182199001312256
1781215308072906200,1.93590625,-0.4092797040939331,-0.9553932547569275,3.428175687789917
1781215308083007700,1.9460078125,-0.41661009192466736,-0.9834930300712585,3.543018341064453
1781215308093078500,1.95607861328125,-0.46792277693748474,-0.9553932547569275,3.5161404609680176
1781215308113281000,1.976281005859375,-0.5155702829360962,-0.9187413454055786,2.972470283508301
1781215308153655800,2.01665576171875,-0.6988298296928406,-0.9395107626914978,0.9285151958465576
1781215308224212500,2.08721240234375,-1.1056660413742065,-0.626747727394104,-1.076344609260559
1781215308234344400,2.097344482421875,-1.1533136367797852,-0.5375614166259766,-1.1068878173828125
1781215308244445700,2.10744580078125,-1.1911872625350952,-0.47769662737846375,-1.0812314748764038
1781215308254547000,2.117546875,-1.2119566202163696,-0.44104471802711487,-1.0042624473571777
1781215308264587300,2.127587158203125,-1.2217304706573486,-0.40072759985923767,-0.8772025108337402
1781215308274719000,2.137718994140625,-1.2278391122817993,-0.33475416898727417,-0.7305948138237
1781215308284820500,2.147820556640625,-1.23394775390625,-0.25045475363731384,-0.5827654600143433
1781215308294921700,2.157921630859375,-1.236391305923462,-0.1722639948129654,-0.44104471802711487
1781215308325225700,2.188225830078125,-1.1801916360855103,0.02687807008624077,-0.06841690838336945
1781215308335327000,2.198326904296875,-1.1374311447143555,0.10873401165008545,0.021991148591041565
1781215308345397800,2.208397705078125,-1.0885618925094604,0.19425514340400696,0.09040805697441101
1781215308355529700,2.21852978515625,-1.0384708642959595,0.27488934993743896,0.13439035415649414
1781215308365631000,2.228630859375,-0.988379955291748,0.34697145223617554,0.16982053220272064
1781215308375732200,2.238732177734375,-0.9297369122505188,0.4092797040939331,0.2076941877603531
1781215308385833500,2.24883349609375,-0.8552113175392151,0.4691445231437683,0.24923302233219147
1781215308395904500,2.258904541015625,-0.7660250067710876,0.5265658497810364,0.2883284091949463
1781215308406005800,2.269005859375,-0.66584312915802,0.5815436840057373,0.31642818450927734
1781215308436340200,2.29934033203125,-0.3176499307155609,0.6988298296928406,0.2638937830924988
1781215308456542700,2.319542724609375,0.09651670604944229,0.7941248416900635,0.04764748737215996
1781215308496917500,2.35991748046875,0.6939429044723511,0.8845328688621521,-0.13072516024112701
1781215308506988300,2.36998828125,0.8381071090698242,0.8991936445236206,-0.1258382350206375
1781215308517089800,2.38008984375,0.9834930300712585,0.9138544201850891,-0.10506882518529892
1781215308577697500,2.440697509765625,1.9034560918807983,0.9431759119033813,0.030543262138962746
1781215308597900300,2.460900390625,2.0732767581939697,0.9590584635734558,0.04764748737215996
1781215308607971000,2.47097119140625,2.422691583633423,0.9932668805122375,0.025656340643763542
1781215308628112600,2.491112548828125,2.7562239170074463,1.0213667154312134,-0.10384709388017654
1781215308638153000,2.501153076171875,2.908940315246582,1.0238101482391357,-0.2174680233001709
1781215308648193300,2.511193359375,3.0445523262023926,1.0030407905578613,-0.36529740691185
1781215308658233600,2.521233642578125,3.1581733226776123,0.9663888216018677,-0.5558874011039734
1781215308668334800,2.5313349609375,3.246137857437134,0.9089674949645996,-0.7684684991836548
1781215308678405600,2.541405517578125,3.316998243331909,0.8258898258209229,-0.9737191796302795
1781215308708618000,2.571617919921875,3.369532585144043,0.6096435189247131,-1.4611896276474
1781215308738891500,2.6018916015625,3.249803066253662,0.5827654600143433,-1.4831807613372803
1781215308748931800,2.611931884765625,3.1923818588256836,0.5791002511978149,-1.3634512424468994
1781215308759002600,2.622002685546875,3.11785626411438,0.5693264007568359,-1.2131783962249756
1781215308769073400,2.632073486328125,3.0298917293548584,0.5583308339118958,-1.056796908378601
1781215308779144200,2.642144287109375,2.9272663593292236,0.5387831330299377,-0.9053022861480713
1781215308789184500,2.6521845703125,2.811201810836792,0.4960225820541382,-0.759916365146637
1781215308799224600,2.662224609375,2.676811456680298,0.4288274049758911,-0.616973876953125
1781215308809295600,2.672295654296875,2.535090684890747,0.35674530267715454,-0.475253164768219
1781215308819366400,2.682366455078125,2.3909265995025635,0.30543261766433716,-0.3433062732219696
1781215308829437200,2.692437255859375,2.2382102012634277,0.28588494658470154,-0.22602014243602753
1781215308839508000,2.702508056640625,2.076941728591919,0.27611109614372253,-0.1270599663257599
1781215308869720300,2.73272021484375,1.5711454153060913,0.23457226157188416,-0.1563815027475357
1781215308920104700,2.783104736328125,0.9248499870300293,0.10018189996480942,-0.5925393104553223
1781215308930175700,2.79317578125,0.817337691783905,0.06963863968849182,-0.6145304441452026
1781215308980499200,2.843499267578125,0.3836233615875244,-0.2968805134296417,-0.685390830039978
1781215308990600400,2.853600341796875,0.3188716471195221,-0.32620203495025635,-0.6585127115249634
1781215309000640800,2.863640869140625,0.22968533635139465,-0.3078760802745819,-0.6963863968849182
1781215309010742000,2.873741943359375,0.1111774742603302,-0.3029891550540924,-0.7965682744979858
1781215309020812800,2.883812744140625,-0.0012217304902151227,-0.33475416898727417,-0.9053022861480713
1781215309030914000,2.8939140625,-0.07941248267889023,-0.3738495409488678,-0.940732479095459
1781215309051025200,2.914025146484375,-0.1722639948129654,-0.43615779280662537,-0.685390830039978
1781215309061126700,2.924126708984375,-0.25045475363731384,-0.49235737323760986,-0.45692721009254456
1781215309071197400,2.934197509765625,-0.3604104816913605,-0.5326744914054871,-0.19792033731937408
1781215309081268200,2.944268310546875,-0.46547931432724,-0.5363397002220154,0.11972958594560623
1781215309091339000,2.954339111328125,-0.5436700582504272,-0.48258355259895325,0.49846604466438293
1781215309101409800,2.964409912109375,-0.608421802520752,-0.3885102868080139,0.8979719281196594
1781215309111480600,2.97448046875,-0.6805039048194885,-0.29565876722335815,1.2510520219802856
1781215309121551400,2.98455126953125,-0.7916813492774963,-0.2565633952617645,1.4575244188308716
1781215309131622100,2.9946220703125,-0.970054030418396,-0.3078760802745819,1.4440854787826538
1781215309141693000,3.00469287109375,-1.1728612184524536,-0.44226643443107605,1.2583824396133423
1781215309151763700,3.014763671875,-1.340238332748413,-0.6218608021736145,1.0531316995620728
1781215309171936000,3.03493603515625,-1.6688838005065918,-0.8686503767967224,0.8747590184211731
1781215309182037200,3.045037353515625,-1.843591332435608,-0.9065240025520325,0.9480628371238708
1781215309192138500,3.055138427734375,-2.0024163722991943,-0.9248499870300293,1.0641272068023682
1781215309232421600,3.095421630859375,-2.965139865875244,-1.3781119585037231,0.8210029006004333
1781215309242492400,3.105492431640625,-3.1508429050445557,-1.4746286869049072,0.7782423496246338
1781215309292785400,3.155785400390625,-4.012163162231445,-2.024407386779785,1.207069754600525
1781215309302795300,3.165795166015625,-4.1612138748168945,-2.0427334308624268,1.4929546117782593
1781215309312896500,3.175896484375,-4.279721736907959,-2.0512855052948,1.7727309465408325
1781215309322967300,3.18596728515625,-4.365242958068848,-2.037846565246582,1.996307611465454
1781215309333038000,3.1960380859375,-4.42144250869751,-2.032959461212158,2.1148154735565186
1781215309343078400,3.206078369140625,-4.470311641693115,-2.059837579727173,2.101376533508301
1781215309353180000,3.216179931640625,-4.530176639556885,-2.098932981491089,1.9462167024612427
1781215309363250700,3.226250732421875,-4.582711219787598,-2.1514673233032227,1.6896532773971558
1781215309373321500,3.236321533203125,-4.608367443084717,-2.2125539779663086,1.4013248682022095
1781215309383331000,3.2463310546875,-4.61691951751709,-2.261423110961914,1.1178834438323975
1781215309393432600,3.2564326171875,-4.613254547119141,-2.2931880950927734,0.9150761365890503
1781215309403503400,3.26650341796875,-4.581489562988281,-2.3347270488739014,0.9101892113685608
1781215309413574100,3.27657421875,-4.532619953155518,-2.361604928970337,1.1093312501907349
1781215309423614500,3.286614501953125,-4.560719966888428,-2.213775634765625,1.6969836950302124
1781215309433715700,3.2967158203125,-4.560719966888428,-2.213775634765625,1.6969836950302124
1781215309453918200,3.316918212890625,-4.581489562988281,-1.9022343158721924,2.048841953277588
1781215309484100000,3.34710009765625,-4.571715354919434,-1.93766450881958,1.274264931678772
1781215309494171000,3.3571708984375,-4.547280788421631,-1.927890658378601,1.0677924156188965
1781215309504211200,3.367211181640625,-4.502076625823975,-1.882686734199524,0.9468411207199097
1781215309514312700,3.377312744140625,-4.416555881500244,-1.7849482297897339,0.9077457785606384
1781215309534454300,3.397454345703125,-4.157548904418945,-1.5173892974853516,0.8918632864952087
1781215309594848500,3.4578486328125,-3.690847873687744,-1.4587461948394775,1.4624114036560059
1781215309615020500,3.4780205078125,-3.5796704292297363,-1.166752576828003,1.6383405923843384
1781215309625091300,3.48809130859375,-3.519805431365967,-1.0421360731124878,1.3952162265777588
1781215309635192800,3.49819287109375,-3.467271089553833,-1.0348057746887207,0.9957103729248047
1781215309645294000,3.508294189453125,-3.4049627780914307,-1.1276572942733765,0.5229006409645081
1781215309655364900,3.51836474609375,-3.369532585144043,-1.1985175609588623,0.12950342893600464
1781215309665405200,3.5284052734375,-3.341432809829712,-1.1948524713516235,0.02932153269648552
1781215309675476000,3.53847607421875,-3.260798692703247,-1.147204875946045,0.23090706765651703
1781215309695648000,3.55864794921875,-2.959031343460083,-1.0115928649902344,0.9358455538749695
1781215309705749200,3.568749267578125,-2.7867672443389893,-0.9578366875648499,1.1301007270812988
1781215309715820300,3.5788203125,-2.6169466972351074,-0.9272934198379517,1.1032226085662842
1781215309725891000,3.58889111328125,-2.450791358947754,-0.93095862865448,0.8772025108337402
1781215309735961900,3.5989619140625,-2.320066213607788,-0.9590584635734558,0.5412266254425049
1781215309746032600,3.60903271484375,-2.205223560333252,-0.9859365224838257,0.27000242471694946
1781215309756103400,3.619103515625,-2.0561723709106445,-0.9321803450584412,0.1661553531885147
1781215309766174200,3.62917431640625,-1.8765780925750732,-0.8038986921310425,0.18081611394882202
1781215309786346200,3.64934619140625,-1.578475832939148,-0.5241223573684692,0.15027284622192383
1781215309796417000,3.6594169921875,-1.4795156717300415,-0.42271876335144043,-0.004886921960860491
1781215309806518500,3.6695185546875,-1.3866641521453857,-0.35552358627319336,-0.23579397797584534
1781215309816589300,3.67958935546875,-1.320690631866455,-0.31642818450927734,-0.49357911944389343
1781215309826660000,3.68966015625,-1.2718214988708496,-0.29077184200286865,-0.6572909951210022
1781215309836731000,3.69973095703125,-1.2217304706573486,-0.27611109614372253,-0.6682865619659424
1781215309846801700,3.7098017578125,-1.1655309200286865,-0.21624629199504852,-0.5668829679489136
1781215309856903000,3.71990283203125,-1.1203268766403198,-0.1722639948129654,-0.37629300355911255
1781215309866943200,3.729943115234375,-1.0726794004440308,-0.14905111491680145,-0.14416420459747314
1781215309877014000,3.740013916015625,-1.018923282623291,-0.12339477986097336,0.03787364438176155
1781215309887084800,3.750084716796875,-1.0042624473571777,-0.11484266817569733,0.0659734457731247
1781215309937469400,3.800469482421875,-1.2669345140457153,-0.14782938361167908,-0.4691445231437683
1781215309977752600,3.840752685546875,-0.9578366875648499,-0.09773843735456467,0.7220427393913269
1781215310048278800,3.91127880859375,-0.8014551997184753,-0.13316862285137177,-0.06475171446800232
1781215310058380000,3.921380126953125,-0.7354817390441895,-0.09896016865968704,0.051312681287527084
1781215310068450800,3.931450927734375,-0.6682865619659424,-0.04764748737215996,0.2321287989616394
1781215310078552000,3.941552001953125,-0.6255260109901428,-0.006108652334660292,0.3897320330142975
1781215310088622800,3.951622802734375,-0.5913175344467163,0.019547687843441963,0.48380526900291443
1781215310098724000,3.96172412109375,-0.5558874011039734,0.036651913076639175,0.49724429845809937
1781215310108825600,3.97182568359375,-0.5180137157440186,0.03298672288656235,0.44226643443107605
1781215310118896400,3.981896484375,-0.4801400899887085,0.028099801391363144,0.32986724376678467
1781215310128997600,3.99199755859375,-0.44226643443107605,0.024434609338641167,0.18936823308467865
1781215310139038000,4.002037841796875,-0.38728857040405273,0.030543262138962746,0.05497787147760391
1781215310149108700,4.012108642578125,-0.3176499307155609,0.025656340643763542,-0.05742133408784866
1781215310159179500,4.022179443359375,-0.26145032048225403,-0.0024434609804302454,-0.1270599663257599
1781215310169280800,4.03228076171875,-0.23579397797584534,-0.012217304669320583,-0.1466076523065567
1781215310179321000,4.042321044921875,-0.22357667982578278,-0.013439035043120384,-0.10384709388017654
1781215310189422300,4.05242236328125,-0.19058994948863983,0.01466076634824276,0.05375614017248154
1781215310199493400,4.062493408203125,-0.16737708449363708,0.04398229718208313,0.12217304855585098
1781215310209564200,4.072564208984375,-0.12339477986097336,0.07208210229873657,0.16493362188339233
1781215310219665400,4.08266552734375,-0.0659734457731247,0.0757472887635231,0.16371189057826996
1781215310239807000,4.102806884765625,0.045204028487205505,-0.004886921960860491,0.0012217304902151227
1781215310249908200,4.112908203125,0.08429940044879913,-0.0659734457731247,-0.12217304855585098
1781215310260009700,4.123009765625,0.11362093687057495,-0.13439035415649414,-0.22968533635139465
1781215310270080500,4.13308056640625,0.12461651116609573,-0.17348572611808777,-0.28588494658470154
1781215310280181800,4.143181640625,0.1368338167667389,-0.19914206862449646,-0.2822197377681732
1781215310290283000,4.153282958984375,0.15882496535778046,-0.19547687470912933,-0.26511552929878235
1781215310300384300,4.16338427734375,0.1771509200334549,-0.1820378452539444,-0.26022860407829285
1781215310310455300,4.173455322265625,0.19792033731937408,-0.17470745742321014,-0.2736676335334778
1781215310320556500,4.183556640625,0.2125810980796814,-0.15271630883216858,-0.2981022298336029
1781215310330657800,4.19365771484375,0.22357667982578278,-0.13072516024112701,-0.3237585723400116
1781215310340759000,4.203759033203125,0.24068090319633484,-0.1417207419872284,-0.34208452701568604
1781215310350860500,4.213860595703125,0.25045475363731384,-0.1722639948129654,-0.3689626157283783
1781215310360900600,4.223900634765625,0.24923302233219147,-0.19303341209888458,-0.37262779474258423
1781215310371002000,4.234002197265625,0.24678955972194672,-0.17470745742321014,-0.32009339332580566
1781215310381103400,4.244103271484375,0.2577851414680481,-0.1258382350206375,-0.23335053026676178
1781215310391235000,4.254235107421875,0.2919935882091522,-0.06963863968849182,-0.16493362188339233
1781215310401367000,4.264366943359375,0.32620203495025635,-0.012217304669320583,-0.16004669666290283
1781215310411468300,4.27446826171875,0.3530801236629486,0.02932153269648552,-0.22113321721553802
1781215310421569800,4.28456982421875,0.37751471996307373,0.042760565876960754,-0.34086281061172485
1781215310431671000,4.294671142578125,0.38606682419776917,0.04764748737215996,-0.4801400899887085
1781215310441772300,4.304772216796875,0.38117989897727966,0.06719517707824707,-0.5558874011039734
1781215310451873500,4.31487353515625,0.3836233615875244,0.08552113175392151,-0.5351179838180542
1781215310461944300,4.3249443359375,0.3933972120285034,0.10506882518529892,-0.4691445231437683
1781215310482147000,4.34514697265625,0.4337143301963806,0.14049901068210602,-0.29565876722335815
1781215310492248300,4.355248291015625,0.4740314185619354,0.17592918872833252,-0.22846360504627228
1781215310502319000,4.365319091796875,0.5229006409645081,0.22968533635139465,-0.20525072515010834
1781215310512420600,4.375420654296875,0.5778785347938538,0.2932153046131134,-0.2528982162475586
1781215310522521900,4.38552197265625,0.6352998614311218,0.3530801236629486,-0.3995058834552765
1781215310542755000,4.405755126953125,0.7611380815505981,0.43615779280662537,-0.856433093547821
1781215310552825900,4.415825927734375,0.8576548099517822,0.4813618063926697,-1.0506882667541504
1781215310583129900,4.4461298828125,1.3267992734909058,0.45814892649650574,-1.0641272068023682
1781215310643798800,4.506798828125,2.948035717010498,0.5729916095733643,-1.0482447147369385
1781215310663970800,4.526970703125,3.7665951251983643,0.5619960427284241,-1.451415777206421
1781215310694274800,4.55727490234375,4.990768909454346,0.4960225820541382,-1.9413297176361084
1781215310704376000,4.5673759765625,5.270545482635498,0.46547931432724,-1.9792033433914185
1781215310714477300,4.577477294921875,5.47213077545166,0.44837507605552673,-1.9254472255706787
1781215310724578800,4.587578857421875,5.6040778160095215,0.4813618063926697,-1.8057177066802979
1781215310734680000,4.59768017578125,5.695707321166992,0.675616979598999,-1.6578882932662964
1781215310744781300,4.60778125,5.695707321166992,0.675616979598999,-1.6578882932662964
1781215310764984000,4.627984130859375,5.491678714752197,0.9138544201850891,-1.872912883758545
1781215310775085300,4.638085205078125,5.455026626586914,0.9334021210670471,-1.9046778678894043
1781215310795287800,4.658287841796875,5.451361656188965,0.8515461683273315,-1.9034560918807983
1781215310815490600,4.678490478515625,5.068959712982178,0.6438519954681396,-2.348165988922119
1781215310825591800,4.688591796875,4.830722332000732,0.43737950921058655,-2.4642302989959717
1781215310835693300,4.698693359375,4.680449485778809,0.19425514340400696,-2.3603832721710205
1781215310855895800,4.718895751953125,4.66090202331543,0.013439035043120384,-2.0341813564300537
1781215310865936100,4.72893603515625,4.731762409210205,-0.045204028487205505,-1.598023533821106
1781215310875976400,4.7389765625,4.835609436035156,0.00855211354792118,-1.1948524713516235
1781215310886077700,4.74907763671875,4.928460597991943,0.12828169763088226,-0.9272934198379517
1781215310896087600,4.759087646484375,4.966334342956543,0.2565633952617645,-0.8784242272377014
1781215310906188800,4.769188720703125,4.946786880493164,0.3176499307155609,-0.9944885969161987
1781215310926330400,4.789330322265625,4.877148151397705,0.13439035415649414,-1.3280210494995117
1781215310936401200,4.799401123046875,4.708549499511719,0.03298672288656235,-1.2986994981765747
1781215310956512300,4.81951220703125,4.299269676208496,0.1514945775270462,-0.8136724829673767
1781215310966522000,4.829522216796875,4.084245204925537,0.25534167885780334,-0.5742133259773254
1781215310976623400,4.839623291015625,3.8570032119750977,0.35674530267715454,-0.46547931432724
1781215310986663700,4.84966357421875,3.6077702045440674,0.39706242084503174,-0.4948008358478546
1781215310996765000,4.859764892578125,3.3597588539123535,0.384845107793808,-0.6035348773002625
1781215311006866200,4.8698662109375,3.1398472785949707,0.3982841372489929,-0.6988298296928406
1781215311016967700,4.8799677734375,2.956587791442871,0.44226643443107605,-0.7244861721992493
1781215311027038500,4.89003857421875,2.797762870788574,0.5009095072746277,-0.7086036801338196
1781215311037139700,4.9001396484375,2.6597073078155518,0.5729916095733643,-0.6927211880683899
1781215311057281300,4.92028125,2.465452194213867,0.6927211880683899,-0.6768386960029602
1781215311067321600,4.930321533203125,2.409252643585205,0.6841690540313721,-0.6304129362106323
1781215311077362000,4.94036181640625,2.370157241821289,0.6829473376274109,-0.5387831330299377
1781215311087463200,4.950463134765625,2.350609540939331,0.7232644557952881,-0.38728857040405273
1781215311097534000,4.960533935546875,2.3383922576904297,0.7916813492774963,-0.21868975460529327
1781215311107604700,4.970604736328125,2.3102922439575195,0.8539896011352539,-0.11362093687057495
1781215311117675500,4.980675537109375,2.266309976577759,0.8906415104866028,-0.10873401165008545
1781215311127746300,4.990746337890625,2.2382102012634277,0.8820894360542297,-0.17837265133857727
1781215311137847800,5.000847900390625,2.2492058277130127,0.8319984674453735,-0.27488934993743896
1781215311147949000,5.010948974609375,2.2931880950927734,0.7648032903671265,-0.38728857040405273
1781215311168090600,5.031090576171875,2.3127357959747314,0.636521577835083,-0.8258898258209229
1781215311178161400,5.041161376953125,2.3102922439575195,0.5791002511978149,-1.0286970138549805
1781215311188232200,5.051232177734375,2.344500780105591,0.5338962078094482,-1.0934487581253052
1781215311278869500,5.141869384765625,2.291966438293457,0.5326744914054871,-0.6120869517326355
1781215311299011000,5.162010986328125,2.02929425239563,0.4398229718208313,-1.1374311447143555
1781215311349426200,5.21242626953125,1.1349875926971436,0.3591887652873993,-1.1068878173828125
1781215311359527400,5.22252734375,0.940732479095459,0.31154128909111023,-0.9663888216018677
1781215311379730200,5.242730224609375,0.5717698931694031,0.30054569244384766,-0.5681046843528748
1781215311440094000,5.303093994140625,-0.5290092825889587,0.3066543638706207,-0.5839871764183044
1781215311470275800,5.33327587890625,-0.7672467231750488,0.10995574295520782,-0.5400048494338989
1781215311510559000,5.37355908203125,-1.187522053718567,-0.11484266817569733,-0.4043927788734436
1781215311581024000,5.44402392578125,-0.8491026759147644,0.039095375686883926,-0.24068090319633484
1781215311601196000,5.464196044921875,-0.6194173693656921,0.05009094998240471,-0.42149701714515686
1781215311621307100,5.48430712890625,-0.32498031854629517,0.0806342139840126,-0.4398229718208313
1781215311681701600,5.54470166015625,0.22846360504627228,-0.14294247329235077,0.045204028487205505
1781215311711944400,5.5749443359375,0.2675589919090271,-0.27122417092323303,0.21135938167572021
1781215311762298400,5.62529833984375,0.3176499307155609,-0.3396410644054413,0.015882495790719986
1781215311832855000,5.69585498046875,0.05619960278272629,-0.38728857040405273,-0.2834414839744568
1781215311883239700,5.74623974609375,-0.15882496535778046,-0.17470745742321014,0.15027284622192383
1781215311933563100,5.796563232421875,-0.5803219676017761,-0.02076941914856434,0.15760323405265808
1781215311993927000,5.856927001953125,-1.5234979391098022,-0.3836233615875244,1.0751228332519531
1781215312074523600,5.937523681640625,-3.341432809829712,-0.4300491213798523,0.8124507665634155
1781215312134979000,5.99797900390625,-3.984063148498535,-0.5766568183898926,0.7916813492774963
1781215312175262200,6.03826220703125,-4.548502445220947,-0.3677408695220947,1.3072515726089478
1781215312235717600,6.098717529296875,-4.787961959838867,-0.48258355259895325,1.655444860458374
1781215312245788400,6.108788330078125,-4.841717720031738,-0.4715879559516907,1.7861700057983398
1781215312306213000,6.169213134765625,-4.9174652099609375,-0.5583308339118958,2.018298864364624
1781215312346527000,6.20952685546875,-4.596149921417236,-0.6352998614311218,2.040289878845215
1781215312356567300,6.2195673828125,-4.531398296356201,-0.656069278717041,2.0219640731811523
1781215312366668500,6.22966845703125,-4.4764204025268555,-0.7049384713172913,2.004859685897827
1781215312376739300,6.2397392578125,-4.414112091064453,-0.7538077235221863,2.0036380290985107
1781215312386840600,6.249840576171875,-4.332256317138672,-0.7806857824325562,2.0500638484954834
1781215312396911400,6.259911376953125,-4.225965976715088,-0.7855727076530457,2.1673498153686523
1781215312407012900,6.270012939453125,-4.098905563354492,-0.7843509912490845,2.2931880950927734
1781215312417083600,6.280083740234375,-3.99505877494812,-0.8051204085350037,2.350609540939331
1781215312427154400,6.290154541015625,-3.9400808811187744,-0.8600982427597046,2.3347270488739014
1781215312447296000,6.3102958984375,-3.8570032119750977,-0.9456194043159485,2.3066272735595703
1781215312528015000,6.39101513671875,-3.456275463104248,-1.0580185651779175,1.3842206001281738
1781215312558318800,6.42131884765625,-3.1276299953460693,-1.0286970138549805,1.5063936710357666
1781215312568389600,6.4313896484375,-3.009122133255005,-0.9492846131324768,1.5332717895507812
1781215312578430000,6.441429931640625,-2.9162707328796387,-0.8662069439888,1.4037683010101318
1781215312588562000,6.45156201171875,-2.8466320037841797,-0.817337691783905,1.0824532508850098
1781215312608734000,6.47173388671875,-2.7928760051727295,-0.807563841342926,0.16371189057826996
1781215312618804700,6.4818046875,-2.757445812225342,-0.7709119319915771,-0.17592918872833252
1781215312628936700,6.491936767578125,-2.6975808143615723,-0.7257078886032104,-0.31154128909111023
1781215312639007500,6.502007568359375,-2.5864033699035645,-0.6731734871864319,-0.13439035415649414
1781215312649108700,6.512108642578125,-2.395813465118408,-0.5693264007568359,0.2687807083129883
1781215312669311500,6.5323115234375,-2.012190103530884,-0.3591887652873993,1.0604621171951294
1781215312719818000,6.58281787109375,-1.4245377779006958,-0.1319468915462494,-0.4251621961593628
1781215312770294000,6.6332939453125,-0.940732479095459,0.29565876722335815,-0.27000242471694946
1781215312780334300,6.643334228515625,-0.769690215587616,0.3995058834552765,0.07452555745840073
1781215312790466000,6.653466064453125,-0.6035348773002625,0.48380526900291443,0.13316862285137177
1781215312810668800,6.673668701171875,-0.3139847218990326,0.6389650702476501,-0.6633996367454529
1781215312820709000,6.683709228515625,-0.25045475363731384,0.6035348773002625,-1.2657127380371094
1781215312830840800,6.6938408203125,-0.21380282938480377,0.49846604466438293,-1.578475832939148
1781215312840942300,6.7039423828125,-0.21380282938480377,0.42638394236564636,-1.4819591045379639
1781215312851043600,6.714043701171875,-0.2724458873271942,0.4386012554168701,-1.1081095933914185
1781215312861114400,6.7241142578125,-0.3604104816913605,0.394618958234787,-0.6792821288108826
1781215312871246000,6.73424609375,-0.4105014503002167,0.2321287989616394,-0.21135938167572021
1781215312881316900,6.74431689453125,-0.4105014503002167,0.14294247329235077,0.16982053220272064
1781215312891448800,6.75444873046875,-0.41661009192466736,0.10018189996480942,0.21380282938480377
1781215312901519600,6.76451953125,-0.39706242084503174,0.045204028487205505,-0.042760565876960754
1781215312941924900,6.8049248046875,-0.39217549562454224,-0.3286454975605011,-0.8124507665634155
1781215312952026000,6.815026123046875,-0.38240164518356323,-0.22846360504627228,-0.3604104816913605
1781215312962127600,6.825127685546875,-0.44593164324760437,-0.10995574295520782,0.09773843735456467
1781215312972228900,6.835228759765625,-0.5290092825889587,-0.039095375686883926,0.4092797040939331
1781215312982330000,6.845330078125,-0.5583308339118958,-0.009773843921720982,0.5461135506629944
1781215312992431600,6.855431640625,-0.5277875661849976,-0.0012217304902151227,0.4911356568336487
1781215313002532900,6.865532958984375,-0.46547931432724,-0.02321287989616394,0.2883284091949463
1781215313012634000,6.875634033203125,-0.38240164518356323,-0.0659734457731247,-0.010995574295520782
1781215313022735400,6.8857353515625,-0.2981022298336029,-0.1111774742603302,-0.3286454975605011
1781215313032836900,6.8958369140625,-0.23335053026676178,-0.19547687470912933,-0.5632177591323853
1781215313042938000,6.905938232421875,-0.18814650177955627,-0.26145032048225403,-0.6401867866516113
1781215313053039400,6.916039306640625,-0.15882496535778046,-0.26633724570274353,-0.5497786998748779
1781215313063110100,6.926110107421875,-0.11972958594560623,-0.22846360504627228,-0.35185837745666504
1781215313073181000,6.936180908203125,-0.07819075137376785,-0.17104226350784302,-0.13805554807186127
1781215313083251700,6.946251708984375,-0.03787364438176155,-0.11850785464048386,-0.013439035043120384
1781215313093322500,6.956322509765625,0.00855211354792118,-0.09651670604944229,0.009773843921720982
1781215313103393300,6.966393310546875,0.08185594528913498,-0.09040805697441101,-0.04398229718208313
1781215313113464300,6.97646435546875,0.1722639948129654,-0.08918632566928864,-0.14782938361167908
1781215313123535000,6.98653515625,0.25534167885780334,-0.10018189996480942,-0.2528982162475586
1781215313133636400,6.99663623046875,0.33475416898727417,-0.1062905490398407,-0.3335324227809906
1781215313143737600,7.006737548828125,0.394618958234787,-0.10995574295520782,-0.36529740691185
1781215313153778000,7.01677783203125,0.42638394236564636,-0.1062905490398407,-0.3494149148464203
1781215313173950000,7.036949951171875,0.43615779280662537,-0.039095375686883926,-0.2223549485206604
1781215313184020700,7.047020751953125,0.42760565876960754,0.00366519158706069,-0.16859880089759827
1781215313194122200,7.057122314453125,0.4056145250797272,0.021991148591041565,-0.15027284622192383
1781215313204193000,7.067193115234375,0.39217549562454224,0.025656340643763542,-0.16249015927314758
1781215313234466300,7.09746630859375,0.3591887652873993,-0.051312681287527084,-0.1514945775270462
1781215313244537000,7.107537109375,0.3433062732219696,-0.06841690838336945,-0.01710422709584236
1781215313254608100,7.117608154296875,0.32620203495025635,-0.0659734457731247,0.13561208546161652
1781215313264679000,7.127678955078125,0.29565876722335815,-0.051312681287527084,0.23579397797584534
1781215313274719000,7.137718994140625,0.26511552929878235,-0.0354301854968071,0.26145032048225403
1781215313284820500,7.147820556640625,0.24923302233219147,-0.04398229718208313,0.21868975460529327
1781215313294921700,7.157921630859375,0.23579397797584534,-0.1270599663257599,0.019547687843441963
1781215313304962000,7.167962158203125,0.24190263450145721,-0.15393804013729095,-0.051312681287527084
1781215313315032800,7.17803271484375,0.25534167885780334,-0.15760323405265808,-0.08796459436416626
1781215313335174400,7.19817431640625,0.2932153046131134,-0.12095131725072861,-0.10873401165008545
1781215313345275600,7.208275634765625,0.33597588539123535,-0.11239920556545258,-0.12828169763088226
1781215313355377200,7.218377197265625,0.3628539443016052,-0.12950342893600464,-0.1514945775270462
1781215313365448000,7.228447998046875,0.37751471996307373,-0.1612684279680252,-0.14782938361167908
1781215313375518700,7.238518798828125,0.39706242084503174,-0.19792033731937408,-0.09529497474431992
1781215313385589500,7.248589599609375,0.41661009192466736,-0.21502456068992615,-0.02932153269648552
1781215313395660300,7.258660400390625,0.4398229718208313,-0.2370157092809677,0.036651913076639175
1781215313405731000,7.26873095703125,0.4691445231437683,-0.2577851414680481,0.05375614017248154
1781215313415801900,7.2788017578125,0.46792277693748474,-0.2883284091949463,-0.006108652334660292
1781215313425842200,7.28884228515625,0.45326200127601624,-0.31642818450927734,-0.07819075137376785
1781215313435913000,7.298912841796875,0.45204028487205505,-0.3176499307155609,-0.11850785464048386
1781215313446014200,7.30901416015625,0.4337143301963806,-0.2834414839744568,-0.12828169763088226
1781215313456085000,7.3190849609375,0.39095374941825867,-0.2382374405860901,-0.11484266817569733
1781215313466155800,7.32915576171875,0.3323107063770294,-0.17837265133857727,-0.09896016865968704
1781215313476226600,7.3392265625,0.2577851414680481,-0.10018189996480942,-0.09407325088977814
1781215313486297300,7.34929736328125,0.1820378452539444,-0.009773843921720982,-0.1014036312699318
1781215313496368000,7.3593681640625,0.12461651116609573,0.08429940044879913,-0.1111774742603302
1781215313516510000,7.379510009765625,0.08796459436416626,0.22968533635139465,-0.10751228034496307
1781215313526580700,7.389580810546875,0.1062905490398407,0.2638937830924988,-0.07452555745840073
1781215313536651500,7.399651611328125,0.14905111491680145,0.29077184200286865,-0.006108652334660292
1781215313546722300,7.409722412109375,0.2125810980796814,0.31520646810531616,0.07208210229873657
1781215313556793000,7.41979296875,0.2981022298336029,0.32620203495025635,0.12461651116609573
1781215313566864000,7.42986376953125,0.4105014503002167,0.33108896017074585,0.11972958594560623
1781215313587005400,7.45000537109375,0.6976081132888794,0.304210901260376,-0.07330382615327835
1781215313597076200,7.460076171875,0.8833111524581909,0.2919935882091522,-0.23457226157188416
1781215313607147000,7.47014697265625,1.0897835493087769,0.2919935882091522,-0.44104471802711487
1781215313627288600,7.49028857421875,1.5015068054199219,0.2822197377681732,-0.8881980776786804
1781215313637359400,7.500359375,1.6859880685806274,0.2577851414680481,-1.0677924156188965
1781215313647430100,7.51043017578125,1.8448129892349243,0.2223549485206604,-1.1814134120941162
1781215313657501200,7.520501220703125,1.977981686592102,0.21013765037059784,-1.2388347387313843
1781215313667602400,7.5306025390625,2.0867156982421875,0.23457226157188416,-1.2791517972946167
1781215313677642800,7.540642822265625,2.1710150241851807,0.2736676335334778,-1.3463469743728638
1781215313687744000,7.550743896484375,2.244318962097168,0.2919935882091522,-1.4453071355819702
1781215313707916000,7.570916015625,2.372600555419922,0.2724458873271942,-1.7470746040344238
1781215313718017500,7.581017578125,2.4080307483673096,0.24068090319633484,-1.9889771938323975
1781215313728057600,7.5910576171875,2.4361305236816406,0.19547687470912933,-2.250427484512329
1781215313738128400,7.60112841796875,2.476447820663452,0.1368338167667389,-2.4776694774627686
1781215313748230000,7.61122998046875,2.5338690280914307,0.0757472887635231,-2.632829189300537
1781215313758300700,7.62130078125,2.598620653152466,0.028099801391363144,-2.7171285152435303
1781215313768341000,7.631341064453125,2.6670377254486084,0.0012217304902151227,-2.7317893505096436
1781215313778411800,7.641411865234375,2.752558708190918,-0.004886921960860491,-2.6841418743133545
1781215313788482600,7.651482666015625,2.872288465499878,0.013439035043120384,-2.5692992210388184
1781215313798553300,7.66155322265625,3.0274481773376465,0.05742133408784866,-2.3823745250701904
1781215313808624000,7.6716240234375,3.199712038040161,0.13927727937698364,-2.1795670986175537
1781215313818695000,7.68169482421875,3.3622024059295654,0.21380282938480377,-2.037846565246582
1781215313828765700,7.691765625,3.486818790435791,0.23579397797584534,-1.966986060142517
1781215313838836500,7.70183642578125,3.589444160461426,0.2321287989616394,-1.9608774185180664
1781215313848937700,7.711937744140625,3.6969563961029053,0.22602014243602753,-1.9914207458496094
1781215313879058700,7.74205859375,4.036597728729248,0.17104226350784302,-2.1001546382904053
1781215313889129500,7.75212939453125,4.166100978851318,0.2174680233001709,-2.113593816757202
1781215313909210000,7.772210205078125,4.3786821365356445,0.32009339332580566,-2.155132532119751
1781215313919281000,7.782281005859375,4.453207492828369,0.3445279896259308,-2.1111502647399902
1781215313939392000,7.80239208984375,4.552167892456055,0.36529740691185,-1.7825047969818115
1781215313949462800,7.812462890625,4.560719966888428,0.394618958234787,-1.5063936710357666
1781215313959564000,7.82256396484375,4.544837474822998,0.48380526900291443,-1.2693779468536377
1781215313969634800,7.832634765625,4.514294147491455,0.626747727394104,-1.1679743528366089
1781215313989776400,7.8527763671875,4.4764204025268555,0.8161159753799438,-1.264491081237793
1781215313999847200,7.86284716796875,4.456872940063477,0.8649851679801941,-1.4184291362762451
1781215314009948700,7.87294873046875,4.403116703033447,0.8881980776786804,-1.6505578756332397
1781215314020019500,7.88301953125,4.351803779602051,0.8649851679801941,-1.8655824661254883
1781215314030120700,7.89312060546875,4.349360466003418,0.817337691783905,-1.99752938747406
1781215314040191500,7.90319140625,4.390899181365967,0.7745771408081055,-2.0512855052948
1781215314050201300,7.913201416015625,4.42144250869751,0.7538077235221863,-2.102598190307617
1781215314060241700,7.92324169921875,4.4067816734313965,0.7586946487426758,-2.1514673233032227
1781215314070281700,7.93328173828125,4.4006733894348145,0.7672467231750488,-2.1172590255737305
1781215314080383200,7.94338330078125,4.4397687911987305,0.7770205736160278,-1.996307611465454
1781215314090423600,7.953423583984375,4.494746685028076,0.7953465580940247,-1.8252654075622559
1781215314100463600,7.963463623046875,4.506963729858398,0.8185594081878662,-1.6481144428253174
1781215314110565000,7.973565185546875,4.475198745727539,0.8283332586288452,-1.4758504629135132
1781215314130676200,7.99367626953125,4.44343376159668,0.8307767510414124,-1.0922271013259888
1781215314231414500,8.09441455078125,3.925420045852661,0.21624629199504852,-0.6194173693656921
1781215314291809000,8.15480908203125,2.5021040439605713,-0.19425514340400696,-2.135584831237793
1781215314301879800,8.1648798828125,2.2479841709136963,-0.2968805134296417,-2.409252643585205
1781215314311950600,8.17495068359375,2.0134117603302,-0.3530801236629486,-2.5839600563049316
1781215314322021400,8.185021484375,1.7800613641738892,-0.3494149148464203,-2.648711681365967
1781215314332092200,8.195092041015625,1.547932505607605,-0.2871066629886627,-2.613281488418579
1781215314342163000,8.205162841796875,1.3365731239318848,-0.17959438264369965,-2.48988676071167
1781215314352203300,8.215203369140625,1.1679743528366089,-0.06230825558304787,-2.2846360206604004
1781215314362274000,8.225274169921875,1.0506882667541504,0.03298672288656235,-2.032959461212158
1781215314382385200,8.24538525390625,0.9138544201850891,0.08918632566928864,-1.616349458694458
1781215314392486400,8.255486328125,0.8710938692092896,0.019547687843441963,-1.4966198205947876
1781215314402587600,8.265587646484375,0.846659243106842,-0.08307767659425735,-1.4282029867172241
1781215314412658400,8.275658447265625,0.8344419002532959,-0.17104226350784302,-1.3854423761367798
1781215314422729200,8.285729248046875,0.8295549750328064,-0.2223549485206604,-1.3377948999404907
1781215314432830700,8.295830810546875,0.836885392665863,-0.24434609711170197,-1.2498302459716797
1781215314442901500,8.305901611328125,0.8527678847312927,-0.24434609711170197,-1.1398745775222778
1781215314452941800,8.31594189453125,0.8539896011352539,-0.23457226157188416,-1.0616837739944458
1781215314463043000,8.32604296875,0.836885392665863,-0.24678955972194672,-1.0213667154312134
1781215314473113900,8.33611376953125,0.827111542224884,-0.2834414839744568,-0.988379955291748
1781215314483184600,8.3461845703125,0.8246681094169617,-0.3139847218990326,-0.9431759119033813
1781215314493225000,8.356224853515625,0.807563841342926,-0.3176499307155609,-0.8857545852661133
1781215314503326200,8.366326171875,0.7660250067710876,-0.2981022298336029,-0.797789990901947
1781215314513366500,8.376366455078125,0.7086036801338196,-0.2675589919090271,-0.6609562039375305
1781215314523467800,8.3864677734375,0.6328563690185547,-0.2272418737411499,-0.4960225820541382
1781215314533508000,8.396508056640625,0.5338962078094482,-0.18814650177955627,-0.32498031854629517
1781215314543579000,8.406578857421875,0.4202753007411957,-0.16493362188339233,-0.14294247329235077
1781215314553649700,8.416649658203125,0.31031954288482666,-0.14049901068210602,0.04642575979232788
1781215314573822000,8.436822021484375,0.07696902006864548,-0.10751228034496307,0.3384193480014801
1781215314583923200,8.446923095703125,-0.051312681287527084,-0.12339477986097336,0.4239404797554016
1781215314593963500,8.456963623046875,-0.17959438264369965,-0.14538592100143433,0.4996877610683441
1781215314604064800,8.467064697265625,-0.3090978264808655,-0.16737708449363708,0.5766568183898926
1781215314614166000,8.477166015625,-0.4349360466003418,-0.18936823308467865,0.656069278717041
1781215314624267500,8.487267578125,-0.5497786998748779,-0.21380282938480377,0.7281513810157776
1781215314634368800,8.49736865234375,-0.6548475623130798,-0.23090706765651703,0.7745771408081055
1781215314644439600,8.507439453125,-0.7611380815505981,-0.24190263450145721,0.7672467231750488
1781215314654540800,8.517540771484375,-0.8662069439888,-0.2565633952617645,0.7147123217582703
1781215314664642300,8.527642333984375,-0.9578366875648499,-0.2687807083129883,0.6487388610839844
1781215314674743600,8.53774365234375,-1.0396926403045654,-0.2565633952617645,0.5803219676017761
1781215314694885000,8.557885009765625,-1.2192870378494263,-0.22968533635139465,0.48380526900291443
1781215314704986400,8.567986328125,-1.3084733486175537,-0.2370157092809677,0.49235737323760986
1781215314715057200,8.57805712890625,-1.3976596593856812,-0.23090706765651703,0.5155702829360962
1781215314725158700,8.58815869140625,-1.5039502382278442,-0.22113321721553802,0.5387831330299377
1781215314735229400,8.5982294921875,-1.6212363243103027,-0.2174680233001709,0.588874101638794
1781215314745300200,8.60830029296875,-1.7250834703445435,-0.20402899384498596,0.6841690540313721
1781215314755371000,8.61837109375,-1.813048005104065,-0.17837265133857727,0.8258898258209229
1781215314765441800,8.62844189453125,-1.9071213006973267,-0.15760323405265808,0.9957103729248047
1781215314785613800,8.64861376953125,-2.1062633991241455,-0.17837265133857727,1.3768903017044067
1781215314795684600,8.6586845703125,-2.196671485900879,-0.2028072625398636,1.5369369983673096
1781215314876495000,8.7394951171875,-3.0750956535339355,-0.5827654600143433,1.441641926765442
1781215314947204400,8.810204345703125,-3.7482690811157227,-0.5424483418464661,1.1936306953430176
1781215314957336300,8.82033642578125,-3.79958176612854,-0.5119050741195679,1.2290608882904053
1781215314967437600,8.8304375,-3.8447859287261963,-0.49235737323760986,1.215621829032898
1781215314977538800,8.840538818359375,-3.8936550617218018,-0.513126790523529,1.1325441598892212
1781215314987640300,8.850640380859375,-3.949854612350464,-0.5705481171607971,1.009149432182312
1781215314997711000,8.860711181640625,-3.999945640563965,-0.636521577835083,0.9346238374710083
1781215315007842800,8.8708427734375,-4.023158550262451,-0.675616979598999,0.9761626720428467
1781215315017944000,8.880944091796875,-4.0268235206604,-0.6731734871864319,1.1007791757583618
1781215315028045600,8.891045654296875,-4.035375595092773,-0.6572909951210022,1.2473868131637573
1781215315038146800,8.901146728515625,-4.050036430358887,-0.6401867866516113,1.4245377779006958
1781215315048248000,8.911248046875,-4.067140579223633,-0.6133087277412415,1.6212363243103027
1781215315058288400,8.921288330078125,-4.089131832122803,-0.5705481171607971,1.7873916625976562
1781215315068420400,8.93142041015625,-4.117231845855713,-0.5314527750015259,1.882686734199524
1781215315078521600,8.941521484375,-4.133114337921143,-0.5167919993400574,1.927890658378601
1781215315088622800,8.951622802734375,-4.1245622634887695,-0.5375614166259766,1.938886284828186
1781215315108825600,8.97182568359375,-4.068362712860107,-0.5949827432632446,1.89979088306427
1781215315118926800,8.9819267578125,-4.0463714599609375,-0.6206390857696533,1.891238808631897
1781215315128997600,8.99199755859375,-4.032932281494141,-0.6426302194595337,1.9022343158721924
1781215315139099000,9.002098876953125,-4.021936893463135,-0.6609562039375305,1.892460584640503
1781215315149200400,9.012200439453125,-3.99505877494812,-0.6731734871864319,1.8460347652435303
1781215315159301600,9.022301513671875,-3.953519821166992,-0.6866125464439392,1.7861700057983398
1781215315169372400,9.032372314453125,-3.89732027053833,-0.7159340381622314,1.7519614696502686
1781215315179443200,9.042443115234375,-3.8337903022766113,-0.7293730974197388,1.7385225296020508
1781215315189575200,9.0525751953125,-3.7751471996307373,-0.7049384713172913,1.7324138879776
1781215315199676400,9.062676513671875,-3.715282440185547,-0.6597344875335693,1.712866187095642
1781215315219848400,9.082848388671875,-3.5833356380462646,-0.6133087277412415,1.6236798763275146
1781215315280547800,9.1435478515625,-3.3817501068115234,-0.3335324227809906,1.9364428520202637
1781215315290649300,9.1536494140625,-3.3267722129821777,-0.30054569244384766,2.135584831237793
1781215315300720000,9.16372021484375,-3.260798692703247,-0.29565876722335815,2.3078489303588867
1781215315351135000,9.214135009765625,-2.984687566757202,-0.2968805134296417,2.3493876457214355
1781215315361236500,9.224236572265625,-2.8796188831329346,-0.3689626157283783,2.3322834968566895
1781215315371307300,9.234307373046875,-2.785545587539673,-0.45326200127601624,2.2711970806121826
1781215315381378000,9.2443779296875,-2.7391197681427,-0.5119050741195679,2.1930062770843506
1781215315391448800,9.25444873046875,-2.722015619277954,-0.5241223573684692,2.1429152488708496
1781215315401519600,9.26451953125,-2.6816983222961426,-0.5009095072746277,2.052507162094116
1781215315411590400,9.27459033203125,-2.607172966003418,-0.4996877610683441,1.853365182876587
1781215315421630700,9.284630615234375,-2.5106561183929443,-0.5204572081565857,1.5906931161880493
1781215315431732000,9.29473193359375,-2.395813465118408,-0.5522221922874451,1.3365731239318848
1781215315441833500,9.30483349609375,-2.27852725982666,-0.5583308339118958,1.1154398918151855
1781215315451904300,9.314904296875,-2.1539108753204346,-0.5510004758834839,0.9969320893287659
1781215315461975000,9.32497509765625,-2.001194477081299,-0.5326744914054871,0.940732479095459
1781215315472076300,9.335076171875,-1.8460347652435303,-0.5094616413116455,0.9456194043159485
1781215315482147000,9.34514697265625,-1.674992561340332,-0.50335294008255,1.0641272068023682
1781215315492248300,9.355248291015625,-1.510058879852295,-0.48869219422340393,1.1814134120941162
1781215315502349800,9.365349853515625,-1.3964380025863647,-0.4899139404296875,1.2571606636047363
1781215315512451000,9.375451171875,-1.3170254230499268,-0.48258355259895325,1.2718214988708496
1781215315522552300,9.38555224609375,-1.301142930984497,-0.4862487316131592,1.1801916360855103
1781215315542694000,9.40569384765625,-1.4294246435165405,-0.6206390857696533,1.0580185651779175
1781215315552764700,9.4157646484375,-1.470963478088379,-0.6059783101081848,1.1410962343215942
1781215315562866200,9.4258662109375,-1.4721852540969849,-0.5192354321479797,1.2803735733032227
1781215315572937000,9.43593701171875,-1.4257594347000122,-0.3885102868080139,1.4453071355819702
1781215315583007700,9.4460078125,-1.3292428255081177,-0.2590068578720093,1.5418238639831543
1781215315593048000,9.456048095703125,-1.2302825450897217,-0.1661553531885147,1.4685200452804565
1781215315603149300,9.4661494140625,-1.1679743528366089,-0.13439035415649414,1.264491081237793
1781215315613250600,9.47625048828125,-1.1520918607711792,-0.12950342893600464,0.970054030418396
1781215315623321300,9.4863212890625,-1.1618657112121582,-0.10506882518529892,0.6340781450271606
1781215315633392000,9.49639208984375,-1.1520918607711792,-0.06352998316287994,0.3323107063770294
1781215315643463000,9.506462890625,-1.0604621171951294,-0.05864306539297104,-0.1319468915462494
1781215315653533700,9.51653369140625,-1.0140362977981567,-0.04398229718208313,-0.20402899384498596
1781215315663604500,9.5266044921875,-0.9590584635734558,-0.02076941914856434,-0.13316862285137177
1781215315673706000,9.5367060546875,-0.8796459436416626,0.02076941914856434,0.039095375686883926
1781215315683807200,9.54680712890625,-0.8063421249389648,0.0757472887635231,0.28099802136421204
1781215315693878000,9.5568779296875,-0.7611380815505981,0.1466076523065567,0.455705463886261
1781215315703948800,9.56694873046875,-0.7269296646118164,0.18814650177955627,0.455705463886261
1781215315784606700,9.647606689453125,-0.4300491213798523,0.00855211354792118,0.21868975460529327
1781215315835052300,9.69805224609375,-0.4948008358478546,-0.08552113175392151,-0.2577851414680481
1781215315845092600,9.708092529296875,-0.44226643443107605,-0.018325956538319588,-0.2675589919090271
1781215315855193900,9.71819384765625,-0.37629300355911255,0.1062905490398407,-0.13927727937698364
1781215315875396600,9.738396728515625,-0.28955012559890747,0.42271876335144043,0.03787364438176155
1781215315885467400,9.74846728515625,-0.2565633952617645,0.4593706727027893,0.05253441259264946
1781215315895538200,9.7585380859375,-0.2272418737411499,0.4300491213798523,0.09896016865968704
1781215315905609000,9.76860888671875,-0.24556782841682434,0.3604104816913605,0.15271630883216858
1781215315915710200,9.778710205078125,-0.3127630054950714,0.27977627515792847,0.20402899384498596
1781215315925781000,9.788781005859375,-0.3628539443016052,0.19547687470912933,0.21868975460529327
1781215315955993600,9.81899365234375,-0.251676470041275,0.17470745742321014,-0.04642575979232788
1781215315966064400,9.829064453125,-0.07696902006864548,0.25534167885780334,-0.24190263450145721
1781215315976165600,9.83916552734375,0.04764748737215996,0.3029891550540924,-0.48747047781944275
1781215315986206000,9.8492060546875,0.17104226350784302,0.304210901260376,-0.5937610268592834
1781215315996276700,9.85927685546875,0.33108896017074585,0.2822197377681732,-0.48747047781944275
1781215316006378000,9.8693779296875,0.5619960427284241,0.2321287989616394,-0.2528982162475586
1781215316016479200,9.879479248046875,0.8381071090698242,0.19303341209888458,-0.01466076634824276
1781215316026519600,9.88951953125,1.1545352935791016,0.21013765037059784,0.13072516024112701
1781215316036621000,9.89962109375,1.5259413719177246,0.2076941877603531,0.10384709388017654
1781215316046691800,9.90969189453125,1.843591332435608,0.15393804013729095,-0.20525072515010834
1781215316056762600,9.9197626953125,2.0305161476135254,0.05253441259264946,-0.7513642311096191
1781215316066863900,9.92986376953125,2.124589204788208,-0.13072516024112701,-1.3292428255081177
1781215316076934700,9.9399345703125,2.180788993835449,-0.33108896017074585,-1.6811012029647827
1781215316087005400,9.95000537109375,2.272418737411499,-0.46303585171699524,-1.7788395881652832
1781215316097076200,9.960076171875,2.3884830474853516,-0.475253164768219,-1.7788395881652832
1781215316107177500,9.970177490234375,2.4520130157470703,-0.33719760179519653,-1.742187738418579
1781215316117217800,9.9802177734375,2.5082128047943115,-0.04886921867728233,-1.7495180368423462
1781215316127319300,9.9903193359375,2.6316075325012207,0.24923302233219147,-1.882686734199524
1781215316137329000,10.000328857421875,2.813645362854004,0.47280970215797424,-2.1233675479888916
1781215316197784300,10.060784423828125,4.148996829986572,0.16982053220272064,-5.5344390869140625
1781215316238037000,10.101037109375,4.928460597991943,1.3231340646743774,-1.2424999475479126
1781215316248138200,10.11113818359375,4.7635273933410645,1.8851301670074463,-0.9382890462875366
1781215316258178600,10.121178466796875,4.816061496734619,2.4019222259521484,-0.8698720932006836
1781215316268249300,10.131249267578125,5.057964324951172,2.715906858444214,-0.9944885969161987
1781215316288421400,10.15142138671875,4.944343090057373,3.006678819656372,-2.3628268241882324
1781215316308563200,10.171563232421875,4.664566993713379,2.805093288421631,-3.6578609943389893
1781215316328704800,10.191704833984375,4.21619176864624,2.4837779998779297,-3.6395351886749268
1781215316338745000,10.2017451171875,3.8985419273376465,2.4165828227996826,-3.0641000270843506
1781215316348846300,10.211846435546875,3.6114354133605957,2.122145891189575,-2.3664920330047607
1781215316358886700,10.22188671875,3.3096678256988525,1.635897159576416,-1.794722080230713
1781215316368957400,10.23195751953125,2.992017984390259,1.2608258724212646,-1.4453071355819702
1781215316378997800,10.241997802734375,2.7623326778411865,1.0519099235534668,-1.1936306953430176
1781215316389068500,10.252068603515625,2.6193902492523193,0.8674286603927612,-0.9358455538749695
1781215316439392000,10.30239208984375,2.320066213607788,0.504574716091156,-0.7660250067710876
1781215316449462800,10.312462890625,2.2626447677612305,0.43127086758613586,-0.7183775305747986
1781215316499786200,10.3627861328125,1.0677924156188965,0.1869247704744339,-3.26935076713562
1781215316540130600,10.403130615234375,1.292590856552124,0.20036379992961884,-2.3383922576904297
1781215316600555300,10.46355517578125,1.6468926668167114,0.2626720666885376,-2.140471935272217
1781215316650909200,10.5139091796875,1.9804251194000244,0.18448130786418915,-0.9492846131324768
1781215316661010700,10.5240107421875,2.087937355041504,0.0806342139840126,-0.7428121566772461
1781215316671050800,10.53405078125,2.168571710586548,0.0024434609804302454,-0.5558874011039734
1781215316681152300,10.54415234375,2.2088887691497803,-0.07452555745840073,-0.37262779474258423
1781215316691253500,10.55425341796875,2.2101104259490967,-0.13927727937698364,-0.19425514340400696
1781215316701354800,10.564354736328125,2.191784381866455,-0.1661553531885147,0.004886921960860491
1781215316711395000,10.57439501953125,2.1649065017700195,-0.13805554807186127,0.19058994948863983
1781215316721496300,10.584496337890625,2.1343631744384766,-0.09896016865968704,0.32498031854629517
1781215316812133600,10.675133544921875,1.303586483001709,-0.4141666293144226,-0.8417723178863525
1781215316852416800,10.715416748046875,1.224173903465271,-0.23335053026676178,-0.2015855312347412
1781215316882659800,10.745659912109375,1.2021827697753906,-0.024434609338641167,-0.25045475363731384
1781215316933044200,10.796044189453125,0.998153805732727,0.09285151958465576,-0.27611109614372253
1781215316953185800,10.816185791015625,0.8808676600456238,0.21502456068992615,0.04764748737215996
1781215316963256600,10.826256591796875,0.8014551997184753,0.2480112910270691,0.14905111491680145
1781215316973327400,10.836327392578125,0.7367035150527954,0.25534167885780334,0.19303341209888458
1781215316993499600,10.856499755859375,0.6328563690185547,0.2577851414680481,0.14416420459747314
1781215317003570400,10.8665703125,0.5827654600143433,0.26511552929878235,0.0806342139840126
1781215317013671700,10.876671630859375,0.5167919993400574,0.24923302233219147,0.004886921960860491
1781215317033813200,10.896813232421875,0.34574973583221436,0.15515977144241333,-0.14294247329235077
1781215317043853600,10.906853515625,0.2528982162475586,0.10751228034496307,-0.19058994948863983
1781215317053954800,10.916954833984375,0.15271630883216858,0.08674286305904388,-0.2076941877603531
1781215317064025600,10.927025634765625,0.05253441259264946,0.09651670604944229,-0.20402899384498596
1781215317074066000,10.93706591796875,-0.0403171069920063,0.12461651116609573,-0.18936823308467865
1781215317094268700,10.9572685546875,-0.19303341209888458,0.2223549485206604,-0.24923302233219147
1781215317104309000,10.96730908203125,-0.2590068578720093,0.2590068578720093,-0.3188716471195221
1781215317114379800,10.9773798828125,-0.31031954288482666,0.27000242471694946,-0.3933972120285034
1781215317134582300,10.997582275390625,-0.27977627515792847,0.27488934993743896,-0.5021312236785889
1781215317144683800,11.007683837890625,-0.21013765037059784,0.2626720666885376,-0.5351179838180542
1781215317154785000,11.017784912109375,-0.0708603709936142,0.24190263450145721,-0.5277875661849976
1781215317164886300,11.02788623046875,-0.018325956538319588,0.25534167885780334,-0.42149701714515686
1781215317174957000,11.03795703125,0.028099801391363144,0.28466320037841797,-0.23457226157188416
1781215317185058600,11.04805859375,0.0708603709936142,0.32620203495025635,0.00855211354792118
1781215317195159800,11.058159912109375,0.11728613078594208,0.3640756905078888,0.2565633952617645
1781215317205261000,11.068260986328125,0.16371189057826996,0.37751471996307373,0.48258355259895325
1781215317286041000,11.149041015625,0.2687807083129883,0.0708603709936142,0.2565633952617645
1781215317336517000,11.19951708984375,0.33597588539123535,0.05009094998240471,-0.024434609338641167
1781215317386993200,11.2499931640625,0.47280970215797424,-0.24434609711170197,-0.33597588539123535
1781215317457611000,11.320611083984375,0.37751471996307373,-0.3628539443016052,-1.291369080543518
1781215317518249500,11.38124951171875,0.47280970215797424,-0.5082398653030396,-1.5992451906204224
1781215317578826800,11.44182666015625,0.475253164768219,-0.3933972120285034,-1.624901533126831
1781215317629241900,11.492241943359375,0.5656611919403076,-0.24923302233219147,-1.2559388875961304
1781215317639282200,11.5022822265625,0.5717698931694031,-0.18448130786418915,-1.0238101482391357
1781215317649383400,11.512383544921875,0.5717698931694031,-0.1417207419872284,-0.846659243106842
1781215317659423700,11.522423828125,0.5681046843528748,-0.1270599663257599,-0.7538077235221863
1781215317669494500,11.53249462890625,0.5656611919403076,-0.11362093687057495,-0.7415903806686401
1781215317679595800,11.542595703125,0.5583308339118958,-0.08552113175392151,-0.7733554244041443
1781215317689666600,11.55266650390625,0.5400048494338989,-0.05253441259264946,-0.7782423496246338
1781215317699737300,11.5627373046875,0.5094616413116455,-0.01710422709584236,-0.7464773058891296
1781215317709808000,11.57280810546875,0.4764748811721802,0.01466076634824276,-0.6646214127540588
1781215317719909600,11.58290966796875,0.44226643443107605,0.015882495790719986,-0.5106833577156067
1781215317729949700,11.59294970703125,0.39584067463874817,0.0024434609804302454,-0.304210901260376
1781215317750122000,11.6131220703125,0.2590068578720093,0.05009094998240471,0.021991148591041565
1781215317760162300,11.623162353515625,0.14294247329235077,0.07452555745840073,0.12095131725072861
1781215317780242700,11.64324267578125,-0.15027284622192383,0.09285151958465576,0.3274237811565399
1781215317800415000,11.6634150390625,-0.5167919993400574,0.04398229718208313,0.675616979598999
1781215317810485800,11.67348583984375,-0.7342600226402283,-0.00855211354792118,0.8405506014823914
1781215317830596900,11.693596923828125,-1.2498302459716797,-0.0806342139840126,1.0458012819290161
1781215317840667600,11.703667724609375,-1.4941763877868652,-0.08429940044879913,1.147204875946045
1781215317850677200,11.71367724609375,-1.7177530527114868,-0.05497787147760391,1.2095131874084473
1781215317860778800,11.72377880859375,-1.9535470008850098,-0.05009094998240471,1.156978726387024
1781215317880920300,11.74392041015625,-2.3628268241882324,-0.31520646810531616,0.846659243106842
1781215317901062000,11.764061767578125,-2.6841418743133545,-0.6670648455619812,0.789237916469574
1781215317911132700,11.774132568359375,-2.85274076461792,-0.7562511563301086,0.9395107626914978
1781215317921173000,11.784173095703125,-3.045774221420288,-0.7757988572120667,1.166752576828003
1781215317931274200,11.794274169921875,-3.232698917388916,-0.7550294399261475,1.4135421514511108
1781215317941345000,11.804344970703125,-3.389080286026001,-0.7257078886032104,1.624901533126831
1781215317951415800,11.814415771484375,-3.514918565750122,-0.7037167549133301,1.7751743793487549
1781215317961517000,11.82451708984375,-3.6419785022735596,-0.7073819637298584,1.8509217500686646
1781215317971588000,11.834588134765625,-3.7788124084472656,-0.7440338730812073,1.813048005104065
1781215317981628200,11.844628173828125,-3.914424419403076,-0.8222246170043945,1.7201964855194092
1781215317991699000,11.854698974609375,-4.08057975769043,-0.970054030418396,1.7812830209732056
1781215318021972500,11.884972412109375,-4.223522186279297,-0.9993755221366882,2.2992968559265137
1781215318032043300,11.895043212890625,-4.236961364746094,-0.9908234477043152,2.400700330734253
1781215318042083600,11.90508349609375,-4.241848468780518,-1.0067058801651,2.383596181869507
1781215318052184800,11.915184814453125,-4.2613959312438965,-1.0348057746887207,2.233323335647583
1781215318062255600,11.925255615234375,-4.28216552734375,-1.06657075881958,2.0305161476135254
1781215318072296000,11.9352958984375,-4.28216552734375,-1.1056660413742065,1.8851301670074463
1781215318082397200,11.945397216796875,-4.285830497741699,-1.1313223838806152,1.8301522731781006
1781215318092407000,11.955406982421875,-4.289495944976807,-1.1447614431381226,1.892460584640503
1781215318102508300,11.96550830078125,-4.27605676651001,-1.1374311447143555,2.0305161476135254
1781215318112579000,11.9755791015625,-4.249178409576416,-1.0958921909332275,2.138028383255005
1781215318122650000,11.985650146484375,-4.2223005294799805,-1.0421360731124878,2.1600193977355957
1781215318223388400,12.086388427734375,-3.9205331802368164,-0.9761626720428467,2.387261390686035
1781215318293853700,12.156853759765625,-3.7470474243164062,-0.8613200187683105,2.618168354034424
1781215318314025700,12.177025634765625,-3.6945130825042725,-0.8148942589759827,2.426356792449951
1781215318324035600,12.18703564453125,-3.715282440185547,-0.856433093547821,2.166128158569336
1781215318334136800,12.19713671875,-3.732386589050293,-0.9028588533401489,1.957212209701538
1781215318344207600,12.20720751953125,-3.740938663482666,-0.9590584635734558,1.8839083909988403
1781215318354278400,12.2172783203125,-3.749490976333618,-1.0018190145492554,1.9523253440856934
1781215318364318700,12.227318603515625,-3.7482690811157227,-0.9724974632263184,2.152689218521118
1781215318374389500,12.237389404296875,-3.721390962600708,-0.9004153609275818,2.420248031616211
1781215318384429800,12.247429931640625,-3.679852247238159,-0.8307767510414124,2.585181713104248
1781215318394531000,12.257531005859375,-3.649308919906616,-0.7916813492774963,2.5864033699035645
1781215318424774100,12.287774169921875,-3.558900833129883,-0.9761626720428467,1.882686734199524
1781215318454955800,12.317955810546875,-3.2815680503845215,-1.1105530261993408,0.9004153609275818
1781215318465057300,12.328057373046875,-3.1190779209136963,-1.0995573997497559,0.8038986921310425
1781215318475128000,12.338128173828125,-2.9358184337615967,-1.0201449394226074,0.8759807348251343
1781215318485168400,12.34816845703125,-2.711019992828369,-0.9089674949645996,1.0726794004440308
1781215318495208700,12.358208740234375,-2.434908866882324,-0.836885392665863,1.2498302459716797
1781215318505310000,12.36831005859375,-2.1563544273376465,-0.817337691783905,1.2657127380371094
1781215318525482000,12.38848193359375,-1.793500304222107,-0.8112290501594543,0.8002334833145142
1781215318545593000,12.408593017578125,-1.654223084449768,-0.7916813492774963,0.11239920556545258
1781215318555664000,12.418663818359375,-1.5540411472320557,-0.7012733221054077,-0.13072516024112701
1781215318565734700,12.428734619140625,-1.3866641521453857,-0.6316346526145935,-0.24190263450145721
1781215318575744500,12.43874462890625,-1.1826350688934326,-0.5632177591323853,-0.22113321721553802
1781215318585845800,12.448845703125,-1.0018190145492554,-0.4740314185619354,-0.1111774742603302
1781215318595886000,12.458885986328125,-0.8820894360542297,-0.38117989897727966,0.021991148591041565
1781215318605926400,12.468926513671875,-0.8148942589759827,-0.3017674386501312,0.11362093687057495
1781215318615966700,12.478966796875,-0.7867944240570068,-0.2370157092809677,0.0806342139840126
1781215318636169200,12.499169189453125,-0.7733554244041443,-0.18325957655906677,-0.21868975460529327
1781215318646209500,12.50920947265625,-0.7330383062362671,-0.15393804013729095,-0.40072759985923767
1781215318656249900,12.519249755859375,-0.7159340381622314,-0.13072516024112701,-0.5351179838180542
1781215318666351000,12.52935107421875,-0.6988298296928406,-0.13316862285137177,-0.5778785347938538
1781215318676422000,12.539421875,-0.7012733221054077,-0.11850785464048386,-0.5302310585975647
1781215318686492700,12.54949267578125,-0.7171558141708374,-0.10873401165008545,-0.38606682419776917
1781215318696563500,12.5595634765625,-0.7293730974197388,-0.10873401165008545,-0.2528982162475586
1781215318706634500,12.569634521484375,-0.7476990818977356,-0.12339477986097336,-0.16371189057826996
1781215318716705300,12.579705322265625,-0.7330383062362671,-0.14905111491680145,-0.09651670604944229
1781215318726776000,12.589776123046875,-0.66584312915802,-0.1514945775270462,-0.09529497474431992
1781215318736785700,12.59978564453125,-0.5998696684837341,-0.15760323405265808,-0.16004669666290283
1781215318756958000,12.6199580078125,-0.5155702829360962,-0.16004669666290283,-0.39217549562454224
1781215318767028700,12.63002880859375,-0.49357911944389343,-0.10995574295520782,-0.5070181488990784
1781215318777099500,12.640099609375,-0.45326200127601624,-0.06475171446800232,-0.5668829679489136
1781215318787200800,12.65020068359375,-0.3530801236629486,-0.05864306539297104,-0.5522221922874451
1781215318797271600,12.660271484375,-0.2528982162475586,-0.08185594528913498,-0.4960225820541382
1781215318807312000,12.670311767578125,-0.1869247704744339,-0.12217304855585098,-0.43615779280662537
1781215318827484000,12.69048388671875,-0.08918632566928864,-0.2272418737411499,-0.27611109614372253
1781215318847625500,12.71062548828125,-0.03420845419168472,-0.3188716471195221,-0.2541199326515198
1781215318877838000,12.740838134765625,0.01710422709584236,-0.27488934993743896,-0.00733038317412138
1781215318887908900,12.750908935546875,0.02687807008624077,-0.27000242471694946,0.009773843921720982
1781215318898010000,12.761010009765625,0.00855211354792118,-0.26145032048225403,0.006108652334660292
1781215318908050400,12.771050537109375,-0.01710422709584236,-0.2370157092809677,-0.010995574295520782
1781215318928192000,12.79119189453125,-0.036651913076639175,-0.18936823308467865,-0.0403171069920063
1781215318988738800,12.85173876953125,-0.01466076634824276,-0.1563815027475357,0.04153883829712868
1781215318998809600,12.8618095703125,-0.00733038317412138,-0.14782938361167908,0.08185594528913498
1781215319008911000,12.8719111328125,0,-0.14416420459747314,0.05253441259264946
1781215319018951200,12.881951171875,0.01710422709584236,-0.15760323405265808,-0.021991148591041565
1781215319029022000,12.89202197265625,0.0403171069920063,-0.16737708449363708,-0.10384709388017654
1781215319039062300,12.902062255859375,0.06963863968849182,-0.16493362188339233,-0.15271630883216858
1781215319059234600,12.922234619140625,0.12339477986097336,-0.1661553531885147,-0.14416420459747314
1781215319069305300,12.932305419921875,0.12950342893600464,-0.16859880089759827,-0.12461651116609573
1781215319079406600,12.942406494140625,0.14538592100143433,-0.18081611394882202,-0.09285151958465576
1781215319089477400,12.952477294921875,0.1771509200334549,-0.18814650177955627,-0.0403171069920063
1781215319099578600,12.96257861328125,0.19792033731937408,-0.18814650177955627,0.0024434609804302454
1781215319109649400,12.9726494140625,0.21135938167572021,-0.1966986060142517,0.01710422709584236
1781215319119720200,12.98272021484375,0.2272418737411499,-0.2064724564552307,-0.0024434609804302454
1781215319139892500,13.002892578125,0.2785545587539673,-0.2028072625398636,-0.1111774742603302
1781215319170165800,13.033165771484375,0.40194934606552124,-0.12461651116609573,-0.46670106053352356
1781215319200378400,13.06337841796875,0.5510004758834839,-0.08185594528913498,-0.3530801236629486
1781215319220580900,13.083580810546875,0.6401867866516113,-0.01710422709584236,-0.02076941914856434
1781215319230651600,13.093651611328125,0.7000515460968018,0.00733038317412138,0.08429940044879913
1781215319240722400,13.103722412109375,0.7489207983016968,0.015882495790719986,0.09896016865968704
1781215319260864000,13.123864013671875,0.8698720932006836,0.01466076634824276,-0.1258382350206375
1781215319270934800,13.133934814453125,0.9395107626914978,0.013439035043120384,-0.3176499307155609
1781215319301147400,13.1641474609375,1.214400053024292,0.05742133408784866,-0.5766568183898926
1781215319371795500,13.23479541015625,1.7715091705322266,0.3494149148464203,-0.43615779280662537
1781215319381896700,13.244896728515625,1.9120081663131714,0.3628539443016052,-0.5974262356758118
1781215319422241000,13.285240966796875,2.155132532119751,0.26633724570274353,-0.6902777552604675
1781215319432342300,13.29534228515625,2.230879783630371,0.35674530267715454,-0.4899139404296875
1781215319442443800,13.30544384765625,2.305405378341675,0.4801400899887085,-0.35063666105270386
1781215319452545000,13.315544921875,2.378709316253662,0.5998696684837341,-0.32498031854629517
1781215319533325000,13.396324951171875,3.00423526763916,0.607200026512146,-1.2327260971069336
1781215319563598600,13.4265986328125,3.288898468017578,1.0519099235534668,0.05009094998240471
1781215319604003800,13.46700390625,3.6725218296051025,1.3829989433288574,-0.4642575979232788
1781215319644409000,13.5074091796875,3.9571850299835205,1.3390166759490967,-0.7867944240570068
1781215319674652000,13.53765185546875,3.637091636657715,1.2950342893600464,-0.9627236127853394
1781215319684783900,13.547783935546875,3.5943310260772705,1.284038782119751,-1.0445796251296997
1781215319694854700,13.557854736328125,3.5491271018981934,1.282817006111145,-1.1508700847625732
1781215319704986400,13.567986328125,3.4904839992523193,1.281595230102539,-1.274264931678772
1781215319715087600,13.578087646484375,3.4245104789733887,1.253495454788208,-1.3829989433288574
1781215319725189000,13.588189208984375,3.338989496231079,1.216843605041504,-1.4929546117782593
1781215319735260000,13.598260009765625,3.221703290939331,1.1838568449020386,-1.6383405923843384
1781215319745300200,13.60830029296875,3.10197377204895,1.1484266519546509,-1.7482963800430298
1781215319755401500,13.6184013671875,3.039665460586548,1.1447614431381226,-1.7275269031524658
1781215319765441800,13.62844189453125,3.0641000270843506,1.225395679473877,-1.55892813205719
1781215319775512600,13.6385126953125,3.1471776962280273,1.3866641521453857,-1.3096951246261597
1781215319805725000,13.668724853515625,3.3072245121002197,1.7592918872833252,-1.0677924156188965
1781215319815765200,13.67876513671875,3.38297176361084,1.8057177066802979,-1.1386528015136719
1781215319825866500,13.688866455078125,3.5027012825012207,1.833817481994629,-1.2192870378494263
1781215319835937300,13.698937255859375,3.6224308013916016,1.8484781980514526,-1.3341296911239624
1781215319846008000,13.709008056640625,3.721390962600708,1.8558086156845093,-1.4672982692718506
1781215319856078800,13.719078857421875,3.7898080348968506,1.853365182876587,-1.5821410417556763
1781215319866180400,13.729180419921875,3.8350119590759277,1.8313740491867065,-1.654223084449768
1781215319916595200,13.77959521484375,3.87532901763916,1.938886284828186,-1.9181169271469116
1781215319936798000,13.7997978515625,3.866776943206787,1.8680258989334106,-1.909564733505249
1781215319946868700,13.80986865234375,3.8362338542938232,1.8216001987457275,-1.881464958190918
1781215319956909000,13.819908935546875,3.788586139678955,1.7592918872833252,-1.8374826908111572
1781215319966979800,13.829979736328125,3.740938663482666,1.6762142181396484,-1.7409659624099731
1781215319987091000,13.850091064453125,3.654195785522461,1.585806131362915,-1.4306464195251465
1781215319997161700,13.86016162109375,3.5723400115966797,1.5711454153060913,-1.3182471990585327
1781215320037444900,13.90044482421875,3.0885345935821533,1.4233160018920898,-1.0519099235534668
1781215320047515600,13.910515625,2.961474657058716,1.3927727937698364,-0.9957103729248047
1781215320057617200,13.9206171875,2.844188690185547,1.3243558406829834,-0.9321803450584412
1781215320067718400,13.930718505859375,2.7598891258239746,1.224173903465271,-0.8246681094169617
1781215320077789200,13.9407890625,2.6975808143615723,1.1423180103302002,-0.7037167549133301
1781215320087860000,13.95085986328125,2.6083946228027344,1.0848966836929321,-0.6145304441452026
1781215320108032000,13.971031982421875,2.322509765625,0.9431759119033813,-0.5937610268592834
1781215320118102800,13.981102783203125,2.1893410682678223,0.8674286603927612,-0.608421802520752
1781215320128112600,13.991112548828125,2.072054862976074,0.7929030656814575,-0.6035348773002625
1781215320138214000,14.0012138671875,1.9523253440856934,0.7073819637298584,-0.5974262356758118
1781215320148284700,14.01128466796875,1.8252654075622559,0.616973876953125,-0.6145304441452026
1781215320158386200,14.02138623046875,1.7006487846374512,0.5106833577156067,-0.6450737118721008
1781215320168457000,14.03145703125,1.578475832939148,0.40194934606552124,-0.7000515460968018
1781215320178558200,14.04155810546875,1.4575244188308716,0.3029891550540924,-0.7819074988365173
1781215320188659500,14.051659423828125,1.341460108757019,0.21868975460529327,-0.8723155856132507
1781215320218902500,14.081902587890625,1.0030407905578613,-0.024434609338641167,-1.1582005023956299
1781215320228973300,14.091973388671875,0.8918632864952087,-0.1014036312699318,-1.2754865884780884
1781215320239013600,14.102013671875,0.7843509912490845,-0.19058994948863983,-1.3939944505691528
1781215320249084400,14.11208447265625,0.6866125464439392,-0.294437050819397,-1.5112806558609009
1781215320259124500,14.12212451171875,0.5900958180427551,-0.4056145250797272,-1.6505578756332397
1781215320269164800,14.132164794921875,0.48380526900291443,-0.5021312236785889,-1.8167132139205933
1781215320279266300,14.142266357421875,0.3689626157283783,-0.5766568183898926,-1.977981686592102
1781215320289337000,14.152337158203125,0.24556782841682434,-0.646295428276062,-2.096489429473877
1781215320339660500,14.20266064453125,-0.4691445231437683,-0.6426302194595337,-1.9425514936447144
1781215320349731300,14.2127314453125,-0.6010913848876953,-0.6206390857696533,-1.7959438562393188
1781215320359771600,14.222771728515625,-0.7232644557952881,-0.5815436840057373,-1.6224581003189087
1781215320369873000,14.232872802734375,-0.8307767510414124,-0.5253441333770752,-1.4123204946517944
1781215320379943700,14.242943603515625,-0.921184778213501,-0.46670106053352356,-1.1789699792861938
1781215320440429600,14.3034296875,-1.3646728992462158,-0.2919935882091522,-0.17592918872833252
1781215320450500400,14.313500244140625,-1.3927727937698364,-0.34697145223617554,-0.21380282938480377
1781215320460571100,14.323571044921875,-1.4049900770187378,-0.3933972120285034,-0.27611109614372253
1781215320470642000,14.333641845703125,-1.4196507930755615,-0.4105014503002167,-0.3481931984424591
1781215320480743200,14.3437431640625,-1.4465289115905762,-0.3836233615875244,-0.4251621961593628
1781215320490814000,14.35381396484375,-1.4770721197128296,-0.3078760802745819,-0.4764748811721802
1781215320500854300,14.363854248046875,-1.4892895221710205,-0.20402899384498596,-0.4447098970413208
1781215320510955800,14.373955810546875,-1.4868459701538086,-0.08185594528913498,-0.3323107063770294
1781215320531127800,14.3941279296875,-1.4697418212890625,0.09896016865968704,0.0354301854968071
1781215320541168000,14.404168212890625,-1.4587461948394775,0.11850785464048386,0.2174680233001709
1781215320551269400,14.414269287109375,-1.431868076324463,0.13561208546161652,0.3787364661693573
1781215320561340200,14.424340087890625,-1.3915510177612305,0.15882496535778046,0.5436700582504272
1781215320571380500,14.43438037109375,-1.3426817655563354,0.15882496535778046,0.7574729323387146
1781215320581451300,14.444451171875,-1.2999212741851807,0.15027284622192383,1.0335839986801147
1781215320591522000,14.45452197265625,-1.2889256477355957,0.1514945775270462,1.3292428255081177
1781215320601592800,14.4645927734375,-1.3072515726089478,0.15882496535778046,1.5992451906204224
1781215320611694000,14.474694091796875,-1.3267992734909058,0.1417207419872284,1.822821855545044
1781215320621764900,14.484764892578125,-1.33168625831604,0.09162978827953339,1.9926424026489258
1781215320631866400,14.494866455078125,-1.3267992734909058,0.01710422709584236,2.0842721462249756
1781215320641876000,14.5048759765625,-1.3231340646743774,-0.06108652427792549,2.101376533508301
1781215320651946800,14.51494677734375,-1.320690631866455,-0.13316862285137177,2.0696115493774414
1781215320662048300,14.52504833984375,-1.312138557434082,-0.19058994948863983,2.031737804412842
1781215320672088600,14.535088623046875,-1.2999212741851807,-0.21380282938480377,2.018298864364624
1781215320682189800,14.54518994140625,-1.2974777221679688,-0.19914206862449646,2.0280725955963135
1781215320692260600,14.555260498046875,-1.310916781425476,-0.14294247329235077,1.99752938747406
1781215320742675700,14.60567578125,-1.4477506875991821,0.1014036312699318,0.6682865619659424
1781215320752777000,14.61577685546875,-1.4489723443984985,0.11362093687057495,0.46181413531303406
1781215320762817300,14.6258173828125,-1.4648548364639282,0.05497787147760391,0.3530801236629486
1781215320772918500,14.63591845703125,-1.4880677461624146,-0.039095375686883926,0.3543018400669098
1781215320782958800,14.645958740234375,-1.5332717895507812,-0.12339477986097336,0.4593706727027893
1781215320793060000,14.65606005859375,-1.5992451906204224,-0.19425514340400696,0.6377432942390442
1781215320823272400,14.6862724609375,-1.7568484544754028,-0.2028072625398636,1.588249683380127
1781215320833343200,14.69634326171875,-1.8387043476104736,-0.16737708449363708,1.8179349899291992
1781215320843414300,14.706414306640625,-1.9437731504440308,-0.19058994948863983,1.9058995246887207
1781215320883667000,14.7466669921875,-2.2883012294769287,-0.588874101638794,1.1020009517669678
1781215320913818000,14.776818115234375,-2.5668556690216064,-1.0115928649902344,0.6621779203414917
1781215320964141600,14.8271416015625,-3.0604348182678223,-1.016479730606079,1.215621829032898
1781215320994354200,14.857354248046875,-3.508810043334961,-0.9285151958465576,1.1203268766403198
1781215321004425000,14.867425048828125,-3.6896259784698486,-0.8979719281196594,0.9908234477043152
1781215321014495700,14.877495849609375,-3.8460075855255127,-0.911410927772522,0.9334021210670471
1781215321024536000,14.8875361328125,-3.9486329555511475,-0.950506329536438,1.018923282623291
1781215321034637300,14.89763720703125,-4.009719371795654,-0.9627236127853394,1.2302825450897217
1781215321064819200,14.927819091796875,-4.08057975769043,-0.9651671051979065,2.116037130355835
1781215321074890000,14.937889892578125,-4.119675159454346,-0.9969320893287659,2.2626447677612305
1781215321084960800,14.947960693359375,-4.136779308319092,-1.0531316995620728,2.342057466506958
1781215321094970600,14.957970703125,-4.1245622634887695,-1.1142182350158691,2.3542747497558594
1781215321105071900,14.96807177734375,-4.087910175323486,-1.1679743528366089,2.2992968559265137
1781215321115112200,14.9781123046875,-4.030488967895508,-1.2107349634170532,2.2003366947174072
1781215321125213400,14.98821337890625,-3.9706242084503174,-1.2376129627227783,2.0732767581939697
1781215321135253800,14.998253662109375,-3.9266417026519775,-1.243721604347229,1.9706512689590454
1781215321155425800,15.01842578125,-3.8227946758270264,-1.2290608882904053,1.9938641786575317
1781215321165466000,15.028466064453125,-3.7507126331329346,-1.1887437105178833,2.079385280609131
1781215321175537000,15.038536865234375,-3.662748098373413,-1.1215485334396362,2.207667112350464
1781215321185607700,15.048607666015625,-3.5442402362823486,-1.036027431488037,2.355496406555176
1781215321195709200,15.058709228515625,-3.413515090942383,-0.9468411207199097,2.4434609413146973
1781215321205780000,15.068780029296875,-3.3035593032836914,-0.8967501521110535,2.426356792449951
1781215321215850800,15.078850830078125,-3.2094860076904297,-0.8710938692092896,2.2479841709136963
1781215321225921500,15.088921630859375,-3.1838295459747314,-0.8698720932006836,2.2198843955993652
1781215321256134000,15.1191337890625,-3.1056389808654785,-0.8649851679801941,2.39825701713562
1781215321276306000,15.139305908203125,-3.0250046253204346,-0.817337691783905,2.3970351219177246
1781215321336791800,15.199791748046875,-2.487443208694458,-1.0018190145492554,0.8710938692092896
1781215321387176400,15.250176513671875,-2.0219640731811523,-0.8454375267028809,0.2431243658065796
1781215321397277700,15.260277587890625,-1.9230037927627563,-0.7684684991836548,0.3543018400669098
1781215321407379000,15.27037890625,-1.7739527225494385,-0.6939429044723511,0.5998696684837341
1781215321417419300,15.280419189453125,-1.6200146675109863,-0.6255260109901428,0.8417723178863525
1781215321427520500,15.2905205078125,-1.5271631479263306,-0.5644394755363464,0.9492846131324768
1781215321437591300,15.30059130859375,-1.4770721197128296,-0.5290092825889587,0.901637077331543
1781215321447692800,15.31069287109375,-1.4501941204071045,-0.5106833577156067,0.7452555894851685
1781215321457763600,15.320763671875,-1.4367550611495972,-0.5009095072746277,0.5522221922874451
1781215321467864800,15.33086474609375,-1.4172073602676392,-0.5082398653030396,0.35185837745666504
1781215321477935600,15.340935546875,-1.389107584953308,-0.5241223573684692,0.1918116807937622
1781215321508148000,15.37114794921875,-1.284038782119751,-0.5448917746543884,0.1966986060142517
1781215321538482400,15.401482421875,-1.1594222784042358,-0.6670648455619812,0.26145032048225403
1781215321548584000,15.411583984375,-1.1191051006317139,-0.7086036801338196,0.23579397797584534
1781215321558654700,15.42165478515625,-1.1154398918151855,-0.7281513810157776,0.14905111491680145
1781215321568756000,15.431755859375,-1.1191051006317139,-0.7098253965377808,0.03420845419168472
1781215321599060000,15.46206005859375,-0.9615018963813782,-0.5900958180427551,-0.28099802136421204
1781215321609161200,15.4721611328125,-0.8674286603927612,-0.5668829679489136,-0.2370157092809677
1781215321619262500,15.482262451171875,-0.8100073337554932,-0.5253441333770752,-0.1270599663257599
1781215321629364000,15.492364013671875,-0.7916813492774963,-0.4605923891067505,-0.07696902006864548
1781215321639434800,15.502434814453125,-0.7843509912490845,-0.4080579876899719,-0.07696902006864548
1781215321649536000,15.512535888671875,-0.7525860071182251,-0.37262779474258423,-0.10506882518529892
1781215321659637200,15.52263720703125,-0.7012733221054077,-0.32620203495025635,-0.16982053220272064
1781215321669738500,15.532738525390625,-0.6401867866516113,-0.27977627515792847,-0.24923302233219147
1781215321679840000,15.542840087890625,-0.5571091175079346,-0.2370157092809677,-0.2968805134296417
1781215321700042500,15.56304248046875,-0.36651915311813354,-0.18814650177955627,-0.3139847218990326
1781215321710144000,15.57314404296875,-0.30054569244384766,-0.21013765037059784,-0.3029891550540924
1781215321720245200,15.583245361328125,-0.27977627515792847,-0.25534167885780334,-0.27977627515792847
1781215321730316000,15.59331591796875,-0.2822197377681732,-0.28099802136421204,-0.21013765037059784
1781215321740417300,15.603417236328125,-0.27611109614372253,-0.2724458873271942,-0.1111774742603302
1781215321760620000,15.6236201171875,-0.19914206862449646,-0.27977627515792847,0.1319468915462494
1781215321770721300,15.63372119140625,-0.16737708449363708,-0.2871066629886627,0.2223549485206604
1781215321780822500,15.643822509765625,-0.17104226350784302,-0.27611109614372253,0.26145032048225403
1781215321790924000,15.653924072265625,-0.19914206862449646,-0.26022860407829285,0.27000242471694946
1781215321801055700,15.6640556640625,-0.2064724564552307,-0.2565633952617645,0.27488934993743896
1781215321811157000,15.674156982421875,-0.17470745742321014,-0.22846360504627228,0.30543261766433716
1781215321831359700,15.69435986328125,-0.1918116807937622,-0.1563815027475357,0.28588494658470154
1781215321841430500,15.704430419921875,-0.21502456068992615,-0.14538592100143433,0.24678955972194672
1781215321851562200,15.714562255859375,-0.2370157092809677,-0.12339477986097336,0.22113321721553802
1781215321861663700,15.724663818359375,-0.2528982162475586,-0.10506882518529892,0.23457226157188416
1781215321891967700,15.7549677734375,-0.2883284091949463,-0.06230825558304787,0.33597588539123535
1781215321902069000,15.765069091796875,-0.2932153046131134,-0.0659734457731247,0.32986724376678467
1781215321912170200,15.775170166015625,-0.28955012559890747,-0.06963863968849182,0.28466320037841797
1781215321922271500,15.785271484375,-0.2822197377681732,-0.07819075137376785,0.21380282938480377
1781215321932373000,15.795373046875,-0.2785545587539673,-0.08185594528913498,0.14049901068210602
1781215321942443800,15.80544384765625,-0.27122417092323303,-0.07941248267889023,0.12095131725072861
1781215321962615800,15.82561572265625,-0.2321287989616394,-0.024434609338641167,0.21868975460529327
1781215321972656000,15.83565625,-0.2174680233001709,0,0.2871066629886627
1781215321992828200,15.855828125,-0.19914206862449646,0.03176499158143997,0.32009339332580566
1781215322012878300,15.87587841796875,-0.20525072515010834,0.02687807008624077,0.18570303916931152
1781215322022979600,15.8859794921875,-0.2076941877603531,0.021991148591041565,0.08918632566928864
1781215322043151600,15.906151611328125,-0.2015855312347412,-0.006108652334660292,-0.08796459436416626
1781215322053192000,15.91619189453125,-0.2272418737411499,-0.02687807008624077,-0.1563815027475357
1781215322063262700,15.9262626953125,-0.24190263450145721,-0.0354301854968071,-0.17104226350784302
1781215322093414100,15.9564140625,-0.3176499307155609,-0.015882495790719986,0
1781215322103515400,15.966515380859375,-0.2919935882091522,-0.018325956538319588,0.04153883829712868
1781215322133697300,15.996697265625,-0.16249015927314758,-0.07941248267889023,0.009773843921720982
1781215322173950000,16.036949951171874,0.12828169763088226,-0.10751228034496307,0.08307767659425735
1781215322184051500,16.047051513671875,0.2064724564552307,-0.09651670604944229,0.07208210229873657
1781215322194122200,16.057122314453125,0.28955012559890747,-0.07819075137376785,0.039095375686883926
1781215322204223500,16.067223388671874,0.3738495409488678,-0.04642575979232788,-0.01710422709584236
1781215322214294300,16.077294189453124,0.45204028487205505,0,-0.10873401165008545
1781215322234466300,16.09746630859375,0.5998696684837341,0.07452555745840073,-0.44837507605552673
1781215322244537000,16.107537109375,0.6890559792518616,0.07330382615327835,-0.6340781450271606
1781215322254547000,16.117546875,0.7916813492774963,0.05619960278272629,-0.788016140460968
1781215322284759300,16.14775927734375,1.1288789510726929,0.06719517707824707,-0.8063421249389648
1781215322304900900,16.16790087890625,1.470963478088379,0.18814650177955627,-0.6316346526145935
1781215322314971600,16.1779716796875,1.6615535020828247,0.26022860407829285,-0.6401867866516113
1781215322395538200,16.2585380859375,3.4269540309906006,0.4153883755207062,-2.0451767444610596
1781215322415679700,16.2786796875,3.930306911468506,0.4740314185619354,-2.222327709197998
1781215322425750500,16.28875048828125,4.188092231750488,0.48747047781944275,-2.3542747497558594
1781215322435821300,16.2988212890625,4.399451732635498,0.5106833577156067,-2.5302038192749023
1781215322445892000,16.30889208984375,4.559498310089111,0.5595525503158569,-2.7488934993743896
1781215322455963000,16.318962890625,4.695110321044922,0.6108652353286743,-2.993239641189575
1781215322466033700,16.32903369140625,4.855156898498535,0.6023131608963013,-3.2204816341400146
1781215322476104700,16.339104736328125,5.059185981750488,0.5241223573684692,-3.354871988296509
1781215322486206000,16.3492060546875,5.277875900268555,0.4178318381309509,-3.321885108947754
1781215322496246300,16.359246337890625,5.483126640319824,0.31031954288482666,-3.082426071166992
1781215322506347500,16.369347412109374,5.668829441070557,0.2480112910270691,-2.649933338165283
1781215322516448800,16.37944873046875,5.820323944091797,0.28099802136421204,-2.1343631744384766
1781215322546691800,16.40969189453125,6.067113399505615,0.6695083379745483,-0.7867944240570068
1781215322556762600,16.4197626953125,6.013357639312744,0.7476990818977356,-0.6035348773002625
1781215322566833400,16.42983349609375,5.877745151519775,0.7855727076530457,-0.5155702829360962
1781215322627197200,16.490197265625,5.161811351776123,0.8051204085350037,0.49846604466438293
1781215322677642800,16.540642822265625,4.570493698120117,1.6701055765151978,0.05619960278272629
1781215322687713500,16.550713623046875,4.420220851898193,1.7153096199035645,-0.4386012554168701
1781215322697814800,16.560814697265624,4.313930511474609,1.6591099500656128,-0.8747590184211731
1781215322707885600,16.570885498046874,4.26017427444458,1.5369369983673096,-1.1007791757583618
1781215322717986800,16.58098681640625,4.221078872680664,1.4587461948394775,-1.0775662660598755
1781215322728057600,16.5910576171875,4.177096366882324,1.4685200452804565,-0.769690215587616
1781215322738159000,16.6011591796875,4.123340606689453,1.5528194904327393,-0.21624629199504852
1781215322748230000,16.61122998046875,4.04270601272583,1.7043139934539795,0.43249258399009705
1781215322758270200,16.621270263671875,3.925420045852661,1.86191725730896,1.036027431488037
1781215322768341000,16.631341064453125,3.762929916381836,1.9999728202819824,1.5051720142364502
1781215322778411800,16.641411865234375,3.5515706539154053,2.109928607940674,1.7971655130386353
1781215322818755800,16.681755859375,2.1111502647399902,2.5583035945892334,1.5638149976730347
1781215322828826600,16.69182666015625,1.8887953758239746,2.618168354034424,1.274264931678772
1781215322838897700,16.701897705078125,1.7177530527114868,2.6230554580688477,1.0323622226715088
1781215322848999000,16.7119990234375,1.5833626985549927,2.6169466972351074,0.8283332586288452
1781215322859039200,16.722039306640625,1.4917329549789429,2.6193902492523193,0.6291912198066711
1781215322869110000,16.732110107421875,1.4563027620315552,2.64138126373291,0.4300491213798523
1781215322899352800,16.762352783203124,1.4831807613372803,2.769663095474243,-0.08918632566928864
1781215322909423600,16.772423583984374,1.4929546117782593,2.7488934993743896,-0.19914206862449646
1781215322919525000,16.782525146484375,1.5271631479263306,2.6865854263305664,-0.22846360504627228
1781215322959808300,16.822808349609375,1.7898352146148682,2.5448646545410156,-0.588874101638794
1781215322969879000,16.832879150390625,1.86191725730896,2.3860397338867188,-0.8442157506942749
1781215322979919400,16.84291943359375,1.9315558671951294,2.1905627250671387,-1.0897835493087769
1781215322989990100,16.852990234375,1.9755382537841797,2.001194477081299,-1.3145819902420044
1781215323000061000,16.86306103515625,1.9914207458496094,1.8411478996276855,-1.4648548364639282
1781215323030273300,16.893273193359374,1.9181169271469116,1.4453071355819702,-1.6016886234283447
1781215323040313600,16.903313720703125,1.86191725730896,1.3267992734909058,-1.566258430480957
1781215323090667500,16.95366748046875,1.4159855842590332,0.5229006409645081,-1.2901474237442017
1781215323120910600,16.98391064453125,1.1288789510726929,0.30054569244384766,-0.779464066028595
1781215323130981400,16.9939814453125,1.0592403411865234,0.3286454975605011,-0.618195652961731
1781215323141052200,17.00405224609375,0.9871582388877869,0.37140607833862305,-0.5900958180427551
1781215323151123000,17.014123046875,0.921184778213501,0.3335324227809906,-0.6902777552604675
1781215323161224200,17.02422412109375,0.8820894360542297,0.21624629199504852,-0.8148942589759827
1781215323171264500,17.034264404296874,0.8649851679801941,0.09529497474431992,-0.8454375267028809
1781215323181335300,17.044335205078124,0.8539896011352539,0.02687807008624077,-0.7489207983016968
1781215323211578000,17.074578125,0.6218608021736145,0.013439035043120384,-0.010995574295520782
1781215323221618400,17.084618408203124,0.48869219422340393,0.02076941914856434,0.16493362188339233
1781215323231689200,17.094689208984374,0.3689626157283783,0.02076941914856434,0.2565633952617645
1781215323241790700,17.104790771484375,0.2724458873271942,0.0012217304902151227,0.28955012559890747
1781215323251830800,17.114830810546874,0.17470745742321014,-0.030543262138962746,0.25045475363731384
1781215323261932300,17.124932373046875,0.05864306539297104,-0.08185594528913498,0.13561208546161652
1781215323271972600,17.13497265625,-0.08307767659425735,-0.16249015927314758,-0.0659734457731247
1781215323282073900,17.145073974609375,-0.23579397797584534,-0.2724458873271942,-0.34208452701568604
1781215323292114200,17.1551142578125,-0.38240164518356323,-0.3836233615875244,-0.6646214127540588
1781215323302215400,17.16521533203125,-0.5204572081565857,-0.4789183437824249,-0.9651671051979065
1781215323342559700,17.205559814453125,-1.0433578491210938,-0.45814892649650574,-1.6688838005065918
1781215323352630500,17.215630615234375,-1.1178834438323975,-0.37629300355911255,-1.6957619190216064
1781215323362731800,17.225731689453124,-1.1716395616531372,-0.2932153046131134,-1.6786576509475708
1781215323372741600,17.23574169921875,-1.2131783962249756,-0.2174680233001709,-1.6407840251922607
1781215323382843000,17.2458427734375,-1.2400563955307007,-0.16982053220272064,-1.598023533821106
1781215323392944000,17.255944091796874,-1.2315043210983276,-0.14782938361167908,-1.5442672967910767
1781215323403045400,17.26604541015625,-1.1850786209106445,-0.11362093687057495,-1.4782938957214355
1781215323413085700,17.276085693359374,-1.1313223838806152,-0.05375614017248154,-1.3915510177612305
1781215323453430000,17.316429931640624,-0.93095862865448,0.12339477986097336,-0.6707300543785095
1781215323463531300,17.32653125,-0.8686503767967224,0.13316862285137177,-0.4715879559516907
1781215323473602000,17.33660205078125,-0.789237916469574,0.14538592100143433,-0.3127630054950714
1781215323493743900,17.356743896484375,-0.6340781450271606,0.16859880089759827,-0.2015855312347412
1781215323503814700,17.366814697265625,-0.5717698931694031,0.1661553531885147,-0.2431243658065796
1781215323513854700,17.376854736328124,-0.5057964324951172,0.17104226350784302,-0.3090978264808655
1781215323564178400,17.427178466796875,-0.0708603709936142,0.06352998316287994,-0.5644394755363464
1781215323574279700,17.43727978515625,-0.03787364438176155,0.08674286305904388,-0.6682865619659424
1781215323584381000,17.447380859375,0,0.1160643994808197,-0.7721336483955383
1781215323594482200,17.457482177734374,0.05253441259264946,0.14049901068210602,-0.8381071090698242
1781215323604614100,17.4676142578125,0.1160643994808197,0.16493362188339233,-0.8491026759147644
1781215323614685000,17.477684814453124,0.19058994948863983,0.17959438264369965,-0.817337691783905
1781215323634918100,17.497918212890625,0.2993239760398865,0.15271630883216858,-0.8026769161224365
1781215323645019400,17.508019287109374,0.31642818450927734,0.14049901068210602,-0.8600982427597046
1781215323655090200,17.518090087890624,0.3543018400669098,0.11850785464048386,-0.8625417351722717
1781215323665191400,17.52819140625,0.4105014503002167,0.08429940044879913,-0.8234463334083557
1781215323675293000,17.53829296875,0.44593164324760437,0.05009094998240471,-0.807563841342926
1781215323685394200,17.548394287109375,0.43615779280662537,0.03176499158143997,-0.8515461683273315
1781215323695495400,17.558495361328124,0.4056145250797272,0.025656340643763542,-0.9187413454055786
1781215323705566200,17.568566162109374,0.384845107793808,0.02687807008624077,-0.9541715383529663
1781215323715667500,17.57866748046875,0.3799581825733185,0.039095375686883926,-0.9749409556388855
1781215323776245000,17.639244873046874,0.384845107793808,-0.20525072515010834,-1.370781660079956
1781215323806457300,17.669457275390624,0.34697145223617554,-0.2871066629886627,-1.264491081237793
1781215323816558600,17.67955859375,0.31520646810531616,-0.2871066629886627,-1.1435397863388062
1781215323826629400,17.68962939453125,0.2736676335334778,-0.294437050819397,-1.009149432182312
1781215323836669700,17.699669677734374,0.22968533635139465,-0.3066543638706207,-0.8710938692092896
1781215323846801700,17.7098017578125,0.18570303916931152,-0.32131510972976685,-0.7147123217582703
1781215323856903000,17.71990283203125,0.13561208546161652,-0.33108896017074585,-0.5412266254425049
1781215323867004200,17.730004150390624,0.0659734457731247,-0.34086281061172485,-0.37629300355911255
1781215323877136100,17.74013623046875,-0.030543262138962746,-0.34574973583221436,-0.25045475363731384
1781215323887237400,17.7502373046875,-0.1514945775270462,-0.35185837745666504,-0.17470745742321014
1781215323897338600,17.760338623046874,-0.2883284091949463,-0.3604104816913605,-0.12217304855585098
1781215323907440000,17.770440185546875,-0.42638394236564636,-0.3689626157283783,-0.07819075137376785
1781215323917511000,17.780510986328125,-0.5595525503158569,-0.3591887652873993,-0.0403171069920063
1781215323927642600,17.790642578125,-0.7098253965377808,-0.32620203495025635,-0.03298672288656235
1781215323937744000,17.800743896484374,-0.8894197940826416,-0.2932153046131134,-0.03787364438176155
1781215323947845400,17.810845458984375,-1.0751228332519531,-0.27611109614372253,0.00855211354792118
1781215323957916200,17.820916259765625,-1.2498302459716797,-0.26511552929878235,0.14905111491680145
1781215323978149400,17.8411494140625,-1.5650367736816406,-0.23335053026676178,0.7513642311096191
1781215323988250600,17.851250732421875,-1.7482963800430298,-0.24678955972194672,1.1362093687057495
1781215323998352000,17.861351806640624,-1.9449949264526367,-0.2528982162475586,1.4489723443984985
1781215324018585000,17.881585205078125,-2.359161615371704,-0.3274237811565399,1.615127682685852
1781215324038787600,17.90178759765625,-2.7146852016448975,-0.5338962078094482,1.1081095933914185
1781215324058990300,17.921990234375,-3.034778594970703,-0.7159340381622314,0.5424483418464661
1781215324079062500,17.9420625,-3.3463199138641357,-0.8649851679801941,0.6890559792518616
1781215324089163800,17.952163818359374,-3.484375476837158,-0.8454375267028809,0.9920451641082764
1781215324119467800,17.9824677734375,-3.754377841949463,-0.8026769161224365,1.5320500135421753
1781215324129599500,17.992599609375,-3.8142426013946533,-0.8772025108337402,1.4184291362762451
1781215324139701000,18.002700927734374,-3.9327504634857178,-1.0396926403045654,1.076344609260559
1781215324159934000,18.022933837890626,-4.079358100891113,-1.216843605041504,0.9896016716957092
1781215324170035500,18.033035400390624,-4.1832051277160645,-1.2486085891723633,1.1081095933914185
1781215324180167200,18.043167236328124,-4.29804801940918,-1.2021827697753906,1.2852604389190674
1781215324190268400,18.053268310546876,-4.434881687164307,-1.1056660413742065,1.4440854787826538
1781215324200370000,18.063369873046874,-4.564384937286377,-1.017701506614685,1.539380431175232
1781215324210471200,18.07347119140625,-4.668232440948486,-0.9578366875648499,1.529606580734253
1781215324250846000,18.113845947265624,-4.976108074188232,-0.9834930300712585,1.1129964590072632
1781215324311423200,18.17442333984375,-4.916243553161621,-0.8319984674453735,1.9645426273345947
1781215324341757700,18.2047578125,-4.921130180358887,-0.8613200187683105,1.842369556427002
1781215324351859200,18.214859130859374,-4.851491928100586,-0.8491026759147644,1.9352210760116577
1781215324372000800,18.235000732421874,-4.717101573944092,-0.8784242272377014,2.1783454418182373
1781215324382102000,18.24510205078125,-4.664566993713379,-0.8515461683273315,2.305405378341675
1781215324392233700,18.255233642578126,-4.590041637420654,-0.7904596328735352,2.4581217765808105
1781215324402304500,18.265304443359376,-4.498411655426025,-0.7611380815505981,2.576629638671875
1781215324412314400,18.275314453125,-4.431216716766357,-0.7635815739631653,2.6010642051696777
1781215324422385200,18.28538525390625,-4.386012554168701,-0.7721336483955383,2.6035077571868896
1781215324432486400,18.295486328125,-4.313930511474609,-0.7586946487426758,2.676811456680298
1781215324452597500,18.315597412109376,-4.112344741821289,-0.6536257863044739,2.841745138168335
1781215324462699000,18.325698974609374,-4.04881477355957,-0.6194173693656921,2.800206184387207
1781215324472800300,18.33580029296875,-4.020715236663818,-0.6328563690185547,2.696359157562256
1781215324482871000,18.34587109375,-3.992615222930908,-0.6902777552604675,2.6108381748199463
1781215324492972300,18.35597216796875,-3.9510765075683594,-0.7159340381622314,2.548529863357544
1781215324503043000,18.36604296875,-3.8960986137390137,-0.6841690540313721,2.5130996704101562
1781215324513144600,18.37614453125,-3.819129467010498,-0.6352998614311218,2.5143213272094727
1781215324523215400,18.38621533203125,-3.717725992202759,-0.5705481171607971,2.5302038192749023
1781215324573599700,18.436599853515624,-3.4049627780914307,-0.5681046843528748,1.5796974897384644
1781215324583670500,18.44667041015625,-3.3768630027770996,-0.6047565937042236,1.4208725690841675
1781215324674338300,18.53733837890625,-2.29440975189209,-0.6682865619659424,0.10384709388017654
1781215324684378600,18.547378662109374,-2.122145891189575,-0.7171558141708374,-0.18570303916931152
1781215324694449400,18.557449462890624,-1.9413297176361084,-0.7195992469787598,-0.2577851414680481
1781215324704520200,18.567520263671874,-1.794722080230713,-0.685390830039978,-0.13072516024112701
1781215324714560500,18.577560546875,-1.6688838005065918,-0.5925393104553223,0.09040805697441101
