time,seconds_elapsed,z,y,x
1781033901248176400,0.12617626953125,8.460447311401367,-4.940393924713135,0.23091499507427216
1781033901631171600,0.509171630859375,8.5038423538208,-4.855327129364014,0.3878970146179199
1781033901640933400,0.518933349609375,8.529945373535156,-4.803147792816162,0.4580250084400177
1781033901660453000,0.538453125,8.55974006652832,-4.741706848144531,0.535785973072052
1781033901679962400,0.55796240234375,8.59216022491455,-4.672169208526611,0.6209719777107239
1781033901699471600,0.5774716796875,8.620911598205566,-4.60718297958374,0.7026690244674683
1781033901718987300,0.5969873046875,8.646777153015137,-4.545797824859619,0.7803540229797363
1781033901738506000,0.616506103515625,8.670304298400879,-4.487404823303223,0.8538200259208679
1781033901758020000,0.63602001953125,8.693113327026367,-4.429008960723877,0.9239299893379211
1781033901777530400,0.6555302734375,8.71647834777832,-4.368216037750244,0.9907969832420349
1781033901797044200,0.675044189453125,8.741045951843262,-4.303898811340332,1.0538320541381836
1781033901816558300,0.694558349609375,8.767226219177246,-4.235422134399414,1.1121749877929688
1781033901836071200,0.7140712890625,8.79439926147461,-4.164012908935547,1.165990948677063
1781033901855582500,0.73358251953125,8.822060585021973,-4.090551853179932,1.2159849405288696
1781033901875095000,0.753094970703125,8.849577903747559,-4.016058921813965,1.2634270191192627
1781033901894608400,0.7726083984375,8.876287460327148,-3.9418509006500244,1.308946967124939
1781033901914118100,0.7921181640625,8.902254104614258,-3.868436098098755,1.3509529829025269
1781033901933622300,0.811622314453125,8.927511215209961,-3.796097993850708,1.3889509439468384
1781033901953125000,0.831125,8.952011108398438,-3.725285053253174,1.422577977180481
1781033901962878000,0.8408779296875,8.952011108398438,-3.725285053253174,1.422577977180481
1781033901972630800,0.850630859375,8.976058006286621,-3.6558969020843506,1.4507900476455688
1781033901992136200,0.87013623046875,8.999584197998047,-3.588818073272705,1.4723700284957886
1781033902011641000,0.88964111328125,9.022908210754395,-3.5239040851593018,1.4863439798355103
1781033902031147300,0.909147216796875,9.04600715637207,-3.4603068828582764,1.4953340291976929
1781033902050656800,0.92865673828125,9.068610191345215,-3.3982388973236084,1.5007610321044922
1781033902070162000,0.948161865234375,9.090964317321777,-3.3366880416870117,1.5036239624023438
1781033902089667800,0.967667724609375,9.112988471984863,-3.275688886642456,1.5044269561767578
1781033902109176300,0.98717626953125,9.134844779968262,-3.214462995529175,1.5039390325546265
1781033902128683800,1.006683837890625,9.156875610351562,-3.152251958847046,1.5016419887542725
1781033902148199700,1.02619970703125,9.17919635772705,-3.089308977127075,1.4961669445037842
1781033902167718100,1.04571826171875,9.19897747039795,-3.039980888366699,1.4755749702453613
1781033902187231700,1.065231689453125,9.216307640075684,-3.0051589012145996,1.4382989406585693
1781033902206744600,1.08474462890625,9.230968475341797,-2.9854938983917236,1.3842120170593262
1781033902226258200,1.104258056640625,9.243013381958008,-2.979733943939209,1.3144910335540771
1781033902245768000,1.123767822265625,9.243013381958008,-2.979733943939209,1.3144910335540771
1781033902265278000,1.14327783203125,9.261924743652344,-2.9967310428619385,1.1297580003738403
1781033902284791000,1.162791015625,9.261924743652344,-2.9967310428619385,1.1297580003738403
1781033902304305000,1.182304931640625,9.272263526916504,-3.0017340183258057,1.0269949436187744
1781033902323814400,1.201814453125,9.298173904418945,-2.986478090286255,0.815418004989624
1781033902343322400,1.221322265625,9.298173904418945,-2.986478090286255,0.815418004989624
1781033902362832600,1.24083251953125,9.298173904418945,-2.986478090286255,0.815418004989624
1781033902382342100,1.260342041015625,9.327613830566406,-2.9477450847625732,0.58856201171875
1781033902401853200,1.279853271484375,9.340962409973145,-2.9267020225524902,0.46991801261901855
1781033902421368000,1.2993681640625,9.35240364074707,-2.906769037246704,0.35104501247406006
1781033902440881700,1.318881591796875,9.362405776977539,-2.8863699436187744,0.23286199569702148
1781033902460391700,1.3383916015625,9.371419906616211,-2.8641390800476074,0.11485099792480469
1781033902479899600,1.357899658203125,9.379575729370117,-2.8396389484405518,-0.0020359999034553766
1781033902499405800,1.37740576171875,9.386663436889648,-2.8135969638824463,-0.11924900114536285
1781033902518913300,1.396913330078125,9.391706466674805,-2.7891669273376465,-0.23749800026416779
1781033902538424000,1.416424072265625,9.393633842468262,-2.7697908878326416,-0.35763800144195557
1781033902557935400,1.435935302734375,9.391397476196289,-2.7590339183807373,-0.4789319932460785
1781033902577444600,1.455444580078125,9.384407997131348,-2.759458065032959,-0.598563015460968
1781033902596956000,1.474955810546875,9.373430252075195,-2.769771099090576,-0.7121649980545044
1781033902616466000,1.4944658203125,9.359597206115723,-2.787735939025879,-0.8163729906082153
1781033902635971800,1.513971923828125,9.344491958618164,-2.8094000816345215,-0.9098010063171387
1781033902655477800,1.533477783203125,9.329635620117188,-2.8306350708007812,-0.9926729798316956
1781033902674977500,1.5529775390625,9.315670013427734,-2.849545955657959,-1.0669440031051636
1781033902694480000,1.57247998046875,9.303499221801758,-2.863110065460205,-1.1346789598464966
1781033902713988400,1.59198828125,9.292856216430664,-2.8713769912719727,-1.1991740465164185
1781033902733497300,1.611497314453125,9.283681869506836,-2.8740580081939697,-1.2621560096740723
1781033902753012000,1.631011962890625,9.276005744934082,-2.8709800243377686,-1.3240820169448853
1781033902772529400,1.650529296875,9.269628524780273,-2.863555908203125,-1.383476972579956
1781033902792039700,1.670039794921875,9.26511287689209,-2.8517940044403076,-1.436985969543457
1781033902811551500,1.689551513671875,9.262359619140625,-2.836677074432373,-1.483901023864746
1781033902831065300,1.7090654296875,9.261075019836426,-2.8195879459381104,-1.5239460468292236
1781033902850576000,1.728575927734375,9.260566711425781,-2.8036301136016846,-1.556138038635254
1781033902870085000,1.748085205078125,9.260579109191895,-2.7885000705718994,-1.5830199718475342
1781033902889591600,1.767591552734375,9.260652542114258,-2.7758328914642334,-1.604693055152893
1781033902909100300,1.787100341796875,9.26065444946289,-2.764662027359009,-1.6238609552383423
1781033902928608500,1.8066083984375,9.260523796081543,-2.7546849250793457,-1.641461968421936
1781033902948115500,1.826115478515625,9.261176109313965,-2.7460639476776123,-1.6521960496902466
1781033902967627500,1.84562744140625,9.26328182220459,-2.737121105194092,-1.6552239656448364
1781033902987140000,1.86514013671875,9.266738891601562,-2.7306580543518066,-1.6465280055999756
1781033903006652000,1.88465185546875,9.271398544311523,-2.726531982421875,-1.627020001411438
1781033903026165800,1.904165771484375,9.276233673095703,-2.7268118858337402,-1.5987420082092285
1781033903045677600,1.923677490234375,9.276233673095703,-2.7268118858337402,-1.5987420082092285
1781033903065191200,1.943191162109375,9.2833833694458,-2.7396860122680664,-1.5339239835739136
1781033903084708000,1.9627080078125,9.285754203796387,-2.7481489181518555,-1.5041420459747314
1781033903104222700,1.98222265625,9.285754203796387,-2.7481489181518555,-1.5041420459747314
1781033903123735600,2.001735595703125,9.293872833251953,-2.7499780654907227,-1.4496699571609497
1781033903143245300,2.021245361328125,9.293872833251953,-2.7499780654907227,-1.4496699571609497
1781033903162754000,2.040754150390625,9.302099227905273,-2.7366418838500977,-1.4218790531158447
1781033903182264000,2.06026416015625,9.314212799072266,-2.711292028427124,-1.3908029794692993
1781033903201775400,2.079775390625,9.329237937927246,-2.6753740310668945,-1.3592970371246338
1781033903221285600,2.09928564453125,9.346179008483887,-2.6315441131591797,-1.3281229734420776
1781033903240796700,2.118796630859375,9.363771438598633,-2.5826210975646973,-1.2999379634857178
1781033903260307200,2.13830712890625,9.381085395812988,-2.531672954559326,-1.2750990390777588
1781033903279817700,2.157817626953125,9.397781372070312,-2.4789750576019287,-1.2555439472198486
1781033903299329000,2.1773291015625,9.41292667388916,-2.428312063217163,-1.2410110235214233
1781033903318847200,2.19684716796875,9.425914764404297,-2.3839080333709717,-1.2284610271453857
1781033903338369000,2.216369140625,9.434672355651855,-2.356736898422241,-1.2135679721832275
1781033903357886500,2.235886474609375,9.439624786376953,-2.3507399559020996,-1.186385989189148
1781033903377404700,2.25540478515625,9.440653800964355,-2.366554021835327,-1.1460679769515991
1781033903396924400,2.27492431640625,9.437213897705078,-2.4045729637145996,-1.0940849781036377
1781033903416443400,2.294443359375,9.429228782653809,-2.4621028900146484,-1.0332889556884766
1781033903435961900,2.3139619140625,9.41613483428955,-2.535193920135498,-0.9742640256881714
1781033903455483600,2.333483642578125,9.40028190612793,-2.6134939193725586,-0.918878972530365
1781033903475008500,2.353008544921875,9.382024765014648,-2.696258068084717,-0.8647580146789551
1781033903494529300,2.372529296875,9.360849380493164,-2.7852981090545654,-0.8103150129318237
1781033903514048800,2.392048828125,9.335756301879883,-2.8842620849609375,-0.7514569759368896
1781033903533566700,2.411566650390625,9.306248664855957,-2.9943199157714844,-0.6839489936828613
1781033903553078500,2.43107861328125,9.272039413452148,-3.115381956100464,-0.6030660271644592
1781033903572594700,2.4505947265625,9.232368469238281,-3.2462968826293945,-0.5147129893302917
1781033903592114700,2.47011474609375,9.187231063842773,-3.3833229541778564,-0.43347999453544617
1781033903611630300,2.48963037109375,9.137378692626953,-3.523883104324341,-0.3613229990005493
1781033903631144200,2.509144287109375,9.083745002746582,-3.665807008743286,-0.2956719994544983
1781033903650664200,2.528664306640625,9.026163101196289,-3.8100008964538574,-0.22863000631332397
1781033903670187000,2.54818701171875,8.965229034423828,-3.9549429416656494,-0.15200300514698029
1781033903689708500,2.56770849609375,8.901266098022461,-4.099254131317139,-0.05979900062084198
1781033903709230000,2.58722998046875,8.83464527130127,-4.241085052490234,0.04733600094914436
1781033903728747800,2.606747802734375,8.76565170288086,-4.378941059112549,0.16801300644874573
1781033903748265200,2.62626513671875,8.694432258605957,-4.512065887451172,0.2968200147151947
1781033903767785500,2.645785400390625,8.620080947875977,-4.642134189605713,0.42986300587654114
1781033903787307000,2.66530712890625,8.54122543334961,-4.771259784698486,0.5679320096969604
1781033903806827000,2.684826904296875,8.4567289352417,-4.900681018829346,0.7120789885520935
1781033903826340900,2.7043408203125,8.364924430847168,-5.031590938568115,0.86667799949646
1781033903845854700,2.723854736328125,8.364924430847168,-5.031590938568115,0.86667799949646
1781033903865371000,2.743370849609375,8.263982772827148,-5.163214206695557,1.0429790019989014
1781033903884889600,2.7628896484375,8.032362937927246,-5.420254230499268,1.4635560512542725
1781033903904408600,2.78240869140625,8.032362937927246,-5.420254230499268,1.4635560512542725
1781033903923923700,2.801923828125,7.779682159423828,-5.631608009338379,1.9497510194778442
1781033903943436500,2.8214365234375,7.779682159423828,-5.631608009338379,1.9497510194778442
1781033903962954800,2.840954833984375,7.657515048980713,-5.70768404006958,2.196540117263794
1781033903982469600,2.8604697265625,7.542993068695068,-5.764619827270508,2.431544065475464
1781033904001985300,2.8799853515625,7.4372172355651855,-5.8022050857543945,2.6574831008911133
1781033904021506800,2.8995068359375,7.340288162231445,-5.818853855133057,2.881164073944092
1781033904041024300,2.919024169921875,7.251931190490723,-5.8119611740112305,3.1097569465637207
1781033904060538400,2.938538330078125,7.168116092681885,-5.787002086639404,3.3419620990753174
1781033904080056800,2.958056884765625,7.089219093322754,-5.745481967926025,3.57384991645813
1781033904099576800,2.977576904296875,7.017845153808594,-5.68980598449707,3.7968320846557617
1781033904119092700,2.9970927734375,6.954734802246094,-5.622754096984863,4.007030963897705
1781033904138606600,3.016606689453125,6.896371841430664,-5.551420211791992,4.2025909423828125
1781033904158122200,3.036122314453125,6.840680122375488,-5.48262882232666,4.3801679611206055
1781033904177642800,3.055642822265625,6.786639213562012,-5.416919231414795,4.542961120605469
1781033904197156900,3.075156982421875,6.730747222900391,-5.352238178253174,4.700060844421387
1781033904216671000,3.0946708984375,6.672429084777832,-5.286880970001221,4.854643821716309
1781033904236193000,3.114193115234375,6.614322185516357,-5.221930980682373,5.002216815948486
1781033904255711200,3.133711181640625,6.566042900085449,-5.159215927124023,5.129283905029297
1781033904275227100,3.15322705078125,6.532233238220215,-5.1036248207092285,5.2271342277526855
1781033904294743600,3.17274365234375,6.5125508308410645,-5.0588788986206055,5.294754981994629
1781033904314260000,3.192260009765625,6.504331111907959,-5.02860689163208,5.333553791046143
1781033904333778400,3.2117783203125,6.504817008972168,-5.014762878417969,5.3459792137146
1781033904353293800,3.2312939453125,6.512784957885742,-5.016768932342529,5.334384918212891
1781033904372804000,3.25080419921875,6.527403831481934,-5.029189109802246,5.304738998413086
1781033904392319200,3.2703193359375,6.5498480796813965,-5.046187877655029,5.260748863220215
1781033904411836700,3.289836669921875,6.584414958953857,-5.063916206359863,5.20021390914917
1781033904431350000,3.30935009765625,6.637160778045654,-5.081247806549072,5.115565776824951
1781033904450862600,3.328862548828125,6.712695121765137,-5.098808765411377,4.998187065124512
1781033904470376400,3.34837646484375,6.81298303604126,-5.117924213409424,4.840465068817139
1781033904489894000,3.367893798828125,6.9347920417785645,-5.139893054962158,4.640058994293213
1781033904509407000,3.387406982421875,7.072819232940674,-5.167311191558838,4.394783020019531
1781033904528917000,3.4069169921875,7.220709800720215,-5.1958231925964355,4.111539840698242
1781033904548428000,3.426427978515625,7.374269962310791,-5.218939781188965,3.797736883163452
1781033904567943700,3.445943603515625,7.52701997756958,-5.232172966003418,3.465301990509033
1781033904587453700,3.46545361328125,7.67379093170166,-5.234550952911377,3.1228830814361572
1781033904606958800,3.484958740234375,7.810691833496094,-5.229865074157715,2.7715699672698975
1781033904626468600,3.504468505859375,7.93398380279541,-5.220461845397949,2.416337013244629
1781033904645979000,3.523978759765625,7.93398380279541,-5.220461845397949,2.416337013244629
1781033904665489400,3.543489501953125,8.030336380004883,-5.2204060554504395,2.073899984359741
1781033904685002000,3.563001953125,8.096728324890137,-5.236817836761475,1.7489229440689087
1781033904704514300,3.582514404296875,8.13434886932373,-5.272788047790527,1.4387749433517456
1781033904724030500,3.602030517578125,8.1379976272583,-5.388422012329102,0.8819739818572998
1781033904743543800,3.621543701171875,8.1379976272583,-5.388422012329102,0.8819739818572998
1781033904763054800,3.641054931640625,8.1179838180542,-5.450016021728516,0.660040020942688
1781033904782569500,3.660569580078125,8.097759246826172,-5.499551773071289,0.47034600377082825
1781033904802081800,3.680081787109375,8.079136848449707,-5.5381011962890625,0.31142300367355347
1781033904821590800,3.6995908203125,8.062846183776855,-5.567406177520752,0.18573999404907227
1781033904841098800,3.7190986328125,8.048745155334473,-5.590220928192139,0.08448299765586853
1781033904860609500,3.738609619140625,8.036914825439453,-5.607822895050049,0.017575999721884727
1781033904880124400,3.75812451171875,8.021812438964844,-5.629395961761475,-0.020541999489068985
1781033904899639000,3.77763916015625,8.000630378723145,-5.659414768218994,-0.03043000027537346
1781033904919155200,3.7971552734375,7.975526809692383,-5.6948089599609375,-0.010440999642014503
1781033904938673000,3.8166728515625,7.947588920593262,-5.733578205108643,0.04360999912023544
1781033904958191900,3.83619189453125,7.916608810424805,-5.774682998657227,0.14259600639343262
1781033904977708300,3.855708251953125,7.881532192230225,-5.817677021026611,0.27580100297927856
1781033904997218600,3.875218505859375,7.840433120727539,-5.863461971282959,0.43290799856185913
1781033905016734700,3.894734619140625,7.794379234313965,-5.90946102142334,0.6049110293388367
1781033905036255700,3.914255859375,7.740030765533447,-5.957499027252197,0.8000689744949341
1781033905055773700,3.933773681640625,7.6751909255981445,-6.007756233215332,1.0189779996871948
1781033905075292200,3.953292236328125,7.597264766693115,-6.0588297843933105,1.2696980237960815
1781033905094807300,3.972807373046875,7.505290985107422,-6.10784912109375,1.550739049911499
1781033905114319000,3.992319091796875,7.4004411697387695,-6.1504411697387695,1.8562179803848267
1781033905133834500,4.01183447265625,7.285603046417236,-6.185005187988281,2.1692590713500977
1781033905153353200,4.031353271484375,7.161426067352295,-6.214611053466797,2.4764010906219482
1781033905172872400,4.05087255859375,7.029739856719971,-6.240178108215332,2.771811008453369
1781033905192395000,4.07039501953125,6.892909049987793,-6.264081954956055,3.0477969646453857
1781033905211921200,4.089921142578125,6.751769065856934,-6.28700590133667,3.3056259155273438
1781033905231437000,4.10943701171875,6.606619834899902,-6.309779167175293,3.546722888946533
1781033905250948000,4.128947998046875,6.4684648513793945,-6.326180934906006,3.7654190063476562
1781033905270463000,4.148462890625,6.346136093139648,-6.327971935272217,3.9652628898620605
1781033905289980400,4.16798046875,6.238830089569092,-6.311813831329346,4.156681060791016
1781033905309490700,4.18749072265625,6.1476969718933105,-6.278076171875,4.339538097381592
1781033905328994600,4.20699462890625,6.0743632316589355,-6.225515842437744,4.514979839324951
1781033905348502800,4.226502685546875,6.018270969390869,-6.164779186248779,4.670749187469482
1781033905368009700,4.246009765625,5.970427989959717,-6.102389812469482,4.811947822570801
1781033905387517400,4.265517333984375,5.927765846252441,-6.045159816741943,4.93534517288208
1781033905407027200,4.285027099609375,5.8927388191223145,-5.997230052947998,5.034762859344482
1781033905426538200,4.304538330078125,5.86306095123291,-5.95717191696167,5.116308212280273
1781033905446053600,4.3240537109375,5.86306095123291,-5.95717191696167,5.116308212280273
1781033905465569300,4.3435693359375,5.813754081726074,-5.904908180236816,5.231855869293213
1781033905485086200,4.363086181640625,5.813754081726074,-5.904908180236816,5.231855869293213
1781033905504603100,4.38260302734375,5.795652866363525,-5.877284049987793,5.282797813415527
1781033905524115500,4.402115478515625,5.773787021636963,-5.814341068267822,5.375575065612793
1781033905543624000,4.4216240234375,5.773787021636963,-5.814341068267822,5.375575065612793
1781033905563136500,4.441136474609375,5.773787021636963,-5.814341068267822,5.375575065612793
1781033905582650600,4.460650634765625,5.788177967071533,-5.767748832702637,5.410182952880859
1781033905602168800,4.4801689453125,5.812788963317871,-5.758563995361328,5.393552780151367
1781033905621684700,4.499684814453125,5.846940040588379,-5.7643890380859375,5.350243091583252
1781033905641197300,4.519197265625,5.893907070159912,-5.787182807922363,5.273552894592285
1781033905660712700,4.538712646484375,5.956730842590332,-5.826840877532959,5.158030033111572
1781033905680227600,4.5582275390625,6.035676002502441,-5.875513076782227,5.008887767791748
1781033905699742700,4.57774267578125,6.132944107055664,-5.930300235748291,4.822710990905762
1781033905719260700,4.5972607421875,6.245578765869141,-5.984323024749756,4.6065850257873535
1781033905738777300,4.61677734375,6.367788791656494,-6.03361177444458,4.368843078613281
1781033905758287000,4.636287109375,6.493390083312988,-6.075582981109619,4.1186370849609375
1781033905777793800,4.655793701171875,6.620200157165527,-6.109361171722412,3.858581066131592
1781033905797304000,4.675303955078125,6.748918056488037,-6.133615970611572,3.587596893310547
1781033905816812800,4.694812744140625,6.881724834442139,-6.146967887878418,3.3010048866271973
1781033905836321000,4.714321044921875,7.019258975982666,-6.148498058319092,2.9943199157714844
1781033905855836700,4.733836669921875,7.156431198120117,-6.137503147125244,2.6751699447631836
1781033905875349500,4.753349609375,7.283656120300293,-6.122489929199219,2.345944881439209
1781033905894860300,4.7728603515625,7.394612789154053,-6.107034206390381,2.0158979892730713
1781033905914371600,4.79237158203125,7.483301162719727,-6.096305847167969,1.6956579685211182
1781033905933883000,4.8118828125,7.5444512367248535,-6.097393035888672,1.3939299583435059
1781033905953394400,4.83139453125,7.580015182495117,-6.110138893127441,1.1178410053253174
1781033905972905500,4.850905517578125,7.595476150512695,-6.132318019866943,0.862214982509613
1781033905992420900,4.8704208984375,7.6001691818237305,-6.154559135437012,0.631534993648529
1781033906011936300,4.889936279296875,7.597686767578125,-6.17514181137085,0.427511990070343
1781033906031445000,4.909445068359375,7.590710163116455,-6.193416118621826,0.250436007976532
1781033906050954200,4.928954345703125,7.58421516418457,-6.2055888175964355,0.10171099752187729
1781033906070469600,4.9484697265625,7.577629089355469,-6.214419841766357,-0.02280599996447563
1781033906089984500,4.967984619140625,7.570910930633545,-6.221378803253174,-0.1254809945821762
1781033906109491700,4.98749169921875,7.560589790344238,-6.231705188751221,-0.2081660032272339
1781033906129001200,5.007001220703125,7.546657085418701,-6.246088027954102,-0.27266499400138855
1781033906148515600,5.026515625,7.530420780181885,-6.264291763305664,-0.3023410141468048
1781033906168025000,5.046025146484375,7.509848117828369,-6.289083957672119,-0.2993389964103699
1781033906187532500,5.065532470703125,7.487343788146973,-6.3179450035095215,-0.2514509856700897
1781033906207043300,5.085043212890625,7.464663982391357,-6.347894191741943,-0.15172000229358673
1781033906226555000,5.104554931640625,7.445738792419434,-6.37188720703125,0.0050650001503527164
1781033906246062000,5.12406201171875,7.428743839263916,-6.3880510330200195,0.2157669961452484
1781033906265570600,5.143570556640625,7.4096198081970215,-6.3973469734191895,0.45988398790359497
1781033906285079600,5.16307958984375,7.386025905609131,-6.399449825286865,0.7305219769477844
1781033906304585200,5.182585205078125,7.386025905609131,-6.399449825286865,0.7305219769477844
1781033906324092400,5.202092529296875,7.3161821365356445,-6.395425796508789,1.2696510553359985
1781033906343600000,5.22160009765625,7.3161821365356445,-6.395425796508789,1.2696510553359985
1781033906363107600,5.241107666015625,7.3161821365356445,-6.395425796508789,1.2696510553359985
1781033906382615000,5.260614990234375,7.20908784866333,-6.395514011383057,1.7794489860534668
1781033906402121000,5.280120849609375,7.141282081604004,-6.400117874145508,2.020045042037964
1781033906421627100,5.299627197265625,7.063770771026611,-6.407426834106445,2.255661964416504
1781033906441135900,5.319135986328125,6.977413177490234,-6.414037227630615,2.4931540489196777
1781033906460648400,5.3386484375,6.886836051940918,-6.417666912078857,2.724889039993286
1781033906480164000,5.3581640625,6.801876068115234,-6.413858890533447,2.938857078552246
1781033906499673600,5.377673583984375,6.724283218383789,-6.40141487121582,3.137816905975342
1781033906519183000,5.39718310546875,6.65351676940918,-6.381256103515625,3.32419490814209
1781033906538697500,5.416697509765625,6.590755939483643,-6.353326797485352,3.498167037963867
1781033906558213000,5.436213134765625,6.5360188484191895,-6.318921089172363,3.6594669818878174
1781033906577730600,5.45573046875,6.48695182800293,-6.278829097747803,3.812577962875366
1781033906597244700,5.47524462890625,6.44025182723999,-6.239780902862549,3.953260898590088
1781033906616755000,5.4947548828125,6.3965020179748535,-6.203272819519043,4.0797247886657715
1781033906636264000,5.514263916015625,6.359161853790283,-6.1683502197265625,4.189571857452393
1781033906655771400,5.533771484375,6.328906059265137,-6.134696006774902,4.2837419509887695
1781033906675278800,5.55327880859375,6.305362224578857,-6.101184844970703,4.365540027618408
1781033906694785500,5.57278564453125,6.286526203155518,-6.067097187042236,4.439585208892822
1781033906714294800,5.592294677734375,6.274074077606201,-6.031236171722412,4.505570888519287
1781033906733809400,5.611809326171875,6.266572952270508,-5.994950771331787,4.564058780670166
1781033906753319400,5.6313193359375,6.266500949859619,-5.9606709480285645,4.608832836151123
1781033906772827100,5.6508271484375,6.277569770812988,-5.931455135345459,4.631408214569092
1781033906792340500,5.670340576171875,6.305465221405029,-5.9093451499938965,4.621768951416016
1781033906811852500,5.6898525390625,6.351737022399902,-5.89967679977417,4.570476055145264
1781033906831364900,5.70936474609375,6.414720058441162,-5.906706809997559,4.472379207611084
1781033906850875100,5.728875244140625,6.495028972625732,-5.9285101890563965,4.325199127197266
1781033906870381800,5.7483818359375,6.590182781219482,-5.960514068603516,4.13300895690918
1781033906889894000,5.767893798828125,6.694884777069092,-5.997334957122803,3.9051859378814697
1781033906909409000,5.787408935546875,6.799604892730713,-6.035394191741943,3.657784938812256
1781033906928921000,5.806921142578125,6.901233196258545,-6.069849967956543,3.401456117630005
1781033906948436000,5.82643603515625,7.001893997192383,-6.099763870239258,3.1315090656280518
1781033906967949300,5.84594921875,7.101233005523682,-6.123284816741943,2.849186897277832
1781033906987460600,5.865460693359375,7.199629783630371,-6.138935089111328,2.5531930923461914
1781033907006973700,5.8849736328125,7.297338008880615,-6.144311904907227,2.244163990020752
1781033907026483200,5.904483154296875,7.297338008880615,-6.144311904907227,2.244163990020752
1781033907045989000,5.923989013671875,7.297338008880615,-6.144311904907227,2.244163990020752
1781033907065495300,5.943495361328125,7.48896598815918,-6.120843887329102,1.5781790018081665
1781033907085005300,5.96300537109375,7.636593818664551,-6.0690531730651855,0.942891001701355
1781033907104515600,5.982515625,7.636593818664551,-6.0690531730651855,0.942891001701355
1781033907124029400,6.002029541015625,7.723902225494385,-6.018546104431152,0.39804500341415405
1781033907143547400,6.02154736328125,7.723902225494385,-6.018546104431152,0.39804500341415405
1781033907163066600,6.041066650390625,7.723902225494385,-6.018546104431152,0.39804500341415405
1781033907182580700,6.060580810546875,7.755255222320557,-5.99111795425415,-0.05004400014877319
1781033907202088400,6.08008837890625,7.759355068206787,-5.981276035308838,-0.23821699619293213
1781033907221595400,6.099595458984375,7.758803844451904,-5.973233222961426,-0.40178000926971436
1781033907241107700,6.119107666015625,7.755283832550049,-5.966332912445068,-0.5463020205497742
1781033907260623000,6.138623046875,7.749165058135986,-5.961517810821533,-0.6713730096817017
1781033907280136400,6.158136474609375,7.734936237335205,-5.966759204864502,-0.7800899744033813
1781033907299647200,6.177647216796875,7.714466094970703,-5.980837821960449,-0.86981600522995
1781033907319159000,6.197158935546875,7.689725875854492,-6.00357723236084,-0.9301480054855347
1781033907338671000,6.216671142578125,7.662390232086182,-6.0340728759765625,-0.9579799771308899
1781033907358183000,6.236182861328125,7.63388204574585,-6.072384834289551,-0.9433950185775757
1781033907377693700,6.255693603515625,7.605893135070801,-6.117112159729004,-0.8782550096511841
1781033907397203500,6.275203369140625,7.580830097198486,-6.163845062255859,-0.7602789998054504
1781033907416715800,6.2947158203125,7.55739688873291,-6.211400985717773,-0.5867310166358948
1781033907436230700,6.314230712890625,7.531524181365967,-6.25968599319458,-0.36395499110221863
1781033907455740700,6.33374072265625,7.497501850128174,-6.310144901275635,-0.09766200184822083
1781033907475251500,6.35325146484375,7.4502058029174805,-6.363509178161621,0.20047800242900848
1781033907494764500,6.3727646484375,7.388491153717041,-6.417438983917236,0.5164099931716919
1781033907514273500,6.3922734375,7.316213130950928,-6.466344833374023,0.8363000154495239
1781033907533782500,6.411782470703125,7.234734058380127,-6.510235786437988,1.1469229459762573
1781033907553291500,6.43129150390625,7.146432876586914,-6.549746990203857,1.4385089874267578
1781033907572801500,6.450801513671875,7.0525031089782715,-6.586106777191162,1.7103780508041382
1781033907592314600,6.470314697265625,6.954294204711914,-6.619927883148193,1.9632439613342285
1781033907611833300,6.489833251953125,6.8530659675598145,-6.652462005615234,2.1955010890960693
1781033907631351800,6.509351806640625,6.753589153289795,-6.680620193481445,2.4079720973968506
1781033907650867000,6.528866943359375,6.65558385848999,-6.704502105712891,2.6063120365142822
1781033907670380500,6.548380615234375,6.563439846038818,-6.723107814788818,2.7858710289001465
1781033907689893000,6.56789306640625,6.478964805603027,-6.735026836395264,2.949985980987549
1781033907709406200,6.58740625,6.406510829925537,-6.738105773925781,3.0975029468536377
1781033907728917500,6.60691748046875,6.344124794006348,-6.732480049133301,3.2350850105285645
1781033907748431000,6.62643115234375,6.288232803344727,-6.722685813903809,3.362086057662964
1781033907767944000,6.64594384765625,6.2381768226623535,-6.711134910583496,3.4764668941497803
1781033907787449000,6.665448974609375,6.190965175628662,-6.698970794677734,3.58270001411438
1781033907806955500,6.68495556640625,6.1477861404418945,-6.686513900756836,3.6790270805358887
1781033907826467000,6.704467041015625,6.105963230133057,-6.675230979919434,3.7680909633636475
1781033907845980400,6.72398046875,6.105963230133057,-6.675230979919434,3.7680909633636475
1781033907865494300,6.743494384765625,6.039743900299072,-6.659183979034424,3.9008638858795166
1781033907885010400,6.763010498046875,6.017276763916016,-6.652054786682129,3.94746994972229
1781033907904520200,6.782520263671875,6.017276763916016,-6.652054786682129,3.94746994972229
1781033907924031700,6.80203173828125,6.00099515914917,-6.644710063934326,3.9844560623168945
1781033907943546600,6.821546630859375,6.00099515914917,-6.644710063934326,3.9844560623168945
1781033907963058700,6.84105859375,6.00099515914917,-6.644710063934326,3.9844560623168945
1781033907982568700,6.860568603515625,6.0360260009765625,-6.650854110717773,3.920780897140503
1781033908002077400,6.880077392578125,6.068799018859863,-6.659214973449707,3.8554530143737793
1781033908021585400,6.89958544921875,6.113717079162598,-6.6704487800598145,3.7639830112457275
1781033908041088500,6.919088623046875,6.172040939331055,-6.682330131530762,3.645869016647339
1781033908060592600,6.938592529296875,6.247721195220947,-6.69451379776001,3.491339921951294
1781033908080103400,6.958103515625,6.343227863311768,-6.699901103973389,3.303752899169922
1781033908099619000,6.977619140625,6.460719108581543,-6.695623874664307,3.0769660472869873
1781033908119132700,6.997132568359375,6.599956035614014,-6.676159858703613,2.8123769760131836
1781033908138644700,7.016644775390625,6.75291109085083,-6.636240005493164,2.529524087905884
1781033908158161700,7.03616162109375,6.91337776184082,-6.573663234710693,2.2432498931884766
1781033908177679600,7.0556796875,7.081315040588379,-6.484990119934082,1.959557056427002
1781033908197194200,7.0751943359375,7.259427070617676,-6.368008136749268,1.6700860261917114
1781033908216707300,7.094707275390625,7.452620983123779,-6.215901851654053,1.3641860485076904
1781033908236218000,7.114218017578125,7.651145935058594,-6.0366129875183105,1.0291969776153564
1781033908255725300,7.133725341796875,7.844503879547119,-5.836263179779053,0.664667010307312
1781033908275234600,7.153234619140625,8.010519981384277,-5.638176918029785,0.2872689962387085
1781033908294742800,7.17274267578125,8.13719654083252,-5.460673809051514,-0.0839800015091896
1781033908314248000,7.192248046875,8.212881088256836,-5.330262184143066,-0.4205699861049652
1781033908333757200,7.211757080078125,8.240152359008789,-5.256296157836914,-0.7150120139122009
1781033908353268200,7.231268310546875,8.237154006958008,-5.220749855041504,-0.9659510254859924
1781033908372776700,7.250776611328125,8.214380264282227,-5.211050987243652,-1.1869699954986572
1781033908392285400,7.270285400390625,8.188850402832031,-5.204438209533691,-1.377153992652893
1781033908411796700,7.289796630859375,8.164703369140625,-5.198647975921631,-1.5335220098495483
1781033908431310600,7.309310546875,8.147468566894531,-5.1876349449157715,-1.6574620008468628
1781033908450824400,7.328824462890625,8.135884284973145,-5.182104110717773,-1.730080008506775
1781033908470341400,7.34834130859375,8.121955871582031,-5.194110870361328,-1.759274959564209
1781033908489862100,7.367862060546875,8.104690551757812,-5.224221229553223,-1.7497090101242065
1781033908509384700,7.387384765625,8.087335586547852,-5.2621049880981445,-1.7161619663238525
1781033908528907500,7.406907470703125,8.067093849182129,-5.311735153198242,-1.6575499773025513
1781033908548428500,7.426428466796875,8.046283721923828,-5.376266956329346,-1.5469549894332886
1781033908567947500,7.445947509765625,8.018572807312012,-5.458849906921387,-1.3940750360488892
1781033908587460000,7.465460205078125,7.982540130615234,-5.560078144073486,-1.1851509809494019
1781033908606971100,7.48497119140625,7.937246799468994,-5.673288822174072,-0.9240649938583374
1781033908626486800,7.50448681640625,7.87617301940918,-5.798346996307373,-0.6205419898033142
1781033908646003200,7.524003173828125,7.87617301940918,-5.798346996307373,-0.6205419898033142
1781033908665517300,7.543517333984375,7.801480770111084,-5.924756050109863,-0.27231699228286743
1781033908685027600,7.563027587890625,7.584039211273193,-6.185690879821777,0.5094799995422363
1781033908704536000,7.5825361328125,7.584039211273193,-6.185690879821777,0.5094799995422363
1781033908724049400,7.60204931640625,7.257437229156494,-6.444925785064697,1.353714942932129
1781033908743562500,7.6215625,7.257437229156494,-6.444925785064697,1.353714942932129
1781033908763076900,7.641076904296875,7.057984828948975,-6.568816184997559,1.7537089586257935
1781033908782591700,7.660591796875,6.846160888671875,-6.685233116149902,2.11606502532959
1781033908802103800,7.680103759765625,6.629186153411865,-6.790102958679199,2.447114944458008
1781033908821613600,7.699613525390625,6.408736228942871,-6.885735988616943,2.7485849857330322
1781033908841123600,7.71912353515625,6.197018146514893,-6.96416711807251,3.0228021144866943
1781033908860631600,7.738631591796875,6.001176834106445,-7.022953987121582,3.2716948986053467
1781033908880138200,7.75813818359375,5.835418224334717,-7.055153846740723,3.49466609954834
1781033908899652400,7.77765234375,5.702915191650391,-7.063298225402832,3.691417932510376
1781033908919166500,7.79716650390625,5.613068103790283,-7.048780918121338,3.85332989692688
1781033908938677500,7.816677490234375,5.5598578453063965,-7.014054775238037,3.9913671016693115
1781033908958188800,7.836188720703125,5.524672985076904,-6.9693450927734375,4.116578102111816
1781033908977699300,7.85569921875,5.495265007019043,-6.916820049285889,4.242600917816162
1781033908997208000,7.8752080078125,5.461540222167969,-6.865532875061035,4.367611885070801
1781033909016717600,7.894717529296875,5.42532205581665,-6.817938804626465,4.485708236694336
1781033909036233200,7.914233154296875,5.386326789855957,-6.7774977684021,4.592712879180908
1781033909055749000,7.9337490234375,5.3569512367248535,-6.74245023727417,4.677864074707031
1781033909075262500,7.953262451171875,5.35226583480835,-6.7036027908325195,4.738667011260986
1781033909094778000,7.972778076171875,5.376882076263428,-6.658967971801758,4.773603916168213
1781033909114299000,7.992298828125,5.414303779602051,-6.6123199462890625,4.796095848083496
1781033909133817000,8.011817138671875,5.460662841796875,-6.562117099761963,4.8124589920043945
1781033909153330700,8.03133056640625,5.516331195831299,-6.5120930671691895,4.816921234130859
1781033909172845000,8.050844970703125,5.583641052246094,-6.462636947631836,4.805963039398193
1781033909192360700,8.070360595703125,5.665200233459473,-6.4202117919921875,4.767219066619873
1781033909211875800,8.089875732421875,5.75296688079834,-6.388490200042725,4.704310894012451
1781033909231390200,8.10939013671875,5.849616050720215,-6.362405776977539,4.619716167449951
1781033909250902800,8.12890283203125,5.9525251388549805,-6.3428850173950195,4.513894081115723
1781033909270416600,8.148416748046875,6.063999176025391,-6.323681831359863,4.390779972076416
1781033909289932000,8.16793212890625,6.179996013641357,-6.303338050842285,4.256239891052246
1781033909309446000,8.18744580078125,6.3017802238464355,-6.275661945343018,4.1162638664245605
1781033909328958500,8.20695849609375,6.435525894165039,-6.236074924468994,3.9667820930480957
1781033909348471300,8.22647119140625,6.583174228668213,-6.185479164123535,3.800218105316162
1781033909367987200,8.2459873046875,6.747168064117432,-6.123330116271973,3.6084001064300537
1781033909387501800,8.265501708984376,6.927342891693115,-6.050561904907227,3.382690906524658
1781033909407015200,8.28501513671875,7.121932029724121,-5.965590000152588,3.1192638874053955
1781033909426530600,8.304530517578126,7.32119607925415,-5.869207859039307,2.8270978927612305
1781033909446046000,8.3240458984375,7.32119607925415,-5.869207859039307,2.8270978927612305
1781033909465558300,8.343558349609374,7.683353900909424,-5.680703163146973,2.176158905029297
1781033909485071000,8.363071044921876,7.683353900909424,-5.680703163146973,2.176158905029297
1781033909504583400,8.38258349609375,7.828250885009766,-5.601034164428711,1.8403539657592773
1781033909524100400,8.402100341796874,8.019126892089844,-5.497901916503906,1.2274669408798218
1781033909543620900,8.421620849609376,8.019126892089844,-5.497901916503906,1.2274669408798218
1781033909563135500,8.441135498046876,8.019126892089844,-5.497901916503906,1.2274669408798218
1781033909582646000,8.46064599609375,8.102476119995117,-5.463547229766846,0.7345359921455383
1781033909602156000,8.480156005859374,8.121176719665527,-5.4594011306762695,0.5304780006408691
1781033909621669600,8.499669677734374,8.130279541015625,-5.460396766662598,0.3501479923725128
1781033909641189600,8.519189697265626,8.13111686706543,-5.466948986053467,0.1934020072221756
1781033909660707300,8.538707275390625,8.122298240661621,-5.483027935028076,0.06842800229787827
1781033909680218400,8.55821826171875,8.103838920593262,-5.51059103012085,-0.03424699977040291
1781033909699727000,8.57772705078125,8.071819305419922,-5.556446075439453,-0.10791900008916855
1781033909719240200,8.597240234375,8.029541969299316,-5.61643123626709,-0.14880099892616272
1781033909738756600,8.616756591796875,7.975995063781738,-5.692048072814941,-0.15519799292087555
1781033909758271000,8.63627099609375,7.912169933319092,-5.7811150550842285,-0.12754100561141968
1781033909777787600,8.65578759765625,7.842733860015869,-5.876021862030029,-0.0624609999358654
1781033909797311200,8.675311279296874,7.769278049468994,-5.972989082336426,0.041467998176813126
1781033909816832500,8.69483251953125,7.694866180419922,-6.0657148361206055,0.19007299840450287
1781033909836349200,8.71434912109375,7.617548942565918,-6.153570175170898,0.382766991853714
1781033909855864800,8.73386474609375,7.53313684463501,-6.237587928771973,0.619940996170044
1781033909875381800,8.7533818359375,7.436561107635498,-6.319194793701172,0.8974019885063171
1781033909894894800,8.772894775390625,7.3219218254089355,-6.402094841003418,1.2011029720306396
1781033909914406700,8.79240673828125,7.190942764282227,-6.485472202301025,1.5063120126724243
1781033909933921500,8.811921630859375,7.046156883239746,-6.568657875061035,1.8012210130691528
1781033909953433900,8.831433837890625,6.88504695892334,-6.655869007110596,2.0821950435638428
1781033909972944000,8.85094384765625,6.709465980529785,-6.7444682121276855,2.3527019023895264
1781033909992456700,8.870456787109376,6.52229118347168,-6.832190990447998,2.6116809844970703
1781033910011974400,8.889974365234375,6.329494953155518,-6.914216041564941,2.8585140705108643
1781033910031492900,8.909492919921876,6.134953022003174,-6.988852024078369,3.091649055480957
1781033910051010000,8.929010009765625,5.948840141296387,-7.047008037567139,3.315263032913208
1781033910070527500,8.948527587890625,5.7766852378845215,-7.08537483215332,3.530911922454834
1781033910090047500,8.968047607421875,5.620079040527344,-7.107637882232666,3.7331199645996094
1781033910109563600,8.987563720703125,5.4843549728393555,-7.109971046447754,3.9255759716033936
1781033910129078000,9.007078125,5.360695838928223,-7.095564842224121,4.117753982543945
1781033910148598000,9.026597900390625,5.25179386138916,-7.067986965179443,4.301421165466309
1781033910168119800,9.046119873046875,5.149275779724121,-7.035353183746338,4.475348949432373
1781033910187641900,9.065641845703125,5.053456783294678,-6.998202800750732,4.639799118041992
1781033910207163600,9.08516357421875,4.96605110168457,-6.956634998321533,4.79411506652832
1781033910226680000,9.10468017578125,4.883607864379883,-6.916637897491455,4.934622764587402
1781033910246194700,9.124194580078125,4.807577133178711,-6.88276481628418,5.055170059204102
1781033910265714400,9.14371435546875,4.807577133178711,-6.88276481628418,5.055170059204102
1781033910285234700,9.163234619140624,4.735743999481201,-6.8501458168029785,5.1660637855529785
1781033910304750300,9.182750244140625,4.6730828285217285,-6.817799091339111,5.264967918395996
1781033910324266000,9.202265869140625,4.627460956573486,-6.783240795135498,5.349225997924805
1781033910343782400,9.221782470703126,4.627460956573486,-6.783240795135498,5.349225997924805
1781033910363298800,9.241298828125,4.609780788421631,-6.713396072387695,5.451624870300293
1781033910382813700,9.260813720703124,4.633926868438721,-6.674285888671875,5.479107856750488
1781033910402328300,9.280328369140625,4.6741042137146,-6.63261604309082,5.495556831359863
1781033910421842400,9.299842529296875,4.727585792541504,-6.591404914855957,5.499392986297607
1781033910441357300,9.319357421875,4.791006088256836,-6.556737899780273,5.485931873321533
1781033910460872400,9.33887255859375,4.8607330322265625,-6.526604175567627,5.460465908050537
1781033910480384000,9.358384033203125,4.940183162689209,-6.504148960113525,5.415775775909424
1781033910499899400,9.3778994140625,5.03730583190918,-6.491495132446289,5.340977191925049
1781033910519421200,9.397421142578125,5.150284767150879,-6.487213134765625,5.237424850463867
1781033910538938000,9.416938232421876,5.280779838562012,-6.491335868835449,5.100580215454102
1781033910558450000,9.436449951171875,5.4301371574401855,-6.493950843811035,4.937833786010742
1781033910577963300,9.45596337890625,5.597384929656982,-6.491835117340088,4.750300884246826
1781033910597476900,9.475476806640625,5.7810869216918945,-6.481932163238525,4.539115905761719
1781033910616988000,9.49498779296875,5.975096225738525,-6.461906909942627,4.310682773590088
1781033910636499000,9.5144990234375,6.179413795471191,-6.431406021118164,4.061016082763672
1781033910656011300,9.53401123046875,6.381221771240234,-6.390504837036133,3.8054490089416504
1781033910675522000,9.55352197265625,6.567224025726318,-6.349974155426025,3.548151969909668
1781033910695033600,9.57303369140625,6.737326145172119,-6.307435035705566,3.296165943145752
1781033910714543000,9.592543212890625,6.886099815368652,-6.272366046905518,3.046154022216797
1781033910753559800,9.631559814453125,7.138597011566162,-6.22858190536499,2.5070300102233887
1781033910773067000,9.65106689453125,7.247570991516113,-6.215425968170166,2.209341049194336
1781033910792575500,9.670575439453126,7.345855236053467,-6.202300071716309,1.8999719619750977
1781033910812089000,9.690089111328126,7.4253082275390625,-6.194102764129639,1.5930750370025635
1781033910831604200,9.709604248046874,7.4953107833862305,-6.177496910095215,1.3033959865570068
1781033910851118800,9.729118896484374,7.558176040649414,-6.149046897888184,1.0503309965133667
1781033910870630000,9.7486298828125,7.6108832359313965,-6.116404056549072,0.8390690088272095
1781033910890143000,9.76814306640625,7.653461933135986,-6.083934783935547,0.6709970235824585
1781033910909660000,9.787659912109374,7.686944007873535,-6.054725170135498,0.5396159887313843
1781033910929177300,9.80717724609375,7.711164951324463,-6.030673027038574,0.4570629894733429
1781033910948696600,9.826696533203124,7.722696781158447,-6.01862907409668,0.41957199573516846
1781033910968212700,9.846212646484375,7.71950101852417,-6.022336006164551,0.42517200112342834
1781033910987725600,9.8657255859375,7.701672077178955,-6.041312217712402,0.4762229919433594
1781033911007243800,9.885243896484376,7.66594123840332,-6.0777177810668945,0.5785229802131653
1781033911026764800,9.904764892578125,7.614451885223389,-6.124818801879883,0.739395022392273
1781033911046286300,9.924286376953125,7.548770904541016,-6.179248809814453,0.9343100190162659
1781033911065811200,9.943811279296876,7.466679096221924,-6.239974021911621,1.1625030040740967
1781033911085333200,9.963333251953125,7.365499019622803,-6.3049750328063965,1.4271349906921387
1781033911104849400,9.982849365234374,7.24640417098999,-6.368628025054932,1.7234289646148682
1781033911124371000,10.002370849609376,7.24640417098999,-6.368628025054932,1.7234289646148682
1781033911143895800,10.021895751953124,6.961420059204102,-6.469795227050781,2.3917300701141357
1781033911163416800,10.041416748046874,6.961420059204102,-6.469795227050781,2.3917300701141357
1781033911182934500,10.0609345703125,6.7959089279174805,-6.507627964019775,2.7397820949554443
1781033911202454300,10.080454345703124,6.61423921585083,-6.5399041175842285,3.085689067840576
1781033911221976800,10.099976806640624,6.416888236999512,-6.571710109710693,3.4170401096343994
1781033911241495300,10.119495361328125,6.206479072570801,-6.60580587387085,3.725980043411255
1781033911261013000,10.139012939453124,5.9983110427856445,-6.644830226898193,3.9882938861846924
1781033911280536600,10.15853662109375,5.806433200836182,-6.6848649978637695,4.199751853942871
1781033911300057000,10.17805712890625,5.638130187988281,-6.721707820892334,4.366936206817627
1781033911319574300,10.19757421875,5.4980669021606445,-6.7482171058654785,4.502534866333008
1781033911339096300,10.217096435546875,5.38357400894165,-6.75962495803833,4.62218713760376
1781033911358619600,10.23661962890625,5.293872833251953,-6.7507429122924805,4.737337112426758
1781033911378136600,10.256136474609375,5.216010093688965,-6.720016956329346,4.865654945373535
1781033911397651700,10.275651611328126,5.1476922035217285,-6.671720027923584,5.002941131591797
1781033911417168000,10.29516796875,5.088149070739746,-6.611950874328613,5.141287803649902
1781033911436684800,10.314684814453125,5.033935070037842,-6.551898002624512,5.269925117492676
1781033911456201000,10.334200927734376,4.992403984069824,-6.496425151824951,5.377020835876465
1781033911475719400,10.353719482421875,4.966742992401123,-6.450140953063965,5.455925941467285
1781033911495242000,10.373241943359375,4.958427906036377,-6.413434982299805,5.506526947021484
1781033911514759400,10.392759521484376,4.9595160484313965,-6.385838985443115,5.537529945373535
1781033911534271500,10.412271484375,4.962302207946777,-6.365524768829346,5.55838680267334
1781033911553785300,10.431785400390625,4.968557834625244,-6.350998878479004,5.56940221786499
1781033911573296400,10.45129638671875,4.977966785430908,-6.343110084533691,5.569989204406738
1781033911592804600,10.4708046875,4.991908073425293,-6.338019847869873,5.5633039474487305
1781033911612323000,10.490322998046874,5.013595104217529,-6.33296012878418,5.54954719543457
1781033911631842000,10.509842041015625,5.0458550453186035,-6.328639030456543,5.525184154510498
1781033911651357400,10.529357421875,5.092412948608398,-6.3245320320129395,5.487040042877197
1781033911670874400,10.548874267578125,5.160050868988037,-6.314912796020508,5.434678077697754
1781033911690390500,10.568390625,5.251314163208008,-6.299497127532959,5.364700794219971
1781033911709909500,10.587909423828124,5.367979049682617,-6.284040927886963,5.26646089553833
1781033911729427700,10.607427734375,5.507641792297363,-6.275144100189209,5.131124973297119
1781033911748944000,10.62694384765625,5.671913146972656,-6.274715900421143,4.949477195739746
1781033911768461000,10.6464609375,5.8559370040893555,-6.28053617477417,4.722589015960693
1781033911787978000,10.66597802734375,6.055165767669678,-6.289842128753662,4.4511637687683105
1781033911807492600,10.68549267578125,6.27414083480835,-6.289507865905762,4.137299060821533
1781033911827007500,10.705007568359376,6.514153957366943,-6.264395236968994,3.789875030517578
1781033911846525000,10.72452490234375,6.774034023284912,-6.204036235809326,3.415024995803833
1781033911866039600,10.74403955078125,7.045028209686279,-6.101109981536865,3.0305159091949463
1781033911885554000,10.763553955078125,7.311729907989502,-5.966568946838379,2.6417150497436523
1781033911905069300,10.7830693359375,7.311729907989502,-5.966568946838379,2.6417150497436523
1781033911924587000,10.8025869140625,7.553703784942627,-5.820393085479736,2.259330987930298
1781033911944105700,10.822105712890625,7.920191764831543,-5.5646891593933105,1.531270980834961
1781033911963619800,10.841619873046875,7.920191764831543,-5.5646891593933105,1.531270980834961
1781033911983129600,10.861129638671875,7.920191764831543,-5.5646891593933105,1.531270980834961
1781033912002643000,10.880642822265624,8.103769302368164,-5.439867973327637,0.881335973739624
1781033912022156500,10.900156494140624,8.147409439086914,-5.4151458740234375,0.579584002494812
1781033912041670000,10.919669921875,8.176495552062988,-5.394577980041504,0.2888610064983368
1781033912061184000,10.93918408203125,8.193154335021973,-5.3769612312316895,0.02269900031387806
1781033912080692200,10.958692138671875,8.200895309448242,-5.361058235168457,-0.210657998919487
1781033912100201700,10.97820166015625,8.201089859008789,-5.348629951477051,-0.41748398542404175
1781033912119717600,10.997717529296875,8.195049285888672,-5.34113883972168,-0.5944759845733643
1781033912139232300,11.017232177734375,8.1834077835083,-5.340607166290283,-0.7414399981498718
1781033912158743800,11.036743896484374,8.168493270874023,-5.347536087036133,-0.8482739925384521
1781033912178258400,11.056258544921874,8.14519214630127,-5.372537136077881,-0.9119629859924316
1781033912197775000,11.075775146484375,8.117507934570312,-5.4114460945129395,-0.9286149740219116
1781033912217290000,11.0952900390625,8.080958366394043,-5.471642971038818,-0.8939899802207947
1781033912236802800,11.114802734375,8.030508041381836,-5.55919885635376,-0.8038910031318665
1781033912256317200,11.134317138671875,7.965199947357178,-5.671166896820068,-0.6583750247955322
1781033912275834400,11.15383447265625,7.87955904006958,-5.807823181152344,-0.4708839952945709
1781033912295352300,11.173352294921875,7.776631832122803,-5.958474159240723,-0.2461239993572235
1781033912314873600,11.19287353515625,7.652976989746094,-6.121394157409668,0.021654000505805016
1781033912334390000,11.21239013671875,7.512659072875977,-6.283662796020508,0.3398909866809845
1781033912353903600,11.231903564453125,7.359373092651367,-6.431947231292725,0.7139220237731934
1781033912373422000,11.251422119140624,7.191830158233643,-6.559134006500244,1.1381289958953857
1781033912392938800,11.270938720703125,7.0121750831604,-6.656091213226318,1.601822018623352
1781033912412453400,11.290453369140625,6.815913200378418,-6.727819919586182,2.078402042388916
1781033912431963000,11.309962890625,6.5961198806762695,-6.786752223968506,2.5438520908355713
1781033912451470600,11.329470703125,6.356052875518799,-6.839417934417725,2.9770689010620117
1781033912470985000,11.34898486328125,6.1030192375183105,-6.893834114074707,3.3568150997161865
1781033912490502700,11.368502685546876,5.849799156188965,-6.9475908279418945,3.681144952774048
1781033912510015200,11.38801513671875,5.610702991485596,-6.9923481941223145,3.9581611156463623
1781033912529529600,11.407529541015625,5.391504764556885,-7.016833782196045,4.2113800048828125
1781033912549048300,11.42704833984375,5.196503162384033,-7.013836860656738,4.454485893249512
1781033912568564200,11.446564208984375,5.022754192352295,-6.988656044006348,4.68728494644165
1781033912588078000,11.466078125,4.870114803314209,-6.94697380065918,4.90525484085083
1781033912607590400,11.48559033203125,4.738329887390137,-6.897244930267334,5.10060977935791
1781033912627104300,11.505104248046875,4.625513076782227,-6.8484787940979,5.267158031463623
1781033912646622000,11.5246220703125,4.536046028137207,-6.808743000030518,5.394933223724365
1781033912666139100,11.54413916015625,4.469696044921875,-6.777181148529053,5.489229202270508
1781033912685655600,11.563655517578125,4.469696044921875,-6.777181148529053,5.489229202270508
1781033912705173500,11.583173583984374,4.4289231300354,-6.749203205108643,5.556337833404541
1781033912724689700,11.602689697265625,4.408369064331055,-6.6822590827941895,5.652759075164795
1781033912744208000,11.622207763671875,4.408369064331055,-6.6822590827941895,5.652759075164795
1781033912763730000,11.64172998046875,4.431739807128906,-6.600480079650879,5.730037212371826
1781033912783248400,11.661248291015625,4.431739807128906,-6.600480079650879,5.730037212371826
1781033912802763500,11.680763427734375,4.456085205078125,-6.559733867645264,5.757881164550781
1781033912822282800,11.70028271484375,4.491143226623535,-6.521736145019531,5.773784160614014
1781033912841805300,11.719805419921874,4.535812854766846,-6.4885478019714355,5.7762579917907715
1781033912861322800,11.73932275390625,4.590704917907715,-6.460958003997803,5.763804912567139
1781033912880841500,11.758841552734374,4.654784202575684,-6.437130928039551,5.739017009735107
1781033912900364500,11.778364501953124,4.730223178863525,-6.422786235809326,5.69322395324707
1781033912919880400,11.79788037109375,4.822248935699463,-6.416553974151611,5.622611045837402
1781033912939390700,11.817390625,4.931333065032959,-6.4243621826171875,5.518107891082764
1781033912958905300,11.8369052734375,5.057651996612549,-6.446090221405029,5.376623153686523
1781033912978421200,11.856421142578125,5.200222015380859,-6.481123924255371,5.19545316696167
1781033912997943300,11.875943359375,5.355961799621582,-6.527585029602051,4.974363803863525
1781033913017467000,11.895466796875,5.51837682723999,-6.577445030212402,4.7249040603637695
1781033913036983000,11.914983154296875,5.686625957489014,-6.6179728507995605,4.46146821975708
1781033913056498200,11.934498291015625,5.860194206237793,-6.6407928466796875,4.19499397277832
1781033913076014000,11.95401416015625,6.042090892791748,-6.641438961029053,3.92739200592041
1781033913095532300,11.9735322265625,6.235858917236328,-6.620427131652832,3.6502039432525635
1781033913115053000,11.993052978515625,6.441086769104004,-6.584314823150635,3.3465189933776855
1781033913134572000,12.012572021484376,6.652682781219482,-6.542444229125977,2.996367931365967
1781033913154088200,12.032088134765624,6.859571933746338,-6.502169132232666,2.5899930000305176
1781033913173605400,12.05160546875,7.047821044921875,-6.467507839202881,2.1306231021881104
1781033913193125000,12.071125,7.203060150146484,-6.436882019042969,1.6499910354614258
1781033913212642300,12.090642333984375,7.3120808601379395,-6.415013790130615,1.192078948020935
1781033913232159700,12.11015966796875,7.3801069259643555,-6.399853229522705,0.7847849726676941
1781033913251675400,12.12967529296875,7.415486812591553,-6.391214847564697,0.45046401023864746
1781033913271191300,12.14919140625,7.4302592277526855,-6.387366771697998,0.18104200065135956
1781033913290712600,12.168712646484375,7.431413173675537,-6.38855504989624,-0.021438999101519585
1781033913310232300,12.188232421875,7.421228885650635,-6.397838115692139,-0.1816750019788742
1781033913329748500,12.20774853515625,7.4065351486206055,-6.409348964691162,-0.3216579854488373
1781033913349265000,12.227264892578125,7.387829780578613,-6.4245171546936035,-0.4307520091533661
1781033913368780500,12.246780517578125,7.368312835693359,-6.4403557777404785,-0.5194069743156433
1781033913388293400,12.26629345703125,7.344359874725342,-6.464249134063721,-0.560234010219574
1781033913407808300,12.285808349609376,7.318260192871094,-6.495308876037598,-0.5422419905662537
1781033913427323100,12.3053232421875,7.296823024749756,-6.525467872619629,-0.46328699588775635
1781033913446837800,12.324837646484376,7.275763034820557,-6.557375907897949,-0.3226020038127899
1781033913466354200,12.344354248046875,7.255536079406738,-6.586299896240234,-0.13358399271965027
1781033913485870600,12.36387060546875,7.255536079406738,-6.586299896240234,-0.13358399271965027
1781033913505379600,12.383379638671874,7.236426830291748,-6.607952117919922,0.09531600028276443
1781033913524888000,12.40288818359375,7.221386909484863,-6.61549186706543,0.35611000657081604
1781033913544403500,12.422403564453125,7.208099842071533,-6.609186172485352,0.6340000033378601
1781033913563923200,12.441923095703125,7.166009902954102,-6.5729660987854,1.2183619737625122
1781033913583444500,12.461444580078124,7.166009902954102,-6.5729660987854,1.2183619737625122
1781033913602967800,12.4809677734375,7.166009902954102,-6.5729660987854,1.2183619737625122
1781033913622485800,12.50048583984375,7.072047233581543,-6.5312581062316895,1.8354289531707764
1781033913641999400,12.519999267578125,6.993124961853027,-6.5204668045043945,2.1493499279022217
1781033913661512700,12.5395126953125,6.89064884185791,-6.518799781799316,2.462559938430786
1781033913681026000,12.559026123046875,6.764304161071777,-6.525475025177002,2.7753119468688965
1781033913700539600,12.57853955078125,6.615824222564697,-6.538296222686768,3.085700035095215
1781033913720053000,12.598052978515625,6.456246852874756,-6.5499420166015625,3.384542942047119
1781033913739561000,12.61756103515625,6.292020797729492,-6.559783935546875,3.6632909774780273
1781033913759069200,12.637069091796874,6.129631042480469,-6.565176010131836,3.9199581146240234
1781033913778585000,12.656585205078125,5.979413032531738,-6.5610527992248535,4.152010917663574
1781033913798102300,12.676102294921876,5.849349021911621,-6.541783809661865,4.362360000610352
1781033913817617200,12.6956171875,5.7398529052734375,-6.508431911468506,4.553503036499023
1781033913837130800,12.715130859375,5.649954795837402,-6.462738990783691,4.727684020996094
1781033913856647700,12.734647705078125,5.576401233673096,-6.408267021179199,4.886496067047119
1781033913876160000,12.754159912109374,5.515810012817383,-6.3495941162109375,5.029758930206299
1781033913895668000,12.77366796875,5.465619087219238,-6.291749000549316,5.155665874481201
1781033913915172400,12.79317236328125,5.418497085571289,-6.244329929351807,5.261960983276367
1781033913934673700,12.812673583984376,5.376190185546875,-6.207880973815918,5.347784996032715
1781033913954178600,12.832178466796876,5.338922023773193,-6.181719779968262,5.415002822875977
1781033913973689900,12.85168994140625,5.305002212524414,-6.161101818084717,5.471541881561279
1781033913993198800,12.87119873046875,5.2750349044799805,-6.143805980682373,5.519750118255615
1781033914012709600,12.890709716796875,5.248833179473877,-6.131007194519043,5.558821201324463
1781033914032226600,12.9102265625,5.233891010284424,-6.121153831481934,5.583713054656982
1781033914051743700,12.92974365234375,5.232423782348633,-6.110319137573242,5.596940994262695
1781033914071260400,12.949260498046876,5.246150970458984,-6.1009721755981445,5.594285011291504
1781033914090772500,12.9687724609375,5.268576145172119,-6.090620040893555,5.5844807624816895
1781033914110285800,12.988285888671875,5.290900230407715,-6.086060047149658,5.568324089050293
1781033914129804000,13.007803955078124,5.308885097503662,-6.086692810058594,5.550487041473389
1781033914149322800,13.02732275390625,5.324260234832764,-6.089734077453613,5.532394886016846
1781033914168840200,13.046840087890626,5.342435836791992,-6.100933074951172,5.5024518966674805
1781033914188360200,13.066360107421875,5.375969886779785,-6.119708061218262,5.448678970336914
1781033914207880200,13.085880126953125,5.437303066253662,-6.152255058288574,5.350276947021484
1781033914227394300,13.105394287109375,5.535195827484131,-6.195797920227051,5.197470188140869
1781033914246910200,13.12491015625,5.669568061828613,-6.2446208000183105,4.990060806274414
1781033914266433300,13.144433349609375,5.838894844055176,-6.290211200714111,4.730807781219482
1781033914285956600,13.16395654296875,6.03734016418457,-6.321191787719727,4.430919170379639
1781033914305475300,13.183475341796875,6.03734016418457,-6.321191787719727,4.430919170379639
1781033914324993500,13.20299365234375,6.4785380363464355,-6.314650058746338,3.767453908920288
1781033914344515000,13.22251513671875,6.4785380363464355,-6.314650058746338,3.767453908920288
1781033914364034600,13.24203466796875,6.9191508293151855,-6.218846797943115,3.0807929039001465
1781033914383555300,13.261555419921875,6.9191508293151855,-6.218846797943115,3.0807929039001465
1781033914403081000,13.2810810546875,6.9191508293151855,-6.218846797943115,3.0807929039001465
1781033914422602200,13.300602294921875,7.28451681137085,-6.101146221160889,2.3982949256896973
1781033914442118000,13.320117919921875,7.419227123260498,-6.061511039733887,2.0623159408569336
1781033914461633000,13.339633056640626,7.517383098602295,-6.041147232055664,1.741690993309021
1781033914481150000,13.35914990234375,7.593654155731201,-6.026902198791504,1.4327770471572876
1781033914500665900,13.378665771484375,7.645324230194092,-6.021656036376953,1.1526789665222168
1781033914520183300,13.398183349609376,7.683004856109619,-6.018009185791016,0.8916270136833191
1781033914539698700,13.41769873046875,7.7088541984558105,-6.0149431228637695,0.658810019493103
1781033914559214000,13.437214111328124,7.724088191986084,-6.014276027679443,0.4549280107021332
1781033914578727400,13.4567275390625,7.729172229766846,-6.018487930297852,0.2787249982357025
1781033914598240500,13.476240478515624,7.72727108001709,-6.025883197784424,0.13420499861240387
1781033914617758200,13.49575830078125,7.720783233642578,-6.035656929016113,0.018800999969244003
1781033914637277200,13.515277099609374,7.702550888061523,-6.0586628913879395,-0.05744900181889534
1781033914676313300,13.554313232421874,7.631545066833496,-6.1476359367370605,-0.07791599631309509
1781033914695830300,13.573830322265625,7.5761542320251465,-6.216254234313965,-0.008516999892890453
1781033914715349800,13.593349853515624,7.509799957275391,-6.2952728271484375,0.11149799823760986
1781033914734865000,13.612864990234375,7.432876110076904,-6.380198001861572,0.29225900769233704
1781033914754375200,13.632375244140626,7.345274925231934,-6.466530799865723,0.5204809904098511
1781033914773885700,13.6518857421875,7.23761510848999,-6.5585761070251465,0.8012539744377136
1781033914793395500,13.6713955078125,7.112649917602539,-6.645853042602539,1.1326329708099365
1781033914812904000,13.690904052734375,6.965762138366699,-6.7238030433654785,1.519415020942688
1781033914832415500,13.71041552734375,6.794885158538818,-6.7848639488220215,1.9583549499511719
1781033914851929300,13.729929443359374,6.5988287925720215,-6.828494071960449,2.4222090244293213
1781033914871440000,13.74943994140625,6.380521774291992,-6.8577141761779785,2.881092071533203
1781033914890947000,13.768947021484376,6.147585868835449,-6.877729892730713,3.3081729412078857
1781033914910456300,13.788456298828125,5.908483982086182,-6.896964073181152,3.682621955871582
1781033914929971200,13.80797119140625,5.672008991241455,-6.921121120452881,3.995795965194702
1781033914949483300,13.827483154296875,5.452555179595947,-6.947084903717041,4.248251914978027
1781033914968993800,13.846993896484374,5.248252868652344,-6.9740118980407715,4.456343173980713
1781033914988505000,13.866505126953125,5.054058074951172,-6.997653961181641,4.639970779418945
1781033915008014600,13.8860146484375,4.870670795440674,-7.011200904846191,4.812442779541016
1781033915027523000,13.905523193359375,4.693268775939941,-7.011851787567139,4.984690189361572
1781033915047026400,13.9250263671875,4.520206928253174,-6.9970550537109375,5.162261962890625
1781033915066528300,13.9445283203125,4.345783233642578,-6.973147869110107,5.34128999710083
1781033915086041900,13.964041748046874,4.345783233642578,-6.973147869110107,5.34128999710083
1781033915105553200,13.98355322265625,4.058016777038574,-6.912898063659668,5.637757778167725
1781033915125057800,14.003057861328125,4.058016777038574,-6.912898063659668,5.637757778167725
1781033915144564700,14.022564697265626,3.9593420028686523,-6.876577854156494,5.751197814941406
1781033915164066800,14.04206689453125,3.863389015197754,-6.806388854980469,5.898074150085449
1781033915183570200,14.061570068359375,3.863389015197754,-6.806388854980469,5.898074150085449
1781033915203078400,14.081078369140625,3.863389015197754,-6.806388854980469,5.898074150085449
1781033915222589700,14.100589599609375,3.869718074798584,-6.753936767578125,5.9539570808410645
1781033915242103800,14.120103759765625,3.886889934539795,-6.728396892547607,5.971662998199463
1781033915261615400,14.139615478515625,3.9144771099090576,-6.7051801681518555,5.979750156402588
1781033915281123000,14.159123046875,3.9542500972747803,-6.682005882263184,5.979523181915283
1781033915300635400,14.178635498046875,4.004201889038086,-6.658586025238037,5.972402095794678
1781033915320149200,14.198149169921875,4.066563129425049,-6.6333160400390625,5.958371162414551
1781033915339660800,14.217660888671874,4.143171787261963,-6.610608100891113,5.930765151977539
1781033915359176200,14.23717626953125,4.232452869415283,-6.595648765563965,5.8841938972473145
1781033915378690600,14.256690673828125,4.333621025085449,-6.5895538330078125,5.817001819610596
1781033915398205400,14.276205322265625,4.446364879608154,-6.599974155426025,5.719279766082764
1781033915417722400,14.295722412109376,4.57564115524292,-6.625553131103516,5.586193084716797
1781033915437236200,14.315236328125,4.721378803253174,-6.666514873504639,5.413516998291016
1781033915456747800,14.334747802734375,4.883899211883545,-6.714015960693359,5.206679821014404
1781033915476258800,14.3542587890625,5.0604119300842285,-6.754579067230225,4.980751991271973
1781033915495768300,14.373768310546875,5.249689102172852,-6.782200813293457,4.74157190322876
1781033915515281400,14.393281494140625,5.448709964752197,-6.78931188583374,4.500755786895752
1781033915534792200,14.412792236328125,5.655412197113037,-6.77542781829834,4.260268211364746
1781033915554304000,14.432303955078124,5.877474784851074,-6.743464946746826,4.002616882324219
1781033915573820400,14.4518203125,6.117000102996826,-6.692429065704346,3.719367027282715
1781033915593330000,14.471329833984376,6.376482963562012,-6.627370834350586,3.3850290775299072
1781033915612840000,14.49083984375,6.648979187011719,-6.5462541580200195,2.9962689876556396
1781033915632352300,14.510352294921875,6.920216083526611,-6.450829982757568,2.556830883026123
1781033915651864800,14.52986474609375,7.169312953948975,-6.350677967071533,2.07600998878479
1781033915671379700,14.549379638671875,7.379699230194092,-6.250400066375732,1.5850919485092163
1781033915690896000,14.568895751953125,7.530815124511719,-6.167439937591553,1.1355570554733276
1781033915710410200,14.58841015625,7.629703044891357,-6.104536056518555,0.7498480081558228
1781033915729923300,14.60792333984375,7.684869766235352,-6.065974235534668,0.4321439862251282
1781033915749434400,14.627434326171874,7.709701061248779,-6.04693078994751,0.18741099536418915
1781033915768947500,14.646947509765624,7.718092918395996,-6.039091110229492,0.02027600072324276
1781033915788462600,14.666462646484375,7.714921951293945,-6.042612075805664,-0.08252400159835815
1781033915807975700,14.6859755859375,7.707931041717529,-6.049982070922852,-0.15969499945640564
1781033915827490000,14.705489990234375,7.693241119384766,-6.067340850830078,-0.20346599817276
1781033915847006500,14.72500634765625,7.667352199554443,-6.099480152130127,-0.2191769927740097
1781033915866516200,14.74451611328125,7.6300048828125,-6.146336078643799,-0.213468998670578
1781033915886022400,14.7640224609375,7.6300048828125,-6.146336078643799,-0.213468998670578
1781033915905532700,14.78353271484375,7.527587890625,-6.273949146270752,-0.11391200125217438
1781033915925049300,14.80304931640625,7.465191841125488,-6.349082946777344,0.00828699953854084
1781033915944566800,14.82256689453125,7.465191841125488,-6.349082946777344,0.00828699953854084
1781033915964085200,14.842085205078124,7.465191841125488,-6.349082946777344,0.00828699953854084
1781033915983602000,14.861601806640625,7.308594226837158,-6.514639854431152,0.42886799573898315
1781033916003109000,14.881109130859375,7.308594226837158,-6.514639854431152,0.42886799573898315
1781033916022616000,14.900615966796876,7.109635829925537,-6.656681060791016,1.0870529413223267
1781033916042131200,14.920131103515626,6.984868049621582,-6.712963104248047,1.4791029691696167
1781033916061647400,14.9396474609375,6.844333171844482,-6.754576206207275,1.8896570205688477
1781033916081160700,14.95916064453125,6.690633773803711,-6.780693054199219,2.301651954650879
1781033916100673300,14.97867333984375,6.525661945343018,-6.796419143676758,2.6952600479125977
1781033916120187100,14.998187255859374,6.353085041046143,-6.808129787445068,3.054121971130371
1781033916139701200,15.017701171875,6.179201126098633,-6.816381931304932,3.3755600452423096
1781033916159219700,15.0372197265625,6.003163814544678,-6.823060989379883,3.6671319007873535
1781033916178738200,15.05673828125,5.824221134185791,-6.82954216003418,3.9339280128479004
1781033916198248700,15.076248779296876,5.639498233795166,-6.832704067230225,4.189294815063477
1781033916217758500,15.095758544921875,5.44988489151001,-6.8300700187683105,4.4372172355651855
1781033916237270300,15.115270263671874,5.265721797943115,-6.819189071655273,4.6702070236206055
1781033916256781300,15.13478125,5.096072196960449,-6.794707775115967,4.8889641761779785
1781033916276290600,15.15429052734375,4.94783878326416,-6.7571258544921875,5.089216232299805
1781033916295802000,15.173802001953124,4.822027206420898,-6.705988883972168,5.274253845214844
1781033916315320300,15.1933203125,4.711002826690674,-6.645242214202881,5.448596954345703
1781033916334841000,15.212841064453125,4.609321117401123,-6.57770299911499,5.614977836608887
1781033916354354400,15.2323544921875,4.516756057739258,-6.51284122467041,5.763833999633789
1781033916373865200,15.251865234375,4.442347049713135,-6.458236217498779,5.881899833679199
1781033916393378300,15.27137841796875,4.393797874450684,-6.41464376449585,5.9654741287231445
1781033916412889900,15.290889892578125,4.3694329261779785,-6.385009765625,6.014955043792725
1781033916432398600,15.310398681640624,4.368109226226807,-6.368155002593994,6.033757209777832
1781033916451908400,15.329908447265625,4.390155792236328,-6.3581671714782715,6.028285026550293
1781033916471420000,15.349419921875,4.425295829772949,-6.346646785736084,6.014717102050781
1781033916490932700,15.3689326171875,4.462161064147949,-6.3373589515686035,5.997249126434326
1781033916510445000,15.388445068359376,4.492084980010986,-6.332797050476074,5.979702949523926
1781033916529954800,15.407954833984375,4.526503086090088,-6.327999114990234,5.9587907791137695
1781033916549468000,15.427468017578125,4.576336860656738,-6.316839218139648,5.932509899139404
1781033916568984000,15.446984130859375,4.64331579208374,-6.301031112670898,5.897168159484863
1781033916588499200,15.466499267578126,4.727859020233154,-6.280602931976318,5.851612091064453
1781033916627522600,15.5055224609375,4.942875862121582,-6.21904993057251,5.738587856292725
1781033916647030800,15.52503076171875,5.061232089996338,-6.188755035400391,5.667736053466797
1781033916666538800,15.544538818359374,5.184529781341553,-6.1744771003723145,5.571037769317627
1781033916686048300,15.56404833984375,5.184529781341553,-6.1744771003723145,5.571037769317627
1781033916705561900,15.583561767578125,5.316219806671143,-6.17381477355957,5.446266174316406
1781033916725077500,15.603077392578125,5.6121978759765625,-6.198036193847656,5.111515045166016
1781033916744592400,15.62259228515625,5.6121978759765625,-6.198036193847656,5.111515045166016
1781033916764106500,15.6421064453125,5.9508957862854,-6.221587181091309,4.681737899780273
1781033916783620600,15.66162060546875,5.9508957862854,-6.221587181091309,4.681737899780273
1781033916803135700,15.6811357421875,5.9508957862854,-6.221587181091309,4.681737899780273
1781033916822650600,15.700650634765625,6.344058990478516,-6.2124528884887695,4.147087097167969
1781033916842168000,15.72016796875,6.5577898025512695,-6.193758964538574,3.8305020332336426
1781033916861687800,15.739687744140625,6.782670974731445,-6.1647257804870605,3.4686501026153564
1781033916881206800,15.759206787109376,7.01295280456543,-6.121737003326416,3.063138961791992
1781033916900723200,15.77872314453125,7.242402076721191,-6.060626029968262,2.6184749603271484
1781033916920238300,15.79823828125,7.458552837371826,-5.982028961181641,2.1506550312042236
1781033916939753500,15.81775341796875,7.648653030395508,-5.894991874694824,1.6694799661636353
1781033916959268900,15.837268798828125,7.801613807678223,-5.806241035461426,1.2092909812927246
1781033916978780000,15.85677978515625,7.908656120300293,-5.730972766876221,0.8056750297546387
1781033916998286300,15.876286376953125,7.970241069793701,-5.682960033416748,0.4681999981403351
1781033917017796400,15.89579638671875,7.999302864074707,-5.6576948165893555,0.20401600003242493
1781033917037309200,15.91530908203125,8.007747650146484,-5.649407863616943,0.012498999945819378
1781033917056823800,15.93482373046875,8.005595207214355,-5.651401996612549,-0.11001099646091461
1781033917076342800,15.9543427734375,7.999486923217773,-5.6580119132995605,-0.1873590052127838
1781033917095863000,15.973863037109375,7.998583793640137,-5.657811164855957,-0.22763200104236603
1781033917115380200,15.993380126953125,7.998583793640137,-5.657811164855957,-0.22763200104236603
1781033917134893800,16.012893798828124,8.016942977905273,-5.631112098693848,-0.2433450073003769
1781033917154408000,16.032407958984376,8.021370887756348,-5.625429153442383,-0.2283950001001358
1781033917173919500,16.05191943359375,8.025188446044922,-5.621127128601074,-0.19818100333213806
1781033917193429800,16.0714296875,8.02859878540039,-5.6176838874816895,-0.15240100026130676
1781033917212944100,16.090944091796874,8.028183937072754,-5.619604110717773,-0.09116099774837494
1781033917232459300,16.110459228515627,8.025140762329102,-5.624673843383789,-0.012001999653875828
1781033917251971300,16.129971435546874,8.018494606018066,-5.633378982543945,0.0936020016670227
1781033917271481900,16.14948193359375,8.00830364227295,-5.643587112426758,0.23872700333595276
1781033917290994200,16.168994140625,7.98606014251709,-5.663486957550049,0.4332990050315857
1781033917310505000,16.1885048828125,7.947472095489502,-5.694157123565674,0.6739680171012878
1781033917330016000,16.20801611328125,7.894288063049316,-5.729333877563477,0.9460160136222839
1781033917349524700,16.227524658203127,7.823663234710693,-5.769989013671875,1.2399630546569824
1781033917369032200,16.2470322265625,7.739747047424316,-5.810053825378418,1.5425879955291748
1781033917388546600,16.266546630859374,7.6416521072387695,-5.852194786071777,1.8430830240249634
1781033917408062000,16.28606201171875,7.535321235656738,-5.893250942230225,2.1280319690704346
1781033917427574800,16.30557470703125,7.423931121826172,-5.931853771209717,2.395487070083618
1781033917447085300,16.325085205078125,7.308932781219482,-5.968679904937744,2.644680976867676
1781033917466595000,16.344594970703124,7.191978931427002,-6.002227783203125,2.8790090084075928
1781033917486110200,16.364110107421876,7.075508117675781,-6.033113956451416,3.0949509143829346
1781033917505624800,16.383624755859376,6.9641499519348145,-6.057283878326416,3.2939229011535645
1781033917525140200,16.40314013671875,6.861475944519043,-6.070528030395508,3.4797780513763428
1781033917544653000,16.422653076171876,6.769668102264404,-6.071545124053955,3.653480052947998
1781033917564167200,16.442167236328125,6.769668102264404,-6.071545124053955,3.653480052947998
1781033917583682300,16.461682373046877,6.769668102264404,-6.071545124053955,3.653480052947998
1781033917603195000,16.48119482421875,6.6311798095703125,-6.022256851196289,3.974905014038086
1781033917622708500,16.50070849609375,6.5781121253967285,-5.9794020652771,4.1249470710754395
1781033917642217700,16.5202177734375,6.53325080871582,-5.932229042053223,4.262074947357178
1781033917661725400,16.539725341796874,6.488876819610596,-5.890268802642822,4.386250972747803
1781033917681239600,16.559239501953126,6.442963123321533,-5.857736110687256,4.496125221252441
1781033917700758300,16.57875830078125,6.394962787628174,-5.84302282333374,4.582959175109863
1781033917720277200,16.59827734375,6.347780227661133,-5.844301223754883,4.646487236022949
1781033917739794000,16.6177939453125,6.3071818351745605,-5.854430198669434,4.688827037811279
1781033917759311400,16.637311279296874,6.274217128753662,-5.86810302734375,4.715884208679199
1781033917778829800,16.656829833984375,6.248917102813721,-5.882637023925781,4.731342792510986
1781033917798346000,16.676345947265624,6.229729175567627,-5.896032810211182,4.739963054656982
1781033917817857800,16.69585791015625,6.213834762573242,-5.903263092041016,4.751813888549805
1781033917837372400,16.715372314453123,6.2003889083862305,-5.90859317779541,4.762740135192871
1781033917856886300,16.73488623046875,6.189601898193359,-5.909640789031982,4.775454998016357
1781033917876401000,16.75440087890625,6.183094024658203,-5.909401893615723,4.784173011779785
1781033917895920000,16.773920166015625,6.185604095458984,-5.9064040184021,4.784628868103027
1781033917915433700,16.793433837890625,6.200911998748779,-5.9033589363098145,4.768545150756836
1781033917934950100,16.8129501953125,6.23054313659668,-5.9064788818359375,4.725868225097656
1781033917954473200,16.83247314453125,6.275528907775879,-5.914748191833496,4.6554789543151855
1781033917973989600,16.85198974609375,6.334709167480469,-5.93183708190918,4.552445888519287
1781033917993507000,16.871507080078125,6.407380104064941,-5.9541778564453125,4.419642925262451
1781033918013028600,16.891028564453126,6.494953155517578,-5.979416847229004,4.254662990570068
1781033918032543500,16.91054345703125,6.59615421295166,-6.003015995025635,4.061346054077148
1781033918052055800,16.930055908203126,6.709211826324463,-6.021186828613281,3.8434081077575684
1781033918071574000,16.949573974609375,6.833893775939941,-6.033836841583252,3.5959270000457764
1781033918091092200,16.96909228515625,6.9683098793029785,-6.041121959686279,3.31473708152771
1781033918110604500,16.9886044921875,7.110297203063965,-6.0457048416137695,2.9888339042663574
1781033918130121000,17.008120849609377,7.252346038818359,-6.045309066772461,2.6263489723205566
1781033918149639000,17.027638916015626,7.388656139373779,-6.039095878601074,2.230936050415039
1781033918169159200,17.0471591796875,7.507228851318359,-6.031357765197754,1.8177560567855835
1781033918188676400,17.06667626953125,7.6044158935546875,-6.019522190093994,1.4064879417419434
1781033918208189000,17.08618896484375,7.679634094238281,-6.003864765167236,1.0083760023117065
1781033918227703800,17.105703857421876,7.732938766479492,-5.984607219696045,0.6527889966964722
1781033918247219700,17.1252197265625,7.768119812011719,-5.964806079864502,0.34264901280403137
1781033918266732800,17.14473291015625,7.78962516784668,-5.946011066436768,0.08178099989891052
1781033918286244600,17.16424462890625,7.806201934814453,-5.9233880043029785,-0.12907899916172028
1781033918305758700,17.1837587890625,7.806201934814453,-5.9233880043029785,-0.12907899916172028
1781033918325273000,17.203273193359376,7.827395915985107,-5.882543087005615,-0.4093390107154846
1781033918344787000,17.222786865234376,7.830445766448975,-5.871685981750488,-0.4974069893360138
1781033918364305200,17.24230517578125,7.830445766448975,-5.871685981750488,-0.4974069893360138
1781033918383823400,17.2618232421875,7.81487512588501,-5.8800048828125,-0.62711101770401
1781033918403335200,17.281335205078125,7.81487512588501,-5.8800048828125,-0.62711101770401
1781033918422846200,17.30084619140625,7.792470932006836,-5.905582904815674,-0.6644420027732849
1781033918442359000,17.320359130859377,7.761612892150879,-5.945993900299072,-0.6652190089225769
1781033918461868500,17.33986865234375,7.727996826171875,-5.993917942047119,-0.6253029704093933
1781033918481377000,17.359376953125,7.690022945404053,-6.051713943481445,-0.5294319987297058
1781033918500888600,17.378888671875,7.651800155639648,-6.111245155334473,-0.37766599655151367
1781033918520401000,17.39840087890625,7.608356952667236,-6.174612998962402,-0.1644439995288849
1781033918539911200,17.4179111328125,7.608356952667236,-6.174612998962402,-0.1644439995288849
1781033918569171000,17.4471708984375,7.512424945831299,-6.283638000488281,0.3455030024051666
1781033918578927900,17.456927978515626,7.453021049499512,-6.332324981689453,0.6277940273284912
1781033918598445600,17.476445556640623,7.386652946472168,-6.374866008758545,0.9156680107116699
1781033918617957600,17.49595751953125,7.308475017547607,-6.415628910064697,1.210737943649292
1781033918637467000,17.515466796875,7.220026016235352,-6.4525909423828125,1.5084079504013062
1781033918656979500,17.5349794921875,7.119435787200928,-6.486321926116943,1.8114219903945923
1781033918676492800,17.554492919921874,7.0086469650268555,-6.517098903656006,2.1086208820343018
1781033918696008000,17.574008056640626,6.890380859375,-6.543582916259766,2.396696090698242
1781033918715523800,17.59352392578125,6.768515110015869,-6.5650200843811035,2.6697769165039062
1781033918735036200,17.6130361328125,6.648425102233887,-6.583303928375244,2.9152278900146484
1781033918754547700,17.632547607421873,6.533782958984375,-6.5989089012146,3.1311440467834473
1781033918774062000,17.65206201171875,6.42918586730957,-6.612697124481201,3.313275098800659
1781033918793577700,17.67157763671875,6.336967945098877,-6.623398780822754,3.466038942337036
1781033918813097700,17.69109765625,6.264109134674072,-6.621510028839111,3.5995171070098877
1781033918832619000,17.710618896484377,6.210775852203369,-6.610156059265137,3.7110788822174072
1781033918852139500,17.730139404296875,6.163512229919434,-6.590507984161377,3.823129892349243
1781033918871658500,17.749658447265624,6.112785816192627,-6.5685038566589355,3.9406330585479736
1781033918891178800,17.7691787109375,6.054749965667725,-6.54260778427124,4.071153163909912
1781033918910695200,17.788695068359374,5.990694999694824,-6.517685890197754,4.20373010635376
1781033918930210600,17.80821044921875,5.9244818687438965,-6.5039520263671875,4.3173041343688965
1781033918949729500,17.8277294921875,5.861495018005371,-6.497613906860352,4.4117889404296875
1781033918969245400,17.847245361328124,5.814698219299316,-6.496510982513428,4.474885940551758
1781033918988757200,17.86675732421875,5.79085111618042,-6.493056774139404,4.51068115234375
1781033919008270800,17.886270751953123,5.799102783203125,-6.487421035766602,4.5081892013549805
1781033919027786500,17.905786376953124,5.835720062255859,-6.475182056427002,4.478435039520264
1781033919047300400,17.92530029296875,5.88469123840332,-6.4575982093811035,4.4395751953125
1781033919066813400,17.9448134765625,5.939310073852539,-6.434226989746094,4.400603771209717
1781033919086330000,17.964330078125,5.992508888244629,-6.407958984375,4.366678237915039
1781033919105850400,17.983850341796874,6.046878814697266,-6.378483772277832,4.334766864776611
1781033919125366500,18.003366455078126,6.092284202575684,-6.344766139984131,4.320648193359375
1781033919144880400,18.02288037109375,6.092284202575684,-6.344766139984131,4.320648193359375
1781033919164394200,18.042394287109374,6.1344499588012695,-6.312891960144043,4.3076581954956055
1781033919183909000,18.0619091796875,6.1344499588012695,-6.312891960144043,4.3076581954956055
1781033919203423500,18.081423583984375,6.230751991271973,-6.256659030914307,4.251111030578613
1781033919222938400,18.1009384765625,6.293155193328857,-6.233665943145752,4.192564964294434
1781033919242457000,18.12045703125,6.376540184020996,-6.213366985321045,4.095582962036133
1781033919261971500,18.139971435546876,6.486238956451416,-6.196697235107422,3.9458398818969727
1781033919281485600,18.159485595703124,6.6153669357299805,-6.177099227905273,3.757707118988037
1781033919301000000,18.179,6.757669925689697,-6.150867938995361,3.5412869453430176
1781033919320514000,18.19851416015625,6.91233491897583,-6.1147990226745605,3.296794891357422
1781033919340028200,18.218028076171876,7.077081203460693,-6.063114166259766,3.032088041305542
1781033919359542300,18.237542236328125,7.242390155792236,-5.999237060546875,2.7562549114227295
1781033919379054600,18.2570546875,7.403191089630127,-5.9256157875061035,2.4738268852233887
1781033919398562300,18.276562255859375,7.553897857666016,-5.845174789428711,2.193753957748413
1781033919418071000,18.296071044921874,7.686655044555664,-5.769208908081055,1.9161310195922852
1781033919437585400,18.31558544921875,7.798069953918457,-5.702156066894531,1.647887945175171
1781033919457100000,18.33510009765625,7.893606185913086,-5.645318031311035,1.3643139600753784
1781033919476612400,18.3546123046875,7.977367877960205,-5.5924072265625,1.061398983001709
1781033919496124200,18.374124267578125,8.046476364135742,-5.545186996459961,0.738315999507904
1781033919515634700,18.393634765625,8.100861549377441,-5.499835014343262,0.4096730053424835
1781033919535145000,18.41314501953125,8.14640998840332,-5.446478843688965,0.10902000218629837
1781033919554649900,18.43264990234375,8.182443618774414,-5.391364097595215,-0.14424000680446625
1781033919574152000,18.45215185546875,8.208529472351074,-5.34383487701416,-0.3216780126094818
1781033919593661000,18.471660888671874,8.225287437438965,-5.3101677894592285,-0.43216899037361145
1781033919613175300,18.49117529296875,8.23862075805664,-5.285501003265381,-0.4781239926815033
1781033919632686300,18.510686279296873,8.249589920043945,-5.268058776855469,-0.4814629852771759
1781033919652194000,18.530194091796876,8.258401870727539,-5.255011081695557,-0.47291299700737
1781033919671704800,18.549704833984375,8.262859344482422,-5.247908115386963,-0.4739300012588501
1781033919691217200,18.569217041015627,8.257588386535645,-5.255802154541016,-0.478302001953125
1781033919710730500,18.58873046875,8.237221717834473,-5.288071155548096,-0.47376298904418945
1781033919730244000,18.608244140625,8.203335762023926,-5.342206954956055,-0.4540010094642639
1781033919749754400,18.62775439453125,8.159116744995117,-5.414279937744141,-0.39288100600242615
1781033919769266200,18.64726611328125,8.106233596801758,-5.5001912117004395,-0.27724000811576843
1781033919788780300,18.6667802734375,8.050368309020996,-5.587339878082275,-0.11491400003433228
1781033919808293000,18.686293212890625,7.994516849517822,-5.667428970336914,0.08918000012636185
1781033919827801900,18.7058017578125,7.935779094696045,-5.740207195281982,0.3367590010166168
1781033919847308800,18.725308837890626,7.868100166320801,-5.809275150299072,0.6207450032234192
1781033919866821000,18.744821044921874,7.78517484664917,-5.881145000457764,0.9182509779930115
1781033919886337300,18.764337158203126,7.685676097869873,-5.95741605758667,1.2163770198822021
1781033919905849600,18.783849609375,7.685676097869873,-5.95741605758667,1.2163770198822021
1781033919925363700,18.80336376953125,7.4364237785339355,-6.120853900909424,1.8096250295639038
1781033919944878600,18.822878662109375,7.294756889343262,-6.201266765594482,2.090643882751465
1781033919964388600,18.842388671875,7.294756889343262,-6.201266765594482,2.090643882751465
1781033919983896300,18.861896240234376,6.994025230407715,-6.342240810394287,2.6267058849334717
1781033920003404300,18.881404296875,6.994025230407715,-6.342240810394287,2.6267058849334717
1781033920022914000,18.9009140625,6.842511177062988,-6.402638912200928,2.8681418895721436
1781033920042424600,18.920424560546873,6.694150924682617,-6.45639181137085,3.089231014251709
1781033920061933300,18.939933349609376,6.558537006378174,-6.495837211608887,3.290847063064575
1781033920081439700,18.959439697265626,6.438121795654297,-6.519437789916992,3.4767088890075684
1781033920100947200,18.978947265625,6.335571765899658,-6.528806209564209,3.643517017364502
1781033920120460500,18.99846044921875,6.247344017028809,-6.523890972137451,3.8012518882751465
1781033920139976200,19.01797607421875,6.170699119567871,-6.5081868171691895,3.9504361152648926
1781033920159490000,19.037489990234373,6.108001232147217,-6.48272705078125,4.08736515045166
1781033920179006200,19.057006103515626,6.058786869049072,-6.453207969665527,4.205615043640137
1781033920198520000,19.07652001953125,6.019874095916748,-6.426171779632568,4.301791191101074
1781033920218029300,19.096029296875,5.985972881317139,-6.408298969268799,4.375136852264404
1781033920237539000,19.1155390625,5.956602096557617,-6.401186943054199,4.4253458976745605
1781033920257048800,19.135048828125,5.933056831359863,-6.401546001434326,4.456347942352295
1781033920276559000,19.15455908203125,5.915425777435303,-6.404667854309082,4.475258827209473
1781033920296071400,19.174071533203126,5.906521797180176,-6.406886100769043,4.483838081359863
1781033920315582700,19.193582763671873,5.911604881286621,-6.401186943054199,4.4852800369262695
1781033920335093800,19.21309375,5.9324541091918945,-6.385959148406982,4.479453086853027
1781033920354607400,19.232607421875,5.965699195861816,-6.362790107727051,4.468256950378418
1781033920374122000,19.2521220703125,6.006534099578857,-6.334170818328857,4.454191207885742
1781033920393631700,19.2716318359375,6.0497589111328125,-6.3080339431762695,4.432733058929443
1781033920413141500,19.2911416015625,6.089348793029785,-6.291018009185791,4.402602195739746
1781033920432654000,19.310654052734375,6.12497615814209,-6.288663864135742,4.356301784515381
1781033920452164000,19.3301640625,6.169515132904053,-6.295454025268555,4.2830281257629395
1781033920471669000,19.3496689453125,6.2354559898376465,-6.3036208152771,4.174139022827148
1781033920491172400,19.36917236328125,6.331424236297607,-6.3072991371154785,4.021324157714844
1781033920530198800,19.40819873046875,6.6112380027771,-6.284974098205566,3.5819880962371826
1781033920549713200,19.427713134765625,6.787746906280518,-6.254805088043213,3.2930068969726562
1781033920569228800,19.447228759765625,6.979414939880371,-6.2133660316467285,2.953274965286255
1781033920588746800,19.466746826171875,7.176054000854492,-6.158523082733154,2.5723230838775635
1781033920608264400,19.486264404296875,7.371709823608398,-6.083804130554199,2.1645328998565674
1781033920627780600,19.505780517578124,7.5584540367126465,-5.985881805419922,1.7547019720077515
1781033920647296800,19.525296875,7.726198196411133,-5.873293876647949,1.3602499961853027
1781033920666810000,19.54481005859375,7.866559982299805,-5.758856773376465,0.9963880181312561
1781033920686324700,19.56432470703125,7.976867198944092,-5.653598785400391,0.6681280136108398
1781033920705838800,19.5838388671875,7.976867198944092,-5.653598785400391,0.6681280136108398
1781033920725350100,19.60335009765625,8.123531341552734,-5.48140811920166,0.048921000212430954
1781033920744865500,19.622865478515624,8.162714004516602,-5.4167351722717285,-0.26283299922943115
1781033920764382200,19.64238232421875,8.162714004516602,-5.4167351722717285,-0.26283299922943115
1781033920783900200,19.661900146484374,8.182154655456543,-5.335375785827637,-0.7912560105323792
1781033920803419600,19.681419677734375,8.182154655456543,-5.335375785827637,-0.7912560105323792
1781033920822934500,19.7009345703125,8.182154655456543,-5.335375785827637,-0.7912560105323792
1781033920842446000,19.720446044921875,8.147122383117676,-5.327147960662842,-1.133965015411377
1781033920861956600,19.73995654296875,8.116204261779785,-5.3564300537109375,-1.2148569822311401
1781033920881470700,19.759470703125,8.081377029418945,-5.405233860015869,-1.2307679653167725
1781033920900985300,19.7789853515625,8.048885345458984,-5.459510803222656,-1.203819990158081
1781033920920494600,19.79849462890625,8.017661094665527,-5.520349979400635,-1.1326199769973755
1781033920940005400,19.81800537109375,7.99508810043335,-5.576601982116699,-1.009982943534851
1781033920959521300,19.837521240234373,7.978462219238281,-5.628671169281006,-0.8379700183868408
1781033920979035000,19.857034912109373,7.959972858428955,-5.681829929351807,-0.6289830207824707
1781033920998543000,19.876543212890624,7.928823947906494,-5.746074199676514,-0.3954409956932068
1781033921018049300,19.89604931640625,7.885181903839111,-5.817357063293457,-0.1492220014333725
1781033921037557500,19.9155576171875,7.82765007019043,-5.895380973815918,0.11124499887228012
1781033921057066000,19.93506591796875,7.751758098602295,-5.983236789703369,0.3887459933757782
1781033921076574700,19.95457470703125,7.657262802124023,-6.0781049728393555,0.6804080009460449
1781033921096081400,19.974081298828125,7.543295860290527,-6.176733016967773,0.9932990074157715
1781033921115583700,19.993583740234374,7.413873195648193,-6.271292209625244,1.321120023727417
1781033921135085000,20.0130849609375,7.269545078277588,-6.35982084274292,1.6572240591049194
1781033921154585000,20.032585205078124,7.1101179122924805,-6.440542221069336,2.0014069080352783
1781033921174089000,20.0520888671875,6.939950942993164,-6.510534763336182,2.3430728912353516
1781033921193597400,20.071597412109377,6.760204792022705,-6.573216915130615,2.6706619262695312
1781033921213104400,20.0911044921875,6.576176166534424,-6.6335129737854,2.964859962463379
1781033921232610600,20.110610595703125,6.39638614654541,-6.696095943450928,3.2075719833374023
1781033921252116500,20.130116455078124,6.2295942306518555,-6.757518768310547,3.4011878967285156
1781033921271619800,20.149619873046873,6.0843071937561035,-6.814029216766357,3.548266887664795
1781033921291122400,20.169122314453126,5.962281227111816,-6.856051921844482,3.6722939014434814
1781033921310628600,20.188628662109377,5.856738090515137,-6.88153076171875,3.792510986328125
1781033921330137900,20.208137939453124,5.760479927062988,-6.886107921600342,3.9291698932647705
1781033921349641500,20.227641357421874,5.663684844970703,-6.874380111694336,4.087244987487793
1781033921369145300,20.247145263671875,5.580945014953613,-6.855853080749512,4.229694843292236
1781033921388653000,20.266653076171874,5.512283802032471,-6.836887836456299,4.348758220672607
1781033921408160300,20.28616015625,5.469557762145996,-6.818251132965088,4.431182861328125
1781033921427667700,20.305667724609375,5.458131790161133,-6.798081874847412,4.4760332107543945
1781033921447174700,20.325174560546873,5.470901012420654,-6.778923034667969,4.489480018615723
1781033921466682000,20.34468212890625,5.5066938400268555,-6.758986949920654,4.475757122039795
1781033921486189000,20.36418896484375,5.547289848327637,-6.734839916229248,4.46200704574585
1781033921505695500,20.383695556640625,5.547289848327637,-6.734839916229248,4.46200704574585
1781033921525200000,20.403199951171874,5.593313217163086,-6.708202838897705,4.444644927978516
1781033921544706300,20.422706298828125,5.634313106536865,-6.6896209716796875,4.420801162719727
1781033921564218400,20.44221826171875,5.669197082519531,-6.682977199554443,4.386116027832031
1781033921583728600,20.461728759765624,5.669197082519531,-6.682977199554443,4.386116027832031
1781033921603235000,20.481235107421874,5.74874210357666,-6.701570987701416,4.252163887023926
1781033921622743000,20.500742919921876,5.800539016723633,-6.708546161651611,4.1700310707092285
1781033921642250500,20.52025048828125,5.858670234680176,-6.711299896240234,4.083433151245117
1781033921661757000,20.5397568359375,5.927095890045166,-6.708909034729004,3.9874889850616455
1781033921681269000,20.55926904296875,6.013771057128906,-6.699783802032471,3.8713619709014893
1781033921700779800,20.57877978515625,6.124751091003418,-6.681085109710693,3.7269980907440186
1781033921720291800,20.598291748046876,6.2601141929626465,-6.655422210693359,3.5434889793395996
1781033921739807700,20.617807861328124,6.418798923492432,-6.624128818511963,3.3105781078338623
1781033921759318500,20.637318603515624,6.5986762046813965,-6.582281112670898,3.0283710956573486
1781033921778824200,20.65682421875,6.794494152069092,-6.525557994842529,2.7003591060638428
1781033921798336000,20.6763359375,6.996346950531006,-6.4498610496521,2.3431620597839355
1781033921817847600,20.69584765625,7.198636054992676,-6.349269866943359,1.9764610528945923
1781033921837356000,20.71535595703125,7.39601993560791,-6.223323822021484,1.6152780055999756
1781033921856869400,20.734869384765624,7.5791778564453125,-6.081528186798096,1.2692840099334717
1781033921876383000,20.754383056640624,7.742487907409668,-5.931794166564941,0.9527270197868347
1781033921895891500,20.773891357421874,7.879203796386719,-5.789834022521973,0.6602799892425537
1781033921915403000,20.793403076171874,7.987700939178467,-5.664890766143799,0.3816309869289398
1781033921934917400,20.81291748046875,8.067645072937012,-5.562567234039307,0.10455700010061264
1781033921954430200,20.83243017578125,8.125906944274902,-5.475135803222656,-0.1803250014781952
1781033921973942300,20.8519423828125,8.169550895690918,-5.393857002258301,-0.4524730145931244
1781033921993453600,20.87145361328125,8.198945999145508,-5.323081016540527,-0.694320023059845
1781033922012968000,20.890968017578125,8.221943855285645,-5.258604049682617,-0.8869749903678894
1781033922032480800,20.910480712890624,8.239877700805664,-5.205239772796631,-1.0246349573135376
1781033922051990300,20.929990234375,8.255297660827637,-5.1626057624816895,-1.1124459505081177
1781033922071504400,20.94950439453125,8.263717651367188,-5.141231060028076,-1.148347020149231
1781033922091018800,20.969018798828124,8.262702941894531,-5.142330169677734,-1.1507320404052734
1781033922110522000,20.988522216796873,8.254310607910156,-5.159985065460205,-1.1317640542984009
1781033922130027000,21.008027099609375,8.241403579711914,-5.187914848327637,-1.0976279973983765
1781033922149537800,21.027537841796875,8.226696968078613,-5.222362041473389,-1.0432649850845337
1781033922169042700,21.047042724609376,8.214340209960938,-5.262856960296631,-0.9310979843139648
1781033922188548000,21.066548095703126,8.203591346740723,-5.308730125427246,-0.7473019957542419
1781033922208056000,21.08605615234375,8.1864652633667,-5.364812850952148,-0.49047601222991943
1781033922227562000,21.10556201171875,8.158955574035645,-5.426310062408447,-0.16303600370883942
1781033922247069700,21.125069580078126,8.115781784057617,-5.488490104675293,0.22482700645923615
1781033922266578000,21.144577880859377,8.049927711486816,-5.548893928527832,0.6696339845657349
1781033922286087000,21.1640869140625,8.049927711486816,-5.548893928527832,0.6696339845657349
1781033922305600800,21.183600830078124,7.954456806182861,-5.609001159667969,1.1426780223846436
1781033922325115000,21.203114990234376,7.669252872467041,-5.725988864898682,2.1060900688171387
1781033922344626000,21.2226259765625,7.669252872467041,-5.725988864898682,2.1060900688171387
1781033922364134700,21.242134765625,7.296873092651367,-5.819045066833496,2.9890389442443848
1781033922383641000,21.26164111328125,7.296873092651367,-5.819045066833496,2.9890389442443848
1781033922403151000,21.281151123046875,7.296873092651367,-5.819045066833496,2.9890389442443848
1781033922422659800,21.300659912109374,6.896014213562012,-5.876152038574219,3.7357499599456787
1781033922442166800,21.320166748046876,6.706511974334717,-5.8934149742126465,4.041082859039307
1781033922481189000,21.359189208984375,6.393233776092529,-5.900181770324707,4.511582851409912
1781033922500695600,21.378695556640626,6.276794910430908,-5.884798049926758,4.691585063934326
1781033922520198000,21.398197998046875,6.181369781494141,-5.858503818511963,4.848564147949219
1781033922539706600,21.41770654296875,6.102480888366699,-5.818562030792236,4.994403839111328
1781033922559215900,21.4372158203125,6.0337910652160645,-5.766676902770996,5.13602876663208
1781033922578722300,21.456722412109375,5.970019817352295,-5.7080559730529785,5.274178981781006
1781033922598227000,21.47622705078125,5.908152103424072,-5.648993968963623,5.405793190002441
1781033922617730600,21.49573046875,5.854496002197266,-5.592957019805908,5.521204948425293
1781033922637234400,21.515234375,5.817770004272461,-5.5440568923950195,5.608651161193848
1781033922656738000,21.534738037109374,5.8008527755737305,-5.504213809967041,5.66513204574585
1781033922676243700,21.55424365234375,5.802452087402344,-5.471350193023682,5.695250034332275
1781033922695753700,21.573753662109375,5.817246913909912,-5.443220138549805,5.707098960876465
1781033922715260400,21.593260498046874,5.838708877563477,-5.417428970336914,5.709721088409424
1781033922734762800,21.6127626953125,5.858304977416992,-5.392745018005371,5.713015079498291
1781033922754265000,21.63226513671875,5.880447864532471,-5.363128185272217,5.718145847320557
1781033922773767000,21.651766845703126,5.910289764404297,-5.328311920166016,5.7199249267578125
1781033922793273300,21.6712734375,5.956170082092285,-5.292130947113037,5.705905914306641
1781033922812784600,21.69078466796875,6.018184185028076,-5.25660514831543,5.673583030700684
1781033922832293600,21.710293701171874,6.098663806915283,-5.226386070251465,5.615262985229492
1781033922851803000,21.729802978515625,6.192732810974121,-5.205807209014893,5.530788898468018
1781033922871315500,21.7493154296875,6.296686172485352,-5.20320987701416,5.414639949798584
1781033922890832600,21.76883251953125,6.404747009277344,-5.2159600257873535,5.273798942565918
1781033922910351400,21.788351318359375,6.516632080078125,-5.235433101654053,5.115049839019775
1781033922929863200,21.80786328125,6.640459060668945,-5.255033016204834,4.932436943054199
1781033922949371100,21.82737109375,6.773853778839111,-5.265066146850586,4.736451148986816
1781033922968879900,21.8468798828125,6.9236040115356445,-5.258351802825928,4.522546768188477
1781033922988392200,21.86639208984375,7.092395782470703,-5.233949184417725,4.282952785491943
1781033923007909600,21.88590966796875,7.279581069946289,-5.193787097930908,4.009024143218994
1781033923027424000,21.905424072265625,7.480936050415039,-5.138657093048096,3.697268009185791
1781033923046937600,21.9249375,7.683049201965332,-5.072751998901367,3.3582630157470703
1781033923066453800,21.944453857421873,7.873620986938477,-5.0073161125183105,2.9954750537872314
1781033923085966600,21.963966552734377,7.873620986938477,-5.0073161125183105,2.9954750537872314
1781033923105469000,21.983468994140626,8.177192687988281,-4.909079074859619,2.2526519298553467
1781033923124970000,22.002969970703123,8.287623405456543,-4.8780670166015625,1.8867299556732178
1781033923144475000,22.022474853515625,8.287623405456543,-4.8780670166015625,1.8867299556732178
1781033923163984000,22.04198388671875,8.420476913452148,-4.873956203460693,1.1747850179672241
1781033923183497500,22.06149755859375,8.420476913452148,-4.873956203460693,1.1747850179672241
1781033923203009500,22.081009521484376,8.448798179626465,-4.895533084869385,0.8315920233726501
1781033923222518800,22.100518798828126,8.45937442779541,-4.922085762023926,0.502036988735199
1781033923242028000,22.120028076171874,8.451018333435059,-4.957796096801758,0.20135299861431122
1781033923261535200,22.13953515625,8.42555046081543,-5.00459623336792,-0.06427700072526932
1781033923281040100,22.1590400390625,8.389456748962402,-5.057277202606201,-0.28453099727630615
1781033923300547600,22.178547607421876,8.348566055297852,-5.1120171546936035,-0.4568459987640381
1781033923320059100,22.19805908203125,8.3053560256958,-5.167542934417725,-0.5979660153388977
1781033923339568400,22.217568359375,8.255865097045898,-5.232540130615234,-0.7079660296440125
1781033923359073000,22.237072998046877,8.19756031036377,-5.312801837921143,-0.7836689949035645
1781033923378581000,22.2565810546875,8.1301851272583,-5.411227226257324,-0.8116080164909363
1781033923398090500,22.276090576171875,8.051677703857422,-5.532057762145996,-0.7789710164070129
1781033923417601300,22.295601318359374,7.958417892456055,-5.677389144897461,-0.6861590147018433
1781033923437111800,22.31511181640625,7.855039119720459,-5.836493015289307,-0.5231630206108093
1781033923456619000,22.334618896484375,7.7454352378845215,-5.996901035308838,-0.29223400354385376
1781033923476130300,22.35413037109375,7.630362033843994,-6.14959192276001,0.009696000255644321
1781033923495645200,22.373645263671875,7.505949974060059,-6.290314197540283,0.36422300338745117
1781033923515160300,22.393160400390624,7.367922782897949,-6.418002128601074,0.7502970099449158
1781033923534667800,22.412667724609374,7.209364891052246,-6.537753105163574,1.1501489877700806
1781033923554173000,22.4321728515625,7.029261112213135,-6.651453018188477,1.5452029705047607
1781033923573681700,22.451681640625,6.830904006958008,-6.761166095733643,1.9145170450210571
1781033923593191400,22.47119140625,6.619017124176025,-6.867825984954834,2.249795913696289
1781033923612706300,22.490706298828126,6.398526191711426,-6.969552040100098,2.554250955581665
1781033923632217600,22.510217529296874,6.175067901611328,-7.062830924987793,2.8328349590301514
1781033923651726600,22.5297265625,5.9575347900390625,-7.1397857666015625,3.0937368869781494
1781033923671239000,22.549239013671876,5.753201961517334,-7.20048713684082,3.330713987350464
1781033923690749700,22.568749755859375,5.566425800323486,-7.243730068206787,3.5472888946533203
1781033923710257200,22.588257080078126,5.396374225616455,-7.2724127769470215,3.745814085006714
1781033923729762000,22.607761962890624,5.2406392097473145,-7.28955078125,3.9291388988494873
1781033923749267500,22.627267333984374,5.103540897369385,-7.2929840087890625,4.099542140960693
1781033923768775400,22.646775390625,4.986997127532959,-7.280118942260742,4.262595176696777
1781033923788287000,22.666286865234376,4.903778076171875,-7.24639892578125,4.413916110992432
1781033923807796700,22.685796630859375,4.856846809387207,-7.1946492195129395,4.548410892486572
1781033923827304000,22.705303955078126,4.8407511711120605,-7.130167007446289,4.665599822998047
1781033923846813400,22.7248134765625,4.851959228515625,-7.056735038757324,4.764552116394043
1781033923866322700,22.74432275390625,4.883141994476318,-6.979279041290283,4.84608793258667
1781033923885831400,22.76383154296875,4.883141994476318,-6.979279041290283,4.84608793258667
1781033923905341700,22.783341796875,4.922560214996338,-6.9062371253967285,4.910426139831543
1781033923924857300,22.802857421875,4.983312129974365,-6.785010814666748,5.016993999481201
1781033923944371000,22.822370849609374,4.983312129974365,-6.785010814666748,5.016993999481201
1781033923963881000,22.841880859375,4.983312129974365,-6.785010814666748,5.016993999481201
1781033923983388700,22.861388671875,5.038349151611328,-6.6969828605651855,5.079905986785889
1781033924002897000,22.88089697265625,5.075440883636475,-6.6650471687316895,5.0849809646606445
1781033924022406700,22.90040673828125,5.1319050788879395,-6.640933036804199,5.059797763824463
1781033924041913300,22.919913330078124,5.206155776977539,-6.6234869956970215,5.006529808044434
1781033924061417500,22.93941748046875,5.296827793121338,-6.612761974334717,4.9249348640441895
1781033924080923600,22.958923583984376,5.401081085205078,-6.602630138397217,4.824272155761719
1781033924100430600,22.9784306640625,5.515605926513672,-6.597465991973877,4.700161933898926
1781033924119938300,22.997938232421873,5.645866870880127,-6.595489025115967,4.545736789703369
1781033924139449900,23.017449951171876,5.793872833251953,-6.590044975280762,4.363753795623779
1781033924158963500,23.03696337890625,5.966293811798096,-6.577645778656006,4.14462423324585
1781033924178477800,23.056477783203125,6.169983863830566,-6.54892110824585,3.8836729526519775
1781033924197991400,23.075991455078125,6.404560089111328,-6.501370906829834,3.57124400138855
1781033924217501700,23.095501708984376,6.663012981414795,-6.429786205291748,3.2096879482269287
1781033924237013800,23.115013671875,6.926045894622803,-6.336513042449951,2.813978910446167
1781033924256528400,23.1345283203125,7.1758599281311035,-6.229438781738281,2.3960649967193604
1781033924276045000,23.154045166015624,7.398495197296143,-6.11384391784668,1.9806989431381226
1781033924295560700,23.173560791015625,7.582923889160156,-6.003352165222168,1.5808279514312744
1781033924315071200,23.1930712890625,7.72747278213501,-5.905135154724121,1.206455945968628
1781033924334579200,23.2125791015625,7.841055870056152,-5.815442085266113,0.8593469858169556
1781033924354085400,23.23208544921875,7.931503772735596,-5.731339931488037,0.5319650173187256
1781033924373592000,23.251592041015623,8.000006675720215,-5.6563801765441895,0.2126920074224472
1781033924393102000,23.27110205078125,8.042957305908203,-5.597978115081787,-0.11611499637365341
1781033924432118800,23.310118896484376,8.049568176269531,-5.537262916564941,-0.7636479735374451
1781033924451630000,23.329630126953123,8.0233793258667,-5.528446197509766,-1.049597978591919
1781033924471144700,23.349144775390624,7.983312129974365,-5.535132884979248,-1.2919059991836548
1781033924490655700,23.36865576171875,7.939138889312744,-5.548900127410889,-1.4898920059204102
1781033924510164000,23.3881640625,7.900383949279785,-5.563717842102051,-1.6337000131607056
1781033924529675000,23.407675048828125,7.870873928070068,-5.574335098266602,-1.7367010116577148
1781033924549185500,23.427185546875,7.850837230682373,-5.587084770202637,-1.7857270240783691
1781033924568693200,23.446693359375,7.837660789489746,-5.608745098114014,-1.7756760120391846
1781033924588199200,23.46619921875,7.829172134399414,-5.640768051147461,-1.710494041442871
1781033924607710700,23.485710693359376,7.822866916656494,-5.689548015594482,-1.57219398021698
1781033924627226000,23.50522607421875,7.81820011138916,-5.748655796051025,-1.3670040369033813
1781033924646735400,23.5247353515625,7.811835765838623,-5.815077781677246,-1.0954829454421997
1781033924666244000,23.544244140625,7.796332836151123,-5.884921073913574,-0.790503978729248
1781033924685759000,23.563759033203127,7.796332836151123,-5.884921073913574,-0.790503978729248
1781033924705276200,23.583276123046875,7.739977836608887,-6.0100507736206055,-0.10964900255203247
1781033924724790300,23.602790283203124,7.6912078857421875,-6.067561149597168,0.26457199454307556
1781033924744300000,23.622300048828127,7.6912078857421875,-6.067561149597168,0.26457199454307556
1781033924763806500,23.641806396484377,7.49772310256958,-6.2162652015686035,1.0872869491577148
1781033924783313700,23.661313720703124,7.49772310256958,-6.2162652015686035,1.0872869491577148
1781033924802825700,23.68082568359375,7.333622932434082,-6.3109869956970215,1.5586539506912231
1781033924822336800,23.700336669921874,7.121297836303711,-6.409226894378662,2.061289072036743
1781033924841846300,23.71984619140625,6.874980926513672,-6.496740818023682,2.562614917755127
1781033924861353700,23.739353759765624,6.619819164276123,-6.562949180603027,3.0241830348968506
1781033924880860700,23.758860595703126,6.378458023071289,-6.604457855224609,3.4258430004119873
1781033924900368600,23.77836865234375,6.172891139984131,-6.619862079620361,3.756704092025757
1781033924919880400,23.79788037109375,6.013521194458008,-6.613863945007324,4.016759872436523
1781033924939396400,23.817396240234373,5.893664836883545,-6.597622871398926,4.21616792678833
1781033924958909700,23.83690966796875,5.802703857421875,-6.576696872711182,4.372148036956787
1781033924978420000,23.856419921875,5.730856895446777,-6.548635959625244,4.506954193115234
1781033924997931500,23.875931640625,5.672196865081787,-6.510451793670654,4.634671211242676
1781033925017444000,23.895444091796875,5.621720790863037,-6.468026161193848,4.7540388107299805
1781033925036956400,23.914956298828123,5.5743408203125,-6.4306769371032715,4.859332084655762
1781033925056465400,23.93446533203125,5.529256820678711,-6.398897171020508,4.951910972595215
1781033925075974400,23.953974365234377,5.4864277839660645,-6.376321792602539,5.028082847595215
1781033925095481300,23.9734814453125,5.443595886230469,-6.366018772125244,5.087343215942383
1781033925114984400,23.992984375,5.402131080627441,-6.366394996643066,5.130886077880859
1781033925134492700,24.01249267578125,5.367224216461182,-6.371784210205078,5.1607441902160645
1781033925154002700,24.032002685546875,5.345369815826416,-6.3782057762146,5.17547082901001
1781033925173515500,24.051515625,5.339356899261475,-6.3860979080200195,5.171945095062256
1781033925193029600,24.071029541015626,5.348608016967773,-6.392070770263672,5.154980182647705
1781033925212539600,24.09053955078125,5.374192237854004,-6.3941731452941895,5.125679969787598
1781033925232047000,24.110047119140624,5.412631034851074,-6.397303104400635,5.081134796142578
1781033925251554000,24.129553955078126,5.461972236633301,-6.401538848876953,5.022665023803711
1781033925271064800,24.14906494140625,5.517073154449463,-6.403596878051758,4.959417819976807
1781033925290577400,24.168577392578126,5.577351093292236,-6.40210485458374,4.893486022949219
1781033925310086100,24.188086181640625,5.643017768859863,-6.39952278137207,4.821042060852051
1781033925329598700,24.2075986328125,5.7135539054870605,-6.3986358642578125,4.738432884216309
1781033925349111300,24.227111328125,5.792385101318359,-6.393042087554932,4.64943790435791
1781033925368620500,24.24662060546875,5.882455825805664,-6.386027812957764,4.5448150634765625
1781033925388129000,24.26612890625,5.985754013061523,-6.378349781036377,4.418981075286865
1781033925407638500,24.285638427734376,6.102605819702148,-6.3724470138549805,4.264989852905273
1781033925427146800,24.305146728515624,6.232975959777832,-6.36572790145874,4.08258581161499
1781033925446658000,24.324657958984375,6.37667179107666,-6.355350971221924,3.8713760375976562
1781033925466168000,24.34416796875,6.533505916595459,-6.339756965637207,3.627779006958008
1781033925485675300,24.36367529296875,6.533505916595459,-6.339756965637207,3.627779006958008
1781033925505186000,24.38318603515625,6.875533103942871,-6.274001121520996,3.066586971282959
1781033925524697000,24.402697021484375,6.875533103942871,-6.274001121520996,3.066586971282959
1781033925544208600,24.422208740234375,7.050045013427734,-6.22496223449707,2.7543959617614746
1781033925563719700,24.4417197265625,7.050045013427734,-6.22496223449707,2.7543959617614746
1781033925583227400,24.461227294921876,7.382559776306152,-6.101564884185791,2.0757429599761963
1781033925602736600,24.480736572265624,7.525137901306152,-6.039792060852051,1.7126599550247192
1781033925622247200,24.5002470703125,7.6449079513549805,-5.981852054595947,1.34641695022583
1781033925641756400,24.51975634765625,7.740960121154785,-5.927223205566406,0.9927449822425842
1781033925661266200,24.53926611328125,7.815546989440918,-5.87565803527832,0.6586869955062866
1781033925680780500,24.558780517578125,7.868923187255859,-5.830758094787598,0.34971800446510315
1781033925700290800,24.578290771484376,7.908454895019531,-5.787148952484131,0.07236699759960175
1781033925719797000,24.597796875,7.935723781585693,-5.747734069824219,-0.16685199737548828
1781033925739305200,24.61730517578125,7.952980995178223,-5.714631080627441,-0.3647949993610382
1781033925758812700,24.636812744140624,7.9597859382629395,-5.6928229331970215,-0.5230380296707153
1781033925778322400,24.656322509765626,7.961474895477295,-5.678161144256592,-0.6429709792137146
1781033925797837000,24.675837158203127,7.958508014678955,-5.67220401763916,-0.7268069982528687
1781033925817347800,24.695347900390626,7.95029878616333,-5.677244186401367,-0.7756479978561401
1781033925836859000,24.71485888671875,7.936849117279053,-5.694987773895264,-0.7832900285720825
1781033925856370000,24.734369873046877,7.916622161865234,-5.726741790771484,-0.7559900283813477
1781033925875880700,24.753880615234376,7.889967918395996,-5.771626949310303,-0.6904540061950684
1781033925895395300,24.773395263671876,7.857810974121094,-5.8272318840026855,-0.5815309882164001
1781033925914905300,24.7929052734375,7.820878982543945,-5.890176773071289,-0.4238640069961548
1781033925934416000,24.812415771484375,7.779634952545166,-5.955601215362549,-0.21928399801254272
1781033925953926700,24.8319267578125,7.733993053436279,-6.018731117248535,0.015011999756097794
1781033925973433900,24.851433837890625,7.687758922576904,-6.0715718269348145,0.2727220058441162
1781033925992944400,24.8709443359375,7.639956951141357,-6.113694190979004,0.5420370101928711
1781033926012459000,24.890458984375,7.587879180908203,-6.146430015563965,0.827934980392456
1781033926031972900,24.909972900390624,7.529102802276611,-6.171224117279053,1.1263140439987183
1781033926051489300,24.9294892578125,7.460172176361084,-6.191589832305908,1.4317950010299683
1781033926071006500,24.94900634765625,7.380910873413086,-6.210690975189209,1.729011058807373
1781033926090522000,24.968522216796874,7.291536808013916,-6.233694076538086,2.0036349296569824
1781033926110037500,24.98803759765625,7.194599151611328,-6.261176109313965,2.2528669834136963
1781033926129550000,25.007550048828126,7.097015857696533,-6.290812969207764,2.4694180488586426
1781033926149061600,25.0270615234375,6.995610237121582,-6.327849864959717,2.6570160388946533
1781033926168575000,25.046574951171873,6.891517162322998,-6.370944976806641,2.821000099182129
1781033926188091000,25.0660908203125,6.783495903015137,-6.416514873504639,2.9753189086914062
1781033926207606000,25.08560595703125,6.677917957305908,-6.458356857299805,3.120098114013672
1781033926227119600,25.10511962890625,6.582696914672852,-6.493484973907471,3.2469589710235596
1781033926246634000,25.124634033203126,6.504055976867676,-6.519144058227539,3.352313995361328
1781033926266151400,25.1441513671875,6.4494309425354,-6.5300211906433105,3.4356460571289062
1781033926285668900,25.1636689453125,6.4494309425354,-6.5300211906433105,3.4356460571289062
1781033926305181700,25.183181640625,6.392508029937744,-6.50599479675293,3.5843911170959473
1781033926324694000,25.202694091796875,6.392508029937744,-6.50599479675293,3.5843911170959473
1781033926344205600,25.22220556640625,6.381519794464111,-6.478633880615234,3.6528759002685547
1781033926363720200,25.24172021484375,6.363834857940674,-6.416615962982178,3.790597915649414
1781033926383233800,25.26123388671875,6.363834857940674,-6.416615962982178,3.790597915649414
1781033926402745900,25.280745849609374,6.3510050773620605,-6.389504909515381,3.8573238849639893
1781033926422259000,25.300259033203126,6.343684196472168,-6.3682661056518555,3.904210090637207
1781033926441774600,25.319774658203126,6.341814041137695,-6.352328777313232,3.9331040382385254
1781033926461292300,25.339292236328124,6.3447771072387695,-6.341381072998047,3.945970058441162
1781033926480809700,25.358809814453124,6.353640079498291,-6.334097862243652,3.9434049129486084
1781033926500329200,25.3783291015625,6.369553089141846,-6.329085826873779,3.9257419109344482
1781033926519849700,25.397849609375,6.392526149749756,-6.32474422454834,3.8952810764312744
1781033926539367400,25.417367431640624,6.423388957977295,-6.319235801696777,3.8532230854034424
1781033926558881500,25.436881591796876,6.461654186248779,-6.310768127441406,3.8027920722961426
1781033926578395100,25.45639501953125,6.50251579284668,-6.30152702331543,3.748073101043701
1781033926597904000,25.47590380859375,6.543734073638916,-6.291399002075195,3.6929430961608887
1781033926617415200,25.495415283203126,6.583989143371582,-6.282729148864746,3.6357109546661377
1781033926636935200,25.51493505859375,6.622616767883301,-6.278078079223633,3.5730481147766113
1781033926656453600,25.53445361328125,6.661239147186279,-6.277782917022705,3.5010480880737305
1781033926675966200,25.55396630859375,6.699592113494873,-6.279987812042236,3.4230411052703857
1781033926695479800,25.573479736328125,6.742854118347168,-6.280848979949951,3.3353960514068604
1781033926714996200,25.592996337890625,6.791438102722168,-6.278839111328125,3.2392189502716064
