time,seconds_elapsed,z,y,x
1781033901248176400,0.12617626953125,0.023237500339746475,-0.1396999955177307,0.010174999944865704
1781033901631171600,0.509171630859375,-0.6608250141143799,0.16376249492168427,0.1313125044107437
1781033901640933400,0.518933349609375,-0.65972501039505,-0.028049999848008156,0.3667125105857849
1781033901660453000,0.538453125,-0.47795000672340393,-0.32807499170303345,0.6286500096321106
1781033901679962400,0.55796240234375,-0.27101248502731323,-0.5648499727249146,0.8039624691009521
1781033901699471600,0.5774716796875,-0.14904999732971191,-0.6667374968528748,0.8522250056266785
1781033901718987300,0.5969873046875,-0.12526249885559082,-0.6624749898910522,0.8043749928474426
1781033901738506000,0.616506103515625,-0.17215000092983246,-0.5926250219345093,0.7042750120162964
1781033901758020000,0.63602001953125,-0.22068749368190765,-0.5064125061035156,0.599637508392334
1781033901777530400,0.6555302734375,-0.2157374918460846,-0.4372499883174896,0.5230500102043152
1781033901797044200,0.675044189453125,-0.14162500202655792,-0.39723750948905945,0.48606249690055847
1781033901816558300,0.694558349609375,-0.012649999931454659,-0.3806000053882599,0.4846875071525574
1781033901836071200,0.7140712890625,0.13241249322891235,-0.36588749289512634,0.5036625266075134
1781033901855582500,0.73358251953125,0.2414499968290329,-0.3287625014781952,0.522362470626831
1781033901875095000,0.753094970703125,0.28696250915527344,-0.2653749883174896,0.5245624780654907
1781033901894608400,0.7726083984375,0.29782500863075256,-0.202674999833107,0.5068249702453613
1781033901914118100,0.7921181640625,0.3185875117778778,-0.16843749582767487,0.47148749232292175
1781033901933622300,0.811622314453125,0.36079999804496765,-0.16128750145435333,0.4221250116825104
1781033901953125000,0.831125,0.40039998292922974,-0.15331250429153442,0.3642374873161316
1781033901972630800,0.850630859375,0.39448750019073486,-0.10986249893903732,0.30277499556541443
1781033901992136200,0.87013623046875,0.3246375024318695,-0.021449999883770943,0.2424124926328659
1781033902011641000,0.88964111328125,0.22055000066757202,0.08841250091791153,0.18837499618530273
1781033902031147300,0.909147216796875,0.13612499833106995,0.18603749573230743,0.14409999549388885
1781033902050656800,0.92865673828125,0.10064999759197235,0.2554749846458435,0.10944999754428864
1781033902070162000,0.948161865234375,0.0976250022649765,0.3030500113964081,0.08057499676942825
1781033902089667800,0.967667724609375,0.10243749618530273,0.33563750982284546,0.05472499877214432
1781033902109176300,0.98717626953125,0.12292499840259552,0.3470500111579895,0.033137500286102295
1781033902128683800,1.006683837890625,0.19139999151229858,0.32711249589920044,0.020212499424815178
1781033902148199700,1.02619970703125,0.31171250343322754,0.28325000405311584,0.018699999898672104
1781033902167718100,1.04571826171875,0.4329875111579895,0.24777500331401825,0.025575000792741776
1781033902187231700,1.065231689453125,0.48826250433921814,0.25671249628067017,0.03231250122189522
1781033902206744600,1.08474462890625,0.45980000495910645,0.31831249594688416,0.030799999833106995
1781033902226258200,1.104258056640625,0.3856875002384186,0.40700000524520874,0.016637500375509262
1781033902245768000,1.123767822265625,0.3856875002384186,0.40700000524520874,0.016637500375509262
1781033902265278000,1.14327783203125,0.20748749375343323,0.554812490940094,-0.032999999821186066
1781033902284791000,1.162791015625,0.20748749375343323,0.554812490940094,-0.032999999821186066
1781033902304305000,1.182304931640625,0.10037499666213989,0.6078875064849854,-0.03272499889135361
1781033902323814400,1.201814453125,0.013612499460577965,0.6697624921798706,0.06998749822378159
1781033902343322400,1.221322265625,0.013612499460577965,0.6697624921798706,0.06998749822378159
1781033902362832600,1.24083251953125,0.013612499460577965,0.6697624921798706,0.06998749822378159
1781033902382342100,1.260342041015625,0.19580000638961792,0.6550499796867371,0.20212499797344208
1781033902401853200,1.279853271484375,0.23512500524520874,0.6638500094413757,0.23952500522136688
1781033902421368000,1.2993681640625,0.20583750307559967,0.6945124864578247,0.2619374990463257
1781033902440881700,1.318881591796875,0.16651250422000885,0.720912516117096,0.2817375063896179
1781033902460391700,1.3383916015625,0.170912504196167,0.7149999737739563,0.30841249227523804
1781033902479899600,1.357899658203125,0.21285000443458557,0.6756749749183655,0.3451249897480011
1781033902499405800,1.37740576171875,0.25286251306533813,0.6204000115394592,0.3817000091075897
1781033902518913300,1.396913330078125,0.27114999294281006,0.5647125244140625,0.39434999227523804
1781033902538424000,1.416424072265625,0.26042500138282776,0.5235999822616577,0.35557499527931213
1781033902557935400,1.435935302734375,0.21175000071525574,0.5087500214576721,0.25203749537467957
1781033902577444600,1.455444580078125,0.12952500581741333,0.515625,0.0929500013589859
1781033902596956000,1.474955810546875,0.06077500060200691,0.5112249851226807,-0.0989999994635582
1781033902616466000,1.4944658203125,0.0966624990105629,0.44013750553131104,-0.296999990940094
1781033902635971800,1.513971923828125,0.29493749141693115,0.2703250050544739,-0.47244998812675476
1781033902655477800,1.533477783203125,0.605412483215332,0.03423750028014183,-0.5960624814033508
1781033902674977500,1.5529775390625,0.902412474155426,-0.19071249663829803,-0.6481750011444092
1781033902694480000,1.57247998046875,1.0810250043869019,-0.3405874967575073,-0.6347000002861023
1781033902713988400,1.59198828125,1.1325875520706177,-0.4078249931335449,-0.5809375047683716
1781033902733497300,1.611497314453125,1.1222749948501587,-0.4258374869823456,-0.5095750093460083
1781033902753012000,1.631011962890625,1.1050875186920166,-0.42473748326301575,-0.42748749256134033
1781033902772529400,1.650529296875,1.0797874927520752,-0.40700000524520874,-0.32752498984336853
1781033902792039700,1.670039794921875,1.0153000354766846,-0.3620375096797943,-0.21188749372959137
1781033902811551500,1.689551513671875,0.916575014591217,-0.3030500113964081,-0.10257499665021896
1781033902831065300,1.7090654296875,0.829675018787384,-0.267300009727478,-0.026537500321865082
1781033902850576000,1.728575927734375,0.7884249687194824,-0.2769249975681305,0.006049999967217445
1781033902870085000,1.748085205078125,0.7818250060081482,-0.3151499927043915,0.010312499478459358
1781033902889591600,1.767591552734375,0.7584499716758728,-0.335224986076355,0.015812499448657036
1781033902909100300,1.787100341796875,0.6701750159263611,-0.29809999465942383,0.045512501150369644
1781033902928608500,1.8066083984375,0.5145249962806702,-0.2046000063419342,0.10188750177621841
1781033902948115500,1.826115478515625,0.33096250891685486,-0.08937499672174454,0.172837495803833
1781033902967627500,1.84562744140625,0.17668749392032623,-0.0004124999977648258,0.23883749544620514
1781033902987140000,1.86514013671875,0.10078749805688858,0.023512499406933784,0.28146249055862427
1781033903006652000,1.88465185546875,0.12072499841451645,-0.030387500301003456,0.2905375063419342
1781033903026165800,1.904165771484375,0.2032250016927719,-0.13901250064373016,0.26743748784065247
1781033903045677600,1.923677490234375,0.2032250016927719,-0.13901250064373016,0.26743748784065247
1781033903065191200,1.943191162109375,0.2293500006198883,-0.29493749141693115,0.19676250219345093
1781033903084708000,1.9627080078125,0.06929999589920044,-0.25093749165534973,0.18658749759197235
1781033903104222700,1.98222265625,0.06929999589920044,-0.25093749165534973,0.18658749759197235
1781033903123735600,2.001735595703125,-0.4147000014781952,-0.0085249999538064,0.2186249941587448
1781033903143245300,2.021245361328125,-0.4147000014781952,-0.0085249999538064,0.2186249941587448
1781033903162754000,2.040754150390625,-0.6107749938964844,0.08401250094175339,0.23388749361038208
1781033903182264000,2.06026416015625,-0.744700014591217,0.12540000677108765,0.23828749358654022
1781033903201775400,2.079775390625,-0.8347625136375427,0.12526249885559082,0.23278750479221344
1781033903221285600,2.09928564453125,-0.9006249904632568,0.10339999943971634,0.22123749554157257
1781033903240796700,2.118796630859375,-0.9596124887466431,0.0826374962925911,0.20982499420642853
1781033903260307200,2.13830712890625,-1.014062523841858,0.07713750004768372,0.2032250016927719
1781033903279817700,2.157817626953125,-1.0608124732971191,0.08635000139474869,0.20446249842643738
1781033903299329000,2.1773291015625,-1.1138875484466553,0.10752499848604202,0.21615000069141388
1781033903318847200,2.19684716796875,-1.1863499879837036,0.14409999549388885,0.23732499778270721
1781033903338369000,2.216369140625,-1.265412449836731,0.19456249475479126,0.25148749351501465
1781033903357886500,2.235886474609375,-1.3139499425888062,0.23801249265670776,0.20748749375343323
1781033903377404700,2.25540478515625,-1.2717374563217163,0.21216249465942383,0.045787498354911804
1781033903396924400,2.27492431640625,-1.1004124879837036,0.056512501090765,-0.2326499968767166
1781033903416443400,2.294443359375,-0.8351749777793884,-0.20886249840259552,-0.5469750165939331
1781033903435961900,2.3139619140625,-0.5769500136375427,-0.4716250002384186,-0.7959874868392944
1781033903455483600,2.333483642578125,-0.478362500667572,-0.5689749717712402,-0.940500020980835
1781033903475008500,2.353008544921875,-0.6297500133514404,-0.41401249170303345,-1.0067750215530396
1781033903494529300,2.372529296875,-0.9330750107765198,-0.11137499660253525,-1.0367499589920044
1781033903514048800,2.392048828125,-1.1658624410629272,0.10683749616146088,-1.0634249448776245
1781033903533566700,2.411566650390625,-1.1780999898910522,0.0873124971985817,-1.1037124395370483
1781033903553078500,2.43107861328125,-1.007462501525879,-0.11302500218153,-1.1493624448776245
1781033903572594700,2.4505947265625,-0.7892500162124634,-0.3166624903678894,-1.16902494430542
1781033903592114700,2.47011474609375,-0.6228749752044678,-0.40232500433921814,-1.141937494277954
1781033903611630300,2.48963037109375,-0.5458750128746033,-0.3488374948501587,-1.0785499811172485
1781033903631144200,2.509144287109375,-0.5348749756813049,-0.21601249277591705,-1.008562445640564
1781033903650664200,2.528664306640625,-0.48688748478889465,-0.13859999179840088,-0.9502624869346619
1781033903670187000,2.54818701171875,-0.29301249980926514,-0.2414499968290329,-0.9025499820709229
1781033903689708500,2.56770849609375,0.06710000336170197,-0.5553625226020813,-0.8529124855995178
1781033903709230000,2.58722998046875,0.5159000158309937,-1.0060875415802002,-0.7775624990463257
1781033903728747800,2.606747802734375,0.9223499894142151,-1.4526875019073486,-0.6613749861717224
1781033903748265200,2.62626513671875,1.1847000122070312,-1.7710000276565552,-0.5141124725341797
1781033903767785500,2.645785400390625,1.279712438583374,-1.9188125133514404,-0.3643749952316284
1781033903787307000,2.66530712890625,1.2614250183105469,-1.9505749940872192,-0.23993749916553497
1781033903806827000,2.684826904296875,1.2076624631881714,-1.9626749753952026,-0.15565000474452972
1781033903826340900,2.7043408203125,1.1477124691009521,-2.007087469100952,-0.11247500032186508
1781033903845854700,2.723854736328125,1.1477124691009521,-2.007087469100952,-0.11247500032186508
1781033903865371000,2.743370849609375,1.0514625310897827,-2.0636000633239746,-0.10381250083446503
1781033903884889600,2.7628896484375,0.5678749680519104,-2.2748000621795654,-0.07259999960660934
1781033903904408600,2.78240869140625,0.5678749680519104,-2.2748000621795654,-0.07259999960660934
1781033903923923700,2.801923828125,0.34127500653266907,-2.540862560272217,0.07122500240802765
1781033903943436500,2.8214365234375,0.34127500653266907,-2.540862560272217,0.07122500240802765
1781033903962954800,2.840954833984375,0.116737499833107,-2.434299945831299,0.09776250272989273
1781033903982469600,2.8604697265625,-0.147537499666214,-2.170574903488159,0.07590000331401825
1781033904001985300,2.8799853515625,-0.39957499504089355,-1.8385125398635864,0.028187500312924385
1781033904021506800,2.8995068359375,-0.6124249696731567,-1.4987499713897705,-0.02447500079870224
1781033904041024300,2.919024169921875,-0.7533624768257141,-1.2402499914169312,-0.03341250121593475
1781033904060538400,2.938538330078125,-0.7785249948501587,-1.1473000049591064,0.0648999959230423
1781033904080056800,2.958056884765625,-0.6920375227928162,-1.2120624780654907,0.27857500314712524
1781033904099576800,2.977576904296875,-0.5607249736785889,-1.3294874429702759,0.5332249999046326
1781033904119092700,2.9970927734375,-0.4577375054359436,-1.3675750494003296,0.7187125086784363
1781033904138606600,3.016606689453125,-0.3895374834537506,-1.279712438583374,0.7881500124931335
1781033904158122200,3.036122314453125,-0.29315000772476196,-1.1372624635696411,0.7984625101089478
1781033904177642800,3.055642822265625,-0.11343749612569809,-1.0352375507354736,0.8329749703407288
1781033904197156900,3.075156982421875,0.1297999918460846,-0.9919250011444092,0.9085999727249146
1781033904216671000,3.0946708984375,0.34718748927116394,-0.9314249753952026,0.9598875045776367
1781033904236193000,3.114193115234375,0.4676375091075897,-0.7842999696731567,0.9279875159263611
1781033904255711200,3.133711181640625,0.4992625117301941,-0.5620999932289124,0.8226624727249146
1781033904275227100,3.15322705078125,0.4786374866962433,-0.28888750076293945,0.6609625220298767
1781033904294743600,3.17274365234375,0.40727499127388,0.06998749822378159,0.4152500033378601
1781033904314260000,3.192260009765625,0.2810499966144562,0.5435374975204468,0.07562500238418579
1781033904333778400,3.2117783203125,0.13846249878406525,1.0726374387741089,-0.2957625091075897
1781033904353293800,3.2312939453125,0.055687498301267624,1.5263874530792236,-0.6000499725341797
1781033904372804000,3.25080419921875,0.06407500058412552,1.8281999826431274,-0.7915874719619751
1781033904392319200,3.2703193359375,0.09088750183582306,2.0350000858306885,-0.906125009059906
1781033904411836700,3.289836669921875,0.018699999898672104,2.2661375999450684,-0.9926124811172485
1781033904431350000,3.30935009765625,-0.24488750100135803,2.624875068664551,-1.0737375020980835
1781033904450862600,3.328862548828125,-0.7852625250816345,3.2230000495910645,-1.1745250225067139
1781033904470376400,3.34837646484375,-1.6446374654769897,4.133662700653076,-1.296762466430664
1781033904489894000,3.367893798828125,-2.722362518310547,5.294437408447266,-1.3729374408721924
1781033904509407000,3.387406982421875,-3.7302374839782715,6.462912559509277,-1.297724962234497
1781033904528917000,3.4069169921875,-4.217812538146973,6.88462495803833,-1.0249249935150146
1781033904548428000,3.426427978515625,-4.183300018310547,7.023087501525879,-0.6285125017166138
1781033904567943700,3.445943603515625,-3.6289000511169434,6.504437446594238,-0.2213750034570694
1781033904587453700,3.46545361328125,-2.7919375896453857,5.65551233291626,0.11811249703168869
1781033904606958800,3.484958740234375,-1.8499250411987305,4.272812366485596,0.3638249933719635
1781033904626468600,3.504468505859375,-1.0702999830245972,3.0307750701904297,0.512737512588501
1781033904645979000,3.523978759765625,-1.0702999830245972,3.0307750701904297,0.512737512588501
1781033904665489400,3.543489501953125,-0.5609999895095825,2.078587532043457,0.5638874769210815
1781033904685002000,3.563001953125,-0.32381248474121094,1.3344374895095825,0.4918375015258789
1781033904704514300,3.582514404296875,-0.3018124997615814,0.6418499946594238,0.2666124999523163
1781033904724030500,3.602030517578125,-0.6700375080108643,-0.346637487411499,-0.406312495470047
1781033904743543800,3.621543701171875,-0.6700375080108643,-0.346637487411499,-0.406312495470047
1781033904763054800,3.641054931640625,-0.9563124775886536,-0.32615000009536743,-0.6437749862670898
1781033904782569500,3.660569580078125,-1.1622874736785889,-0.14368750154972076,-0.7481374740600586
1781033904802081800,3.680081787109375,-1.1372624635696411,-0.2143625020980835,-0.7240750193595886
1781033904821590800,3.6995908203125,-0.8284375071525574,-0.7343875169754028,-0.5963374972343445
1781033904841098800,3.7190986328125,-0.2877874970436096,-1.5932124853134155,-0.4092000126838684
1781033904860609500,3.738609619140625,0.34718748927116394,-2.453274965286255,-0.21518750488758087
1781033904880124400,3.75812451171875,0.9124500155448914,-2.989799976348877,-0.05664999783039093
1781033904899639000,3.77763916015625,1.3323750495910645,-3.1524624824523926,0.04853750020265579
1781033904919155200,3.7971552734375,1.6458749771118164,-3.1457250118255615,0.09817499667406082
1781033904938673000,3.8166728515625,1.9739500284194946,-3.263012409210205,0.12196250259876251
1781033904958191900,3.83619189453125,2.428112506866455,-3.6562623977661133,0.18603749573230743
1781033904977708300,3.855708251953125,3.0034124851226807,-4.255762577056885,0.3513124883174896
1781033904997218600,3.875218505859375,3.521237373352051,-4.813324928283691,0.6015625
1781033905016734700,3.894734619140625,3.7514123916625977,-5.0569748878479,0.8350374698638916
1781033905036255700,3.914255859375,3.61899995803833,-4.8882622718811035,0.9615374803543091
1781033905055773700,3.933773681640625,3.240187406539917,-4.425300121307373,0.9699249863624573
1781033905075292200,3.953292236328125,2.7810750007629395,-3.8715875148773193,0.9011750221252441
1781033905094807300,3.972807373046875,2.3442375659942627,-3.3728749752044678,0.8046500086784363
1781033905114319000,3.992319091796875,1.9636374711990356,-2.978250026702881,0.7129374742507935
1781033905133834500,4.01183447265625,1.6202999353408813,-2.643850088119507,0.6276875138282776
1781033905153353200,4.031353271484375,1.2706375122070312,-2.284287452697754,0.5299249887466431
1781033905172872400,4.05087255859375,0.8863250017166138,-1.8468999862670898,0.4059000015258789
1781033905192395000,4.07039501953125,0.47561249136924744,-1.3567124605178833,0.2595999836921692
1781033905211921200,4.089921142578125,0.08098749816417694,-0.9022749662399292,0.1083500012755394
1781033905231437000,4.10943701171875,-0.2424124926328659,-0.5788750052452087,-0.02447500079870224
1781033905250948000,4.128947998046875,-0.45416250824928284,-0.4302375018596649,-0.11948750168085098
1781033905270463000,4.148462890625,-0.5593500137329102,-0.41786250472068787,-0.1746249943971634
1781033905289980400,4.16798046875,-0.6264500021934509,-0.43326249718666077,-0.20776249468326569
1781033905309490700,4.18749072265625,-0.7317749857902527,-0.381012499332428,-0.2363625019788742
1781033905328994600,4.20699462890625,-0.8812375068664551,-0.258774995803833,-0.2586374878883362
1781033905348502800,4.226502685546875,-1.031387448310852,-0.1313125044107437,-0.25905001163482666
1781033905368009700,4.246009765625,-1.1631125211715698,-0.037812501192092896,-0.2437874972820282
1781033905387517400,4.265517333984375,-1.2897499799728394,0.038224998861551285,-0.24323749542236328
1781033905407027200,4.285027099609375,-1.4066250324249268,0.1260875016450882,-0.28146249055862427
1781033905426538200,4.304538330078125,-1.4679499864578247,0.22247499227523804,-0.3438875079154968
1781033905446053600,4.3240537109375,-1.4679499864578247,0.22247499227523804,-0.3438875079154968
1781033905465569300,4.3435693359375,-1.276824951171875,0.31652501225471497,-0.3609375059604645
1781033905485086200,4.363086181640625,-1.276824951171875,0.31652501225471497,-0.3609375059604645
1781033905504603100,4.38260302734375,-1.0280874967575073,0.2868250012397766,-0.2910875082015991
1781033905524115500,4.402115478515625,-0.4496249854564667,0.22316250205039978,-0.1340624988079071
1781033905543624000,4.4216240234375,-0.4496249854564667,0.22316250205039978,-0.1340624988079071
1781033905563136500,4.441136474609375,-0.4496249854564667,0.22316250205039978,-0.1340624988079071
1781033905582650600,4.460650634765625,-0.1494625061750412,0.5130124688148499,-0.22550000250339508
1781033905602168800,4.4801689453125,-0.11343749612569809,0.8483750224113464,-0.415800005197525
1781033905621684700,4.499684814453125,-0.1845249980688095,1.376787543296814,-0.7503374814987183
1781033905641197300,4.519197265625,-0.49678748846054077,2.2510125637054443,-1.3087249994277954
1781033905660712700,4.538712646484375,-1.1967999935150146,3.65901255607605,-2.105949878692627
1781033905680227600,4.5582275390625,-2.245650053024292,5.624162673950195,-2.944424867630005
1781033905699742700,4.57774267578125,-3.1077749729156494,7.124012470245361,-3.3094875812530518
1781033905719260700,4.5972607421875,-3.2902374267578125,7.972112655639648,-3.0456249713897705
1781033905738777300,4.61677734375,-2.8142125606536865,7.856612682342529,-2.363762378692627
1781033905758287000,4.636287109375,-2.0611250400543213,7.1185126304626465,-1.6075124740600586
1781033905777793800,4.655793701171875,-1.3499749898910522,6.407637596130371,-0.9638749957084656
1781033905797304000,4.675303955078125,-0.8118000030517578,5.281512260437012,-0.47066250443458557
1781033905816812800,4.694812744140625,-0.4536125063896179,4.28573751449585,-0.10312499850988388
1781033905836321000,4.714321044921875,-0.19744999706745148,3.423062562942505,0.17861250042915344
1781033905855836700,4.733836669921875,0.026124998927116394,2.657599925994873,0.3889875113964081
1781033905875349500,4.753349609375,0.21312500536441803,1.9487874507904053,0.5094375014305115
1781033905894860300,4.7728603515625,0.3016749918460846,1.274899959564209,0.5143874883651733
1781033905914371600,4.79237158203125,0.23966249823570251,0.6712750196456909,0.40892499685287476
1781033905933883000,4.8118828125,0.03918749839067459,0.201712504029274,0.2377374917268753
1781033905953394400,4.83139453125,-0.21697500348091125,-0.10711249709129333,0.06228749826550484
1781033905972905500,4.850905517578125,-0.41923749446868896,-0.3119874894618988,-0.06971249729394913
1781033905992420900,4.8704208984375,-0.4988499879837036,-0.4961000084877014,-0.14162500202655792
1781033906011936300,4.889936279296875,-0.4676375091075897,-0.6972625255584717,-0.1658249944448471
1781033906031445000,4.909445068359375,-0.3793624937534332,-0.9253749847412109,-0.1676124930381775
1781033906050954200,4.928954345703125,-0.24928750097751617,-1.1985875368118286,-0.16664999723434448
1781033906070469600,4.9484697265625,-0.03478749841451645,-1.5463249683380127,-0.16362500190734863
1781033906089984500,4.967984619140625,0.31597501039505005,-1.9820624589920044,-0.14079999923706055
1781033906109491700,4.98749169921875,0.8210124969482422,-2.494112491607666,-0.07796250283718109
1781033906129001200,5.007001220703125,1.469599962234497,-3.0736749172210693,0.021587500348687172
1781033906148515600,5.026515625,2.2560999393463135,-3.752237558364868,0.14423750340938568
1781033906168025000,5.046025146484375,3.156862497329712,-4.562937259674072,0.3011249899864197
1781033906187532500,5.065532470703125,4.068487644195557,-5.446925163269043,0.5123249888420105
1781033906207043300,5.085043212890625,4.785824775695801,-6.194512367248535,0.7607874870300293
1781033906226555000,5.104554931640625,5.088600158691406,-6.526437282562256,0.977899968624115
1781033906246062000,5.12406201171875,4.8983001708984375,-6.300525188446045,1.1032999753952026
1781033906265570600,5.143570556640625,4.335100173950195,-5.623612403869629,1.1340999603271484
1781033906285079600,5.16307958984375,3.6088249683380127,-4.73618745803833,1.100000023841858
1781033906304585200,5.182585205078125,3.6088249683380127,-4.73618745803833,1.100000023841858
1781033906324092400,5.202092529296875,2.222137451171875,-2.9519875049591064,0.8992499709129333
1781033906343600000,5.22160009765625,2.222137451171875,-2.9519875049591064,0.8992499709129333
1781033906363107600,5.241107666015625,2.222137451171875,-2.9519875049591064,0.8992499709129333
1781033906382615000,5.260614990234375,1.132312536239624,-1.3774750232696533,0.5240125060081482
1781033906402121000,5.280120849609375,0.697950005531311,-0.8942999839782715,0.3550249934196472
1781033906421627100,5.299627197265625,0.3297249972820282,-0.6807624697685242,0.23485000431537628
1781033906441135900,5.319135986328125,0.011824999935925007,-0.612012505531311,0.13997499644756317
1781033906460648400,5.3386484375,-0.2667500078678131,-0.553849995136261,0.04152499884366989
1781033906480164000,5.3581640625,-0.5021499991416931,-0.47327500581741333,-0.05829999968409538
1781033906499673600,5.377673583984375,-0.7121124863624573,-0.3632749915122986,-0.1438249945640564
1781033906519183000,5.39718310546875,-0.9461374878883362,-0.19222499430179596,-0.2180749922990799
1781033906538697500,5.416697509765625,-1.205187439918518,0.0057749999687075615,-0.2934249937534332
1781033906558213000,5.436213134765625,-1.4308249950408936,0.14093749225139618,-0.37331250309944153
1781033906577730600,5.45573046875,-1.5824874639511108,0.17943750321865082,-0.45526251196861267
1781033906597244700,5.47524462890625,-1.694000005722046,0.1970375031232834,-0.5454624891281128
1781033906616755000,5.4947548828125,-1.8220125436782837,0.29906249046325684,-0.65972501039505
1781033906636264000,5.514263916015625,-1.9320124387741089,0.4652999937534332,-0.7680749893188477
1781033906655771400,5.533771484375,-1.9072624444961548,0.5489000082015991,-0.780037522315979
1781033906675278800,5.55327880859375,-1.6659499406814575,0.42611250281333923,-0.6206749677658081
1781033906694785500,5.57278564453125,-1.2289749383926392,0.09418749809265137,-0.2901250123977661
1781033906714294800,5.592294677734375,-0.7074375152587891,-0.3315125107765198,0.13103750348091125
1781033906733809400,5.611809326171875,-0.24777500331401825,-0.6621999740600586,0.4987125098705292
1781033906753319400,5.6313193359375,0.07204999774694443,-0.7635374665260315,0.6957499980926514
1781033906772827100,5.6508271484375,0.26977500319480896,-0.6157249808311462,0.6880499720573425
1781033906792340500,5.670340576171875,0.3279374837875366,-0.18438750505447388,0.43642500042915344
1781033906811852500,5.6898525390625,0.06159999966621399,0.7316374778747559,-0.17710000276565552
1781033906831364900,5.70936474609375,-0.8129000067710876,2.448050022125244,-1.2335125207901
1781033906850875100,5.728875244140625,-2.259812593460083,4.979974746704102,-2.4428250789642334
1781033906870381800,5.7483818359375,-3.5106499195098877,7.15866231918335,-3.0938875675201416
1781033906889894000,5.767893798828125,-3.8440873622894287,8.47137451171875,-2.9195375442504883
1781033906909409000,5.787408935546875,-3.2815749645233154,8.592787742614746,-2.222825050354004
1781033906928921000,5.806921142578125,-2.369537591934204,7.921374797821045,-1.4530999660491943
1781033906948436000,5.82643603515625,-1.5361499786376953,6.9156999588012695,-0.8379250168800354
1781033906967949300,5.84594921875,-0.9345874786376953,6.119575023651123,-0.41552498936653137
1781033906987460600,5.865460693359375,-0.5418875217437744,5.073750019073486,-0.14354999363422394
1781033907006973700,5.8849736328125,-0.28283751010894775,4.1882500648498535,0.0364375002682209
1781033907026483200,5.904483154296875,-0.28283751010894775,4.1882500648498535,0.0364375002682209
1781033907045989000,5.923989013671875,-0.28283751010894775,4.1882500648498535,0.0364375002682209
1781033907065495300,5.943495361328125,0.022687500342726707,2.6195125579833984,0.24818749725818634
1781033907085005300,5.96300537109375,0.07603749632835388,1.0813000202178955,0.28283751010894775
1781033907104515600,5.982515625,0.07603749632835388,1.0813000202178955,0.28283751010894775
1781033907124029400,6.002029541015625,-0.14891250431537628,-0.1046374961733818,0.15853749215602875
1781033907143547400,6.02154736328125,-0.14891250431537628,-0.1046374961733818,0.15853749215602875
1781033907163066600,6.041066650390625,-0.14891250431537628,-0.1046374961733818,0.15853749215602875
1781033907182580700,6.060580810546875,-0.4558124840259552,-0.8929250240325928,-0.07906249910593033
1781033907202088400,6.08008837890625,-0.5350124835968018,-1.1871750354766846,-0.17256249487400055
1781033907221595400,6.099595458984375,-0.5207124948501587,-1.465749979019165,-0.21917499601840973
1781033907241107700,6.119107666015625,-0.392425000667572,-1.7539499998092651,-0.22687499225139618
1781033907260623000,6.138623046875,-0.14423750340938568,-2.0726749897003174,-0.21312500536441803
1781033907280136400,6.158136474609375,0.2250874936580658,-2.441725015640259,-0.179299995303154
1781033907299647200,6.177647216796875,0.6943749785423279,-2.8634374141693115,-0.13983750343322754
1781033907319159000,6.197158935546875,1.2582625150680542,-3.35898756980896,-0.11302500218153
1781033907338671000,6.216671142578125,1.9874249696731567,-4.018849849700928,-0.05816249921917915
1781033907358183000,6.236182861328125,2.9419500827789307,-4.91328763961792,0.11275000125169754
1781033907377693700,6.255693603515625,4.014037609100342,-5.930375099182129,0.4345000088214874
1781033907397203500,6.275203369140625,4.886475086212158,-6.725399971008301,0.8080874681472778
1781033907416715800,6.2947158203125,5.079249858856201,-6.592024803161621,1.0759375095367432
1781033907436230700,6.314230712890625,5.024937629699707,-6.509662628173828,1.1657249927520752
1781033907455740700,6.33374072265625,4.445237636566162,-5.665824890136719,1.0942250490188599
1781033907475251500,6.35325146484375,3.734912395477295,-4.685174942016602,0.9224874973297119
1781033907494764500,6.3727646484375,3.0391623973846436,-3.7434375286102295,0.7042750120162964
1781033907514273500,6.3922734375,2.4153249263763428,-2.906062602996826,0.48042500019073486
1781033907533782500,6.411782470703125,1.871512532234192,-2.1711249351501465,0.2806375026702881
1781033907553291500,6.43129150390625,1.3981000185012817,-1.5204750299453735,0.11893749982118607
1781033907572801500,6.450801513671875,0.985462486743927,-0.9476500153541565,-0.011687500402331352
1781033907592314600,6.470314697265625,0.6260374784469604,-0.4595249891281128,-0.13557499647140503
1781033907611833300,6.489833251953125,0.3092375099658966,-0.06764999777078629,-0.27073749899864197
1781033907631351800,6.509351806640625,0.021449999883770943,0.219587504863739,-0.40603750944137573
1781033907650867000,6.528866943359375,-0.2611125111579895,0.41263750195503235,-0.5016000270843506
1781033907670380500,6.548380615234375,-0.5593500137329102,0.5376250147819519,-0.5229125022888184
1781033907689893000,6.56789306640625,-0.8655624985694885,0.6133875250816345,-0.48083749413490295
1781033907709406200,6.58740625,-1.1478500366210938,0.6429499983787537,-0.4230875074863434
1781033907728917500,6.60691748046875,-1.3660625219345093,0.6180624961853027,-0.3899500072002411
1781033907748431000,6.62643115234375,-1.4973750114440918,0.5355625152587891,-0.3817000091075897
1781033907767944000,6.64594384765625,-1.5500375032424927,0.4090625047683716,-0.37056249380111694
1781033907787449000,6.665448974609375,-1.5551249980926514,0.2737624943256378,-0.3422375023365021
1781033907806955500,6.68495556640625,-1.5423375368118286,0.16142499446868896,-0.3092375099658966
1781033907826467000,6.704467041015625,-1.5002624988555908,0.05335000157356262,-0.2774749994277954
1781033907845980400,6.72398046875,-1.5002624988555908,0.05335000157356262,-0.2774749994277954
1781033907865494300,6.743494384765625,-1.1441375017166138,-0.34952500462532043,-0.0906125009059906
1781033907885010400,6.763010498046875,-0.8677625060081482,-0.5010499954223633,0.04028749838471413
1781033907904520200,6.782520263671875,-0.8677625060081482,-0.5010499954223633,0.04028749838471413
1781033907924031700,6.80203173828125,-0.3601124882698059,-0.3394874930381775,0.16183750331401825
1781033907943546600,6.821546630859375,-0.3601124882698059,-0.3394874930381775,0.16183750331401825
1781033907963058700,6.84105859375,-0.3601124882698059,-0.3394874930381775,0.16183750331401825
1781033907982568700,6.860568603515625,-0.040562499314546585,0.35186249017715454,0.021724998950958252
1781033908002077400,6.880077392578125,-0.17036250233650208,1.1598124504089355,-0.29534998536109924
1781033908021585400,6.89958544921875,-0.12526249885559082,2.19064998626709,-0.5035250186920166
1781033908041088500,6.919088623046875,0.18424999713897705,3.164562463760376,-0.5268999934196472
1781033908060592600,6.938592529296875,0.4302375018596649,3.9664623737335205,-0.5619624853134155
1781033908080103400,6.958103515625,0.6154500246047974,4.803012371063232,-0.5924875140190125
1781033908099619000,6.977619140625,0.7385125160217285,5.868912696838379,-0.5246999859809875
1781033908119132700,6.997132568359375,0.8010749816894531,6.595462322235107,-0.4646124839782715
1781033908138644700,7.016644775390625,0.5268999934196472,7.128412246704102,-0.16775000095367432
1781033908158161700,7.03616162109375,0.19744999706745148,7.0573248863220215,0.4441249966621399
1781033908177679600,7.0556796875,0.1929125040769577,6.483537673950195,1.012137532234192
1781033908197194200,7.0751943359375,0.26317501068115234,5.871662616729736,1.4785374402999878
1781033908216707300,7.094707275390625,0.3521375060081482,4.938449859619141,1.8367249965667725
1781033908236218000,7.114218017578125,0.522225022315979,4.173537254333496,2.1302874088287354
1781033908255725300,7.133725341796875,0.7969499826431274,3.570050001144409,2.3379125595092773
1781033908275234600,7.153234619140625,1.0459624528884888,2.9827873706817627,2.382187604904175
1781033908294742800,7.17274267578125,1.050225019454956,2.235062599182129,2.112962484359741
1781033908314248000,7.192248046875,0.6822749972343445,1.2698124647140503,1.5934875011444092
1781033908333757200,7.211757080078125,0.48977500200271606,0.17971250414848328,1.0753874778747559
1781033908353268200,7.231268310546875,0.6298875212669373,-0.6601374745368958,0.17778749763965607
1781033908372776700,7.250776611328125,0.6624749898910522,-1.0862499475479126,-0.8960874676704407
1781033908392285400,7.270285400390625,0.3782624900341034,-1.4035999774932861,-1.4194124937057495
1781033908411796700,7.289796630859375,0.11329999566078186,-1.722737431526184,-1.469462513923645
1781033908431310600,7.309310546875,0.1798499971628189,-2.104024887084961,-1.3329249620437622
1781033908450824400,7.328824462890625,0.3460874855518341,-2.7240123748779297,-1.256887435913086
1781033908470341400,7.34834130859375,0.6595875024795532,-3.625462532043457,-1.272837519645691
1781033908489862100,7.367862060546875,1.1957000494003296,-4.631137371063232,-1.2617000341415405
1781033908509384700,7.387384765625,1.8319125175476074,-5.422862529754639,-1.134374976158142
1781033908528907500,7.406907470703125,2.390437602996826,-5.825462341308594,-0.8914124965667725
1781033908548428500,7.426428466796875,2.8648123741149902,-5.998437404632568,-0.5622375011444092
1781033908567947500,7.445947509765625,3.439424991607666,-6.389074802398682,-0.1387374997138977
1781033908587460000,7.465460205078125,4.0569376945495605,-6.800337314605713,0.35804998874664307
1781033908606971100,7.48497119140625,4.513575077056885,-7.448925018310547,0.7929624915122986
1781033908626486800,7.50448681640625,4.404399871826172,-7.438887596130371,0.9805124998092651
1781033908646003200,7.524003173828125,4.404399871826172,-7.438887596130371,0.9805124998092651
1781033908665517300,7.543517333984375,3.7437124252319336,-6.503475189208984,0.8588249683380127
1781033908685027600,7.563027587890625,2.107599973678589,-3.4570250511169434,0.2829749882221222
1781033908704536000,7.5825361328125,2.107599973678589,-3.4570250511169434,0.2829749882221222
1781033908724049400,7.60204931640625,1.1881375312805176,-1.4815624952316284,0.0010999999940395355
1781033908743562500,7.6215625,1.1881375312805176,-1.4815624952316284,0.0010999999940395355
1781033908763076900,7.641076904296875,0.9882124662399292,-1.1231000423431396,-0.028737500309944153
1781033908782591700,7.660591796875,0.8472750186920166,-0.9374749660491943,-0.04936249926686287
1781033908802103800,7.680103759765625,0.6732000112533569,-0.7419499754905701,-0.09336250275373459
1781033908821613600,7.699613525390625,0.4305124878883362,-0.4959625005722046,-0.15097500383853912
1781033908841123600,7.71912353515625,0.15344999730587006,-0.2919124960899353,-0.18754999339580536
1781033908860631600,7.738631591796875,-0.1060125008225441,-0.18521249294281006,-0.1835625022649765
1781033908880138200,7.75813818359375,-0.33082500100135803,-0.11178749799728394,-0.148499995470047
1781033908899652400,7.77765234375,-0.522362470626831,0.00013749999925494194,-0.09129999577999115
1781033908919166500,7.79716650390625,-0.6759499907493591,0.1358499974012375,-0.0031624999828636646
1781033908938677500,7.816677490234375,-0.7968124747276306,0.2576749920845032,0.10284999758005142
1781033908958188800,7.836188720703125,-0.8922374844551086,0.34718748927116394,0.18672500550746918
1781033908977699300,7.85569921875,-0.9521874785423279,0.3716624975204468,0.2246749997138977
1781033908997208000,7.8752080078125,-0.9542499780654907,0.29356250166893005,0.233474999666214
1781033909016717600,7.894717529296875,-0.9037874937057495,0.11384999752044678,0.2539624869823456
1781033909036233200,7.914233154296875,-0.8408125042915344,-0.11893749982118607,0.3144625127315521
1781033909055749000,7.9337490234375,-0.7942000031471252,-0.3474625051021576,0.41263750195503235
1781033909075262500,7.953262451171875,-0.7666999697685242,-0.5181000232696533,0.5105375051498413
1781033909094778000,7.972778076171875,-0.7627124786376953,-0.5682874917984009,0.5478000044822693
1781033909114299000,7.992298828125,-0.8321499824523926,-0.4101625084877014,0.4655750095844269
1781033909133817000,8.011817138671875,-1.041700005531311,0.01924999989569187,0.22522500157356262
1781033909153330700,8.03133056640625,-1.386549949645996,0.6615124940872192,-0.1568875014781952
1781033909172845000,8.050844970703125,-1.696062445640564,1.2826000452041626,-0.5369374752044678
1781033909192360700,8.070360595703125,-1.7142125368118286,1.6312999725341797,-0.7299875020980835
1781033909211875800,8.089875732421875,-1.4225749969482422,1.767699956893921,-0.764912486076355
1781033909231390200,8.10939013671875,-1.1626999378204346,2.0971500873565674,-0.9211124777793884
1781033909250902800,8.12890283203125,-1.3509374856948853,3.0130374431610107,-1.4104750156402588
1781033909270416600,8.148416748046875,-2.001587390899658,4.443725109100342,-2.0356874465942383
1781033909289932000,8.16793212890625,-2.6224000453948975,5.779124736785889,-2.3449249267578125
1781033909309446000,8.18744580078125,-2.7511000633239746,6.417812347412109,-2.146512508392334
1781033909328958500,8.20695849609375,-2.402400016784668,6.308225154876709,-1.6297874450683594
1781033909348471300,8.22647119140625,-1.853637456893921,5.76743745803833,-1.0500874519348145
1781033909367987200,8.2459873046875,-1.3289375305175781,5.111562252044678,-0.5422999858856201
1781033909387501800,8.265501708984376,-0.9448999762535095,4.571324825286865,-0.1307625025510788
1781033909407015200,8.28501513671875,-0.7050999999046326,4.228399753570557,0.22068749368190765
1781033909426530600,8.304530517578126,-0.5460125207901001,4.001112461090088,0.5442249774932861
1781033909446046000,8.3240458984375,-0.5460125207901001,4.001112461090088,0.5442249774932861
1781033909465558300,8.343558349609374,-0.3353624939918518,3.2465124130249023,0.9743250012397766
1781033909485071000,8.363071044921876,-0.3353624939918518,3.2465124130249023,0.9743250012397766
1781033909504583400,8.38258349609375,-0.4031499922275543,2.6721749305725098,0.9473749995231628
1781033909524100400,8.402100341796874,-0.940637469291687,1.6895999908447266,0.5274500250816345
1781033909543620900,8.421620849609376,-0.940637469291687,1.6895999908447266,0.5274500250816345
1781033909563135500,8.441135498046876,-0.940637469291687,1.6895999908447266,0.5274500250816345
1781033909582646000,8.46064599609375,-1.3124375343322754,0.938712477684021,0.06778749823570251
1781033909602156000,8.480156005859374,-1.3215124607086182,0.41538751125335693,-0.1471250057220459
1781033909621669600,8.499669677734374,-1.2522125244140625,-0.2326499968767166,-0.3452624976634979
1781033909641189600,8.519189697265626,-1.1093499660491943,-0.8870124816894531,-0.4969249963760376
1781033909660707300,8.538707275390625,-0.9047499895095825,-1.4011249542236328,-0.5785999894142151
1781033909680218400,8.55821826171875,-0.6749874949455261,-1.7428125143051147,-0.6051374673843384
1781033909699727000,8.57772705078125,-0.4281750023365021,-2.0340375900268555,-0.6135249733924866
1781033909719240200,8.597240234375,-0.11082500219345093,-2.457674980163574,-0.6187499761581421
1781033909738756600,8.616756591796875,0.3792249858379364,-3.1512250900268555,-0.5843750238418579
1781033909758271000,8.63627099609375,1.1459250450134277,-4.153049945831299,-0.4305124878883362
1781033909777787600,8.65578759765625,2.1949124336242676,-5.385324954986572,-0.08923749625682831
1781033909797311200,8.675311279296874,3.316225051879883,-6.596562385559082,0.41923749446868896
1781033909816832500,8.69483251953125,4.042500019073486,-6.943887233734131,0.9362375140190125
1781033909836349200,8.71434912109375,4.312550067901611,-6.995587348937988,1.300612449645996
1781033909855864800,8.73386474609375,4.226062297821045,-6.660637378692627,1.4961374998092651
1781033909875381800,8.7533818359375,4.049375057220459,-6.509662628173828,1.5769875049591064
1781033909894894800,8.772894775390625,3.6891250610351562,-6.006962299346924,1.564887523651123
1781033909914406700,8.79240673828125,3.261087417602539,-5.476900100708008,1.4759249687194824
1781033909933921500,8.811921630859375,2.780250072479248,-4.82061243057251,1.302262544631958
1781033909953433900,8.831433837890625,2.273012399673462,-3.9765000343322754,1.042525053024292
1781033909972944000,8.85094384765625,1.7996000051498413,-3.0281624794006348,0.7268249988555908
1781033909992456700,8.870456787109376,1.410062551498413,-2.128774881362915,0.39338749647140503
1781033910011974400,8.889974365234375,1.0835000276565552,-1.3479125499725342,0.06751249730587006
1781033910031492900,8.909492919921876,0.7455250024795532,-0.6144874691963196,-0.23127499222755432
1781033910051010000,8.929010009765625,0.382937490940094,0.16046249866485596,-0.2774749994277954
1781033910070527500,8.948527587890625,0.09721250087022781,0.8907250165939331,-0.0943249985575676
1781033910090047500,8.968047607421875,-0.10051249712705612,1.3762375116348267,0.035337500274181366
1781033910109563600,8.987563720703125,-0.3755125105381012,1.517449975013733,0.02708750031888485
1781033910129078000,9.007078125,-0.686537504196167,1.380637526512146,-0.04331250116229057
1781033910148598000,9.026597900390625,-0.9002124667167664,1.0733250379562378,-0.08277499675750732
1781033910168119800,9.046119873046875,-1.0289125442504883,0.6374499797821045,-0.06737499684095383
1781033910187641900,9.065641845703125,-1.0810250043869019,0.1311749964952469,0.03616249933838844
1781033910207163600,9.08516357421875,-1.0778625011444092,-0.3470500111579895,0.18095000088214874
1781033910226680000,9.10468017578125,-1.04830002784729,-0.7118374705314636,0.3073124885559082
1781033910246194700,9.124194580078125,-1.0082875490188599,-0.9351375102996826,0.3796375095844269
1781033910265714400,9.14371435546875,-1.0082875490188599,-0.9351375102996826,0.3796375095844269
1781033910285234700,9.163234619140624,-0.9267500042915344,-1.0847375392913818,0.41167500615119934
1781033910304750300,9.182750244140625,-0.7434625029563904,-1.303225040435791,0.5017374753952026
1781033910324266000,9.202265869140625,-0.43312498927116394,-1.697024941444397,0.7822374701499939
1781033910343782400,9.221782470703126,-0.43312498927116394,-1.697024941444397,0.7822374701499939
1781033910363298800,9.241298828125,0.10615000128746033,-2.2471625804901123,1.554574966430664
1781033910382813700,9.260813720703124,0.03437500074505806,-1.7087124586105347,1.4195499420166016
1781033910402328300,9.280328369140625,-0.26413750648498535,-0.6613749861717224,0.8243125081062317
1781033910421842400,9.299842529296875,-0.6710000038146973,0.527037501335144,0.031075000762939453
1781033910441357300,9.319357421875,-1.044724941253662,1.5434374809265137,-0.677049994468689
1781033910460872400,9.33887255859375,-1.377750039100647,2.42398738861084,-1.291812539100647
1781033910480384000,9.358384033203125,-1.7850250005722046,3.408487558364868,-1.9764249324798584
1781033910499899400,9.3778994140625,-2.372425079345703,4.645987510681152,-2.7909750938415527
1781033910519421200,9.397421142578125,-3.2462375164031982,6.253912448883057,-3.7163500785827637
1781033910538938000,9.416938232421876,-4.241049766540527,7.625199794769287,-4.438912391662598
1781033910558450000,9.436449951171875,-5.002387523651123,8.973250389099121,-4.722024917602539
1781033910577963300,9.45596337890625,-4.968562602996826,9.517749786376953,-4.285600185394287
1781033910597476900,9.475476806640625,-4.1438374519348145,9.196962356567383,-3.3463375568389893
1781033910616988000,9.49498779296875,-2.9760499000549316,8.372099876403809,-2.2886874675750732
1781033910636499000,9.5144990234375,-1.8453874588012695,7.367799758911133,-1.3366374969482422
1781033910656011300,9.53401123046875,-0.9136874675750732,6.659262657165527,-0.5619624853134155
1781033910675522000,9.55352197265625,-0.24626250565052032,5.540287494659424,0.005912499967962503
1781033910695033600,9.57303369140625,0.07177499681711197,4.447849750518799,0.32766249775886536
1781033910714543000,9.592543212890625,0.006324999965727329,3.3587124347686768,0.3937999904155731
1781033910753559800,9.631559814453125,-0.7426375150680542,1.4247750043869019,0.0812624990940094
1781033910773067000,9.65106689453125,-1.012137532234192,0.8194999694824219,-0.058024998754262924
1781033910792575500,9.670575439453126,-1.0865249633789062,0.49472498893737793,-0.11495000123977661
1781033910812089000,9.690089111328126,-1.0362000465393066,0.32945001125335693,-0.12251249700784683
1781033910831604200,9.709604248046874,-0.9961875081062317,0.15661250054836273,-0.14231249690055847
1781033910851118800,9.729118896484374,-1.0498124361038208,-0.1280124932527542,-0.20184999704360962
1781033910870630000,9.7486298828125,-1.1679250001907349,-0.5446375012397766,-0.2694999873638153
1781033910890143000,9.76814306640625,-1.2603249549865723,-1.0517375469207764,-0.2985124886035919
1781033910909660000,9.787659912109374,-1.2736624479293823,-1.5765750408172607,-0.2780250012874603
1781033910929177300,9.80717724609375,-1.209725022315979,-2.075974941253662,-0.2307250052690506
1781033910948696600,9.826696533203124,-1.0362000465393066,-2.5766124725341797,-0.14176249504089355
1781033910968212700,9.846212646484375,-0.6399250030517578,-3.174187421798706,0.06998749822378159
1781033910987725600,9.8657255859375,0.16307500004768372,-4.02792501449585,0.5428500175476074
1781033911007243800,9.885243896484376,1.5214375257492065,-5.273537635803223,1.4035999774932861
1781033911026764800,9.904764892578125,3.3130624294281006,-6.523962497711182,2.5852749347686768
1781033911046286300,9.924286376953125,5.20808744430542,-7.9733500480651855,3.8798375129699707
1781033911065811200,9.943811279296876,6.723062515258789,-9.140449523925781,4.984375
1781033911085333200,9.963333251953125,7.283787250518799,-9.50730037689209,5.455450057983398
1781033911104849400,9.982849365234374,6.735987663269043,-8.811962127685547,5.06357479095459
1781033911124371000,10.002370849609376,6.735987663269043,-8.811962127685547,5.06357479095459
1781033911143895800,10.021895751953124,4.455550193786621,-6.132912635803223,3.087975025177002
1781033911163416800,10.041416748046874,4.455550193786621,-6.132912635803223,3.087975025177002
1781033911182934500,10.0609345703125,3.357612371444702,-4.561699867248535,2.135512590408325
1781033911202454300,10.080454345703124,2.491912603378296,-3.215437412261963,1.3725249767303467
1781033911221976800,10.099976806640624,1.8364499807357788,-2.0733625888824463,0.7816874980926514
1781033911241495300,10.119495361328125,1.3860000371932983,-1.1478500366210938,0.3470500111579895
1781033911261013000,10.139012939453124,1.1203500032424927,-0.45512500405311584,0.03918749839067459
1781033911280536600,10.15853662109375,0.9817500114440918,0.009212499484419823,-0.1765500009059906
1781033911300057000,10.17805712890625,0.8901749849319458,0.2938374876976013,-0.3250499963760376
1781033911319574300,10.19757421875,0.7748125195503235,0.46598750352859497,-0.4039750099182129
1781033911339096300,10.217096435546875,0.5867124795913696,0.5687000155448914,-0.39077499508857727
1781033911358619600,10.23661962890625,0.30896249413490295,0.6347000002861023,-0.29315000772476196
1781033911378136600,10.256136474609375,-0.03849999979138374,0.6837875247001648,-0.15565000474452972
1781033911397651700,10.275651611328126,-0.4067249894142151,0.7046874761581421,-0.025162499397993088
1781033911417168000,10.29516796875,-0.7422249913215637,0.6654999852180481,0.07438749819993973
1781033911436684800,10.314684814453125,-1.012274980545044,0.550000011920929,0.13928750157356262
1781033911456201000,10.334200927734376,-1.193637490272522,0.36918750405311584,0.17476250231266022
1781033911475719400,10.353719482421875,-1.2770999670028687,0.15950000286102295,0.1956624984741211
1781033911495242000,10.373241943359375,-1.2879624366760254,-0.015399999916553497,0.20350000262260437
1781033911514759400,10.392759521484376,-1.2659624814987183,-0.11192499846220016,0.18837499618530273
1781033911534271500,10.412271484375,-1.205049991607666,-0.17778749763965607,0.18548749387264252
1781033911553785300,10.431785400390625,-1.039775013923645,-0.335224986076355,0.28806251287460327
1781033911573296400,10.45129638671875,-0.7272375226020813,-0.6282374858856201,0.5464249849319458
1781033911592804600,10.4708046875,-0.33178749680519104,-0.9186375141143799,0.866112470626831
1781033911612323000,10.490322998046874,0.016362499445676804,-1.0080125331878662,1.0799249410629272
1781033911631842000,10.509842041015625,0.23003749549388885,-0.8277499675750732,1.1031625270843506
1781033911651357400,10.529357421875,0.31693750619888306,-0.4721750020980835,0.9789999723434448
1781033911670874400,10.548874267578125,0.34402498602867126,-0.07315000146627426,0.7933750152587891
1781033911690390500,10.568390625,0.3110249936580658,0.3833499848842621,0.5478000044822693
1781033911709909500,10.587909423828124,0.08524999767541885,1.0947749614715576,0.13529999554157257
1781033911729427700,10.607427734375,-0.549037516117096,2.3452000617980957,-0.5876749753952026
1781033911748944000,10.62694384765625,-1.801800012588501,4.39243745803833,-1.6667749881744385
1781033911768461000,10.6464609375,-3.626149892807007,6.90387487411499,-2.8199875354766846
1781033911787978000,10.66597802734375,-5.363325119018555,9.447487831115723,-3.444237470626831
1781033911807492600,10.68549267578125,-5.998437404632568,10.913100242614746,-3.1543874740600586
1781033911827007500,10.705007568359376,-5.316712379455566,10.946925163269043,-2.251149892807007
1781033911846525000,10.72452490234375,-3.922187566757202,9.947574615478516,-1.209725022315979
1781033911866039600,10.74403955078125,-2.457124948501587,8.490762710571289,-0.2773374915122986
1781033911885554000,10.763553955078125,-1.2905750274658203,6.982112407684326,0.4474250078201294
1781033911905069300,10.7830693359375,-1.2905750274658203,6.982112407684326,0.4474250078201294
1781033911924587000,10.8025869140625,-0.5605875253677368,5.813912391662598,0.9094250202178955
1781033911944105700,10.822105712890625,-0.3148750066757202,3.3118250370025635,0.9905499815940857
1781033911963619800,10.841619873046875,-0.3148750066757202,3.3118250370025635,0.9905499815940857
1781033911983129600,10.861129638671875,-0.3148750066757202,3.3118250370025635,0.9905499815940857
1781033912002643000,10.880642822265624,-0.7947499752044678,1.4573625326156616,0.43092501163482666
1781033912022156500,10.900156494140624,-0.9668999910354614,0.722837507724762,0.1722874939441681
1781033912041670000,10.919669921875,-1.0748374462127686,0.09872499853372574,-0.014299999922513962
1781033912061184000,10.93918408203125,-1.1496374607086182,-0.4017750024795532,-0.14918750524520874
1781033912080692200,10.958692138671875,-1.200374960899353,-0.7911750078201294,-0.2648249864578247
1781033912100201700,10.97820166015625,-1.2358499765396118,-1.1382249593734741,-0.381974995136261
1781033912119717600,10.997717529296875,-1.2670625448226929,-1.5001250505447388,-0.5020124912261963
1781033912139232300,11.017232177734375,-1.277787446975708,-1.902174949645996,-0.6161375045776367
1781033912158743800,11.036743896484374,-1.2229249477386475,-2.359499931335449,-0.7132124900817871
1781033912178258400,11.056258544921874,-1.0396374464035034,-2.908400058746338,-0.7690374851226807
1781033912197775000,11.075775146484375,-0.6701750159263611,-3.5824248790740967,-0.7645000219345093
1781033912217290000,11.0952900390625,0.004674999974668026,-4.450737476348877,-0.6257625222206116
1781033912236802800,11.114802734375,1.1895124912261963,-5.679574966430664,-0.1681624948978424
1781033912256317200,11.134317138671875,2.9147250652313232,-6.977437496185303,0.7389249801635742
1781033912275834400,11.15383447265625,4.819375038146973,-8.617812156677246,1.9560749530792236
1781033912295352300,11.173352294921875,6.198500156402588,-9.79990005493164,3.0157876014709473
1781033912314873600,11.19287353515625,6.525475025177002,-9.93231201171875,3.450012445449829
1781033912334390000,11.21239013671875,5.911674976348877,-9.006937026977539,3.2103500366210938
1781033912353903600,11.231903564453125,4.853612422943115,-7.510112285614014,2.594487428665161
1781033912373422000,11.251422119140624,3.805037498474121,-6.1648125648498535,1.9178500175476074
1781033912392938800,11.270938720703125,2.7703499794006348,-4.578199863433838,1.3249499797821045
1781033912412453400,11.290453369140625,1.9269249439239502,-3.2967000007629395,0.880549967288971
1781033912431963000,11.309962890625,1.2751749753952026,-2.250737428665161,0.558525025844574
1781033912451470600,11.329470703125,0.8237624764442444,-1.3612500429153442,0.30428749322891235
1781033912470985000,11.34898486328125,0.5608624815940857,-0.5950999855995178,0.06544999778270721
1781033912490502700,11.368502685546876,0.421162486076355,0.03863750025629997,-0.17820000648498535
1781033912510015200,11.38801513671875,0.3180375099182129,0.489362508058548,-0.3937999904155731
1781033912529529600,11.407529541015625,0.1825999915599823,0.6917625069618225,-0.5152124762535095
1781033912549048300,11.42704833984375,-0.020487500354647636,0.5952374935150146,-0.4838624894618988
1781033912568564200,11.446564208984375,-0.284074991941452,0.21697500348091125,-0.2927374839782715
1781033912588078000,11.466078125,-0.5512375235557556,-0.317487508058548,-0.005224999971687794
1781033912607590400,11.48559033203125,-0.7442874908447266,-0.7869125008583069,0.2563000023365021
1781033912627104300,11.505104248046875,-0.8441125154495239,-0.9194625020027161,0.34732499718666077
1781033912646622000,11.5246220703125,-0.9322500228881836,-0.5425750017166138,0.16733749210834503
1781033912666139100,11.54413916015625,-1.1411124467849731,0.3068999946117401,-0.28971248865127563
1781033912685655600,11.563655517578125,-1.1411124467849731,0.3068999946117401,-0.28971248865127563
1781033912705173500,11.583173583984374,-1.5039750337600708,1.2964874505996704,-0.8588249683380127
1781033912724689700,11.602689697265625,-1.9467250108718872,1.7528499364852905,-1.1375374794006348
1781033912744208000,11.622207763671875,-1.9467250108718872,1.7528499364852905,-1.1375374794006348
1781033912763730000,11.64172998046875,-1.2962124347686768,0.7569375038146973,0.2125750035047531
1781033912783248400,11.661248291015625,-1.2962124347686768,0.7569375038146973,0.2125750035047531
1781033912802763500,11.680763427734375,-0.8251374959945679,1.0936750173568726,1.022724986076355
1781033912822282800,11.70028271484375,-0.4105750024318695,0.7336999773979187,1.6040749549865723
1781033912841805300,11.719805419921874,-0.18878750503063202,0.22536249458789825,1.702525019645691
1781033912861322800,11.73932275390625,-0.2428250014781952,0.40328750014305115,1.2406624555587769
1781033912880841500,11.758841552734374,-0.5244249701499939,1.0983500480651855,0.30153748393058777
1781033912900364500,11.778364501953124,-1.0362000465393066,2.1920249462127686,-0.9976999759674072
1781033912919880400,11.79788037109375,-1.9185374975204468,3.7717623710632324,-2.6387624740600586
1781033912939390700,11.817390625,-3.389512538909912,6.1628875732421875,-4.669912338256836
1781033912958905300,11.8369052734375,-4.9739251136779785,8.492412567138672,-6.274537563323975
1781033912978421200,11.856421142578125,-5.703087329864502,10.304525375366211,-6.812849998474121
1781033912997943300,11.875943359375,-5.026312351226807,10.628199577331543,-6.023600101470947
1781033913017467000,11.895466796875,-3.5734875202178955,9.861499786376953,-4.65024995803833
1781033913036983000,11.914983154296875,-2.0655250549316406,8.62097454071045,-3.284324884414673
1781033913056498200,11.934498291015625,-0.8267874717712402,7.265774726867676,-2.1443123817443848
1781033913076014000,11.95401416015625,0.06297499686479568,6.225037574768066,-1.27201247215271
1781033913095532300,11.9735322265625,0.6182000041007996,4.951512336730957,-0.6315374970436096
1781033913115053000,11.993052978515625,0.9013124704360962,3.9232873916625977,-0.179299995303154
1781033913134572000,12.012572021484376,1.0033375024795532,3.098287582397461,0.12484999746084213
1781033913154088200,12.032088134765624,0.991100013256073,2.390162467956543,0.29686251282691956
1781033913173605400,12.05160546875,0.8764249682426453,1.733049988746643,0.3499374985694885
1781033913193125000,12.071125,0.6461125016212463,1.154175043106079,0.3063499927520752
1781033913212642300,12.090642333984375,0.30703750252723694,0.7364500164985657,0.19772499799728394
1781033913232159700,12.11015966796875,-0.07686249911785126,0.5124624967575073,0.06228749826550484
1781033913251675400,12.12967529296875,-0.40617498755455017,0.4064500033855438,-0.06366249918937683
1781033913271191300,12.14919140625,-0.6164125204086304,0.2780250012874603,-0.15399999916553497
1781033913290712600,12.168712646484375,-0.7243499755859375,0.02708750031888485,-0.2008875012397766
1781033913310232300,12.188232421875,-0.7942000031471252,-0.3689124882221222,-0.20954999327659607
1781033913329748500,12.20774853515625,-0.8714749813079834,-0.8746374845504761,-0.1915374994277954
1781033913349265000,12.227264892578125,-0.953837513923645,-1.42683744430542,-0.1648624986410141
1781033913368780500,12.246780517578125,-1.008562445640564,-1.9951249361038208,-0.142037495970726
1781033913388293400,12.26629345703125,-0.9794124960899353,-2.5927000045776367,-0.10848750174045563
1781033913407808300,12.285808349609376,-0.785812497138977,-3.2737374305725098,-0.015812499448657036
1781033913427323100,12.3053232421875,-0.317487508058548,-4.1702375411987305,0.22714999318122864
1781033913446837800,12.324837646484376,-0.040150001645088196,-5.5369873046875,0.5024250149726868
1781033913466354200,12.344354248046875,-0.12553749978542328,-7.264262676239014,0.7290250062942505
1781033913485870600,12.36387060546875,-0.12553749978542328,-7.264262676239014,0.7290250062942505
1781033913505379600,12.383379638671874,1.702662467956543,-9.585537910461426,2.2268126010894775
1781033913524888000,12.40288818359375,4.445650100708008,-10.94953727722168,4.303337574005127
1781033913544403500,12.422403564453125,5.186087608337402,-10.263962745666504,4.844950199127197
1781033913563923200,12.441923095703125,3.5281124114990234,-5.745850086212158,3.05896258354187
1781033913583444500,12.461444580078124,3.5281124114990234,-5.745850086212158,3.05896258354187
1781033913602967800,12.4809677734375,3.5281124114990234,-5.745850086212158,3.05896258354187
1781033913622485800,12.50048583984375,2.105674982070923,-2.1073250770568848,1.4946249723434448
1781033913641999400,12.519999267578125,1.8673875331878662,-1.44760000705719,1.1316249370574951
1781033913661512700,12.5395126953125,1.781037449836731,-1.2716000080108643,0.904337465763092
1781033913681026000,12.559026123046875,1.7180625200271606,-1.3190374374389648,0.735212504863739
1781033913700539600,12.57853955078125,1.6095750331878662,-1.4092375040054321,0.5934500098228455
1781033913720053000,12.598052978515625,1.4423749446868896,-1.4569499492645264,0.4577375054359436
1781033913739561000,12.61756103515625,1.2185250520706177,-1.4047000408172607,0.303600013256073
1781033913759069200,12.637069091796874,0.9425625205039978,-1.2053250074386597,0.11852499842643738
1781033913778585000,12.656585205078125,0.62933748960495,-0.868862509727478,-0.08635000139474869
1781033913798102300,12.676102294921876,0.29411250352859497,-0.454025000333786,-0.28654998540878296
1781033913817617200,12.6956171875,-0.06861250102519989,-0.029975000768899918,-0.36024999618530273
1781033913837130800,12.715130859375,-0.4713499844074249,0.3465000092983246,-0.3236750066280365
1781033913856647700,12.734647705078125,-0.8984249830245972,0.637862503528595,-0.3926999866962433
1781033913876160000,12.754159912109374,-1.3110624551773071,0.8408125042915344,-0.552887499332428
1781033913895668000,12.77366796875,-1.6633374691009521,0.9733625054359436,-0.7078499794006348
1781033913915172400,12.79317236328125,-1.9289875030517578,1.0529749393463135,-0.8511250019073486
1781033913934673700,12.812673583984376,-2.1031999588012695,1.0726374387741089,-0.9618124961853027
1781033913954178600,12.832178466796876,-2.195462465286255,1.0148874521255493,-1.0466500520706177
1781033913973689900,12.85168994140625,-2.216637372970581,0.867900013923645,-1.1103124618530273
1781033913993198800,12.87119873046875,-2.120112419128418,0.5754374861717224,-1.0671374797821045
1781033914012709600,12.890709716796875,-1.801800012588501,0.036024998873472214,-0.7261375188827515
1781033914032226600,12.9102265625,-1.18236243724823,-0.8111125230789185,0.07782500237226486
1781033914051743700,12.92974365234375,-0.3708375096321106,-1.7701749801635742,1.209725022315979
1781033914071260400,12.949260498046876,0.334262490272522,-2.4048750400543213,2.1943624019622803
1781033914090772500,12.9687724609375,0.7085375189781189,-2.4161500930786133,2.604249954223633
1781033914110285800,12.988285888671875,0.7518500089645386,-1.8576250076293945,2.388237476348877
1781033914129804000,13.007803955078124,0.6220499873161316,-1.0025124549865723,1.7840625047683716
1781033914149322800,13.02732275390625,0.45512500405311584,-0.0387750007212162,1.10013747215271
1781033914168840200,13.046840087890626,0.18342499434947968,1.115262508392334,0.5438125133514404
1781033914188360200,13.066360107421875,0.17270000278949738,2.846937417984009,0.16747500002384186
1781033914207880200,13.085880126953125,-0.6517499685287476,5.407875061035156,-1.0938124656677246
1781033914227394300,13.105394287109375,-2.3490500450134277,7.673462390899658,-2.7176873683929443
1781033914246910200,13.12491015625,-2.2405624389648438,9.331025123596191,-2.5641000270843506
1781033914266433300,13.144433349609375,-0.9081875085830688,10.061012268066406,-1.45722496509552
1781033914285956600,13.16395654296875,-0.546287477016449,10.046850204467773,-0.853600025177002
1781033914305475300,13.183475341796875,-0.546287477016449,10.046850204467773,-0.853600025177002
1781033914324993500,13.20299365234375,-0.36588749289512634,8.473987579345703,-0.09377499669790268
1781033914344515000,13.22251513671875,-0.36588749289512634,8.473987579345703,-0.09377499669790268
1781033914364034600,13.24203466796875,0.5473874807357788,6.374087333679199,0.9858750104904175
1781033914383555300,13.261555419921875,0.5473874807357788,6.374087333679199,0.9858750104904175
1781033914403081000,13.2810810546875,0.5473874807357788,6.374087333679199,0.9858750104904175
1781033914422602200,13.300602294921875,0.3550249934196472,3.941849946975708,0.8716124892234802
1781033914442118000,13.320117919921875,-0.17916250228881836,2.6626875400543213,0.5527499914169312
1781033914461633000,13.339633056640626,-0.33192500472068787,1.362625002861023,0.3628624975681305
1781033914481150000,13.35914990234375,-0.08236250281333923,0.24227499961853027,0.3624500036239624
1781033914500665900,13.378665771484375,0.10078749805688858,-0.5267624855041504,0.3683624863624573
1781033914520183300,13.398183349609376,0.23649999499320984,-0.9428374767303467,0.3777124881744385
1781033914539698700,13.41769873046875,0.031075000762939453,-1.1193875074386597,0.3903625011444092
1781033914559214000,13.437214111328124,-0.42061248421669006,-1.1768624782562256,0.4039750099182129
1781033914578727400,13.4567275390625,-0.7492374777793884,-1.2289749383926392,0.25052499771118164
1781033914598240500,13.476240478515624,-1.0048500299453735,-1.353274941444397,-0.03244999796152115
1781033914617758200,13.49575830078125,-1.2170125246047974,-1.6125999689102173,-0.2480500042438507
1781033914637277200,13.515277099609374,-1.3934249877929688,-2.0501248836517334,-0.4057624936103821
1781033914676313300,13.554313232421874,-1.4654749631881714,-3.29229998588562,-0.5363875031471252
1781033914695830300,13.573830322265625,-0.9866999983787537,-4.0739874839782715,-0.3100624978542328
1781033914715349800,13.593349853515624,0.36024999618530273,-5.443762302398682,0.5676000118255615
1781033914734865000,13.612864990234375,2.9673874378204346,-7.690100193023682,2.6101624965667725
1781033914754375200,13.632375244140626,5.975612640380859,-10.610187530517578,5.255799770355225
1781033914773885700,13.6518857421875,7.531287670135498,-12.020936965942383,6.781912326812744
1781033914793395500,13.6713955078125,7.229612350463867,-11.336187362670898,6.600412368774414
1781033914812904000,13.690904052734375,6.0363874435424805,-9.584850311279297,5.519112586975098
1781033914832415500,13.71041552734375,4.663724899291992,-7.5684123039245605,4.214375019073486
1781033914851929300,13.729929443359374,3.472837448120117,-5.869187355041504,3.029949903488159
1781033914871440000,13.74943994140625,2.4534125328063965,-4.073850154876709,2.004887580871582
1781033914890947000,13.768947021484376,1.7380000352859497,-2.6819374561309814,1.2299374341964722
1781033914910456300,13.788456298828125,1.290162444114685,-1.6182374954223633,0.6495500206947327
1781033914929971200,13.80797119140625,1.045549988746643,-0.8299499750137329,0.22261250019073486
1781033914949483300,13.827483154296875,0.9242749810218811,-0.28971248865127563,-0.06710000336170197
1781033914968993800,13.846993896484374,0.8434249758720398,0.015675000846385956,-0.2320999950170517
1781033914988505000,13.866505126953125,0.738099992275238,0.12526249885559082,-0.3057999908924103
1781033915008014600,13.8860146484375,0.5640249848365784,0.11550000309944153,-0.33797499537467957
1781033915027523000,13.905523193359375,0.31349998712539673,0.05238749831914902,-0.3564000129699707
1781033915047026400,13.9250263671875,0.0364375002682209,-0.05169999971985817,-0.3460874855518341
1781033915066528300,13.9445283203125,-0.20157499611377716,-0.24310000240802765,-0.2611125111579895
1781033915086041900,13.964041748046874,-0.20157499611377716,-0.24310000240802765,-0.2611125111579895
1781033915105553200,13.98355322265625,-0.4894999861717224,-0.7426375150680542,-0.14327499270439148
1781033915125057800,14.003057861328125,-0.4894999861717224,-0.7426375150680542,-0.14327499270439148
1781033915144564700,14.022564697265626,-0.5736500024795532,-0.67044997215271,0.022687500342726707
1781033915164066800,14.04206689453125,-0.7653250098228455,0.1288374960422516,-0.049912501126527786
1781033915183570200,14.061570068359375,-0.7653250098228455,0.1288374960422516,-0.049912501126527786
1781033915203078400,14.081078369140625,-0.7653250098228455,0.1288374960422516,-0.049912501126527786
1781033915222589700,14.100589599609375,-0.815512478351593,-0.03959999978542328,0.28737500309944153
1781033915242103800,14.120103759765625,-0.594962477684021,-0.7288874983787537,0.8845375180244446
1781033915261615400,14.139615478515625,-0.2605625092983246,-1.5559500455856323,1.6420249938964844
1781033915281123000,14.159123046875,-0.04688749834895134,-1.999387502670288,2.1296000480651855
1781033915300635400,14.178635498046875,-0.18603749573230743,-1.5817999839782715,1.891587495803833
1781033915320149200,14.198149169921875,-0.6872249841690063,-0.37537500262260437,0.940500020980835
1781033915339660800,14.217660888671874,-1.309962511062622,1.0777250528335571,-0.234437495470047
1781033915359176200,14.23717626953125,-1.7777374982833862,2.3124749660491943,-1.195425033569336
1781033915378690600,14.256690673828125,-2.127537488937378,3.4009249210357666,-2.036099910736084
1781033915398205400,14.276205322265625,-2.665299892425537,4.756537437438965,-3.113962411880493
1781033915417722400,14.295722412109376,-3.610062599182129,6.431699752807617,-4.4602251052856445
1781033915437236200,14.315236328125,-4.843987464904785,8.572162628173828,-5.7435126304626465
1781033915456747800,14.334747802734375,-5.490512371063232,10.13388729095459,-6.100737571716309
1781033915476258800,14.3542587890625,-4.916862487792969,10.31552505493164,-5.293749809265137
1781033915495768300,14.373768310546875,-3.4930500984191895,9.303799629211426,-3.924799919128418
1781033915515281400,14.393281494140625,-1.9582749605178833,7.788962364196777,-2.6156625747680664
1781033915534792200,14.412792236328125,-0.755424976348877,6.59793758392334,-1.6079249382019043
1781033915554304000,14.432303955078124,-0.017875000834465027,5.244662284851074,-0.8810999989509583
1781033915573820400,14.4518203125,0.34485000371932983,4.331112384796143,-0.36121249198913574
1781033915593330000,14.471329833984376,0.5324000120162964,3.7769875526428223,0.04633750021457672
1781033915612840000,14.49083984375,0.6707249879837036,3.450700044631958,0.39077499508857727
1781033915632352300,14.510352294921875,0.7539125084877014,3.1858749389648438,0.6639875173568726
1781033915651864800,14.52986474609375,0.7042750120162964,2.8269999027252197,0.8140000104904175
1781033915671379700,14.549379638671875,0.45567500591278076,2.306425094604492,0.7783874869346619
1781033915690896000,14.568895751953125,-0.0012374999932944775,1.6726875305175781,0.5442249774932861
1781033915710410200,14.58841015625,-0.5924875140190125,1.0535249710083008,0.3694624900817871
1781033915729923300,14.60792333984375,-1.1589875221252441,0.548212468624115,0.1434125006198883
1781033915749434400,14.627434326171874,-1.5067249536514282,0.14079999923706055,-0.17407499253749847
1781033915768947500,14.646947509765624,-1.547700047492981,-0.27623748779296875,-0.27912500500679016
1781033915788462600,14.666462646484375,-1.382562518119812,-0.7950249910354614,-0.23292499780654907
1781033915807975700,14.6859755859375,-1.2036750316619873,-1.4052499532699585,-0.15592500567436218
1781033915827490000,14.705489990234375,-1.148537516593933,-1.9982874393463135,-0.15578749775886536
1781033915847006500,14.72500634765625,-1.2297999858856201,-2.449424982070923,-0.26606249809265137
1781033915866516200,14.74451611328125,-1.3595999479293823,-2.7363874912261963,-0.439175009727478
1781033915886022400,14.7640224609375,-1.3595999479293823,-2.7363874912261963,-0.439175009727478
1781033915905532700,14.78353271484375,-1.188825011253357,-3.4134373664855957,-0.5252500176429749
1781033915925049300,14.80304931640625,-0.45416250824928284,-4.466549873352051,-0.0448249988257885
1781033915944566800,14.82256689453125,-0.45416250824928284,-4.466549873352051,-0.0448249988257885
1781033915964085200,14.842085205078124,-0.45416250824928284,-4.466549873352051,-0.0448249988257885
1781033915983602000,14.861601806640625,4.293574810028076,-9.932862281799316,4.158687591552734
1781033916003109000,14.881109130859375,4.293574810028076,-9.932862281799316,4.158687591552734
1781033916022616000,14.900615966796876,6.81793737411499,-11.950812339782715,6.877474784851074
1781033916042131200,14.920131103515626,5.749149799346924,-9.841012001037598,5.701300144195557
1781033916061647400,14.9396474609375,4.433274745941162,-7.473124980926514,4.243249893188477
1781033916081160700,14.95916064453125,3.3063249588012695,-5.619487285614014,3.024174928665161
1781033916100673300,14.97867333984375,2.356337547302246,-3.8534374237060547,2.053837537765503
1781033916120187100,14.998187255859374,1.6791499853134155,-2.539900064468384,1.3710124492645264
1781033916139701200,15.017701171875,1.2337875366210938,-1.5299625396728516,0.8806874752044678
1781033916159219700,15.0372197265625,0.9703375101089478,-0.7580375075340271,0.5198875069618225
1781033916178738200,15.05673828125,0.8233500123023987,-0.20583750307559967,0.26138749718666077
1781033916198248700,15.076248779296876,0.7224249839782715,0.15111249685287476,0.08758749812841415
1781033916217758500,15.095758544921875,0.6113250255584717,0.3515875041484833,-0.023924998939037323
1781033916237270300,15.115270263671874,0.46722498536109924,0.41263750195503235,-0.0873124971985817
1781033916256781300,15.13478125,0.2934249937534332,0.3592875003814697,-0.11948750168085098
1781033916276290600,15.15429052734375,0.09693749994039536,0.24255000054836273,-0.13928750157356262
1781033916295802000,15.173802001953124,-0.1200374960899353,0.11302500218153,-0.15358750522136688
1781033916315320300,15.1933203125,-0.35378751158714294,-0.002337499987334013,-0.1588124930858612
1781033916334841000,15.212841064453125,-0.5847874879837036,-0.11192499846220016,-0.1443749964237213
1781033916354354400,15.2323544921875,-0.7768750190734863,-0.24076250195503235,-0.09790000319480896
1781033916373865200,15.251865234375,-0.9046124815940857,-0.3349500000476837,-0.04675000160932541
1781033916393378300,15.27137841796875,-0.9957749843597412,-0.20143750309944153,-0.09569999575614929
1781033916412889900,15.290889892578125,-1.1684750318527222,0.38032498955726624,-0.3895374834537506
1781033916432398600,15.310398681640624,-1.5571874380111694,1.4220249652862549,-0.9924749732017517
1781033916451908400,15.329908447265625,-2.0954999923706055,2.50992488861084,-1.7077499628067017
1781033916471420000,15.349419921875,-2.4354000091552734,2.961199998855591,-2.101137399673462
1781033916490932700,15.3689326171875,-2.10622501373291,2.2225499153137207,-1.6539875268936157
1781033916510445000,15.388445068359376,-0.7930999994277954,0.18108749389648438,0.03918749839067459
1781033916529954800,15.407954833984375,1.1835999488830566,-2.5361874103546143,2.6648874282836914
1781033916549468000,15.427468017578125,2.6210250854492188,-4.370850086212158,4.64736270904541
1781033916568984000,15.446984130859375,2.3645875453948975,-3.812187433242798,4.226062297821045
1781033916588499200,15.466499267578126,0.6118749976158142,-1.2754499912261963,1.7489999532699585
1781033916627522600,15.5055224609375,-2.661175012588501,3.4511125087738037,-2.4993374347686768
1781033916647030800,15.52503076171875,-3.2328999042510986,4.585212707519531,-3.254349946975708
1781033916666538800,15.544538818359374,-2.80183744430542,5.471950054168701,-3.094987392425537
1781033916686048300,15.56404833984375,-2.80183744430542,5.471950054168701,-3.094987392425537
1781033916705561900,15.583561767578125,-2.703387498855591,6.522037506103516,-3.1396749019622803
1781033916725077500,15.603077392578125,-4.207499980926514,8.431087493896484,-4.0797624588012695
1781033916744592400,15.62259228515625,-4.207499980926514,8.431087493896484,-4.0797624588012695
1781033916764106500,15.6421064453125,-3.082750082015991,8.354775428771973,-2.7458748817443848
1781033916783620600,15.66162060546875,-3.082750082015991,8.354775428771973,-2.7458748817443848
1781033916803135700,15.6811357421875,-3.082750082015991,8.354775428771973,-2.7458748817443848
1781033916822650600,15.700650634765625,-1.0940874814987183,6.715224742889404,-1.1317625045776367
1781033916842168000,15.72016796875,-0.3726249933242798,5.6227874755859375,-0.5704874992370605
1781033916861687800,15.739687744140625,0.15097500383853912,4.739487648010254,-0.14932499825954437
1781033916881206800,15.759206787109376,0.5083374977111816,4.013625144958496,0.1578499972820282
1781033916900723200,15.77872314453125,0.7271000146865845,3.3378124237060547,0.368087500333786
1781033916920238300,15.79823828125,0.83160001039505,2.6133248805999756,0.49018749594688416
1781033916939753500,15.81775341796875,0.8265125155448914,1.798087477684021,0.526075005531311
1781033916959268900,15.837268798828125,0.6861249804496765,0.9637374877929688,0.46956250071525574
1781033916978780000,15.85677978515625,0.3922874927520752,0.25712499022483826,0.31927499175071716
1781033916998286300,15.876286376953125,-0.013337500393390656,-0.21230000257492065,0.10147500038146973
1781033917017796400,15.89579638671875,-0.4295499920845032,-0.44440001249313354,-0.1256749927997589
1781033917037309200,15.91530908203125,-0.7594124674797058,-0.553849995136261,-0.30098751187324524
1781033917056823800,15.93482373046875,-0.9637374877929688,-0.7108749747276306,-0.40053749084472656
1781033917076342800,15.9543427734375,-1.04087495803833,-1.0318000316619873,-0.43133750557899475
1781033917095863000,15.973863037109375,-0.9824374914169312,-1.519374966621399,-0.40383750200271606
1781033917115380200,15.993380126953125,-0.9824374914169312,-1.519374966621399,-0.40383750200271606
1781033917134893800,16.012893798828124,-0.4329875111579895,-2.650175094604492,-0.18576249480247498
1781033917154408000,16.032407958984376,0.054999999701976776,-3.1944000720977783,0.014574999921023846
1781033917173919500,16.05191943359375,0.7297124862670898,-3.780012369155884,0.30250000953674316
1781033917193429800,16.0714296875,1.7154500484466553,-4.51096248626709,0.7530875205993652
1781033917212944100,16.090944091796874,3.103787422180176,-5.4470624923706055,1.455162525177002
1781033917232459300,16.110459228515627,4.586037635803223,-5.173850059509277,1.6869875192642212
1781033917251971300,16.129971435546874,5.561187267303467,-4.727112293243408,1.8501999378204346
1781033917271481900,16.14948193359375,5.83852481842041,-5.072512626647949,2.290062427520752
1781033917290994200,16.168994140625,5.695112705230713,-4.937349796295166,2.2995500564575195
1781033917310505000,16.1885048828125,5.3630499839782715,-4.572700023651123,2.0704751014709473
1781033917330016000,16.20801611328125,4.896100044250488,-4.080450057983398,1.7307125329971313
1781033917349524700,16.227524658203127,4.320525169372559,-3.5158748626708984,1.3705999851226807
1781033917369032200,16.2470322265625,3.6997125148773193,-2.9323248863220215,1.0458250045776367
1781033917388546600,16.266546630859374,3.0762875080108643,-2.3461625576019287,0.7587249875068665
1781033917408062000,16.28606201171875,2.4630374908447266,-1.7483124732971191,0.49101248383522034
1781033917427574800,16.30557470703125,1.8779749870300293,-1.1470249891281128,0.23732499778270721
1781033917447085300,16.325085205078125,1.3459874391555786,-0.5792874693870544,0.013612499460577965
1781033917466595000,16.344594970703124,0.8813750147819519,-0.08937499672174454,-0.15867500007152557
1781033917486110200,16.364110107421876,0.4867500066757202,0.2633124887943268,-0.2591874897480011
1781033917505624800,16.383624755859376,0.16321249306201935,0.4217124879360199,-0.28022500872612
1781033917525140200,16.40314013671875,-0.10009999573230743,0.37853750586509705,-0.24062499403953552
1781033917544653000,16.422653076171876,-0.31693750619888306,0.18369999527931213,-0.17434999346733093
1781033917564167200,16.442167236328125,-0.31693750619888306,0.18369999527931213,-0.17434999346733093
1781033917583682300,16.461682373046877,-0.31693750619888306,0.18369999527931213,-0.17434999346733093
1781033917603195000,16.48119482421875,-0.6523000001907349,-0.25286251306533813,-0.06627500057220459
1781033917622708500,16.50070849609375,-0.8471375107765198,-0.2928749918937683,-0.03918749839067459
1781033917642217700,16.5202177734375,-1.0727750062942505,-0.21986250579357147,-0.035337500274181366
1781033917661725400,16.539725341796874,-1.2405250072479248,-0.18576249480247498,-0.04235000163316727
1781033917681239600,16.559239501953126,-1.2586749792099,-0.30937498807907104,-0.04688749834895134
1781033917700758300,16.57875830078125,-1.1262625455856323,-0.5922124981880188,-0.04124999791383743
1781033917720277200,16.59827734375,-0.9479249715805054,-0.8784874677658081,-0.060499999672174454
1781033917739794000,16.6177939453125,-0.8601999878883362,-0.9543874859809875,-0.18177500367164612
1781033917759311400,16.637311279296874,-0.943387508392334,-0.7145875096321106,-0.43821248412132263
1781033917778829800,16.656829833984375,-1.1312124729156494,-0.2722499966621399,-0.7273749709129333
1781033917798346000,16.676345947265624,-1.2438249588012695,0.10711249709129333,-0.8511250019073486
1781033917817857800,16.69585791015625,-1.1573375463485718,0.24777500331401825,-0.7081249952316284
1781033917837372400,16.715372314453123,-0.8648750185966492,0.13626250624656677,-0.3469125032424927
1781033917856886300,16.73488623046875,-0.4492124915122986,-0.10119999945163727,0.08635000139474869
1781033917876401000,16.75440087890625,-0.031075000762939453,-0.267300009727478,0.4175874888896942
1781033917895920000,16.773920166015625,0.2745875120162964,-0.19538749754428864,0.5149375200271606
1781033917915433700,16.793433837890625,0.39957499504089355,0.18411250412464142,0.34113749861717224
1781033917934950100,16.8129501953125,0.2997500002384186,0.8799999952316284,-0.07809999585151672
1781033917954473200,16.83247314453125,-0.17682500183582306,2.031287431716919,-0.7862250208854675
1781033917973989600,16.85198974609375,-1.2623875141143799,3.901700019836426,-1.8136249780654907
1781033917993507000,16.871507080078125,-2.9066123962402344,6.514337539672852,-2.8828248977661133
1781033918013028600,16.891028564453126,-4.280375003814697,8.395475387573242,-3.3473000526428223
1781033918032543500,16.91054345703125,-4.7038750648498535,9.495062828063965,-3.0355875492095947
1781033918052055800,16.930055908203126,-4.15910005569458,9.426862716674805,-2.231762409210205
1781033918071574000,16.949573974609375,-3.126887559890747,8.613137245178223,-1.3398000001907349
1781033918091092200,16.96909228515625,-2.0520498752593994,7.496087551116943,-0.5814874768257141
1781033918110604500,16.9886044921875,-1.1834625005722046,6.6662750244140625,-0.021175000816583633
1781033918130121000,17.008120849609377,-0.5849249958992004,5.496425151824951,0.3513124883174896
1781033918149639000,17.027638916015626,-0.23746250569820404,4.469712257385254,0.5636125206947327
1781033918169159200,17.0471591796875,-0.09308750182390213,3.516974925994873,0.649275004863739
1781033918188676400,17.06667626953125,-0.0989999994635582,2.6024625301361084,0.6489999890327454
1781033918208189000,17.08618896484375,-0.18658749759197235,1.7370375394821167,0.5997750163078308
1781033918227703800,17.105703857421876,-0.30882498621940613,0.99013751745224,0.5248374938964844
1781033918247219700,17.1252197265625,-0.46488749980926514,0.40149998664855957,0.4258374869823456
1781033918266732800,17.14473291015625,-0.6758124828338623,-0.07081250101327896,0.28806251287460327
1781033918286244600,17.16424462890625,-0.9426999688148499,-0.5016000270843506,0.1013374999165535
1781033918305758700,17.1837587890625,-0.9426999688148499,-0.5016000270843506,0.1013374999165535
1781033918325273000,17.203273193359376,-1.4156999588012695,-1.350387454032898,-0.31693750619888306
1781033918344787000,17.222786865234376,-1.468500018119812,-1.7297500371932983,-0.454987496137619
1781033918364305200,17.24230517578125,-1.468500018119812,-1.7297500371932983,-0.454987496137619
1781033918383823400,17.2618232421875,-1.141937494277954,-2.358537435531616,-0.5048999786376953
1781033918403335200,17.281335205078125,-1.141937494277954,-2.358537435531616,-0.5048999786376953
1781033918422846200,17.30084619140625,-0.8419125080108643,-2.600262403488159,-0.4599374830722809
1781033918442359000,17.320359130859377,-0.44440001249313354,-2.942499876022339,-0.39352500438690186
1781033918461868500,17.33986865234375,0.18411250412464142,-3.6872000694274902,-0.25203749537467957
1781033918481377000,17.359376953125,1.4544750452041626,-5.246312618255615,0.2532750070095062
1781033918500888600,17.378888671875,3.7061750888824463,-7.436275005340576,1.5206124782562256
1781033918520401000,17.39840087890625,6.028687477111816,-9.637100219726562,3.1589250564575195
1781033918539911200,17.4179111328125,6.028687477111816,-9.637100219726562,3.1589250564575195
1781033918559417900,17.43741796875,6.409837245941162,-8.980812072753906,3.8911125659942627
1781033918578927900,17.456927978515626,5.311074733734131,-7.0241875648498535,3.1347250938415527
1781033918598445600,17.476445556640623,4.3764872550964355,-5.285637378692627,2.342587471008301
1781033918617957600,17.49595751953125,3.5648250579833984,-3.707274913787842,1.7171000242233276
1781033918637467000,17.515466796875,3.006850004196167,-2.677262544631958,1.3217874765396118
1781033918656979500,17.5349794921875,2.6036999225616455,-2.040362596511841,1.0832250118255615
1781033918676492800,17.554492919921874,2.2527999877929688,-1.6218124628067017,0.9167125225067139
1781033918696008000,17.574008056640626,1.8874624967575073,-1.2827374935150146,0.7603750228881836
1781033918715523800,17.59352392578125,1.4843125343322754,-0.9240000247955322,0.5853375196456909
1781033918735036200,17.6130361328125,1.0722249746322632,-0.5190625190734863,0.4039750099182129
1781033918754547700,17.632547607421873,0.694237470626831,-0.0966624990105629,0.24089999496936798
1781033918774062000,17.65206201171875,0.36079999804496765,0.3097875118255615,0.10326249897480011
1781033918793577700,17.67157763671875,0.04592499881982803,0.6873624920845032,-0.016637500375509262
1781033918813097700,17.69109765625,-0.2550624907016754,1.036887526512146,-0.11879999935626984
1781033918832619000,17.710618896484377,-0.604449987411499,1.3286625146865845,-0.17434999346733093
1781033918852139500,17.730139404296875,-1.013100028038025,1.404425024986267,-0.15111249685287476
1781033918871658500,17.749658447265624,-1.3573999404907227,1.2489124536514282,-0.07163749635219574
1781033918891178800,17.7691787109375,-1.5129125118255615,0.997837483882904,-0.006462499964982271
1781033918910695200,17.788695068359374,-1.3755500316619873,0.20762500166893005,0.03753750026226044
1781033918930210600,17.80821044921875,-0.9410499930381775,-1.1640750169754028,0.17256249487400055
1781033918949729500,17.8277294921875,-0.4002625048160553,-2.374350070953369,0.4255625009536743
1781033918969245400,17.847245361328124,-0.09487500041723251,-2.7791500091552734,0.5489000082015991
1781033918988757200,17.86675732421875,-0.390500009059906,-1.8961249589920044,0.11659999936819077
1781033919008270800,17.886270751953123,-1.5500375032424927,0.23801249265670776,-1.1225500106811523
1781033919027786500,17.905786376953124,-3.304949998855591,2.8448750972747803,-2.780937433242798
1781033919047300400,17.92530029296875,-4.717350006103516,4.692325115203857,-3.932912588119507
1781033919066813400,17.9448134765625,-5.108675003051758,5.128749847412109,-4.066699981689453
1781033919086330000,17.964330078125,-4.650112628936768,4.572012424468994,-3.475450038909912
1781033919105850400,17.983850341796874,-3.7501749992370605,3.6210625171661377,-2.5966875553131104
1781033919125366500,18.003366455078126,-2.7006375789642334,2.622812509536743,-1.706375002861023
1781033919144880400,18.02288037109375,-2.7006375789642334,2.622812509536743,-1.706375002861023
1781033919164394200,18.042394287109374,-1.7023874521255493,1.7649500370025635,-0.964287519454956
1781033919183909000,18.0619091796875,-1.7023874521255493,1.7649500370025635,-0.964287519454956
1781033919203423500,18.081423583984375,-0.9746000170707703,1.7641249895095825,-0.8013499975204468
1781033919222938400,18.1009384765625,-1.6743375062942505,3.200312376022339,-1.5926624536514282
1781033919242457000,18.12045703125,-2.4517624378204346,4.930887699127197,-2.276862382888794
1781033919261971500,18.139971435546876,-2.595449924468994,6.087124824523926,-2.3163249492645264
1781033919281485600,18.159485595703124,-2.055762529373169,6.460299968719482,-1.785712480545044
1781033919301000000,18.179,-1.1996874809265137,6.366525173187256,-1.0290499925613403
1781033919320514000,18.19851416015625,-0.3544749915599823,6.041062355041504,-0.3111625015735626
1781033919340028200,18.218028076171876,0.29823750257492065,5.536162376403809,0.2274249941110611
1781033919359542300,18.237542236328125,0.7418124675750732,4.889225006103516,0.5729625225067139
1781033919379054600,18.2570546875,1.0172250270843506,4.15098762512207,0.7712374925613403
1781033919398562300,18.276562255859375,1.1376750469207764,3.4035375118255615,0.8596500158309937
1781033919418071000,18.296071044921874,1.1126500368118286,2.6919748783111572,0.8578624725341797
1781033919437585400,18.31558544921875,0.9646999835968018,1.9857749938964844,0.7759125232696533
1781033919457100000,18.33510009765625,0.725724995136261,1.2332375049591064,0.6237000226974487
1781033919476612400,18.3546123046875,0.41635000705718994,0.47079998254776,0.4101625084877014
1781033919496124200,18.374124267578125,0.04867500066757202,-0.16775000095367432,0.14726249873638153
1781033919515634700,18.393634765625,-0.3431999981403351,-0.5677375197410583,-0.13653749227523804
1781033919535145000,18.41314501953125,-0.6953374743461609,-0.7244874835014343,-0.3964124917984009
1781033919554649900,18.43264990234375,-0.9230374693870544,-0.7480000257492065,-0.5746124982833862
1781033919574152000,18.45215185546875,-0.9799624681472778,-0.8003875017166138,-0.6352499723434448
1781033919593661000,18.471660888671874,-0.9044749736785889,-1.0042999982833862,-0.5935875177383423
1781033919613175300,18.49117529296875,-0.7645000219345093,-1.3820124864578247,-0.494174987077713
1781033919632686300,18.510686279296873,-0.563337504863739,-1.8788000345230103,-0.3651999831199646
1781033919652194000,18.530194091796876,-0.20542499423027039,-2.444887399673462,-0.18108749389648438
1781033919671704800,18.549704833984375,0.41909998655319214,-3.0830249786376953,0.0999625027179718
1781033919691217200,18.569217041015627,1.3054250478744507,-3.780287504196167,0.44247499108314514
1781033919710730500,18.58873046875,2.352762460708618,-4.5216875076293945,0.7206375002861023
1781033919730244000,18.608244140625,3.5542373657226562,-5.408699989318848,0.860337495803833
1781033919749754400,18.62775439453125,5.163262367248535,-6.713025093078613,1.066312551498413
1781033919769266200,18.64726611328125,6.805012226104736,-7.8761372566223145,1.621399998664856
1781033919788780300,18.6667802734375,7.810962677001953,-8.663325309753418,2.181849956512451
1781033919808293000,18.686293212890625,7.253537654876709,-7.886449813842773,2.2083873748779297
1781033919827801900,18.7058017578125,6.052887439727783,-6.404749870300293,1.8353500366210938
1781033919847308800,18.725308837890626,4.492537498474121,-4.4499125480651855,1.4009875059127808
1781033919866821000,18.744821044921874,3.351287364959717,-3.017162561416626,1.056825041770935
1781033919886337300,18.764337158203126,2.5818374156951904,-2.0835375785827637,0.7943375110626221
1781033919905849600,18.783849609375,2.5818374156951904,-2.0835375785827637,0.7943375110626221
1781033919925363700,18.80336376953125,1.6802500486373901,-1.1768624782562256,0.37111249566078186
1781033919944878600,18.822878662109375,1.3157374858856201,-0.8837124705314636,0.17971250414848328
1781033919964388600,18.842388671875,1.3157374858856201,-0.8837124705314636,0.17971250414848328
1781033919983896300,18.861896240234376,0.5377625226974487,-0.23649999499320984,-0.1274625062942505
1781033920003404300,18.881404296875,0.5377625226974487,-0.23649999499320984,-0.1274625062942505
1781033920022914000,18.9009140625,0.2102375030517578,-0.0448249988257885,-0.20762500166893005
1781033920042424600,18.920424560546873,-0.047712501138448715,-0.008387500420212746,-0.2424124926328659
1781033920061933300,18.939933349609376,-0.25052499771118164,-0.08813749998807907,-0.2564375102519989
1781033920081439700,18.959439697265626,-0.4127750098705292,-0.2223374992609024,-0.26317501068115234
1781033920100947200,18.978947265625,-0.5497249960899353,-0.3667125105857849,-0.25657498836517334
1781033920120460500,18.99846044921875,-0.6769124865531921,-0.47712498903274536,-0.23430000245571136
1781033920139976200,19.01797607421875,-0.7994250059127808,-0.5277249813079834,-0.20845000445842743
1781033920159490000,19.037489990234373,-0.9077749848365784,-0.5395500063896179,-0.18878750503063202
1781033920179006200,19.057006103515626,-0.9960500001907349,-0.5343250036239624,-0.16802500188350677
1781033920198520000,19.07652001953125,-1.0837750434875488,-0.48592498898506165,-0.13571250438690186
1781033920218029300,19.096029296875,-1.195425033569336,-0.34773749113082886,-0.10051249712705612
1781033920237539000,19.1155390625,-1.297587513923645,-0.16101250052452087,-0.07369999587535858
1781033920257048800,19.135048828125,-1.299649953842163,-0.054999999701976776,-0.040150001645088196
1781033920276559000,19.15455908203125,-1.1478500366210938,-0.11343749612569809,0.02736249938607216
1781033920296071400,19.174071533203126,-0.8908625245094299,-0.2718375027179718,0.12099999934434891
1781033920315582700,19.193582763671873,-0.6215000152587891,-0.391462504863739,0.20418749749660492
1781033920335093800,19.21309375,-0.3876124918460846,-0.39118748903274536,0.25519999861717224
1781033920354607400,19.232607421875,-0.2063875049352646,-0.24557499587535858,0.2574000060558319
1781033920374122000,19.2521220703125,-0.10395000129938126,0.060499999672174454,0.17503750324249268
1781033920393631700,19.2716318359375,-0.11137499660253525,0.5337749719619751,-0.031212499365210533
1781033920413141500,19.2911416015625,-0.27197501063346863,1.2120624780654907,-0.39311251044273376
1781033920432654000,19.310654052734375,-0.6892874836921692,2.2376749515533447,-0.9563124775886536
1781033920452164000,19.3301640625,-1.5328500270843506,3.8435375690460205,-1.7341499328613281
1781033920471669000,19.3496689453125,-2.861375093460083,6.1545000076293945,-2.5316500663757324
1781033920491172400,19.36917236328125,-4.0257248878479,7.950937271118164,-2.7945499420166016
1781033920530198800,19.40819873046875,-3.716212511062622,8.966650009155273,-1.3719749450683594
1781033920549713200,19.427713134765625,-2.8437750339508057,8.378424644470215,-0.45925000309944153
1781033920569228800,19.447228759765625,-2.08917498588562,7.682262420654297,0.26826250553131104
1781033920588746800,19.466746826171875,-1.5339499711990356,7.048250198364258,0.8090500235557556
1781033920608264400,19.486264404296875,-1.1082500219345093,6.733099937438965,0.9662125110626221
1781033920627780600,19.505780517578124,-0.7536374926567078,5.823949813842773,0.8925125002861023
1781033920647296800,19.525296875,-0.504212498664856,4.613537311553955,0.9521874785423279
1781033920666810000,19.54481005859375,-0.4388999938964844,3.1480624675750732,0.9651125073432922
1781033920686324700,19.56432470703125,-0.39352500438690186,1.637487530708313,0.7737125158309937
1781033920705838800,19.5838388671875,-0.39352500438690186,1.637487530708313,0.7737125158309937
1781033920725350100,19.60335009765625,-0.5915250182151794,-0.34375,0.0695749968290329
1781033920744865500,19.622865478515624,-1.0670000314712524,-0.5176874995231628,-0.19346250593662262
1781033920764382200,19.64238232421875,-1.0670000314712524,-0.5176874995231628,-0.19346250593662262
1781033920783900200,19.661900146484374,-1.1412500143051147,-0.36781248450279236,-0.2508000135421753
1781033920803419600,19.681419677734375,-1.1412500143051147,-0.36781248450279236,-0.2508000135421753
1781033920822934500,19.7009345703125,-1.1412500143051147,-0.36781248450279236,-0.2508000135421753
1781033920842446000,19.720446044921875,-1.09642493724823,-1.127774953842163,-0.2340250015258789
1781033920861956600,19.73995654296875,-1.3344374895095825,-1.5578750371932983,-0.46021249890327454
1781033920881470700,19.759470703125,-1.7105000019073486,-1.7323625087738037,-0.8511250019073486
1781033920900985300,19.7789853515625,-2.0146501064300537,-1.8006999492645264,-1.2271875143051147
1781033920920494600,19.79849462890625,-1.950987458229065,-2.201925039291382,-1.3326499462127686
1781033920940005400,19.81800537109375,-1.2285624742507935,-3.290374994277954,-0.9861499667167664
1781033920959521300,19.837521240234373,0.49252501130104065,-5.30364990234375,-0.03437500074505806
1781033920979035000,19.857034912109373,3.404362440109253,-7.850287437438965,1.7210874557495117
1781033920998543000,19.876543212890624,6.34163761138916,-10.27028751373291,3.7167625427246094
1781033921018049300,19.89604931640625,7.581612586975098,-10.832112312316895,4.714324951171875
1781033921037557500,19.9155576171875,7.185474872589111,-9.65524959564209,4.47163724899292
1781033921057066000,19.93506591796875,6.218299865722656,-7.87888765335083,3.673037528991699
1781033921076574700,19.95457470703125,5.378037452697754,-6.429637432098389,2.8300249576568604
1781033921096081400,19.974081298828125,4.355587482452393,-4.751587390899658,2.0516374111175537
1781033921115583700,19.993583740234374,3.4482250213623047,-3.3761749267578125,1.4317874908447266
1781033921135085000,20.0130849609375,2.6588375568389893,-2.253350019454956,0.9605749845504761
1781033921154585000,20.032585205078124,2.0064001083374023,-1.3704625368118286,0.6209499835968018
1781033921174089000,20.0520888671875,1.5182750225067139,-0.7425000071525574,0.38871249556541443
1781033921193597400,20.071597412109377,1.180299997329712,-0.34306249022483826,0.21972499787807465
1781033921213104400,20.0911044921875,0.9283999800682068,-0.08428750187158585,0.06599999964237213
1781033921232610600,20.110610595703125,0.6984999775886536,0.12319999933242798,-0.0943249985575676
1781033921252116500,20.130116455078124,0.45842498540878296,0.3217499852180481,-0.2531374990940094
1781033921271619800,20.149619873046873,0.20074999332427979,0.4883999824523926,-0.38499999046325684
1781033921291122400,20.169122314453126,-0.07122500240802765,0.5739250183105469,-0.46626248955726624
1781033921310628600,20.188628662109377,-0.35062500834465027,0.5498625040054321,-0.4787749946117401
1781033921330137900,20.208137939453124,-0.6228749752044678,0.4166249930858612,-0.41456249356269836
1781033921349641500,20.227641357421874,-0.8597875237464905,0.195250004529953,-0.29534998536109924
1781033921369145300,20.247145263671875,-1.0290499925613403,-0.08799999952316284,-0.17957499623298645
1781033921388653000,20.266653076171874,-1.1288750171661377,-0.31542500853538513,-0.10793749988079071
1781033921408160300,20.28616015625,-1.229662537574768,-0.2605625092983246,-0.15344999730587006
1781033921427667700,20.305667724609375,-1.458187460899353,0.24832500517368317,-0.4156624972820282
1781033921447174700,20.325174560546873,-1.892412543296814,1.1394624710083008,-0.866937518119812
1781033921466682000,20.34468212890625,-2.3945624828338623,1.9828875064849854,-1.2830125093460083
1781033921486189000,20.36418896484375,-2.641237497329712,2.2560999393463135,-1.376787543296814
1781033921505695500,20.383695556640625,-2.641237497329712,2.2560999393463135,-1.376787543296814
1781033921525200000,20.403199951171874,-2.424949884414673,1.8158249855041504,-1.0466500520706177
1781033921544706300,20.422706298828125,-1.8873250484466553,1.0602624416351318,-0.48963749408721924
1781033921564218400,20.44221826171875,-1.385587453842163,0.5655375123023987,-0.05582499876618385
1781033921583728600,20.461728759765624,-1.385587453842163,0.5655375123023987,-0.05582499876618385
1781033921603235000,20.481235107421874,-1.1686124801635742,1.0353749990463257,-0.18081249296665192
1781033921622743000,20.500742919921876,-1.4426499605178833,1.8808624744415283,-0.7533624768257141
1781033921642250500,20.52025048828125,-1.847037434577942,2.934387445449829,-1.4530999660491943
1781033921661757000,20.5397568359375,-1.661275029182434,3.9609625339508057,-1.5805624723434448
1781033921681269000,20.55926904296875,-1.5368374586105347,4.848525047302246,-1.4997124671936035
1781033921700779800,20.57877978515625,-2.0578250885009766,5.805387496948242,-1.6293749809265137
1781033921720291800,20.598291748046876,-2.306425094604492,6.519975185394287,-1.3981000185012817
1781033921739807700,20.617807861328124,-2.031562566757202,7.148487567901611,-0.7926874756813049
1781033921759318500,20.637318603515624,-1.3007500171661377,7.3180251121521,-0.014024999924004078
1781033921778824200,20.65682421875,-0.46777498722076416,7.091562271118164,0.6646749973297119
1781033921798336000,20.6763359375,0.21381250023841858,6.573187351226807,1.1147124767303467
1781033921817847600,20.69584765625,0.6458374857902527,6.110362529754639,1.3398000001907349
1781033921837356000,20.71535595703125,0.8163374662399292,5.160924911499023,1.3810499906539917
1781033921856869400,20.734869384765624,0.7679374814033508,4.077425003051758,1.288100004196167
1781033921876383000,20.754383056640624,0.5458750128746033,2.902899980545044,1.0872124433517456
1781033921895891500,20.773891357421874,0.19346250593662262,1.7202625274658203,0.7904874682426453
1781033921915403000,20.793403076171874,-0.23938749730587006,0.6386874914169312,0.4328500032424927
1781033921934917400,20.81291748046875,-0.6982250213623047,-0.22013749182224274,0.07672499865293503
1781033921954430200,20.83243017578125,-1.1243374347686768,-0.766837477684021,-0.2209624946117401
1781033921973942300,20.8519423828125,-1.4521374702453613,-1.0071874856948853,-0.42239999771118164
1781033921993453600,20.87145361328125,-1.6055874824523926,-1.0505000352859497,-0.4984374940395355
1781033922012968000,20.890968017578125,-1.5707999467849731,-1.0461000204086304,-0.4497624933719635
1781033922032480800,20.910480712890624,-1.436324954032898,-1.1320375204086304,-0.33742499351501465
1781033922051990300,20.929990234375,-1.318487524986267,-1.393012523651123,-0.25575000047683716
1781033922071504400,20.94950439453125,-1.2604625225067139,-1.8349374532699585,-0.25423750281333923
1781033922091018800,20.969018798828124,-1.2170125246047974,-2.3890624046325684,-0.31418749690055847
1781033922110522000,20.988522216796873,-1.0927125215530396,-2.9793500900268555,-0.3716624975204468
1781033922130027000,21.008027099609375,-0.7636749744415283,-3.6011250019073486,-0.3312374949455261
1781033922149537800,21.027537841796875,-0.08937499672174454,-4.328637599945068,-0.07301250100135803
1781033922169042700,21.047042724609376,1.0396374464035034,-5.272987365722656,0.5025625228881836
1781033922188548000,21.066548095703126,2.665299892425537,-6.557650089263916,1.438112497329712
1781033922208056000,21.08605615234375,4.674174785614014,-7.79432487487793,2.7942750453948975
1781033922227562000,21.10556201171875,6.5661749839782715,-9.353437423706055,4.35682487487793
1781033922247069700,21.125069580078126,7.239924907684326,-9.908387184143066,5.278349876403809
1781033922266578000,21.144577880859377,6.442562580108643,-8.957574844360352,5.042262554168701
1781033922286087000,21.1640869140625,6.442562580108643,-8.957574844360352,5.042262554168701
1781033922305600800,21.183600830078124,4.9664998054504395,-7.053337574005127,4.0524001121521
1781033922325115000,21.203114990234376,2.501537561416626,-3.1656625270843506,1.9621249437332153
1781033922344626000,21.2226259765625,2.501537561416626,-3.1656625270843506,1.9621249437332153
1781033922364134700,21.242134765625,1.3870999813079834,-0.8327000141143799,0.7709624767303467
1781033922383641000,21.26164111328125,1.3870999813079834,-0.8327000141143799,0.7709624767303467
1781033922403151000,21.281151123046875,1.3870999813079834,-0.8327000141143799,0.7709624767303467
1781033922422659800,21.300659912109374,0.8786249756813049,0.3129499852657318,0.15798750519752502
1781033922442166800,21.320166748046876,0.6733375191688538,0.5875374674797058,-0.002337499987334013
1781033922481189000,21.359189208984375,0.30483749508857727,0.5989499688148499,-0.0999625027179718
1781033922500695600,21.378695556640626,0.11192499846220016,0.5603125095367432,-0.13337500393390656
1781033922520198000,21.398197998046875,-0.14313749969005585,0.6176499724388123,-0.18108749389648438
1781033922539706600,21.41770654296875,-0.4684624969959259,0.7350749969482422,-0.23196250200271606
1781033922559215900,21.4372158203125,-0.7977749705314636,0.7847124934196472,-0.2737624943256378
1781033922578722300,21.456722412109375,-1.0532499551773071,0.6734749674797058,-0.3004375100135803
1781033922598227000,21.47622705078125,-1.2432750463485718,0.46406251192092896,-0.32958748936653137
1781033922617730600,21.49573046875,-1.4397624731063843,0.31404998898506165,-0.39957499504089355
1781033922637234400,21.515234375,-1.6857500076293945,0.3152875006198883,-0.5324000120162964
1781033922656738000,21.534738037109374,-1.9666625261306763,0.4544374942779541,-0.7122499942779541
1781033922676243700,21.55424365234375,-2.207974910736084,0.6402000188827515,-0.8793125152587891
1781033922695753700,21.573753662109375,-2.270812511444092,0.7060624957084656,-0.9274374842643738
1781033922715260400,21.593260498046874,-2.035412549972534,0.5094375014305115,-0.7601000070571899
1781033922734762800,21.6127626953125,-1.4926999807357788,0.03189999982714653,-0.3394874930381775
1781033922754265000,21.63226513671875,-0.7471749782562256,-0.6173750162124634,0.303600013256073
1781033922773767000,21.651766845703126,-0.009074999950826168,-1.2093124389648438,1.019837498664856
1781033922793273300,21.6712734375,0.48977500200271606,-1.4830750226974487,1.5501749515533447
1781033922812784600,21.69078466796875,0.6659125089645386,-1.3172500133514404,1.707200050354004
1781033922832293600,21.710293701171874,0.6542249917984009,-0.8309124708175659,1.547837495803833
1781033922851803000,21.729802978515625,0.6327750086784363,-0.22357499599456787,1.201200008392334
1781033922871315500,21.7493154296875,0.5860249996185303,0.48730000853538513,0.7082625031471252
1781033922890832600,21.76883251953125,0.271699994802475,1.5131875276565552,-0.05403750017285347
1781033922910351400,21.788351318359375,-0.6165499687194824,3.129499912261963,-1.1863499879837036
1781033922929863200,21.80786328125,-2.071850061416626,5.319462299346924,-2.365412473678589
1781033922949371100,21.82737109375,-3.4388749599456787,7.065162658691406,-2.9381000995635986
1781033922968879900,21.8468798828125,-4.02421236038208,8.13230037689209,-2.6848249435424805
1781033922988392200,21.86639208984375,-3.740962505340576,8.21204948425293,-1.902862548828125
1781033923007909600,21.88590966796875,-3.0196375846862793,7.654762268066406,-1.0337250232696533
1781033923027424000,21.905424072265625,-2.2547249794006348,6.862074851989746,-0.3092375099658966
1781033923046937600,21.9249375,-1.637487530708313,6.347412586212158,0.2209624946117401
1781033923066453800,21.944453857421873,-1.184149980545044,5.518012523651123,0.5656750202178955
1781033923085966600,21.963966552734377,-1.184149980545044,5.518012523651123,0.5656750202178955
1781033923105469000,21.983468994140626,-0.7188500165939331,3.6932499408721924,0.6953374743461609
1781033923124970000,22.002969970703123,-0.7167875170707703,2.6454999446868896,0.5016000270843506
1781033923144475000,22.022474853515625,-0.7167875170707703,2.6454999446868896,0.5016000270843506
1781033923163984000,22.04198388671875,-1.0481624603271484,0.9900000095367432,-0.002199999988079071
1781033923183497500,22.06149755859375,-1.0481624603271484,0.9900000095367432,-0.002199999988079071
1781033923203009500,22.081009521484376,-1.2186625003814697,0.6230124831199646,-0.16183750331401825
1781033923222518800,22.100518798828126,-1.3369125127792358,0.47753748297691345,-0.273624986410141
1781033923242028000,22.120028076171874,-1.4311000108718872,0.36134999990463257,-0.39201250672340393
1781033923261535200,22.13953515625,-1.5189625024795532,0.12498749792575836,-0.5362499952316284
1781033923281040100,22.1590400390625,-1.5956875085830688,-0.26881250739097595,-0.7027624845504761
1781033923300547600,22.178547607421876,-1.6216750144958496,-0.7665625214576721,-0.869825005531311
1781033923320059100,22.19805908203125,-1.5481125116348267,-1.3322374820709229,-1.001824975013733
1781033923339568400,22.217568359375,-1.3268749713897705,-1.9988374710083008,-1.0608124732971191
1781033923359073000,22.237072998046877,-0.9252374768257141,-2.8139374256134033,-1.0401874780654907
1781033923378581000,22.2565810546875,-0.27761250734329224,-3.852750062942505,-0.9359624981880188
1781033923398090500,22.276090576171875,0.8570374846458435,-5.361400127410889,-0.5992249846458435
1781033923417601300,22.295601318359374,2.7897374629974365,-7.323112487792969,0.3110249936580658
1781033923437111800,22.31511181640625,5.13851261138916,-9.864524841308594,1.8213249444961548
1781033923456619000,22.334618896484375,6.658850193023682,-11.513287544250488,3.188349962234497
1781033923476130300,22.35413037109375,6.721412658691406,-11.456774711608887,3.7153875827789307
1781033923495645200,22.373645263671875,5.836325168609619,-10.143924713134766,3.4717373847961426
1781033923515160300,22.393160400390624,4.679262638092041,-8.34844970703125,2.858487367630005
1781033923534667800,22.412667724609374,3.6166625022888184,-6.563425064086914,2.1768999099731445
1781033923554173000,22.4321728515625,2.804724931716919,-5.136449813842773,1.5702500343322754
1781033923573681700,22.451681640625,2.188724994659424,-3.6957249641418457,1.0604000091552734
1781033923593191400,22.47119140625,1.7730624675750732,-2.4920499324798584,0.6458374857902527
1781033923612706300,22.490706298828126,1.4785374402999878,-1.440999984741211,0.30250000953674316
1781033923632217600,22.510217529296874,1.229662537574768,-0.5154874920845032,0.025437500327825546
1781033923651726600,22.5297265625,0.9807875156402588,0.2593249976634979,-0.1769624948501587
1781033923671239000,22.549239013671876,0.7141749858856201,0.8166124820709229,-0.29397499561309814
1781033923690749700,22.568749755859375,0.4283125102519989,1.1156749725341797,-0.3306874930858612
1781033923710257200,22.588257080078126,0.13722500205039978,1.1985875368118286,-0.31501248478889465
1781033923729762000,22.607761962890624,-0.13158750534057617,1.148537516593933,-0.2770625054836273
1781033923749267500,22.627267333984374,-0.34952500462532043,1.037024974822998,-0.2381500005722046
1781033923768775400,22.646775390625,-0.5076500177383423,0.892787516117096,-0.19772499799728394
1781033923788287000,22.666286865234376,-0.6353874802589417,0.7430499792098999,-0.1387374997138977
1781033923807796700,22.685796630859375,-0.7944750189781189,0.6421250104904175,-0.045649997889995575
1781033923827304000,22.705303955078126,-1.042799949645996,0.64267498254776,0.07039999961853027
1781033923846813400,22.7248134765625,-1.3733500242233276,0.730537474155426,0.16871249675750732
1781033923866322700,22.74432275390625,-1.6897374391555786,0.7918624877929688,0.21422499418258667
1781033923885831400,22.76383154296875,-1.6897374391555786,0.7918624877929688,0.21422499418258667
1781033923905341700,22.783341796875,-1.8709625005722046,0.6888750195503235,0.22769999504089355
1781033923924857300,22.802857421875,-1.6718624830245972,-0.08249999582767487,0.4193750023841858
1781033923944371000,22.822370849609374,-1.6718624830245972,-0.08249999582767487,0.4193750023841858
1781033923963881000,22.841880859375,-1.6718624830245972,-0.08249999582767487,0.4193750023841858
1781033923983388700,22.861388671875,-1.215637445449829,-0.6223250031471252,0.6525750160217285
1781033924002897000,22.88089697265625,-1.1037124395370483,-0.4449499845504761,0.5020124912261963
1781033924022406700,22.90040673828125,-1.1140249967575073,0.027775000780820847,0.12072499841451645
1781033924041913300,22.919913330078124,-1.3036375045776367,0.7761874794960022,-0.49472498893737793
1781033924061417500,22.93941748046875,-1.822700023651123,1.902999997138977,-1.4144624471664429
1781033924080923600,22.958923583984376,-2.8158624172210693,3.544337511062622,-2.667224884033203
1781033924100430600,22.9784306640625,-3.950512409210205,5.370612621307373,-3.8355624675750732
1781033924119938300,22.997938232421873,-4.522787570953369,6.434037685394287,-4.317224979400635
1781033924139449900,23.017449951171876,-4.770837306976318,7.300425052642822,-4.443037509918213
1781033924158963500,23.03696337890625,-4.708000183105469,7.995487689971924,-4.256450176239014
1781033924178477800,23.056477783203125,-3.988600015640259,8.232125282287598,-3.5518999099731445
1781033924197991400,23.075991455078125,-2.5529625415802,7.848637580871582,-2.381500005722046
1781033924217501700,23.095501708984376,-0.8830249905586243,7.1242876052856445,-1.1093499660491943
1781033924237013800,23.115013671875,0.4823499917984009,6.720312595367432,-0.06476250290870667
1781033924256528400,23.1345283203125,1.284250020980835,6.035699844360352,0.613937497138977
1781033924276045000,23.154045166015624,1.5195125341415405,5.434412479400635,0.9301875233650208
1781033924295560700,23.173560791015625,1.342824935913086,4.776750087738037,0.9656624794006348
1781033924315071200,23.1930712890625,0.9327999949455261,3.9744374752044678,0.8207374811172485
1781033924334579200,23.2125791015625,0.40892499685287476,3.0610249042510986,0.5736500024795532
1781033924354085400,23.23208544921875,-0.13832500576972961,2.1591625213623047,0.2825624942779541
1781033924373592000,23.251592041015623,-0.6188874840736389,1.389162540435791,0.004399999976158142
1781033924393102000,23.27110205078125,-0.9609875082969666,0.7999749779701233,-0.20569999516010284
1781033924422365000,23.300364990234375,-1.1426249742507935,0.3815625011920929,-0.31968748569488525
1781033924432118800,23.310118896484376,-1.204087495803833,0.08978749811649323,-0.35887500643730164
1781033924451630000,23.329630126953123,-1.2134374380111694,-0.18466250598430634,-0.3694624900817871
1781033924471144700,23.349144775390624,-1.217424988746643,-0.5706250071525574,-0.38087499141693115
1781033924490655700,23.36865576171875,-1.2205874919891357,-1.121999979019165,-0.38981249928474426
1781033924510164000,23.3881640625,-1.1896499395370483,-1.7873624563217163,-0.3764750063419342
1781033924529675000,23.407675048828125,-1.0862499475479126,-2.4498374462127686,-0.3320625126361847
1781033924549185500,23.427185546875,-0.8837124705314636,-3.0223875045776367,-0.2681249976158142
1781033924568693200,23.446693359375,-0.5553625226020813,-3.5547873973846436,-0.19373749196529388
1781033924588199200,23.46619921875,-0.002062499988824129,-4.328087329864502,-0.060087498277425766
1781033924607710700,23.485710693359376,1.1206250190734863,-5.826837539672852,0.34072500467300415
1781033924627226000,23.50522607421875,3.3538999557495117,-7.986000061035156,1.4445749521255493
1781033924646735400,23.5247353515625,6.3311872482299805,-10.817399978637695,3.3591248989105225
1781033924666244000,23.544244140625,8.110300064086914,-12.263625144958496,4.9456000328063965
1781033924685759000,23.563759033203127,8.110300064086914,-12.263625144958496,4.9456000328063965
1781033924705276200,23.583276123046875,6.296674728393555,-9.320712089538574,4.367412567138672
1781033924724790300,23.602790283203124,4.821162700653076,-7.104487419128418,3.334237575531006
1781033924744300000,23.622300048828127,4.821162700653076,-7.104487419128418,3.334237575531006
1781033924763806500,23.641806396484377,2.8958873748779297,-3.956700086593628,1.734974980354309
1781033924783313700,23.661313720703124,2.8958873748779297,-3.956700086593628,1.734974980354309
1781033924802825700,23.68082568359375,2.326362371444702,-2.8197124004364014,1.1676499843597412
1781033924822336800,23.700336669921874,1.9309124946594238,-1.903137445449829,0.7002875208854675
1781033924841846300,23.71984619140625,1.6211249828338623,-1.1567875146865845,0.3255999982357025
1781033924861353700,23.739353759765624,1.3187625408172607,-0.5422999858856201,0.03368749842047691
1781033924880860700,23.758860595703126,1.0110374689102173,-0.03355000168085098,-0.1886499971151352
1781033924900368600,23.77836865234375,0.7358999848365784,0.35199999809265137,-0.3419624865055084
1781033924919880400,23.79788037109375,0.5126000046730042,0.5747500061988831,-0.4278999865055084
1781033924939396400,23.817396240234373,0.3119874894618988,0.6498249769210815,-0.4739624857902527
1781033924958909700,23.83690966796875,0.09542500227689743,0.6546375155448914,-0.5095750093460083
1781033924978420000,23.856419921875,-0.14836250245571136,0.682687520980835,-0.5428500175476074
1781033924997931500,23.875931640625,-0.4251500070095062,0.8061624765396118,-0.5314375162124634
1781033925017444000,23.895444091796875,-0.7317749857902527,1.0155750513076782,-0.5066875219345093
1781033925036956400,23.914956298828123,-1.021899938583374,1.2043625116348267,-0.49582499265670776
1781033925056465400,23.93446533203125,-1.2083499431610107,1.2244374752044678,-0.46076250076293945
1781033925075974400,23.953974365234377,-1.2350250482559204,0.9979749917984009,-0.4147000014781952
1781033925095481300,23.9734814453125,-1.1378124952316284,0.5942749977111816,-0.36162498593330383
1781033925114984400,23.992984375,-1.0187374353408813,0.18837499618530273,-0.3125374913215637
1781033925134492700,24.01249267578125,-0.9652500152587891,-0.05829999968409538,-0.29548749327659607
1781033925154002700,24.032002685546875,-0.993987500667572,-0.10106249898672104,-0.320374995470047
1781033925173515500,24.051515625,-1.0773124694824219,0.012374999932944775,-0.3702875077724457
1781033925193029600,24.071029541015626,-1.1573375463485718,0.16802500188350677,-0.3950375020503998
1781033925212539600,24.09053955078125,-1.1224124431610107,0.19277499616146088,-0.2927374839782715
1781033925232047000,24.110047119140624,-0.8912749886512756,-0.007837500423192978,0.0030249999836087227
1781033925251554000,24.129553955078126,-0.5638874769210815,-0.25753748416900635,0.36355000734329224
1781033925271064800,24.14906494140625,-0.3694624900817871,-0.22316250205039978,0.5266249775886536
1781033925290577400,24.168577392578126,-0.4380750060081482,0.24461250007152557,0.36588749289512634
1781033925310086100,24.188086181640625,-0.7028999924659729,1.001824975013733,-0.010724999941885471
1781033925329598700,24.2075986328125,-1.020662546157837,1.8163750171661377,-0.432574987411499
1781033925349111300,24.227111328125,-1.3356750011444092,2.602874994277954,-0.8436999917030334
1781033925368620500,24.24662060546875,-1.7137999534606934,3.4531750679016113,-1.281362533569336
1781033925388129000,24.26612890625,-2.292675018310547,4.559637546539307,-1.7811750173568726
1781033925407638500,24.285638427734376,-3.071475028991699,5.965574741363525,-2.2380874156951904
1781033925427146800,24.305146728515624,-3.730787515640259,6.997237682342529,-2.4131250381469727
1781033925446658000,24.324657958984375,-4.016924858093262,7.869675159454346,-2.2140250205993652
1781033925466168000,24.34416796875,-3.706862449645996,8.105899810791016,-1.6915249824523926
1781033925485675300,24.36367529296875,-3.706862449645996,8.105899810791016,-1.6915249824523926
1781033925505186000,24.38318603515625,-1.9819250106811523,6.88985013961792,-0.4482499957084656
1781033925524697000,24.402697021484375,-1.9819250106811523,6.88985013961792,-0.4482499957084656
1781033925544208600,24.422208740234375,-1.1508749723434448,6.0222249031066895,0.0015124999918043613
1781033925563719700,24.4417197265625,-1.1508749723434448,6.0222249031066895,0.0015124999918043613
1781033925583227400,24.461227294921876,-0.2400749921798706,3.6707000732421875,0.4006749987602234
1781033925602736600,24.480736572265624,-0.07535000145435333,2.8022499084472656,0.41552498936653137
1781033925622247200,24.5002470703125,-0.0057749999687075615,2.129462480545044,0.3928374946117401
1781033925641756400,24.51975634765625,-0.01924999989569187,1.5988500118255615,0.37070000171661377
1781033925661266200,24.53926611328125,-0.1467124968767166,1.1426249742507935,0.3279374837875366
1781033925680780500,24.558780517578125,-0.39118748903274536,0.7015249729156494,0.22536249458789825
1781033925700290800,24.578290771484376,-0.6984999775886536,0.2905375063419342,0.05829999968409538
1781033925719797000,24.597796875,-0.9751499891281128,-0.0340999998152256,-0.1350249946117401
1781033925739305200,24.61730517578125,-1.1364375352859497,-0.26826250553131104,-0.2993375062942505
1781033925758812700,24.636812744140624,-1.1599500179290771,-0.5031124949455261,-0.3973749876022339
1781033925778322400,24.656322509765626,-1.0884499549865723,-0.8646000027656555,-0.4311999976634979
1781033925797837000,24.675837158203127,-0.9604374766349792,-1.4188624620437622,-0.427762508392334
1781033925817347800,24.695347900390626,-0.7558375000953674,-2.1260249614715576,-0.40424999594688416
1781033925836859000,24.71485888671875,-0.4339500069618225,-2.863024950027466,-0.35846251249313354
1781033925856370000,24.734369873046877,0.057612501084804535,-3.568537473678589,-0.2644124925136566
1781033925875880700,24.753880615234376,0.8218374848365784,-4.355037689208984,-0.057887498289346695
1781033925895395300,24.773395263671876,1.9975999593734741,-5.4670000076293945,0.3759250044822693
1781033925914905300,24.7929052734375,3.578850030899048,-6.718800067901611,1.1499124765396118
1781033925934416000,24.812415771484375,5.265012264251709,-8.284099578857422,2.202887535095215
1781033925953926700,24.8319267578125,6.37711238861084,-9.292662620544434,3.1601624488830566
1781033925973433900,24.851433837890625,6.429224967956543,-9.148699760437012,3.551487445831299
1781033925992944400,24.8709443359375,5.572875022888184,-7.864174842834473,3.258887529373169
1781033926012459000,24.890458984375,4.448812484741211,-6.213075160980225,2.5878875255584717
