Time (s),Acc_X,Acc_Y,Acc_Z,Gyro_X,Gyro_Y,Gyro_Z,activity_label
5.571965875,0.7839198303,9.742340698,-0.8289761353,0.01071234886,0.003990978934,-0.0008156015538,5
5.592007875,0.7608677673,9.732311554,-0.8611592102,0.01374393888,0.00482804561,-0.004486853257,5
5.612050875,0.7424560547,9.734706573,-0.816252594,0.01092635933,0.006955532823,-0.005650082603,5
5.632092875,0.7310797119,9.757010193,-0.8002359009,0.006242624484,0.002717036987,-0.005754153244,5
5.652135875,0.7277865601,9.814340973,-0.8213420105,0.002379834186,0.002991722897,-0.005570113659,5
5.672177875,0.7671546936,9.772128754,-0.7952961731,-0.004678874277,0.0009892920498,0.003455339698,5
5.692220875,0.7946974182,9.71404953,-0.8078700256,-0.002509933664,-0.0002816442866,0.001663572039,5
5.712262875,0.7774832153,9.754615173,-0.8171507263,0.0009518015431,0.01437418722,-0.003789827228,5
5.732305875,0.7348219299,9.753417664,-0.8062234497,0.0006431748625,0.00324384612,-0.001762423432,5
5.752347875,0.7231462097,9.729617157,-0.8702902222,0.003809469286,-0.0008862593677,-0.006081796717,5
5.772390875,0.7559280396,9.768087158,-0.8360115051,0.001727614086,-0.003933905624,-0.005452499725,5
5.792433875,0.7427554321,9.770033112,-0.8608598328,-0.004482241347,-0.01611349173,-0.003950041719,5
5.812475875,0.7473957825,9.732311554,-0.8295748901,-0.004861895926,-0.01228569169,-0.005086757243,5
5.832518875,0.7649093628,9.760003967,-0.7726931763,-0.004997530021,-0.00989493262,-0.002672047121,5
5.852560875,0.8107141113,9.74563385,-0.7509883118,-0.001767398557,-0.01212243922,-0.002152702073,5
5.872603875,0.8059240723,9.717791748,-0.8102650452,0.004199509509,-0.0143232746,-0.00650036335,5
5.892645875,0.7662565613,9.707163849,-0.8433462524,0.01173353009,-0.005626646802,-0.01070097461,5
5.912688875,0.7415579224,9.741143188,-0.7692503357,0.01785442047,0.002158414107,-0.01692652516,5
5.932730875,0.8234376526,9.78664856,-0.7312294006,0.01142660901,0.01547825802,-0.01587844081,5
5.952773875,0.8517288208,9.772727509,-0.7521858215,0.01037121564,0.00856819097,-0.004909442738,5
5.972816875,0.813558197,9.739646301,-0.7960446167,0.01129551884,0.008447055705,0.0003210282885,5
5.992858875,0.6917115784,9.766290894,-0.7764353943,0.0114397211,-0.0006856082473,-0.0005149228964,5
6.012901875,0.636177063,9.771529999,-0.7496411133,0.004923440982,-0.004413735121,-0.01095012669,5
6.032943875,0.6780899048,9.741741943,-0.7461982727,0.0007476955652,-0.00280674058,-0.01457434241,5
6.052986875,0.7312294006,9.72812027,-0.8078700256,-0.002998594893,-0.005640079267,-0.006208135746,5
6.073028875,0.7286846924,9.754016418,-0.802331543,0.005086280406,-0.01700260676,-0.003479280276,5
6.093071875,0.7426057434,9.795779572,-0.8446934509,0.001210706541,-0.02876354195,0.0009463755414,5
6.113113875,0.7198530579,9.800419922,-0.8437953186,-0.007096412592,-0.01632981561,0.004139483441,5
6.133156875,0.7268884277,9.765093384,-0.7458988953,-0.01635847986,-0.009256040677,0.004606586881,5
6.153199875,0.7616162109,9.755662994,-0.7744894409,-0.01986006647,-0.01486564707,0.003841453465,5
6.173241875,0.7694000244,9.721384277,-0.8445437622,-0.01603829861,-0.01935380325,0.0006239716895,5
6.193284875,0.7731422424,9.70357132,-0.8568182373,-0.008264209144,-0.004546392709,-0.003203117754,5
6.213326875,0.7912545776,9.710457001,-0.8331674194,-0.0004175622016,0.01375427749,-0.009439784102,5
6.233369875,0.8014334106,9.691596222,-0.8074209595,0.008655731566,0.01973813586,-0.01017396338,5
6.253411875,0.7475454712,9.742939453,-0.8771759033,0.01940252632,0.0133783929,-0.01387097966,5
6.273454875,0.699944458,9.750124512,-0.9145980835,0.02326986194,0.01421321649,-0.01235648617,5
6.293496875,0.6738986206,9.756112061,-0.8726852417,0.02044884861,0.002119803801,-0.01564245485,5
6.313539875,0.6706054688,9.75730957,-0.8774752808,0.0160340704,-0.001661318121,-0.01641783863,5
6.333581875,0.6622229004,9.780062256,-0.8402027893,0.009010980837,-0.00417522341,-0.0139708044,5
6.353624875,0.6791377258,9.781259766,-0.8234376526,0.001154938363,-0.002664641244,-0.007199479733,5
6.373667875,0.7457492065,9.785001984,-0.8340655518,0.001950249309,-0.004405511543,-0.002866443247,5
6.393709875,0.7291337585,9.733209686,-0.8994795227,0.001947070472,-0.005473401397,-0.001333822729,5
6.413752875,0.6965016174,9.729018402,-0.8439450073,0.006486162543,0.001578117022,-0.005968255922,5
6.433794875,0.7217990112,9.751322021,-0.7994874573,0.008246999234,0.0112577565,-0.008857822046,5
6.453837875,0.7217990112,9.744286652,-0.8716374207,0.007160820067,0.007948626764,-0.009481785819,5
6.473879875,0.6462062073,9.756860504,-0.8872050476,0.005662429612,0.01250209846,-0.00953446608,5
6.493922875,0.6409671021,9.787995758,-0.8381071472,0.009105159901,0.0006379061379,-0.007393277716,5
6.513964875,0.6486012268,9.783954163,-0.8258326721,0.005147690885,-0.01517868415,-0.006500149146,5
6.534007875,0.6839277649,9.730814667,-0.8613088989,0.003304030281,-0.01592501439,-0.007731556427,5
6.554050875,0.7045848083,9.751771088,-0.8322692871,0.001469441224,-0.008302857168,-0.005563736893,5
6.574092875,0.6872209167,9.745484161,-0.8126600647,0.00472014118,-0.00575592462,-0.0038779194,5
6.594135875,0.6997947693,9.75386673,-0.8306227112,0.0115187047,-0.004900366068,-0.002795575419,5
6.614177875,0.6762936401,9.774823151,-0.8530760193,0.007751130499,0.002028113231,-0.003341523232,5
6.634220875,0.6400689697,9.797725525,-0.8358618164,0.003614679445,0.006478676107,-0.00602339115,5
6.654262875,0.6165678406,9.745484161,-0.803379364,0.001114799059,0.001694153063,-0.006818546914,5
6.674305875,0.6622229004,9.743538208,-0.8351133728,0.004174051341,-0.003527011489,-0.002271220088,5
6.694347875,0.6783892822,9.7409935,-0.8008346558,0.006597532891,0.0006826086901,-0.00122392457,5
6.714390875,0.6803352356,9.739945679,-0.8096662903,0.002853310667,0.009423977695,-0.002526063239,5
6.734433875,0.6664141846,9.741741943,-0.8408015442,0.009722627699,0.01502761152,-0.005869025365,5
6.754475875,0.6526428223,9.758058014,-0.8394543457,0.008295525797,0.01184360962,-0.006074158475,5
6.774518875,0.6695576477,9.773925018,-0.8598120117,0.007270021364,0.01028668974,-0.002840035828,5
6.794560875,0.6623725891,9.765692139,-0.8294252014,0.006197696552,0.01226709504,-0.001656102482,5
6.814603875,0.6911128235,9.735005951,-0.8183482361,0.008497993462,0.006843680982,0.001174586359,5
6.834645875,0.6890171814,9.740694122,-0.8614585876,0.008320348337,0.009543248452,0.002402204555,5
6.854688875,0.6559359741,9.767189026,-0.8604107666,0.006956679747,0.007924240083,0.002322157146,5
6.874731875,0.6198609924,9.77721817,-0.877325592,0.003448997159,0.002578931861,-0.0004440110642,5
6.894773875,0.5959107971,9.74683136,-0.8840615845,0.00901895389,-0.008236582391,-0.002730636625,5
6.914816875,0.6403683472,9.704020386,-0.8295748901,0.01380549837,-0.02080468833,-0.006378598511,5
6.934858875,0.705333252,9.753267975,-0.8337661743,0.01237093285,-0.007694781758,-0.004496031906,5
6.954901875,0.7250921631,9.740843811,-0.803379364,0.01324604731,0.004689449444,-0.0007228651084,5
6.974943875,0.6917115784,9.738149414,-0.8345146179,0.01388783567,0.00554104941,0.0017134503,5
6.994986875,0.628692627,9.792037354,-0.8720864868,0.01042326633,-0.001726107439,0.0003698787186,5
7.015028875,0.6081852722,9.802814941,-0.8102650452,0.004383733496,-0.004124856554,-0.0008218584117,5
7.035072292,0.6358776855,9.73979599,-0.8319699097,0.001695742249,-0.0007572134491,-0.001059419475,5
7.055115292,0.697250061,9.726623383,-0.8699908447,0.01039854437,0.007033445407,0.002266615862,5
7.075157292,0.6821315002,9.739496613,-0.869841156,0.0147894118,0.002367362846,0.005603214726,5
7.095200292,0.6658154297,9.723030853,-0.8894503784,0.01934731565,0.004569528159,0.0106094731,5
7.115242292,0.6415658569,9.778265991,-0.8325686646,0.01512277685,0.009637069888,0.003319014329,5
7.135285292,0.6562353516,9.768386536,-0.8241860962,0.008100774139,0.01121750474,0.001457428792,5
7.155327292,0.6511459351,9.764045563,-0.8842112732,0.007565666456,0.002038158942,0.00256798882,5
7.175370292,0.614172821,9.758058014,-0.905766449,0.01176244579,0.00611226121,0.003399210749,5
7.195412292,0.6397695923,9.761650543,-0.8672964478,0.01205501892,0.002695617033,0.005659659393,5
7.215455292,0.6650669861,9.760453033,-0.899329834,0.0117879957,0.001402953407,0.005703937728,5
7.235498292,0.6457571411,9.746382294,-0.9199868774,0.006596587598,0.001406342024,0.003091601655,5
7.255540292,0.6153703308,9.767937469,-0.9252259827,0.004461139906,-0.00139168906,0.005008264445,5
7.275583292,0.6282435608,9.783804474,-0.9440867615,0.001931403298,-0.01111994963,0.004621307366,5
7.295625292,0.6415658569,9.752519531,-0.970581665,-0.002718010219,-0.02926129848,0.01018822193,5
7.315668292,0.6777905273,9.733658752,-0.9596543884,0.001741241664,-0.03823899478,0.01197579689,5
7.335710292,0.7213499451,9.725874939,-0.9135502625,0.009018386714,-0.02346701361,0.01307315007,5
7.355753292,0.7444020081,9.717043304,-0.9039701843,0.01433659904,-0.01667530276,0.0140727628,5
7.375796292,0.6968009949,9.773625641,-0.9533674622,0.01412460767,-0.0140419323,0.01518981624,5
7.395838292,0.6497987366,9.747430115,-0.9273216248,0.008702190593,-0.01414085273,0.01051547099,5
7.415881292,0.7209008789,9.743837585,-0.8981323242,0.002445348073,-0.01625547372,0.009427478537,5
7.435923292,0.7822732544,9.748328247,-0.9229806519,-0.001387365395,0.006419286598,0.004675110336,5
7.455966292,0.785716095,9.751022644,-0.9017248535,-0.001608957304,0.0292356126,0.006728169043,5
7.476008292,0.7414082336,9.736951904,-0.9496252441,0.005170027725,0.01975206099,0.008800037205,5
7.496051292,0.7051835632,9.732461243,-0.9592053223,0.01097761281,0.005673904903,0.01447716169,5
7.516094292,0.7167095947,9.724677429,-0.9198371887,0.006100973114,0.01700341143,0.01215300709,5
7.536136292,0.7671546936,9.739945679,-0.8613088989,0.005283070728,0.03706724569,0.00963095855,5
7.556179292,0.7659571838,9.765841827,-0.9044192505,-0.004636784084,0.03154993802,0.01175517216,5
7.576221292,0.7176077271,9.731862488,-0.9592053223,-0.002966828411,0.02490503713,0.01077866368,5
7.596264292,0.6730004883,9.749525757,-0.9633966064,-0.000898425933,0.0273692701,0.009978557006,5
7.616306292,0.6703060913,9.777068481,-0.9174421692,-0.002863418544,0.03181936964,0.01010193489,5
7.636349292,0.6623725891,9.796078949,-0.9285191345,-0.006889148615,0.02493855171,0.01293212082,5
7.656391292,0.6774911499,9.750723267,-0.9828561401,-0.007677377202,0.01800490916,0.01248593722,5
7.676434292,0.697250061,9.717791748,-0.9536668396,-0.006561246701,-0.002144300612,0.01503910962,5
7.696477292,0.7146139526,9.733658752,-0.956660614,-0.01033207867,0.002937087324,0.0141770374,5
7.716519292,0.7222480774,9.754315796,-0.8943901062,-0.009760631248,0.01002119947,0.01430710405,5
7.736562292,0.7439529419,9.728569336,-0.9262738037,-0.009220787324,0.008485100232,0.01338311378,5
7.756604292,0.7764353943,9.724078674,-0.9461824036,-0.007102180272,0.003623157274,0.0118592605,5
7.776647292,0.7646099854,9.725874939,-0.9485774231,-0.004823147319,0.004511343315,0.008760297671,5
7.796689292,0.7723937988,9.745184784,-0.8866062927,-0.005470732227,0.005455440376,0.011924088,5
7.816732292,0.7574249268,9.765093384,-0.889151001,-0.009633345529,0.01367392391,0.008378557861,5
7.836775292,0.8050259399,9.747879181,-0.8933422852,-0.01249747816,0.005861277692,0.01127709355,5
7.856817292,0.8129594421,9.761201477,-0.9256750488,-0.0130725503,-0.005337850191,0.01601224206,5
7.876860292,0.7429051208,9.71644455,-0.9324110413,-0.01219894271,0.007551880553,0.01119811088,5
7.896902292,0.7839198303,9.695488129,-0.8927435303,-0.01107796747,0.005391912535,0.005867182277,5
7.916945292,0.8481362915,9.762997742,-0.886456604,-0.01181134023,0.001688444288,0.01380660478,5
7.936987292,0.8602610779,9.73859848,-0.902024231,-0.01233573351,0.005502317101,0.01590387151,5
7.957030292,0.7929011536,9.749675446,-0.9008267212,-0.01179482881,0.008644620888,0.01756459288,5
7.977073292,0.7711962891,9.728868713,-0.8978329468,-0.006412608549,-0.0007679003756,0.01394982077,5
7.997115292,0.7723937988,9.730515289,-0.8882528687,-0.01045662351,0.005554740317,0.007635581307,5
8.017158292,0.809815979,9.748178558,-0.8526269531,-0.01038557943,0.01703969948,0.002837890293,5
8.037199292,0.8436456299,9.742640076,-0.8292755127,-0.008549438789,0.01943806931,0.006166002713,5
8.057242292,0.8282276917,9.708960114,-0.8638536072,0.001660039416,0.01288851816,0.008094424382,5
8.077284292,0.8345146179,9.713750153,-0.853225708,0.01261761598,0.01585527882,0.009166613221,5
8.097327292,0.840352478,9.761051788,-0.7930508423,0.01208593603,0.02489719726,0.009196510538,5
8.117370292,0.8324189758,9.813293152,-0.8065228271,0.001475220546,0.03439457715,0.009137467481,5
8.137412292,0.7816744995,9.755662994,-0.846789093,-0.00738145411,0.03515901417,0.006941269152,5
8.157455292,0.7228468323,9.739047546,-0.8605604553,-0.005081298761,0.02526053414,0.002604337409,5
8.177497292,0.7277865601,9.77721817,-0.8619076538,-0.01098052971,0.009525590576,0.006994019262,5
8.197540292,0.7661068726,9.769434357,-0.8527766418,-0.02086371183,0.0169579275,0.01258967444,5
8.217582292,0.7798782349,9.758806458,-0.785716095,-0.01962225512,0.01436606888,0.01456783433,5
8.237625292,0.7861651611,9.730814667,-0.8346643066,-0.01537252404,0.004100494552,0.01651754603,5
8.257668292,0.7930508423,9.704020386,-0.8807684326,-0.01488873083,0.008914325386,0.01231013425,5
8.277710292,0.7731422424,9.728269958,-0.8626560974,-0.0108812442,0.004187958315,0.009841014631,5
8.297753292,0.7866142273,9.753118286,-0.8466394043,-0.008886685595,0.01094122045,0.008935621008,5
8.317795292,0.7893086243,9.748927002,-0.7926017761,-0.007684613578,0.008728170767,0.01273650583,5
8.337838292,0.7976911926,9.734706573,-0.8662486267,-0.003978721797,0.00450476259,0.009756047279,5
8.357880292,0.7705975342,9.737550659,-0.876277771,-0.003972824663,-0.005132631399,0.00778434379,5
8.377923292,0.7397616577,9.729766846,-0.8526269531,-0.001146524679,-0.01321030688,0.008400941268,5
8.397966292,0.7461982727,9.766141205,-0.7851173401,-0.004475446418,-0.009432772174,0.0052395612,5
8.418008292,0.8190966797,9.728868713,-0.7957452393,-0.008386909962,-0.01028521452,0.004091224633,5
8.438051292,0.8848100281,9.737850037,-0.8448431396,-0.005110423081,-0.01853169315,0.00881540589,5
8.458093292,0.8369096375,9.748627625,-0.8493338013,-0.002749135485,-0.01188914943,0.0056461473,5
8.478136292,0.8114625549,9.739646301,-0.7499404907,-0.001396820648,-0.004760193639,0.005715813488,5
8.498179292,0.8484356689,9.7609021,-0.7926017761,-0.003323409008,-0.003586482489,0.004453896545,5
8.518221292,0.86235672,9.732161865,-0.8202941895,-0.001979889814,-0.002041732194,0.005062928423,5
8.538264292,0.8590635681,9.695637817,-0.8005352783,0.0009711754974,-0.002318128245,0.01097032521,5
8.558306292,0.8553213501,9.733359375,-0.8047265625,0.006059060805,0.0007472313009,0.01168338209,5
8.578349292,0.8319699097,9.74443634,-0.8111631775,0.005393174943,-0.003702119691,0.01114839502,5
8.598391292,0.8234376526,9.743388519,-0.8015830994,0.001966423355,-0.005902612582,0.008879909292,5
8.618434292,0.84948349,9.757608948,-0.7777825928,0.00326827215,-0.0006370025221,0.008373865858,5
8.638477292,0.8517288208,9.751022644,-0.8238867188,0.002416372765,-0.00150797586,0.008341938257,5
8.658519292,0.8551716614,9.716743927,-0.8431965637,0.003318713978,-0.006623986177,0.008357923478,5
8.678562292,0.8631051636,9.732610931,-0.8427474976,0.002337106504,0.003561891383,0.0005015500356,5
8.698604292,0.8466394043,9.760752411,-0.7981402588,0.0004726729821,0.006129059475,-0.001335734269,5
8.718647292,0.8755293274,9.743687897,-0.8306227112,0.001525271218,0.006440667436,0.004089740105,5
8.738689292,0.909508667,9.716594238,-0.8267308044,0.006207494996,0.009104769677,0.008265970275,5
8.758732292,0.8933422852,9.730664978,-0.855920105,0.006565860473,0.001409026794,0.01072730776,5
8.778775292,0.8113128662,9.717492371,-0.8915460205,0.006668426096,-0.001032209257,0.01044735964,5
8.798817292,0.7517367554,9.757758636,-0.8523275757,0.004748269916,0.003879151074,1.711468212e-05,5
8.818860292,0.7929011536,9.758058014,-0.8231382751,-0.001627279446,0.002664955799,-0.005371152889,5
8.838902292,0.8270301819,9.783505096,-0.8863069153,-0.002689926652,-0.01527850237,-0.003585265018,5
8.858945292,0.8078700256,9.704170074,-0.9074130249,0.004186518025,-0.02240388282,-0.005297021009,5
8.878988292,0.8490344238,9.722132721,-0.8466394043,0.009412372485,-0.02217128873,-0.003253476461,5
8.899030292,0.9005273438,9.736652527,-0.8424481201,0.004046668299,-0.01067300607,-0.00309320353,5
8.919073292,0.883762207,9.725874939,-0.8482859802,0.004312989302,-0.0069363527,-0.006403359585,5
8.939115292,0.856967926,9.718540192,-0.8726852417,0.008077067323,-0.003485774389,-0.008693356998,5
8.959158292,0.8065228271,9.717642059,-0.8699908447,0.008938799612,-0.01273030508,-0.009546798654,5
8.979201292,0.786763916,9.731413422,-0.8360115051,0.006103212014,-0.01395017002,-0.01293685753,5
8.999243292,0.8235873413,9.738748169,-0.8092172241,0.004651172552,-0.01462548785,-0.01524435822,5
9.019286292,0.8669970703,9.761351166,-0.8116122437,0.0108724758,-0.02169331908,-0.01166350953,5
9.0393295,0.8352630615,9.710157623,-0.8304730225,0.01444814354,-0.02509810217,-0.008892453276,5
9.0593725,0.8059240723,9.750124512,-0.8391549683,0.01544456929,-0.01598805748,-0.01278457697,5
9.0794145,0.7705975342,9.811945953,-0.8240364075,0.005846341606,-0.01345976908,-0.009551966563,5
9.0994575,0.8012837219,9.78664856,-0.7945477295,-0.002975575626,-0.01699058153,-0.004200687632,5
9.1195005,0.8225395203,9.743987274,-0.8077203369,-0.0008561820723,-0.01684317924,-0.002422031481,5
9.1395425,0.8563691711,9.723779297,-0.8557704163,0.004589071032,-0.006563696079,-0.003998825792,5
9.1595855,0.8506809998,9.711355133,-0.8776249695,0.009179345332,0.002829935402,-0.006760060787,5
9.1796275,0.8134085083,9.734556885,-0.8509803772,0.01015713345,0.01331016142,-0.0070405039,5
9.1996705,0.8054750061,9.738897858,-0.8292755127,0.01158655994,0.00535723241,-0.005080647767,5
9.2197135,0.83661026,9.719288635,-0.8517288208,0.01183207519,-0.002038470237,-0.004601332359,5
9.2397555,0.8738827515,9.750124512,-0.8316705322,0.0123273721,0.003203035332,-0.006888117641,5
9.2597985,0.8943901062,9.743987274,-0.8111631775,0.01049927063,0.008702128194,-0.005053501576,5
9.2798405,0.8454418945,9.735604706,-0.86235672,0.01308075152,0.02050682157,-0.006414128002,5
9.2998835,0.8220904541,9.739646301,-0.8879534912,0.01607859321,0.01949645206,-0.006967781112,5
9.3199255,0.793200531,9.757459259,-0.9303153992,0.009676524438,-0.002185415709,-0.002487770515,5
9.3399685,0.7539820862,9.736652527,-0.9324110413,0.008660245687,-0.01155339461,-0.00137960678,5
9.3600115,0.7806266785,9.771529999,-0.8496331787,0.005695410538,-0.004926728085,-0.003308794927,5
9.3800535,0.8767268372,9.737850037,-0.8482859802,0.0004408855457,0.007665694691,-0.001774315722,5
9.4000965,0.8791218567,9.738448792,-0.9229806519,0.004403894302,0.01332474407,-0.002794175874,5
9.4201385,0.8258326721,9.725575562,-0.9274713135,0.01238481794,0.01735004783,-0.0009484521579,5
9.4401815,0.7683522034,9.722581787,-0.8951385498,0.01925585233,0.00409679208,-0.002093362156,5
9.4602245,0.7937992859,9.743089142,-0.9107061768,0.01680555567,0.008418535814,-0.004679841921,5
9.4802665,0.8204438782,9.725425873,-0.9119036865,0.01678478345,0.0003528865054,-0.006639662199,5
9.5003095,0.8090675354,9.745035095,-0.8951385498,0.01762434095,0.007930736057,-0.006361187436,5
9.5203515,0.786763916,9.737700348,-0.8801696777,0.02227028459,0.006915215403,-0.006837517023,5
9.5403945,0.7828720093,9.756561127,-0.8936416626,0.01746194623,-0.00359468325,-0.003850249574,5
9.5604375,0.7550299072,9.757159882,-0.8881031799,0.01148722414,-0.007620351389,0.001070988132,5
9.5804795,0.7512876892,9.766141205,-0.89394104,0.008576801047,-0.008086805232,0.003592084395,5
9.6005225,0.7906558228,9.739047546,-0.8788224792,0.01163736451,-0.004625016823,0.007783479989,5
9.6205645,0.8111631775,9.739496613,-0.9035211182,0.01287036203,-0.001956942258,0.01158564538,5
9.6406075,0.8241860962,9.757159882,-0.9111552429,0.01408710983,0.008955230936,0.01280783955,5
9.6606505,0.8134085083,9.710457001,-0.8987310791,0.01636397094,0.01441295817,0.01271224394,5
9.6806925,0.7650590515,9.707912292,-0.9240284729,0.01778547466,0.01254126336,0.01375348121,5
9.7007355,0.7521858215,9.747280426,-0.9328601074,0.02182738669,0.01301379316,0.008331237361,5
9.7207775,0.7843688965,9.744885406,-0.9208850098,0.02461002953,0.01116102468,0.01073078811,5
9.7408205,0.8030799866,9.71988739,-0.9214837646,0.02416818216,0.01368666161,0.01554333046,5
9.7608625,0.76640625,9.723030853,-0.9545649719,0.02152779885,0.0191771891,0.01701391488,5
9.7809055,0.7590715027,9.762698364,-0.9916877747,0.02187901922,0.02728265896,0.02358480729,5
9.8009485,0.7048841858,9.760752411,-0.9981243896,0.02074474841,0.02137994394,0.02314569987,5
9.8209905,0.7078779602,9.75506424,-0.9541159058,0.01966726407,0.02039918676,0.01585631445,5
9.8410335,0.7457492065,9.760453033,-0.9777667236,0.009108738974,0.01642182469,0.01398015209,5
9.8610755,0.7864645386,9.761650543,-1.003812561,0.005789923482,0.008953831159,0.01100404561,5
9.8811185,0.7482939148,9.733359375,-1.040635986,-0.0003370982595,0.01221731957,0.0164570678,5
9.9011615,0.7409591675,9.730664978,-1.043480072,0.00882351771,0.01567585394,0.01244260557,5
9.9212035,0.7909552002,9.724677429,-1.001118164,0.01453306526,0.0144380359,0.006876968779,5
9.9412465,0.8020321655,9.708660736,-1.023272095,0.0138723515,0.01523489691,0.003191663185,5
9.9612885,0.7860154724,9.743538208,-1.009351044,0.01691026427,0.02014111727,0.001276346855,5
9.9813315,0.7580236816,9.729168091,-1.041833496,0.01805464178,0.006634407211,0.003890749067,5
10.0013745,0.7873626709,9.740095367,-1.034648438,0.02121402882,0.001554659335,0.001437693718,5
10.0214165,0.8177494812,9.75506424,-0.9848020935,0.008606404066,0.0148466425,0.005711297505,5
10.04145862,0.8041278076,9.758058014,-1.039588165,0.002392886905,0.01963499561,0.0008209745865,5
10.06150062,0.8072712708,9.73979599,-1.035097504,0.009194134735,0.01657706127,-0.001592741348,5
10.08154362,0.7713459778,9.702673187,-1.102756805,0.01157836709,-0.004337017424,0.002184195444,5
10.10158662,0.7206015015,9.709858246,-1.115630035,0.01470848825,-0.01223615184,0.001438278472,5
10.12162862,0.7421566772,9.742640076,-1.009650421,0.007649783976,-0.01634356193,-0.003003709018,5
10.14167162,0.8454418945,9.759854279,-0.9627978516,-0.00865055155,-0.02495357767,0.003490759758,5
10.16171362,0.9470805359,9.73276062,-0.96414505,-0.01059326064,-0.016021166,0.006429194938,5
10.18175662,0.9627978516,9.729916534,-0.9764195251,-0.004653492011,-0.007604115643,0.01095295418,5
10.20179962,0.9193881226,9.723629608,-0.9930349731,-0.004226337653,-0.002064252039,0.008822980337,5
10.22184162,0.8780740356,9.709858246,-0.9879455566,-0.001485395245,0.005577732809,0.01149570569,5
10.24188463,0.8684939575,9.752070465,-0.9607022095,-0.006323010661,0.01348709874,0.009902846999,5
10.26192662,0.8994795227,9.762249298,-0.9627978516,-0.01614274271,0.0144222891,0.01160246506,5
10.28196963,0.8663983154,9.684261475,-1.032103729,-0.01292642578,-0.003220045241,0.01151508931,5
10.30201162,0.8391549683,9.727820892,-1.028211823,0.003171645105,-0.01183331758,0.01004423201,5
10.32205462,0.8714877319,9.774074707,-0.9553134155,-0.007323248312,-0.005558885634,0.006187765859,5
10.34209762,0.8764274597,9.762548676,-0.9632469177,-0.01700683124,-0.01197223179,0.005112641957,5
10.36213962,0.8336164856,9.727671204,-1.023421783,-0.01541054808,-0.02108694613,0.007641601376,5
10.38218262,0.8313711548,9.737251282,-1.00980011,-0.007393905427,-0.0207769461,0.01264923066,5
10.40222462,0.8416996765,9.72572525,-0.9672885132,-0.01210370194,-0.02906391397,0.009142292663,5
10.42226762,0.8765771484,9.749974823,-0.9488768005,-0.01779130287,-0.03637077287,0.01238436252,5
10.44231062,0.9011260986,9.719588013,-0.9246272278,-0.02444516495,-0.03768916056,0.01653359644,5
10.46235262,0.8882528687,9.696086884,-0.9376501465,-0.02432341129,-0.03101326898,0.009969199076,5
10.48239562,0.9392967224,9.716743927,-0.9403445435,-0.02036068775,-0.02407833561,0.00746865198,5
10.50243763,0.9455836487,9.706265717,-0.9398954773,-0.01272471715,-0.01319804136,0.007121707778,5
10.52248062,0.9544152832,9.699829102,-0.9189390564,-0.006117585115,0.006462487392,-0.001415895065,5
10.54252362,0.9066645813,9.724976807,-0.9349557495,-0.003085497534,0.004176660907,-0.001440414693,5
10.56256562,0.8795709229,9.712402954,-0.9906399536,-0.001372053055,-0.001252011629,-0.00239058258,5
10.58260862,0.8170010376,9.734407196,-0.9964778137,-0.003776246682,-0.005672524683,-0.002676838078,5
10.60265062,0.833915863,9.767039337,-0.9601034546,-0.01006873045,-0.009913256392,0.0006081250031,5
10.62269362,0.8499325562,9.763895874,-0.9568103027,-0.01394355018,-0.01878880709,0.00130985002,5
10.64273662,0.8768765259,9.700128479,-0.9521699524,-0.009842677973,-0.02145472914,0.003271620721,5
10.66277862,0.8684939575,9.729467468,-0.9328601074,-0.004207649268,-0.02241545171,-0.001608062536,5
10.68282162,0.8879534912,9.724228363,-0.9075627136,-0.006446876563,-0.01648555137,-0.002475312911,5
10.70286362,0.8949888611,9.742490387,-0.9093589783,-0.006893085316,-0.007235955447,-0.003288288601,5
10.72290663,0.8943901062,9.738897858,-0.9232800293,-0.0159508381,-0.0007932183798,0.0003319312818,5
10.74294962,0.8813671875,9.718240814,-0.9743238831,-0.01061166916,-0.01490112394,0.003570074914,5
10.76299163,0.8524772644,9.742789764,-0.9312135315,-0.006333022378,-0.01645288989,0.0009639805648,5
10.78303462,0.8779243469,9.723779297,-0.8761280823,-0.009338021278,-0.008603968658,0.0005287567619,5
10.80307662,0.9107061768,9.7210849,-0.8750802612,-0.01197228301,-0.0005826249253,-0.001223784639,5
10.82311962,0.8785231018,9.723928986,-0.9410929871,-0.01063449774,-0.01019400638,-0.00260651391,5
10.84316262,0.8282276917,9.736502838,-0.9395960999,-0.003157860599,-0.009796430357,-0.001110632904,5
10.86320462,0.8524772644,9.761800232,-0.9187893677,-0.006504546851,-0.005520391278,-0.0008914221544,5
10.88324762,0.8490344238,9.741741943,-0.942739563,-0.005637967028,-0.008293332532,0.0009325037245,5
10.90328962,0.8593629456,9.731712799,-0.9171427917,-0.006261554547,-0.01952403784,0.0007783188485,5
10.92333262,0.8690927124,9.732610931,-0.8695417786,-0.008291590028,-0.02130833082,-0.001365203643,5
10.94337563,0.8839118958,9.704619141,-0.833915863,-0.01303339377,-0.02807050757,-0.0009950515814,5
10.96341762,0.9002279663,9.758956146,-0.8943901062,-0.02064906061,-0.03627200425,0.001067241887,5
10.98346063,0.8635542297,9.753717041,-0.8888516235,-0.01320355386,-0.002093459247,-0.004600727931,5
11.00350262,0.798589325,9.710906067,-0.9184899902,-0.0137218507,0.002499016235,-0.005939528812,5
11.0235455,0.835562439,9.733509064,-0.98989151,0.00101594103,-0.01299967058,1.131626777e-05,5
11.0435885,0.8813671875,9.736951904,-0.8683442688,-0.0007993609179,-0.003113510786,0.005295233801,5
11.0636305,0.8870553589,9.725874939,-0.8792715454,-0.01422186662,-0.002014131052,0.005785582121,5
11.0836735,0.863404541,9.720336456,-0.9601034546,-0.002389363712,-0.006274158135,0.002741837641,5
11.1037155,0.8234376526,9.715995483,-0.9821076965,0.005128003191,-0.008741654456,0.00178390462,5
11.1237585,0.8268804932,9.754764862,-0.8904981995,-0.001331044594,-0.0003332097549,0.003290300258,5
11.1438015,0.8411009216,9.737550659,-0.8613088989,-0.009728586301,-0.004103368148,0.002299599349,5
11.1638435,0.8515791321,9.743089142,-0.9163943481,-0.009738735855,-0.01014032122,0.002603949746,5
11.1838865,0.8610095215,9.757908325,-0.9367520142,-0.008758317679,-0.001305484446,-0.002719409997,5
11.2039285,0.872535553,9.739047546,-0.9093589783,-0.009648375213,-0.001825433457,0.003130706027,5
11.2239715,0.8845106506,9.698332214,-0.9039701843,-0.004409388639,-0.002662155544,0.007326759398,5
11.2440145,0.896635437,9.72812027,-0.9074130249,-0.00393372681,-0.0006083056796,0.00965716131,5
11.2640565,0.8589138794,9.729168091,-0.8849597168,-0.005125545897,0.005601013545,0.004908654839,5
11.2840995,0.8095166016,9.749076691,-0.8747808838,-0.01121392287,0.002804316813,0.002053202363,5
11.3041415,0.8036787415,9.744885406,-0.9139993286,-0.008433236741,-0.007858747616,0.002322164597,5
11.3241845,0.8408015442,9.764494629,-0.8933422852,-0.01102967747,-0.003574099159,0.001014807494,5
11.3442275,0.8699908447,9.727970581,-0.8795709229,-0.007286638021,0.0007348079234,0.0001418683678,5
11.3642695,0.8849597168,9.729617157,-0.8931925964,0.001507573063,-0.002175461734,0.0004377616569,5
11.3843125,0.8934919739,9.720635834,-0.8813671875,0.008498258889,2.611591481e-05,0.000776306726,5
11.4043545,0.8759783936,9.715696106,-0.8695417786,0.007222891785,0.0003449309152,0.001297640847,5
11.4243975,0.8373587036,9.743687897,-0.8523275757,0.0001097465865,-0.001385127427,-0.000967413187,5
11.4444405,0.8373587036,9.760453033,-0.8336164856,-0.009427973069,0.006239082664,-0.0001324999612,5
11.4644825,0.8592132568,9.749376068,-0.8702902222,-0.009187081829,0.004233077168,0.001776708057,5
11.4845255,0.856967926,9.755662994,-0.9086105347,-0.006817468442,0.002130603418,0.003505723318,5
11.5045675,0.8399034119,9.743089142,-0.8967851257,-0.006860552821,0.003662913572,0.005019555334,5
11.5246105,0.8102650452,9.739646301,-0.8961863708,-0.004207349848,-0.001295963535,0.005343010649,5
11.5446535,0.829125824,9.749974823,-0.9035211182,-0.007805542089,-0.01332681067,0.005943985656,5
11.5646955,0.7999365234,9.715696106,-0.9101074219,-0.008076027967,-0.02113410644,0.003575697076,5
11.5847385,0.8177494812,9.715845795,-0.8632548523,-0.008994602598,-0.01857707091,-0.002115144627,5
11.6047805,0.8855584717,9.696386261,-0.8458909607,-0.00934940204,-0.01235078275,-0.001267112326,5
11.6248235,0.9174421692,9.722881165,-0.8614585876,0.002473959466,-0.01205417048,0.002573804231,5
11.6448665,0.9072633362,9.769284668,-0.816252594,0.001970151672,0.005283729173,0.003875296563,5
11.6649085,0.9410929871,9.751322021,-0.8449928284,0.0005308340769,0.005866551772,0.003371798201,5
11.6849515,0.8625064087,9.705666962,-0.8860075378,0.003233301453,-0.007054639049,0.005249827169,5
11.7049935,0.8406518555,9.710906067,-0.8777746582,0.002630520146,-0.002274065046,-0.002902940381,5
11.7250365,0.8930429077,9.763297119,-0.8147557068,-0.0036390936,0.0009241250809,-0.002447806299,5
11.7450795,0.9150471497,9.757159882,-0.8422984314,-0.00737860892,-0.006218995899,0.003729089163,5
11.7651215,0.8858578491,9.738897858,-0.8919950867,-0.002979179379,-0.003525528824,0.009571327828,5
11.7851645,0.8650511169,9.724677429,-0.8674461365,0.004580174573,-0.001107745571,0.005149631295,5
11.8052065,0.883762207,9.728868713,-0.8491841125,-0.003473382909,0.006495646667,0.00238743471,5
11.8252495,0.8936416626,9.729916534,-0.8795709229,-0.0001651584171,0.004002006724,-0.0002690411638,5
11.8452925,0.8705895996,9.733359375,-0.8885522461,0.0004799549934,0.00420361897,0.004134457093,5
11.8653345,0.8373587036,9.728868713,-0.8991801453,0.002896411577,0.0002184538171,0.003293735674,5
11.8853775,0.8370593262,9.747280426,-0.8981323242,0.00122205331,-0.008423604071,0.008237311617,5
11.9054195,0.8406518555,9.766290894,-0.8686436462,-0.004704624414,-0.006932466291,0.00612730626,5
11.9254625,0.8107141113,9.778265991,-0.8643026733,-0.01343514398,-0.01681613736,0.006944996305,5
11.9455055,0.7824229431,9.732311554,-0.8961863708,-0.01357931364,-0.02561710402,0.005315090995,5
11.9655475,0.8243357849,9.755962372,-0.8949888611,-0.01213952992,-0.03159806505,0.007052521221,5
11.9855905,0.8592132568,9.746681671,-0.8958869934,-0.01534424815,-0.02901629917,0.01093186252,5
12.0056325,0.8722361755,9.718989258,-0.8922944641,-0.007191579789,-0.02182966843,0.01027868036,5
12.02567575,0.8876541138,9.694739685,-0.9012757874,-0.004756697454,-0.02184232883,0.005814129487,5
12.04571875,0.8846603394,9.713301086,-0.8765771484,-0.0006937959697,-0.01636504941,-0.0005366888363,5
12.06576075,0.8840615845,9.743238831,-0.8479866028,0.001436579274,-0.01448080875,-0.0007825600915,5
12.08580375,0.9048683167,9.730066223,-0.8605604553,-0.001797080738,-0.01564474218,0.003043404082,5
12.10584575,0.9189390564,9.735305328,-0.8699908447,-0.000130986562,-0.01063424256,0.004248896148,5
12.12588875,0.9601034546,9.760453033,-0.8699908447,-0.005950688384,-0.002056917874,0.004862885922,5
12.14593175,0.9551637268,9.711504822,-0.8937913513,-0.005289629567,-0.006455206312,0.009853655472,5
12.16597375,0.9038204956,9.719588013,-0.8976832581,0.001589835854,-0.007946898229,0.008189640939,5
12.18601675,0.9000782776,9.740095367,-0.8484356689,0.003246521577,0.001376650529,0.002825588919,5
12.20605875,0.9621990967,9.7502742,-0.8663983154,-0.009134384803,-0.001637147972,0.003133635502,5
12.22610175,0.8994795227,9.800419922,-0.9220825195,-0.01330840774,-0.008800918236,0.01052130945,5
12.24614475,0.869841156,9.773176575,-0.8753796387,-0.01485144347,-0.001380552771,0.01111679338,5
12.26618675,0.8707392883,9.708511047,-0.832868042,-0.02256807685,-0.01405278314,0.009191051126,5
12.28622975,0.9331594849,9.714199219,-0.8767268372,-0.02429140918,-0.00843537692,0.008528456092,5
12.30627275,0.9148974609,9.729766846,-0.8640032959,-0.01246092282,-0.0002935400698,0.009761953726,5
12.32631475,0.9042695618,9.748178558,-0.8562194824,-0.007891458459,0.001568066189,0.01483987644,5
12.34635775,0.8689430237,9.724078674,-0.8815168762,-0.006757576019,-0.003369190963,0.01521639153,5
12.36639975,0.8699908447,9.717941437,-0.9024732971,-0.008808352053,-0.007082858123,0.0127335377,5
12.38644275,0.8428971863,9.7502742,-0.8732839966,-0.007154483348,-0.002543887356,0.00158291019,5
12.40648475,0.8167016602,9.761800232,-0.8415499878,-0.007677278481,-0.006202848628,-0.004407050088,5
12.42652775,0.8316705322,9.749974823,-0.844094696,-0.004273646045,-0.01621201821,-0.003098433604,5
12.44657075,0.8503816223,9.742939453,-0.8348139954,-0.005272115581,-0.01925188303,0.004459417425,5
12.46661275,0.8472381592,9.738448792,-0.8382568359,-0.003431100864,-0.03336540237,0.008437864482,5
12.48665575,0.8472381592,9.786947937,-0.8150550842,-0.01243933942,-0.03080638684,0.008281309158,5
12.50669875,0.8599617004,9.730215912,-0.8286767578,-0.02111464553,-0.01639382727,-0.0001860475168,5
12.52674075,0.904119873,9.713301086,-0.8108638,-0.00855829753,-0.01659012027,-0.002374552656,5
12.54678375,0.9129515076,9.715546417,-0.8247848511,-0.003726087511,-0.02586379088,-0.0008344086818,5
12.56682575,0.8831634521,9.706565094,-0.8481362915,0.005608229898,-0.02923900262,0.002440474927,5
12.58686875,0.9119036865,9.755213928,-0.812510376,0.008167610504,-0.01738319173,-0.002786091762,5
12.60691175,0.9810598755,9.739945679,-0.7866142273,-0.002550867852,-0.01867228188,0.001330249244,5
12.62695375,0.9737251282,9.728569336,-0.7978408813,-0.004156075884,-0.01543719415,0.002947752364,5
12.64699675,0.9330097961,9.752070465,-0.7713459778,-0.001943554496,-0.01108727511,-0.0005260307807,5
12.66703875,0.9723779297,9.773475952,-0.785716095,-0.00921520777,-0.01176152099,0.001132617472,5
12.68708175,0.9789642334,9.741592255,-0.8147557068,-0.01160818338,-0.006608416326,0.005415769294,5
12.70712475,0.9270222473,9.723629608,-0.8099656677,-0.006044743583,-0.003109276528,0.008077028207,5
12.72716675,0.9479786682,9.710906067,-0.7939489746,-0.009615776129,0.005304448307,0.009278380312,5
12.74720975,0.9728269958,9.699679413,-0.8295748901,-0.008975881152,0.006548488513,0.004409850575,5
12.76725175,0.9479786682,9.72572525,-0.8167016602,-0.005819851998,0.01808720455,-0.0007382037584,5
12.78729475,0.9469308472,9.765243073,-0.7815248108,-0.003622378223,0.01862969622,0.001618835027,5
12.80733775,0.9392967224,9.707163849,-0.8560697937,0.002266624011,0.005029586144,0.001466473565,5
12.82737975,0.8972341919,9.714199219,-0.8934919739,0.01198015455,0.006293566432,-0.001883140998,5
12.84742275,0.8452922058,9.74802887,-0.8379574585,0.008856819943,0.01011363789,-0.005344833247,5
12.86746575,0.8631051636,9.761650543,-0.767454071,-0.003706721356,0.008467305452,-0.004357848316,5
12.88750775,0.9153465271,9.751322021,-0.8122109985,-0.008534956723,0.004241380375,0.004994984716,5
12.90755075,0.933608551,9.753267975,-0.8379574585,-0.01229075156,0.01078335755,0.006744686514,5
12.92759275,0.918639679,9.727371826,-0.8496331787,-0.01250772364,0.00623970991,0.003936985042,5
12.94763575,0.9150471497,9.762997742,-0.8294252014,-0.009770322591,0.009586582892,0.001273819245,5
12.96767875,0.9431886292,9.706415405,-0.8351133728,-0.004064009525,0.002164736856,0.004965912551,5
12.98772075,0.9119036865,9.732610931,-0.8030799866,-0.0001486630645,0.009264368564,0.001044983976,5
13.00776375,0.9196875,9.725126495,-0.8153544617,0.001524084713,0.0019604275,-0.004407061264,5
13.02780592,0.9310638428,9.727222137,-0.8381071472,0.001532057882,-0.0002899884712,-0.003184381872,5
13.04784892,0.910556488,9.728269958,-0.8295748901,0.001941855764,0.01223466918,-0.005639555864,5
13.06789192,0.8951385498,9.744136963,-0.7936495972,0.0004147076979,0.008791446686,-0.007685717195,5
13.08793392,0.892893219,9.741592255,-0.8128097534,0.0006399902049,-0.01404466294,-0.009371387772,5
13.10797692,0.9401948547,9.755662994,-0.7851173401,0.003982136957,-0.005631057546,-0.01032250188,5
13.12801892,0.9837542725,9.724677429,-0.75353302,0.00212541013,0.005052312743,-0.01189265214,5
13.14806192,1.02147583,9.750124512,-0.7685018921,-0.0001587667502,0.008774391375,-0.008060917258,5
13.16810492,0.9424401855,9.757159882,-0.8041278076,-0.004001990892,0.001925761811,6.617512554e-06,5
13.18814692,0.8632548523,9.728269958,-0.8265811157,0.004177200608,-0.004253285937,-0.001208798727,5
13.20818992,0.8707392883,9.789792023,-0.7797285461,-0.004563102499,-0.006893783808,-0.00938078016,5
13.22823192,0.9189390564,9.735455017,-0.7515870667,-0.01596030965,-0.005941243842,-0.01077192463,5
13.24827492,0.9554631042,9.673034821,-0.8102650452,-0.005040465854,-0.009786353447,-0.01175633073,5
13.26831792,0.9451345825,9.712552643,-0.789458313,0.005667613819,-0.002497933572,-0.007164929993,5
13.28835992,0.9231303406,9.732461243,-0.8210426331,0.003842491191,-0.008936317638,-0.002150820103,5
13.30840292,0.8732839966,9.793534241,-0.8701405334,-0.001096548745,-0.003467590315,0.005556457676,5
13.32844592,0.7991880798,9.732910309,-0.882714386,-0.004306219518,-0.0004926680122,0.00186021335,5
13.34848792,0.8017327881,9.729617157,-0.8348139954,-0.007439853158,-0.008922840469,-0.00162104168,5
13.36853092,0.8411009216,9.741592255,-0.8232879639,-0.006205336656,-0.01758008823,-0.005032027606,5
13.38857292,0.8566685486,9.741292877,-0.7976911926,0.003860176308,-0.01776596345,-0.01277067699,5
13.40861592,0.8922944641,9.733059998,-0.756227417,0.01106966194,-0.01608217135,-0.01789129898,5
13.42865892,0.909508667,9.72692276,-0.7611671448,0.0167205818,-0.01379092876,-0.01928743161,5
13.44870092,0.9455836487,9.71988739,-0.7417076111,0.01966865547,-0.01070207171,-0.01489137672,5
13.46874392,0.9268725586,9.755513306,-0.7533833313,0.008476433344,-0.00603332743,-0.007624307182,5
13.48878592,0.9361532593,9.751621399,-0.7538323975,0.0005216212012,0.002116086427,-0.001704156399,5
13.50882892,0.9071136475,9.76314743,-0.7740403748,-0.005659089424,0.008620182052,-0.0004120159429,5
13.52887192,0.8991801453,9.757159882,-0.8050259399,-0.009733192623,0.01121569891,-0.003567329142,5
13.54891392,0.8487350464,9.704619141,-0.843046875,-0.003292853711,-0.002317907522,-0.004649125971,5
13.56895692,0.8216413879,9.686057739,-0.8424481201,0.01565702632,-0.003566730069,-0.01134034991,5
13.58899892,0.8571176147,9.742490387,-0.7821235657,0.01808125712,0.0004811300896,-0.01062798314,5
13.60904192,0.904119873,9.755363617,-0.7954458618,0.0127938455,0.001839442411,-0.003467758419,5
13.62908492,0.8550219727,9.746531982,-0.8334667969,0.01210261416,-0.007021316327,-0.002066392452,5
13.64912692,0.8187973022,9.743538208,-0.8375083923,0.01104817353,-0.004898257554,-0.006834746338,5
13.66916992,0.8313711548,9.721234589,-0.8045768738,0.00580970617,0.002417881042,-0.01284980867,5
13.68921292,0.8583151245,9.743538208,-0.7789801025,0.004219798837,0.01315760985,-0.01703230292,5
13.70925492,0.8919950867,9.75970459,-0.8174501038,0.007309610955,0.009357331321,-0.01050775871,5
13.72929792,0.8746311951,9.775571594,-0.8571176147,0.008718319237,0.0001600303221,-0.004130408168,5
13.74933992,0.8777746582,9.727970581,-0.8292755127,0.009913777933,-0.0006046511699,-0.004979912192,5
13.76938292,0.8707392883,9.757908325,-0.8303233337,0.007604913786,0.002124300692,-0.006292357109,5
13.78942592,0.8415499878,9.725126495,-0.8316705322,0.006828045473,0.003441728186,-0.009895424359,5
13.80946792,0.750838623,9.749675446,-0.846789093,0.006392921321,-0.007819888182,-0.0152940359,5
13.82951092,0.8207432556,9.724378052,-0.8589138794,0.008398299105,-0.01484392956,-0.01383304689,5
13.84955292,0.8834628296,9.735754395,-0.8629554749,0.00786582008,-0.02341510542,-0.0095245298,5
13.86959592,0.9228309631,9.752968597,-0.8156538391,0.007219063584,-0.01142890658,-0.01132561546,5
13.88963892,0.9044192505,9.744735718,-0.8063731384,0.008932195604,-0.003863367485,-0.00807654392,5
13.90968092,0.8619076538,9.71165451,-0.8613088989,0.01121112891,-0.003437078791,-0.00449946709,5
13.92972392,0.8336164856,9.762848053,-0.866098938,0.01219065301,-0.002923037158,-0.006206487305,5
13.94976692,0.8042774963,9.750723267,-0.8273295593,0.007946010679,-0.006178234704,-0.001668693265,5
13.96980892,0.8008346558,9.726174316,-0.8397537231,0.002149911365,-0.008577212691,-0.002077306155,5
13.98985192,0.8089178467,9.752369843,-0.8568182373,0.001021825243,-0.005352027714,-0.004454398528,5
14.00989392,0.7855664063,9.775571594,-0.8975335693,0.0001914808527,-0.006167394109,-0.008792910725,5
14.02993654,0.7277865601,9.715097351,-0.8759783936,0.01033823285,-0.01801520213,-0.01041821111,5
14.04997954,0.7613168335,9.73156311,-0.8324189758,0.0185142532,-0.02109082974,-0.006848646328,5
14.07002154,0.8460406494,9.757758636,-0.8349636841,0.0140005704,-0.02204737067,-0.00382859027,5
14.09006454,0.8388555908,9.752818909,-0.8445437622,0.01096674241,-0.01116368826,-0.007375629619,5
14.11010654,0.8418493652,9.73276062,-0.8451425171,0.01077830326,-0.003068952123,-0.01252837013,5
14.13014954,0.8898994446,9.737700348,-0.8247848511,0.009114181623,0.007924330421,-0.01285554003,5
14.15019254,0.9521699524,9.716893616,-0.8175997925,0.009198324755,0.01774255931,-0.007815835066,5
14.17023454,0.9687854004,9.724228363,-0.8470884705,0.01203059591,0.02822822519,-0.003960376605,5
14.19027754,0.8952882385,9.748477936,-0.8890013123,0.01207693946,0.03632156551,-0.001384921838,5
14.21032054,0.8881031799,9.718091125,-0.8777746582,0.01623117551,0.04951609299,-0.006966958288,5
14.23036254,0.9253756714,9.728419647,-0.8652008057,0.01490725204,0.05165044218,-0.006896295585,5
14.25040554,0.9017248535,9.725425873,-0.8852590942,0.0137446411,0.06044058129,-0.007571930066,5
14.27044754,0.8102650452,9.680219879,-0.9380992126,0.02362095565,0.06180673465,-0.01546445396,5
14.29049054,0.7860154724,9.699380035,-0.9403445435,0.0380714871,0.06320768595,-0.02327118628,5
14.31053354,0.7722441101,9.721234589,-0.9044192505,0.03955259547,0.05339111388,-0.02113939822,5
14.33057554,0.7441026306,9.806407471,-0.8705895996,0.02767253108,0.04120804742,-0.01483405381,5
14.35061854,0.6905140686,9.815987549,-0.8798703003,0.008145323955,0.01649518125,-0.001768801128,5
14.37066054,0.6697073364,9.761949921,-0.9554631042,0.005820666905,0.0004872346763,8.28767661e-05,5
14.39070354,0.6569837952,9.742789764,-0.9568103027,0.003590506501,-0.005072208121,-7.446622476e-06,5
14.41074654,0.6852749634,9.763746185,-0.8836125183,0.003598466748,-0.007863297127,-0.001833887771,5
14.43078854,0.7333250427,9.761351166,-0.8066725159,0.006819963455,-0.0004169393796,-0.008957503363,5
14.45083154,0.8312214661,9.720785522,-0.8045768738,0.006868574768,0.01428493205,-0.01363642048,5
14.47087454,0.9024732971,9.735604706,-0.8539741516,0.01112051494,0.02692437172,-0.009068837389,5
14.49091654,0.8954379272,9.703721008,-0.8620573425,0.01695601642,0.03528797999,-0.003386964789,5
14.51095954,0.8137078857,9.731263733,-0.8755293274,0.02099152654,0.03525713086,-0.0009510766249,5
14.53100154,0.8018824768,9.779014435,-0.9300160217,0.008827991784,0.04693832248,-0.0005230908282,5
14.55104454,0.7990383911,9.757010193,-0.942739563,0.0002825481351,0.03875901923,0.005573448725,5
14.57108754,0.7171586609,9.752369843,-1.008303223,-0.004019210115,0.0182115417,0.007912261412,5
14.59112954,0.6411167908,9.76673996,-1.066382446,0.00184854574,0.008366681635,-0.0009746465366,5
14.61117254,0.6944059753,9.724827118,-1.032552795,0.003461859189,0.002332131844,-0.01061160211,5
14.63121554,0.8102650452,9.746531982,-0.9897418213,0.001656706096,-0.008642942645,-0.004860776477,5
14.65125754,0.8280780029,9.73515564,-1.032403107,0.004858845379,-0.01023352426,0.003400590504,5
14.67130054,0.7638615417,9.687404938,-1.028211823,0.01993536204,-0.01218108088,0.002531299368,5
14.69134254,0.7809260559,9.708810425,-1.021026764,0.01947682723,-0.02985815704,0.0002324639354,5
14.71138554,0.7997868347,9.762848053,-0.9379495239,0.005027015693,-0.01939681917,-0.0002809532452,5
14.73142854,0.8117619324,9.775122528,-0.8577163696,-0.01006477326,-0.004219495691,0.001475652796,5
14.75147054,0.8213420105,9.746681671,-0.8990304565,-0.01051560044,-0.01149191428,0.002673567273,5
14.77151354,0.818946991,9.712702332,-0.9455836487,-0.00312498305,-0.01282512397,0.00306583615,5
14.79155554,0.8358618164,9.735455017,-0.9256750488,0.003884115722,0.0003311834298,0.001322192373,5
14.81159854,0.8424481201,9.704768829,-0.8690927124,0.002946004737,0.01398399472,0.003107405733,5
14.83164154,0.8652008057,9.721234589,-0.9237290955,0.00477954559,0.01876902021,0.001091102138,5
14.85168354,0.8207432556,9.783205719,-0.9406439209,0.001042393968,0.010405818,0.001538518351,5
14.87172654,0.773890686,9.771679688,-0.9909393311,-0.009157950059,0.013107609,0.001149395248,5
14.89176954,0.7818241882,9.708810425,-0.9024732971,-0.007687056903,0.002759459428,0.0005382446107,5
14.91181154,0.7791297913,9.733209686,-0.8870553589,-0.01291551627,-0.002745450707,0.005889077671,5
14.93185454,0.7575746155,9.800569611,-0.9708810425,-0.01291612349,0.002643483691,0.009435007349,5
14.95189654,0.6641688538,9.75266922,-1.031954041,-0.005840907805,-0.02606165968,0.01142633613,5
14.97193954,0.6224057007,9.693542175,-1.010698242,0.007238804363,-0.03397513554,0.006754012778,5
14.99198254,0.7213499451,9.749525757,-0.9196875,-0.004258536734,-0.02308874391,-0.001467877533,5
15.01202454,0.8113128662,9.758656769,-0.8967851257,-0.009693607688,0.005130894482,-0.005385966972,5
15.03207129,0.8327183533,9.744885406,-0.929866333,-0.004337282851,0.01288626809,-0.006983648054,5
15.05211429,0.7987390137,9.710157623,-0.9503736877,0.0005674441345,0.01283695363,-5.967449397e-05,5
15.07215629,0.8228388977,9.715396729,-0.9247769165,0.001566865947,0.007785014808,0.004064757843,5
15.09219929,0.8840615845,9.727671204,-0.8746311951,-0.005119532347,0.01368977595,0.009098931216,5
15.11224129,0.8845106506,9.750872955,-0.8777746582,-0.01107053645,0.006121350452,0.01425317675,5
15.13228429,0.790506134,9.763446808,-0.9403445435,-0.0126906205,0.004186600912,0.0132074533,5
15.15232729,0.7183561707,9.722581787,-0.9443861389,-0.01110425778,0.001114934916,0.003177808132,5
15.17236929,0.7789801025,9.748627625,-0.9472302246,-0.009492446668,-0.00284712133,0.002200627001,5
15.19241229,0.7644602966,9.731413422,-0.9723779297,-0.008440294303,-0.0008408839349,0.0007867503446,5
15.21245429,0.7696994019,9.735455017,-0.9819580078,-0.001995003782,0.002830001526,0.001766746165,5
15.23249729,0.7643106079,9.709259491,-0.9626481628,0.003025774844,-0.01531141996,0.008567675017,5
15.25254029,0.7822732544,9.784403229,-0.9410929871,-0.01040299796,-0.02595568262,0.009998113848,5
15.27258229,0.7800279236,9.762249298,-0.9192384338,-0.01781797595,-0.0270926673,0.003228895599,5
15.29262529,0.7629634094,9.741143188,-0.9018745422,-0.02030965872,-0.02800142951,0.004137525801,5
15.31266829,0.7917036438,9.752968597,-0.8768765259,-0.02033091336,-0.02834883332,0.009605470113,5
15.33271029,0.8433462524,9.707762604,-0.8812174988,-0.01971005648,-0.02649610117,0.01220265217,5
15.35275329,0.8382568359,9.748477936,-0.9310638428,-0.01724616066,-0.0261889603,0.0116098281,5
15.37279529,0.7858657837,9.797426147,-0.8798703003,-0.02035088837,-0.02378923446,0.01502180658,5
15.39283829,0.7848179626,9.793683929,-0.8696914673,-0.03601994738,-0.02405392006,0.01684536785,5
15.41288129,0.795894928,9.810598755,-0.8885522461,-0.05918968096,-0.01966440305,0.02430724166,5
15.43292329,0.7800279236,9.773475952,-1.013991394,-0.0691260621,-0.03085830994,0.03151108325,5
15.45296629,0.7625143433,9.825118561,-1.027762756,-0.07780373096,-0.03953259066,0.03376274183,5
15.47300929,0.742306366,9.822573853,-1.018931122,-0.09367578477,-0.04146939516,0.04299068451,5
15.49305129,0.7798782349,9.741592255,-1.040785675,-0.09229355305,-0.05751373619,0.05064562336,5
15.51309429,0.7345225525,9.689201202,-1.039588165,-0.08422194421,-0.04757849127,0.05627964064,5
15.53313629,0.7593708801,9.671537933,-1.0086026,-0.09403067082,-0.03485057876,0.03988805413,5
15.55317929,0.8776249695,9.760003967,-0.9683363342,-0.09829757363,0.006425268948,0.01814465411,5
15.57322229,0.9273216248,9.761051788,-0.9235794067,-0.08790920675,0.0262215957,0.02720289677,5
15.59326429,0.8867559814,9.717492371,-0.9527687073,-0.06955630332,0.01135263499,0.03758762777,5
15.61330729,0.8171507263,9.704768829,-0.9475296021,-0.0493427068,0.02852584049,0.03925289586,5
15.63335029,0.7999365234,9.711205444,-0.9488768005,-0.0390054509,0.03694358841,0.03637688234,5
15.65339229,0.8063731384,9.743538208,-0.8976832581,-0.04593583196,0.05420477688,0.0313604027,5
15.67343529,0.7668553162,9.820627899,-0.8267308044,-0.0613912344,0.0439052172,0.02402892895,5
15.69347729,0.6718029785,9.905651093,-0.8300239563,-0.08626206964,0.0300300885,0.03334623575,5
15.71352029,0.6783892822,9.768536224,-0.9181906128,-0.1070901901,0.02584500797,0.04241189733,5
15.73356329,0.7041357422,9.801916809,-0.9219328308,-0.1387073547,0.05350795016,0.05341401696,5
15.75360529,0.7855664063,9.872120819,-1.024768982,-0.1992909014,0.1046982035,0.0782039836,5
15.77364829,0.6801855469,9.878258057,-1.130000153,-0.2600254118,0.10190963,0.117915459,5
15.79369129,0.5224136353,9.875863037,-1.105600891,-0.3212713301,0.05852636695,0.1542825997,5
15.81373329,0.445922699,9.831255798,-1.021326141,-0.39863047,0.017114494,0.1887944788,5
15.83377629,0.4537065125,9.740245056,-1.09871521,-0.4820309877,-0.019150557,0.2081820667,5
15.85381829,0.3924838257,9.659712524,-1.162183228,-0.5595597625,0.004240144044,0.2369306087,5
15.87386129,0.2239343262,9.798473969,-0.9231303406,-0.5462909341,0.04094664752,0.2660452724,5
15.89390429,0.2076182556,9.914033661,-0.6764433289,-0.6158613563,0.1352448016,0.2587663531,5
15.91394629,0.4722679138,9.749525757,-0.9535171509,-0.7033288479,0.1369467676,0.2780358791,5
15.93398929,0.5023553467,9.238937531,-1.535357208,-0.7682273388,0.03875428438,0.2880037725,5
15.95403229,0.3999682617,9.075028381,-2.097887421,-0.7781408429,-0.03155310079,0.2431429178,5
15.97407429,0.1287322998,9.073830872,-1.696122894,-0.8058922291,0.0416601412,0.1661640257,5
15.99411729,0.1538800049,9.30105835,-1.160985718,-0.9523519278,0.2201846987,0.0450210534,5
16.01415929,0.2902464294,9.498048706,-1.165326691,-1.254062176,0.3693272471,-0.04463611916,5
16.03420225,0.2883004761,9.263037415,-1.243164825,-1.371989846,0.3180488348,-0.1156309545,4
16.05424525,0.02230361938,8.500223694,-1.829345856,-1.302350879,-0.04938476533,-0.3594066501,4
16.07428725,0.4186793518,7.993078308,-2.67598526,-1.500766277,-0.4038897753,-0.7233387828,4
16.09433025,-0.213306427,7.788753204,-1.278641052,-1.84530139,0.4525306821,-0.8406274915,4
16.11437325,-1.417701874,8.437953186,4.247866516,-1.663661957,1.16580689,-0.6278204322,4
16.13441525,0.222437439,8.957223358,2.538720703,-1.639256835,-0.1861577183,-0.3199023008,4
16.15445825,1.670226746,9.683363342,1.329684906,-1.787955761,-0.8023530245,0.1078203246,4
16.17450025,1.246907043,10.24469604,3.202739868,-1.83111608,0.2436063439,0.4942158759,4
16.19454325,0.9717791748,11.28533203,3.221750336,-2.13568449,0.465693295,0.4159808159,4
16.21458625,0.5227130127,9.08221344,2.444566498,-2.290762663,0.1648599356,0.2422449142,4
16.23462825,-0.5210664368,5.34149231,4.130510559,-2.361143827,0.1412767768,0.3280735016,4
16.25467125,0.4701722717,4.382736053,5.633684692,-2.384711742,0.0009406127501,0.3151520789,4
16.27471425,2.446512451,4.899311829,6.051765289,-2.173926115,-0.1462400109,0.3140466809,4
16.29475625,4.012406158,6.030210114,4.703518982,-2.089984894,-0.02807158045,0.4320534468,4
16.31479925,3.876039734,6.749165039,4.636608124,-2.20375371,0.4627639949,0.6396492124,4
16.33484125,2.366428986,6.288273468,6.058950348,-2.300955534,0.4859732687,0.7439097762,4
16.35488425,2.067949677,5.963598633,6.864575043,-2.134272814,0.6175198555,0.6467089653,4
16.37492725,1.344803467,4.818928986,5.979615326,-1.912356138,0.5121541619,0.5314263701,4
16.39496925,0.2850073242,4.499642944,6.355184326,-1.835999966,0.1178343147,0.5919462442,4
16.41501225,0.7682025146,5.603297882,6.983727264,-1.78511405,0.006359175779,0.7965512276,4
16.43505525,1.488953705,5.934109955,6.922654266,-1.770906329,0.1625557393,0.8536811471,4
16.45509725,2.268981628,5.290897522,7.143445129,-1.889641047,0.1136797965,0.7259768844,4
16.47514025,1.200353851,4.89332428,7.26394455,-1.994727492,0.2739264071,0.5415989161,4
16.49518225,0.4767585754,4.991669769,7.705825653,-2.071691275,0.2394314259,0.4265253246,4
16.51522525,0.9343569946,5.028493195,7.638615417,-2.206100225,0.3560647368,0.3862750828,4
16.53526825,1.79491745,4.02273468,7.271428986,-2.168725967,0.2783440351,0.3967623115,4
16.55531025,1.592837677,3.031046906,8.133935394,-2.19263339,0.1281345785,0.2708824575,4
16.57535325,1.328936462,3.916755066,8.550818481,-2.17554307,0.2535821497,0.1199249253,4
16.59539625,0.9177415466,4.105063477,9.209299164,-2.171476603,0.1322263181,0.1703235656,4
16.61543825,0.8550219727,4.371958466,9.156758423,-2.054374218,0.1690999418,0.3010659516,4
16.63548125,0.6950047302,2.827170868,8.127349091,-2.131751299,-0.0492657572,0.1511680782,4
16.65552325,1.598076782,1.647623749,7.25571167,-2.172358751,-0.419649303,0.02395737357,4
16.67556625,2.253713379,1.551822968,7.703131256,-2.273043394,-0.5609746575,0.09888463467,4
16.69560925,1.662442932,1.687440948,8.449329529,-2.219148159,-0.7218539715,0.2070219368,4
16.71565125,1.250200195,1.489402771,8.502469025,-2.255473375,-0.8170475364,0.2813332379,4
16.73569425,1.803300018,0.559536438,8.112679596,-2.3233459,-0.8416306376,0.2738353312,4
16.75573725,2.464325409,-0.9232800293,7.832162933,-2.447254419,-0.4539221525,0.4656108916,4
16.77577925,3.246598663,-1.882934418,9.004674683,-2.245337486,-0.4540320933,0.5331124663,4
16.79582225,2.442321167,-2.92057663,10.14590149,-1.974467516,-0.2256919295,0.5133908987,4
16.81586425,3.493435364,-3.499422913,13.45282471,-1.718173146,0.06917671859,0.5589296818,4
16.83590725,3.934118958,-3.814667358,14.38613388,-0.9815685749,-0.1050518602,0.3483878672,4
16.85595025,4.147874451,-4.57269104,14.40619217,-0.5423923731,-0.8023660779,0.1255090535,4
16.87599225,3.992647247,-4.69558548,13.75429779,-0.367773056,-1.134676337,0.07645519078,4
16.89603525,3.830983429,-5.822142792,13.40402618,0.008989749476,-1.509408712,0.1891558766,4
16.91607825,4.362677765,-5.650449829,13.29999252,0.4483213723,-1.909624338,0.2680813968,4
16.93612025,4.786296844,-5.949228516,13.29056213,0.5563347936,-2.104538679,0.2911557853,4
16.95616325,5.384902039,-6.054908752,11.72736282,0.4738712609,-1.97347641,0.2799111009,4
16.97620625,5.509592743,-5.517825623,10.3262764,0.5265802741,-1.930665374,0.1171828732,4
16.99624825,5.438041534,-5.355712738,9.001830597,0.5036181808,-1.588391662,-0.05992107466,4
17.01629125,4.688849487,-4.844675446,7.664212189,0.1668268293,-0.991912365,0.04942196608,4
17.03632937,3.808530121,-4.143084412,6.386169891,-0.3858830631,-0.2313533574,0.3891462982,4
17.05637237,4.104764099,-2.462379456,7.465425568,-0.42453444,0.1663347483,0.3958716989,4
17.07641537,5.336702271,-1.197809143,9.139993286,-0.1901091933,0.1187924743,0.261862576,4
17.09645737,5.116210785,-1.2063414,7.996970215,0.009937068447,-0.2134297192,0.2319925129,4
17.11650037,4.929998016,-1.489253082,7.380252686,0.06737107784,-0.4343551099,0.2299797535,4
17.13654337,4.352199554,-1.97394516,5.827232208,-0.138248086,-0.3055488169,0.1822122633,4
17.15658537,4.037404175,-2.925666046,6.057154083,-0.2871427536,-0.1581455618,-0.01419086754,4
17.17662837,4.169878693,-4.057312775,7.187603302,-0.2766717672,-0.1159177199,-0.1700683385,4
17.19667038,4.675227814,-4.875960388,8.926237793,-0.08982232958,-0.1006311402,-0.2267667502,4
17.21671337,5.143304443,-5.180726624,9.827064514,0.08677886426,-0.06602983922,-0.1747980863,4
17.23675637,5.336253204,-4.564308472,9.628577271,0.051757548,0.194112137,-0.09199034423,4
17.25679837,5.448370056,-2.887345734,9.555529175,-0.001578693045,0.4302715361,-0.1258108467,4
17.27684137,5.529201965,-1.980232086,10.21460861,0.1559474915,0.3470901549,-0.1763568372,4
17.29688437,4.968318329,-2.205812988,9.892927551,0.3747214079,0.03046438843,-0.2083126754,4
17.31692637,4.460574188,-1.472188568,8.785979462,0.4039814174,-0.09987646341,-0.1750842184,4
17.33696937,4.192481689,-0.5953120422,7.890541534,0.321557045,-0.1651550084,-0.102784045,4
17.35701137,4.451443176,-0.05807922363,7.619904327,0.2118365616,-0.1210512444,-0.05166183785,4
17.37705437,4.85006424,-0.03353027344,7.381001129,0.1062802747,-0.02649212442,-0.03848233074,4
17.39709737,4.951253815,-0.4629872131,7.114255829,-0.003084144555,0.001038508955,-0.01597039215,4
17.41713938,5.013374634,-0.8705895996,7.161108398,-0.09141264111,0.01088377461,-0.02623311058,4
17.43718237,5.165757751,-1.170715485,7.646848297,-0.1574575007,0.05561031029,-0.02911278978,4
17.45722537,5.253475342,-1.727707214,8.080496521,-0.1809741855,0.0807992965,-0.02892899141,4
17.47726737,5.21276001,-2.304457855,8.397237854,-0.1749819517,0.05819157511,-0.01732805744,4
17.49731037,5.18701355,-2.910098419,8.474477234,-0.0966687575,0.00474543497,-0.0136600323,4
17.51735337,5.240751801,-3.14406189,8.721912689,-0.03817370534,0.07511667907,-0.02605496719,4
17.53739537,5.523364105,-3.41544754,8.704399109,0.002614658093,0.1245873272,-0.06872225553,4
17.55743837,5.629044342,-2.882705383,8.590336304,0.0361443907,0.09918743372,-0.07523661107,4
17.57748037,5.37068161,-2.470911713,8.658294983,0.0665076375,0.09437140822,-0.05870365724,4
17.59752337,4.991969147,-1.980830841,8.572373657,0.07654126734,0.06975074112,-0.03328595683,4
17.61756637,4.633614349,-1.636846161,8.178692322,0.04181347787,0.06525880098,-0.0148356054,4
17.63760838,4.461172943,-1.501976624,8.000413055,0.01570275798,0.08511794358,-0.00957844127,4
17.65765137,4.358935547,-1.468296661,8.066126404,-0.005037768278,0.09143493325,-0.002034745878,4
17.67769437,4.382137299,-1.50826355,8.169411621,-0.02648191154,0.08135082573,0.024146704,4
17.69773637,4.462220764,-1.642234955,8.307274933,-0.03656139597,0.06068430841,0.03647442162,4
17.71777937,4.568200378,-1.925595703,8.471782837,-0.02862025797,0.03249591962,0.02610814944,4
17.73782237,4.638703766,-2.164049835,8.552614746,-0.01506924722,0.001622038195,0.004126367625,4
17.75786437,4.69678299,-2.317031708,8.509803772,-0.005224169232,-0.01320086699,-0.01987241209,4
17.77790737,4.759652252,-2.391876068,8.432414703,-0.009955649264,-0.008261031471,-0.03697259724,4
17.79794937,4.803810425,-2.342927856,8.398285675,-0.01244415715,-0.005892296322,-0.05130727589,4
17.81799237,4.809797974,-2.230361938,8.327632599,-0.01257064007,-0.009201223031,-0.05889224261,4
17.83803537,4.787045288,-2.118245087,8.312963104,-0.008514225483,-0.001518340549,-0.05832467601,4
17.85807737,4.750670929,-2.017055511,8.387657776,-0.009817669168,0.01079743914,-0.05309427157,4
17.87812037,4.755161591,-1.917662201,8.433462524,-0.01156416908,0.006348628551,-0.04851842672,4
17.89816337,4.780758362,-1.903591461,8.409212952,-0.01054137386,-0.003598919837,-0.03771931678,4
17.91820537,4.746329956,-1.92005722,8.35203186,-0.006650466472,-0.00718770735,-0.02148091979,4
17.93824837,4.757107544,-1.967209167,8.318800964,-0.003499539569,-0.004699623212,-0.009544907138,4
17.95829137,4.778363342,-2.043999481,8.319100342,-0.0023078206,-0.002569232835,3.180000931e-05,4
17.97833337,4.785847778,-2.062411194,8.345445557,0.001612760359,-0.002754964167,0.002698148834,4
17.99837637,4.823569336,-2.088756409,8.350834351,0.003040339565,0.0007410764229,0.001519175479,4
18.01841837,4.859494629,-2.112856293,8.350085907,0.0005029584281,0.001098709181,-0.002520852257,4
18.0384615,4.831353149,-2.11899353,8.347241821,-0.0003506965004,0.007070778403,-0.005748826079,4
18.0585045,4.863236847,-2.079775085,8.375832367,0.004597473424,0.01875038818,-0.01464885939,4
18.0785465,4.840484161,-2.043700104,8.423134003,0.004070183728,0.0207299646,-0.01101232879,4
18.0985895,4.753515015,-2.033670959,8.38481369,0.001088587684,0.02124392428,-0.005699335132,4
18.1186325,4.71309906,-2.051034851,8.318351898,0.0008288800018,0.0155627206,-0.002926937072,4
18.1386745,4.689298553,-2.032024384,8.355774078,0.003432856407,0.01268498786,-0.001447820803,4
18.1587175,4.682412872,-2.019450531,8.377478943,0.0009384807199,0.00611878559,0.001946570235,4
18.1787605,4.661157074,-2.007625122,8.370593262,-0.0001500025392,0.003057602793,0.003781805048,4
18.1988025,4.671934662,-2.011067963,8.339757385,0.001144593116,-0.001800438156,0.004988982808,4
18.2188455,4.698429565,-2.024090881,8.34275116,0.001519907848,-0.00396749191,0.004555743188,4
18.2388875,4.736600189,-2.042203217,8.338709564,-0.002699962817,-0.002589049051,0.002185756573,4
18.2589305,4.774920502,-2.069745941,8.369246063,-0.002599203493,-0.003037249437,-0.003580214223,4
18.2789735,4.811743927,-2.04998703,8.392896881,-0.0026097605,-0.00190059212,-0.009542793036,4
18.2990155,4.838089142,-2.046693878,8.390801239,0.0001202127896,-0.002862092806,-0.007561369799,4
18.3190585,4.810845795,-2.061962128,8.383915558,-0.0001722443849,0.002997796517,-0.006262636743,4
18.3391015,4.796325989,-2.058519287,8.390950928,-0.0004220362753,0.006043963134,-0.003014057176,4
18.3591435,4.780009918,-2.032772827,8.388855286,0.000292023411,0.008093990386,-0.001039659372,4
18.3791865,4.767735443,-2.033820648,8.369545441,0.001753487391,0.009723610245,0.001728976727,4
18.3992295,4.764891357,-2.023791504,8.369246063,0.0007668815088,0.01137238834,0.004268268123,4
18.4192715,4.741839294,-2.016157379,8.358917542,0.001266911393,0.0102862874,0.003799335798,4
18.4393145,4.7470784,-2.033820648,8.351433105,0.0001489126589,0.005537063815,0.003632691223,4
18.4593565,4.730163574,-2.049537964,8.37433548,0.002510370454,0.002431118395,0.00154101348,4
18.4793995,4.729265442,-2.049088898,8.384963379,0.001853780006,0.0008120778948,0.002485020086,4
18.4994425,4.710404663,-2.061812439,8.369096375,0.0006514547858,0.0005971752107,0.001067997888,4
18.5194845,4.708608398,-2.054477692,8.375982056,0.002414808609,-0.000788505422,-0.0004408911336,4
18.5395275,4.734055481,-2.031725006,8.386310577,-0.0004274083767,0.0006570483092,-0.003541650251,4
18.5595705,4.739294586,-2.015708313,8.374934235,-0.004435695708,-0.003856664756,-7.157213986e-07,4
18.5796125,4.745132446,-2.034269714,8.37074295,-0.000892754877,-0.004299400374,-0.002967150649,4
18.5996555,4.784650269,-2.067949677,8.423732758,0.008006406017,-0.0004755461123,-0.01030290034,4
18.6196985,4.845423889,-2.025288391,8.434660034,0.006576130167,-0.0004808113445,-0.007277790923,4
18.6397405,4.739893341,-2.025887146,8.382718048,0.001718616113,0.002198870294,-0.002149301348,4
18.6597835,4.727319489,-2.059567108,8.3369133,0.002246254589,0.004523473326,-1.058238558e-05,4
18.6798265,4.756957855,-2.051633606,8.336613922,0.005796951242,0.004716001917,0.000716490671,4
18.6998685,4.744533691,-2.031874695,8.384364624,0.001564846956,0.00244223047,0.001859191339,4
18.7199115,4.732259216,-2.008822632,8.382268982,-0.0009090129752,0.000791991828,0.004874209408,4
18.7399535,4.727469177,-2.016157379,8.35203186,0.002346964087,0.0007744031027,0.002832163591,4
18.7599965,4.736300812,-2.025737457,8.36265976,0.001307065715,0.002215372864,0.002557529602,4
18.7800395,4.776118011,-2.0371138,8.381071472,-0.002505686833,0.005776302889,0.001508480287,4
18.8000815,4.744982758,-2.038011932,8.394094391,-0.004378661513,0.001733702142,0.001490207156,4
18.8201245,4.756808167,-2.038161621,8.386160889,0.001376133645,-0.0003212790471,-0.0005085277371,4
18.8401675,4.755311279,-2.034868469,8.39768692,0.001578350202,-0.002422801452,-0.001325136283,4
18.8602095,4.73181015,-2.042203217,8.371641083,-0.001074852655,0.0007245736197,-0.0006406095345,4
18.8802525,4.736300812,-2.038610687,8.388106842,-0.0008833804168,0.00297677354,-0.00311747659,4
18.9002955,4.770130463,-2.032922516,8.397237854,0.0003121749032,0.002623559907,-0.001262047561,4
18.9203375,4.760400696,-2.035467224,8.371341705,-0.002711927053,0.0008411321323,0.0003109034151,4
18.9403805,4.757855988,-2.023641815,8.356821899,-0.001023637597,0.004803183954,-0.0002401513048,4
18.9604235,4.741390228,-2.028132477,8.367000732,0.001465803012,0.004338749684,-0.0002376732882,4
18.9804655,4.757107544,-2.036065979,8.384214935,0.00150370237,0.002208199818,0.0003010029905,4
19.0005085,4.731959839,-2.036964111,8.378826141,0.002609930234,0.003387035802,0.003390320344,4
19.0205505,4.727918243,-2.032922516,8.38017334,0.002367753303,0.002529210411,0.004799159709,4
19.0405935,4.738695831,-2.035616913,8.398285675,-8.681998588e-05,0.003515566466,0.003507530317,4
19.0606365,4.738246765,-2.033670959,8.392747192,0.00159177056,-7.677148096e-05,0.001443846733,4
19.0806785,4.743336182,-2.032922516,8.374784546,0.00110738771,0.0006863600574,0.0009394618683,4
19.1007215,4.744833069,-2.035018158,8.388705597,-0.0004264647141,-4.77519352e-05,9.331898764e-05,4
19.1207645,4.753215637,-2.031575317,8.384065247,0.0006006082986,0.0003695054911,-0.00111178658,4
19.1408065,4.738546143,-2.03247345,8.377928009,-0.0003105548676,-4.889606498e-05,-0.0009969752282,4
19.1608495,4.753065948,-2.037263489,8.3860112,-4.710163921e-07,-7.445388474e-05,-0.001811864087,4
19.1808925,4.748874664,-2.031126251,8.377928009,0.001648466452,0.0008262183983,-0.0005216009449,4
19.2009345,4.7364505,-2.032623138,8.382867737,0.0007730687503,0.001384634059,0.004584759939,4
19.2209775,4.74932373,-2.030377808,8.3860112,0.000499230111,0.003130132798,0.001422845875,4
19.2410205,4.753365326,-2.02304306,8.381520538,-0.0005046073347,0.00193756423,0.002179681789,4
19.2610625,4.75291626,-2.03127594,8.368347931,0.0004939071368,0.0007098680362,0.0008600589354,4
19.2811055,4.758305054,-2.047741699,8.389603729,0.001234783209,-0.0007226825692,-0.0008166995831,4
19.3011475,4.747377777,-2.041155396,8.393944702,0.003703043796,-0.001674410421,-0.001557809534,4
19.3211905,4.722679138,-2.038760376,8.383017426,0.002094488358,-0.00277181156,0.00131140626,4
19.3412335,4.698429565,-2.0371138,8.397836609,0.0006260154769,0.000483894255,0.00151837524,4
19.3612755,4.723726959,-2.011966095,8.387059021,0.001041988144,-0.001593974419,-0.0003381015267,4
19.3813185,4.738246765,-2.017654266,8.36490509,-0.0002339119092,-0.005124968942,-0.0006540326867,4
19.4013615,4.741839294,-2.044598236,8.359965363,-0.00182437012,-0.003501338884,-0.00223000627,4
19.4214035,4.753664703,-2.047442322,8.420738983,0.002871268196,0.002311060205,-0.008888190612,4
19.4414465,4.831353149,-2.035018158,8.423283691,0.00366251776,0.002127448795,-0.009423801675,4
19.4614895,4.779261475,-2.020198975,8.431366882,0.007379746065,-0.003049824852,-0.001463274471,4
19.4815315,4.707410889,-2.049687653,8.357270966,0.00311129773,0.006352543831,0.002373537747,4
19.5015745,4.735851746,-2.056423645,8.330925751,0.00618665386,0.006325725466,0.001239560079,4
19.5216175,4.750670929,-2.012714539,8.375083923,0.004386547953,0.001344055869,0.003489874769,4
19.5416595,4.72133194,-1.988614655,8.374036102,0.002395847812,-0.001734518912,0.002480056835,4
19.5617025,4.690945129,-2.015708313,8.366701355,-0.0004445714876,-0.002767767757,0.003656397341,4
19.5817445,4.717589722,-2.027084656,8.350534973,0.0007274399977,6.729713641e-05,0.003233468859,4
19.6017875,4.740791473,-2.022893372,8.365952911,-0.001652972773,0.004664208274,0.002775682602,4
19.6218305,4.755460968,-2.039658508,8.392597504,-0.005379973911,0.003989368211,0.0001567644067,4
19.6418725,4.748126221,-2.025737457,8.397836609,-0.00204796507,-0.0007024644874,-0.00017937948,4
19.6619155,4.759652252,-2.038610687,8.404123535,0.0005630475935,-0.003065073863,-0.002722214442,4
19.6819585,4.766088867,-2.026485901,8.399183807,0.002257725224,-0.0020958893,-0.004271883052,4
19.7020005,4.735402679,-2.023791504,8.379724274,0.0001954983454,5.472218618e-05,-0.0008252118714,4
19.7220435,4.746030579,-2.035317535,8.372688904,0.001974490006,0.003310170257,-0.0005887232255,4
19.7420865,4.752766571,-2.029180298,8.392747192,0.001245944411,0.006569365505,0.0004890295677,4
19.7621285,4.765490112,-2.015708313,8.393196259,-0.0003883878235,0.002702598926,0.002293800004,4
19.7821715,4.730762329,-2.023342438,8.3661026,0.001593266497,0.0017156268,0.0007606926374,4
19.8022145,4.721930695,-2.027084656,8.394992523,0.001270849491,3.145239316e-05,0.0005162530579,4
19.8222565,4.727020111,-2.028581543,8.370892639,0.001970149577,0.0002041542903,0.002673394978,4
19.8422995,4.728067932,-2.026036835,8.384214935,0.0003786117304,0.0002906064037,0.001423070556,4
19.8623425,4.72836731,-2.040406952,8.379574585,0.001216895645,0.001223806292,0.002054249868,4
19.8823845,4.73300766,-2.038610687,8.392896881,0.001640138216,0.00145943067,0.0007851936389,4
19.9024275,4.746030579,-2.027833099,8.407865753,8.137733676e-05,-0.0002136100084,0.0004157572985,4
19.9224705,4.743785248,-2.027234344,8.390202484,0.0008511224296,-0.0007017543539,-0.0001011185814,4
19.9425125,4.74468338,-2.020648041,8.389454041,0.001715430291,-0.002292394638,-0.001087868121,4
19.9625555,4.747527466,-2.020797729,8.371641083,-0.0001316005364,0.0001916869078,-0.001768507529,4
19.9825975,4.739893341,-2.033371582,8.373437347,-0.002721774625,0.001988304779,-0.0006372127682,4
20.0026405,4.744833069,-2.032323761,8.379125519,0.0002349261194,0.002516051289,-0.0003950626124,4
20.0226835,4.747228088,-2.020049286,8.386609955,-0.001369312871,0.001025364734,-0.0002960376441,4
20.04272613,4.738396454,-2.03247345,8.395142212,-0.0009363817517,0.00088577508,0.0009056644049,4
20.06276912,4.737947388,-2.03591629,8.391549683,0.002252931474,0.0005398411304,0.002408656757,4
20.08281212,4.718637543,-2.005230103,8.392148438,0.001648032223,0.0008764441591,0.003560235025,4
20.10285412,4.739144897,-2.025887146,8.384065247,0.00170134136,0.001380451024,0.001283517107,4
20.12289712,4.732109528,-2.026485901,8.380023651,0.00164493185,-0.0008829969447,0.0006839935668,4
20.14294012,4.747976532,-2.034718781,8.398585052,0.001477692858,-0.003548120381,-0.001041186508,4
20.16298212,4.744833069,-2.034419403,8.386609955,0.002022565342,-0.004079147242,-0.001104532275,4
20.18302512,4.722978516,-2.037562866,8.383915558,0.0001535166521,-0.002570957178,-0.001242721919,4
20.20306812,4.71893692,-2.024090881,8.394842834,0.0006591489073,-0.003052822081,-0.0002115438692,4
20.22311012,4.730163574,-2.013612671,8.396339722,0.0007466340903,-0.001844625687,-0.00101564615,4
20.24315312,4.737797699,-2.003433838,8.366701355,-0.001215172,-0.00368659175,-0.001336033922,4
20.26319613,4.749772797,-2.032922516,8.343349915,-0.001592205372,-0.003428647062,4.300125875e-05,4
20.28323812,4.746030579,-2.052831116,8.391549683,0.0001054392196,0.001826375374,-0.002292595338,4
20.30328112,4.782554626,-2.046993256,8.449928284,0.004606476054,0.005479719024,-0.009931164794,4
20.32332412,4.794230347,-2.035167847,8.454418945,0.005366705358,-0.002673401264,-0.0056892219,4
20.34336612,4.737348633,-2.00433197,8.394842834,0.006099107675,-0.0001547501888,0.001103405841,4
20.36340912,4.699477386,-2.066901855,8.341853027,0.007443188224,0.005774728488,-0.0003530611284,4
20.38345212,4.728067932,-2.017055511,8.381071472,0.006498657167,0.002356568119,-0.0005650119856,4
20.40349412,4.712200928,-1.97274765,8.384963379,0.0009855391691,-0.006490243599,0.002996145282,4
20.42353712,4.686753845,-1.994901581,8.355474701,0.0008575331885,-0.003264616942,0.003774356563,4
20.44357912,4.693639526,-2.044298859,8.362809448,-0.0008734129369,-0.000748940045,0.0007687322795,4
20.46362212,4.738097076,-2.031725006,8.395142212,-0.0001973744947,0.0009172600694,-0.0005732856225,4
20.48366513,4.77507019,-2.019300842,8.410859528,-0.005491459277,0.000841925852,-0.001665136777,4
20.50370712,4.770729218,-2.005978546,8.389004974,-0.004996206611,-0.00376190641,-0.00269043236,4
20.52375012,4.74932373,-2.026785278,8.382568359,-0.001003542915,-0.005474946462,-0.001103289193,4
20.54379312,4.747677155,-2.01376236,8.382568359,-0.0004035362508,-0.0002224084456,-0.001956502907,4
20.56383512,4.745132446,-2.016756134,8.396938477,-0.001868882915,0.002094585449,-0.001681183465,4
20.58387812,4.736600189,-2.026934967,8.38720871,-0.0006832303479,0.001666651107,0.000155646354,4
20.60392112,4.778513031,-2.015408936,8.396788788,0.002675564727,0.002688024193,0.001653127954,4
20.62396312,4.772375793,-2.012864227,8.380921783,-7.704901509e-05,0.002171454951,0.0002792335581,4
20.64400612,4.744833069,-2.021845551,8.36849762,-0.0006083168555,0.002192064421,0.002866201336,4
20.66404913,4.730013885,-2.014810181,8.360414429,0.002011809265,0.005443041213,-0.0007394317072,4
20.68409112,4.715344391,-2.021246796,8.395591278,0.003227716777,0.004614526406,-0.000727748964,4
20.70413413,4.726121979,-2.004182281,8.398585052,-0.002717694733,0.00274820393,-0.0005211145617,4
20.72417712,4.74004303,-2.001188507,8.39304657,-0.001997891814,0.0007589377929,0.000351381721,4
20.74421912,4.716541901,-2.031725006,8.390801239,0.001257323078,-0.0007919862401,-0.0001578438096,4
20.76426212,4.711003418,-2.016905823,8.395291901,0.000819016248,0.001408998389,-0.0009701561648,4
20.78430512,4.731211395,-2.01600769,8.388256531,-0.0002599919681,0.001084937016,-0.0007098773494,4
20.80434712,4.747826843,-2.030677185,8.400381317,-0.0007675441448,-0.001834284747,-0.0001910773572,4
20.82439012,4.732408905,-2.009271698,8.395291901,0.002530468395,-0.001240801299,-0.001399902627,4
20.84443312,4.737498322,-2.025587769,8.381819916,-0.001109053614,-0.001094729872,0.0008091721684,4
20.86447512,4.736001434,-2.027683411,8.372239838,-0.001137815649,0.001029407373,-0.001698992914,4
20.88451812,4.757706299,-2.02304306,8.373736725,0.000316490652,0.00311346096,-0.0002518496476,4
20.90456112,4.763544159,-2.016905823,8.388855286,-0.0005247888621,0.001781647909,0.0007633930072,4
20.92460313,4.737198944,-2.02543808,8.372239838,-0.001171483425,0.0009758027736,0.0007559461519,4
20.94464612,4.736151123,-2.022893372,8.394094391,-0.0004716177937,0.001028234605,0.00177039986,4
20.96468912,4.736899567,-2.028132477,8.400830383,-0.0006194857415,0.003586812643,0.002185579389,4
20.98473112,4.734055481,-2.014660492,8.393944702,0.0003416461404,0.002274280414,0.001986557851,4
21.00477412,4.733307037,-2.012115784,8.393944702,0.0004476676695,0.0008814996108,-0.0002171061933,4
21.02481612,4.738396454,-2.019001465,8.403075714,-0.001018974232,0.001363475341,0.001230555587,4
21.04485817,4.730762329,-2.022294617,8.389903107,-0.0004998729564,-0.003018699819,-0.0001295949332,4
21.06490117,4.725523224,-2.036964111,8.381969604,0.002898085164,-0.001876764232,-0.001377208624,4
21.08494317,4.732708282,-2.026785278,8.41175766,0.0005334154703,0.001339773182,-0.001285406994,4
21.10498617,4.715943146,-2.031874695,8.393495636,-8.790753782e-05,-0.001643981086,0.001821343089,4
21.12502917,4.706961823,-2.0079245,8.383017426,0.0005752395373,-0.002631914103,0.00138819695,4
21.14507117,4.733606415,-2.014361115,8.390202484,-6.514508277e-05,-0.001414201455,0.003546186257,4
21.16511417,4.75052124,-2.016157379,8.373587036,-0.002865811577,-0.004397605546,0.0005561942235,4
21.18515717,4.742887115,-2.03831131,8.382718048,0.001338657574,-0.001601874596,-0.0009051456582,4
21.20519917,4.775818634,-2.030826874,8.441096649,0.005469405092,0.003200682811,-0.006311212201,4
21.22524217,4.800367584,-2.020947418,8.449928284,0.003132259939,-0.003397723893,-0.005401735194,4
21.24528517,4.71549408,-2.002984772,8.373287659,0.00352915586,-0.0006012537051,0.0001250780188,4
21.26532717,4.699178009,-2.055974579,8.34858902,0.007177778985,0.003428383032,-0.0009060599841,4
21.28537017,4.727768555,-2.026485901,8.371042328,0.003344645025,0.000834594015,-7.437332533e-05,4
21.30541317,4.722529449,-1.99849411,8.377628632,0.000406159088,-0.001949604368,0.00220983848,4
21.32545517,4.701872406,-1.986668701,8.392447815,0.0002273987047,1.109391451e-05,0.003058317816,4
21.34549817,4.710853729,-2.017504578,8.363857269,0.000961914775,-0.001457588514,0.003776557511,4
21.36554117,4.727768555,-2.010469208,8.383466492,-0.001598103438,0.004063914064,0.002487576101,4
21.38558317,4.744234314,-2.012714539,8.389454041,-0.003990078811,0.005986139178,0.0008226183709,4
21.40562617,4.734654236,-2.009870453,8.387508087,-0.004881563596,-0.0007600213867,0.001052708831,4
21.42566917,4.736899567,-2.036215668,8.395441589,-0.004106393084,0.002424363513,-0.0003910425585,4
21.44571117,4.734654236,-2.023941193,8.408614197,-0.001972688362,0.005309298635,0.0003677669447,4
21.46575417,4.749024353,-2.011517029,8.379275208,-0.002292737365,0.004337165039,0.0007440745831,4
21.48579717,4.739294586,-2.022893372,8.400381317,-0.0008718953468,0.009923812002,0.003566774307,4
21.50583917,4.751269684,-2.014061737,8.424032135,0.001647458528,0.006399138831,0.006597662345,4
21.52588217,4.716392212,-1.992955627,8.385113068,-0.001776650548,0.0005931879859,0.007706666831,4
21.54592517,4.702022095,-2.011666718,8.367749176,-0.0008677723818,0.005207748152,0.007616594899,4
21.56596717,4.699327698,-2.036065979,8.370443573,0.001643164549,0.009674458764,0.004171283916,4
21.58601017,4.726571045,-2.039808197,8.394543457,-0.001820355654,0.00667869579,0.002978730248,4
21.60605317,4.745132446,-2.023941193,8.382418671,-0.001149646472,0.003694731044,0.004448002204,4
21.62609517,4.729864197,-2.037562866,8.408614197,-8.591427468e-05,0.001930326456,0.002238589339,4
21.64613817,4.711751862,-2.028431854,8.392747192,-0.001066490309,0.001800364233,0.002847920638,4
21.66618117,4.703968048,-2.021845551,8.394992523,-0.001894420944,0.003320898861,0.00234593288,4
21.68622317,4.696633301,-2.016456757,8.410859528,-0.0002212815452,0.002270973288,0.003683099058,4
21.70626617,4.718637543,-2.013163605,8.395441589,-0.000724901678,0.001575837377,0.004591783509,4
21.72630917,4.720284119,-2.022593994,8.399632874,0.0005099563859,0.001933343709,0.004856806248,4
21.74635117,4.718787231,-2.033970337,8.409512329,-0.0004582111724,0.004733337089,0.003828807734,4
21.76639417,4.733606415,-2.041454773,8.390052795,-0.001040364848,0.003811378265,0.003044811776,4
21.78643717,4.741539917,-2.029779053,8.392148438,0.0005145168398,0.004394209012,0.00288258004,4
21.80647917,4.730313263,-2.026785278,8.393495636,-0.001147187082,0.004097587895,0.003278611228,4
21.82652217,4.728067932,-2.026186523,8.403075714,-2.466165461e-05,0.004132227972,0.00271209958,4
21.84656517,4.707111511,-2.036215668,8.39424408,0.00150788913,-0.0001283425372,0.003377701156,4
21.86660717,4.706961823,-2.030677185,8.41295517,0.00208698865,-0.000275751343,0.001532084541,4
21.88665017,4.706812134,-2.03127594,8.409662018,0.002560652792,-0.001545623643,0.003702329239,4
21.90669317,4.709506531,-2.033970337,8.393795013,0.002407791093,-0.001182880485,0.002490002895,4
21.92673517,4.703219604,-2.017953644,8.39648941,0.001041323063,-0.001195663819,0.002863644389,4
21.94677817,4.713847504,-2.022444305,8.389753418,-0.00171462819,-0.0009968003724,0.002457283204,4
21.96682017,4.714146881,-2.015259247,8.377329254,-0.00360030029,-0.00314909243,0.002942207735,4
21.98686317,4.705015869,-2.040556641,8.381819916,-0.0005796675105,-0.0007831875701,-0.0003805721644,4
22.00690617,4.718787231,-2.041454773,8.435707855,0.005016524345,0.003056824673,-0.005447207019,4
22.02694817,4.767436066,-2.018103333,8.455466766,0.004954289645,-0.005199244246,-0.004754580092,4
22.04699175,4.721930695,-2.007475433,8.40008194,0.002769543789,-0.003686229931,0.001567191444,4
22.06703475,4.693639526,-2.053729248,8.338709564,0.00540035218,0.004021100234,0.002975258045,4
22.08707775,4.71549408,-2.046693878,8.372090149,0.003599397838,0.004771205131,0.001640475239,4
22.10711975,4.708159332,-2.006277924,8.384514313,0.0009387421887,0.002201043535,0.003096710891,4
22.12716275,4.693340149,-2.006577301,8.398734741,-9.998306632e-05,0.001045493875,0.007191554178,4
22.14720475,4.680766296,-2.004631348,8.393495636,-0.000268941978,2.726423554e-05,0.006641961634,4
22.16724775,4.690196686,-2.031874695,8.388256531,0.0008236144204,0.00107508665,0.004934834316,4
22.18729075,4.714895325,-2.023342438,8.402626648,-0.001232750248,0.004440650344,0.003716122126,4
22.20733375,4.708009644,-2.028282166,8.41639801,-0.004353649914,0.000206656754,0.00422377931,4
22.22737575,4.713847504,-2.031725006,8.409212952,-0.002186786849,0.000450162217,0.002889705589,4
22.24741875,4.710853729,-2.040257263,8.404123535,-0.001504737884,-0.0001530076843,-0.0003577047028,4
22.26746075,4.740941162,-2.029180298,8.391699371,-0.001973125152,-0.001339525217,-0.001067167614,4
22.28750375,4.706662445,-2.030976563,8.387807465,0.0006767034065,-0.0007829761598,-0.001492194599,4
22.30754675,4.721930695,-2.050885162,8.409811707,0.0009479050059,0.005112998188,0.0008125361055,4
22.32758975,4.74004303,-2.025737457,8.398285675,0.0002492030617,0.00262408494,9.371479973e-05,4
22.34763175,4.719086609,-2.019300842,8.390501862,-0.001812004019,0.00276893354,0.001908382401,4
22.36767475,4.71309906,-2.027234344,8.39304657,7.376377471e-05,0.003154241247,0.002862340072,4
22.38771775,4.699327698,-2.029928741,8.402027893,0.001155993203,0.004380920436,0.002764878329,4
22.40775975,4.704716492,-2.019749908,8.417445831,-0.001133604906,0.002255212981,0.003273551119,4
22.42780275,4.696932678,-2.035467224,8.385562134,0.0001989784651,-0.0008765847888,0.001711870544,4
22.44784475,4.699926453,-2.050885162,8.398435364,0.001522174804,0.001524387626,-0.0002702779602,4
22.46788775,4.688849487,-2.024689636,8.398734741,0.001054855995,0.0009813159704,-0.0002218540758,4
22.48793075,4.698728943,-2.036814423,8.420140228,0.002823494142,9.565241635e-05,0.0002716036979,4
22.50797275,4.709955597,-2.026934967,8.403824158,0.0009645747487,9.075482376e-05,-0.0003494194243,4
22.52801575,4.712500305,-2.022743683,8.400980072,0.0003581729252,-0.002356690122,-0.0005081437994,4
22.54805875,4.703968048,-2.034718781,8.391549683,5.619833246e-06,-0.002493688138,-0.001780908555,4
22.56810175,4.703818359,-2.039658508,8.405770111,0.002855606377,-0.00262963702,-0.001537446398,4
22.58814375,4.727918243,-2.051034851,8.439001007,0.009424963966,-0.0128360698,-0.005819234997,4
22.60818675,4.746180267,-2.031725006,8.456065521,0.01212262455,-0.01291684341,-0.009290985763,4
22.62822975,4.790787506,-2.004032593,8.391399994,0.007293343544,-0.01332454849,-0.009499268606,4
22.64827175,4.754862213,-2.05238205,8.335566101,0.007040077355,0.0001142944675,-0.01266843081,4
22.66831475,4.735103302,-2.059866486,8.369246063,0.004814406857,0.005102452356,-0.01471608505,4
22.68835775,4.716541901,-2.026934967,8.399034119,0.003398891306,0.0009413957596,-0.01204441488,4
22.70839975,4.672832794,-2.018103333,8.420289917,0.009586118162,-0.0005633167457,-0.006496232003,4
22.72844275,4.641248474,-1.986219635,8.466992798,0.01195202768,-0.004649517126,-0.002155615482,4
22.74848575,4.629123688,-1.962568817,8.451724548,0.007634145673,-0.01225848217,0.00342351594,4
22.76852775,4.628524933,-1.953587494,8.415799255,0.004394052085,-0.009269350208,0.004508991726,4
22.78857075,4.654870148,-1.946701813,8.367000732,-0.0006680844817,-0.002247127471,0.00169482932,4
22.80861275,4.714895325,-1.990859985,8.335416412,-0.003768438008,-0.004388002679,-0.002070165705,4
22.82865575,4.760849762,-2.045196991,8.388406219,-0.004823286086,-0.0007833272684,-0.008421238512,4
22.84869875,4.787194977,-2.057621155,8.390501862,-0.005116845947,-0.003251782851,-0.009208457544,4
22.86874175,4.803960114,-2.064506836,8.375083923,0.0005812174641,-0.002440179931,-0.014315526,4
22.88878375,4.827012177,-2.057321777,8.409961395,0.006517468952,-0.0004226232413,-0.01441916823,4
22.90882675,4.780908051,-1.97858551,8.427924042,0.007379340939,0.007083409932,-0.004805875011,4
22.92886975,4.746180267,-1.987716522,8.412805481,0.006179731339,0.01052360982,0.00107993139,4
22.94891175,4.712350616,-1.974992981,8.409811707,0.00596594438,0.005897642579,0.005064771045,4
22.96895475,4.697381744,-1.975741425,8.429570618,0.005697432905,0.001652620034,0.006147394422,4
22.98899775,4.665198669,-1.987866211,8.405470734,0.002682707971,-0.001317931106,0.006198709831,4
23.00903975,4.633464661,-1.994452515,8.366701355,0.0006744151469,0.003047503298,0.003632012755,4
23.02908275,4.658762054,-2.008373566,8.387358398,-0.002098247875,0.007435193285,0.002074313816,4
23.04912512,4.666096802,-2.021097107,8.401578827,-0.006579973269,0.003576327348,-0.001969943754,4
23.06916712,4.695136414,-2.016756134,8.402626648,-0.008381851949,-0.004287934862,-0.006498927716,4
23.08921012,4.72133194,-2.020498352,8.411607971,-0.005071638152,-0.005371067673,-0.008851809427,4
23.10925312,4.721631317,-2.017055511,8.408464508,-0.001669936348,-0.003788484493,-0.007869888097,4
23.12929512,4.737198944,-1.995949402,8.411458282,-0.001943817828,-0.00179862394,-0.00079974439,4
23.14933812,4.733456726,-1.999242554,8.407266998,-0.002645639703,-0.0009242810775,0.00383869186,4
23.16938113,4.762346649,-1.980830841,8.382119293,-0.002097596414,0.003352878615,0.004608671181,4
23.18942312,4.787045288,-1.997446289,8.39768692,-0.00240238104,0.005503602326,0.007503434084,4
23.20946612,4.751419373,-2.001487885,8.410111084,-0.005379956216,0.007988356985,0.004806249402,4
23.22950912,4.741539917,-2.028581543,8.392447815,-0.002038547304,0.007058223709,0.002832798054,4
23.24955112,4.717140656,-2.030228119,8.390052795,-0.001334299333,0.009471368045,0.0007664691657,4
23.26959412,4.711452484,-2.025737457,8.405470734,-0.001883955207,0.008928688243,0.001083051087,4
23.28963712,4.71190155,-2.009870453,8.405620422,-0.001864015125,0.004624918103,0.002914002398,4
23.30967912,4.669988708,-2.01600769,8.388705597,0.0001823282801,0.003863169579,0.004645291716,4
23.32972212,4.694837036,-2.003733215,8.407716064,0.001643463853,0.004619082436,0.003272705944,4
23.34976512,4.698429565,-1.996248779,8.427774353,-0.0008248528466,0.0009460032452,0.003313793801,4
23.36980712,4.697082367,-1.980681152,8.424032135,-0.001848772168,-0.0001163869165,0.005906066857,4
23.38985013,4.702321472,-1.980232086,8.398435364,-0.0007702084258,-0.001718064072,0.007319685537,4
23.40989312,4.688849487,-2.002685394,8.387957153,-0.003980777226,0.002001173794,0.004357494414,4
23.42993512,4.705764313,-2.024539948,8.407865753,-0.003851814661,0.003038687399,0.0007438054308,4
23.44997812,4.720583496,-2.036664734,8.420888672,-0.001624051016,0.002856342122,0.0005057458766,4
23.47002112,4.746629333,-2.049088898,8.40352478,-0.0004026957322,0.001631100429,0.001385677955,4
23.49006312,4.746629333,-2.044747925,8.386759644,0.00201450102,0.002052227268,-0.0003691085149,4
23.51010612,4.728816376,-2.011067963,8.409063263,0.000299283769,0.005161840934,0.001697244123,4
23.53014912,4.719685364,-1.991907806,8.403824158,0.0007985807024,0.005820573308,0.005434176885,4
23.55019112,4.706662445,-1.993255005,8.408314819,-0.0002516121604,0.004541934934,0.007062947378,4
23.57023412,4.699477386,-1.992955627,8.403225403,0.0006248010322,0.004229441285,0.00863903109,4
23.59027712,4.689597931,-2.0079245,8.412506104,-0.0009638697375,0.002386507113,0.005422750954,4
23.61031913,4.691543884,-2.030826874,8.414302368,-0.002880359069,0.003737288294,0.002373173134,4
23.63036212,4.705914001,-2.031725006,8.429720306,-0.0003324968275,0.0007255736273,-0.002990443958,4
23.65040512,4.692142639,-2.035018158,8.412206726,0.0006628220435,-0.001480296021,-0.003379285568,4
23.67044712,4.664899292,-2.032623138,8.425379333,0.00101617258,-0.001023218269,-0.002122809179,4
23.69049012,4.684658203,-2.032174072,8.406069489,0.001558380085,-0.0003995329607,-0.002368095331,4
23.71053312,4.694088593,-1.998344421,8.405620422,-0.002144207479,0.001504121814,-0.0006902948953,4
23.73057512,4.716242523,-1.999541931,8.395740967,-0.003160268068,-0.001593007008,0.0008231303655,4
23.75061812,4.713248749,-2.015858002,8.380023651,-0.001103218179,-0.001090862555,0.001072746236,4
23.77066112,4.727469177,-2.024989014,8.406817932,0.0009587794775,0.001388247591,-0.002741440898,4
23.79070312,4.744384003,-2.029629364,8.459807739,0.006548939273,-0.001865233062,-0.007695508655,4
23.81074612,4.762795715,-2.017953644,8.473878479,0.006878102664,-0.008604917675,-0.004737483338,4
23.83078913,4.665947113,-2.009271698,8.420589294,0.005995106883,-0.00130700483,-0.0004551038146,4
23.85083212,4.661007385,-2.060315552,8.358468475,0.003127276897,0.005293506198,-0.002926826477,4
23.87087412,4.684059448,-2.004182281,8.372389526,0.00222875597,0.00308422884,-0.002169663319,4
23.89091712,4.685256958,-1.99026123,8.38361618,-0.0004015231971,-0.003272363683,-0.001484160079,4
23.91096012,4.681365051,-1.988165588,8.41175766,-0.00016829581,-0.002944481326,-0.001144834096,4
23.93100212,4.674329681,-2.009720764,8.404572601,0.0007929343265,-0.002981469268,-0.002226626035,4
23.95104512,4.69199295,-2.022593994,8.405620422,-0.0007373939734,-0.0003214480821,-0.0004087896086,4
23.97108812,4.697980499,-2.011067963,8.404123535,-0.004198454786,0.0006830426864,0.0001073423773,4
23.99113012,4.710105286,-1.9972966,8.404422913,-0.003206456546,-0.002921892563,-0.001168604475,4
24.01117312,4.706812134,-2.016756134,8.400381317,-0.000333517557,-0.004417495802,-0.003053048393,4
24.03121612,4.728816376,-2.021546173,8.41639801,0.0001564419363,-0.001254380448,-0.005384382326,4
24.05125904,4.712200928,-2.016157379,8.403375092,-0.0008982324507,0.0005582466256,-0.004570789635,4
24.07130204,4.709805908,-2.017803955,8.418643341,0.000906341942,-2.812873572e-05,-0.00242456072,4
24.09134504,4.729864197,-2.014361115,8.409811707,0.002501605079,0.003163484391,-0.001937707653,4
24.11138704,4.729115753,-1.996248779,8.402776337,-0.001790565671,0.001705802977,-0.002676454606,4
24.13143004,4.710853729,-2.013313293,8.388705597,-0.001905614277,0.000993141206,-0.00137257087,4
24.15147304,4.678071899,-2.01256485,8.403973846,0.0004365735222,0.001900027622,-0.001241545891,4
24.17151504,4.679269409,-2.025138702,8.410260773,0.001319240197,0.001101372298,-0.001615473768,4
24.19155804,4.690046997,-2.02543808,8.410410461,-0.001535668503,0.0001170679461,-0.0003715113271,4
24.21160104,4.692142639,-2.003433838,8.420738983,0.001113457023,-0.0007500846405,-0.001163544599,4
24.23164304,4.697232056,-2.003284149,8.404273224,-0.0008821452502,-0.0003423804883,-0.0009951740503,4
24.25168604,4.695735168,-2.011816406,8.407266998,0.001347703277,0.0002639675513,-0.002200290328,4
24.27172904,4.694088593,-2.009122009,8.418643341,-0.002404206898,-0.0007527244743,-0.003393141087,4
24.29177104,4.696483612,-2.003882904,8.412206726,-0.0007436145097,0.0002396528143,-0.002589452313,4
24.31181404,4.698579254,-2.007026367,8.40936264,-0.0006496675778,0.002135637216,-0.000800955575,4
24.33185704,4.708758087,-2.014510803,8.408015442,-0.0008350398857,0.000646609813,0.001955325948,4
24.35189904,4.704417114,-2.023641815,8.387358398,6.728828885e-05,0.0006630159914,0.002738832962,4
24.37194204,4.718787231,-1.99849411,8.408015442,0.0008690082468,0.002903319895,0.002754342742,4
24.39198504,4.704716492,-1.984273682,8.401279449,-0.000162700424,0.003712654579,0.004999919794,4
24.41202804,4.705464935,-2.00313446,8.41175766,-0.00116014597,0.002363230102,0.005894978996,4
24.43207004,4.701273651,-2.012265472,8.418044586,1.960108057e-05,0.002183627803,0.004033720121,4
24.45211304,4.712051239,-2.029329987,8.419840851,-0.0002312590368,0.0009631274734,0.0005673575215,4
24.47215604,4.713847504,-2.032623138,8.417745209,0.004698617384,-0.008587128483,-0.003602376906,4
24.49219804,4.721032562,-2.04878952,8.414751434,0.007880096324,-0.01329344139,-0.009898111224,4
24.51224104,4.730462952,-2.014361115,8.412206726,0.01185877714,-0.01643117703,-0.008526259102,4
24.53228404,4.677922211,-2.029479675,8.392447815,0.01041258872,-0.01319463551,-0.008734012954,4
24.55232604,4.67447937,-2.016307068,8.418343964,0.01155499183,-0.009804434143,-0.002952321433,4
24.57236904,4.66624649,-1.966460724,8.427924042,0.005820890889,-0.008460760117,0.0004565620329,4
24.59241204,4.711153107,-1.969454498,8.402476959,0.003395297099,-0.007056718692,0.0008297045715,4
24.61245404,4.727319489,-1.959125977,8.396639099,0.001323719509,-0.004404181615,-0.0008081567939,4
24.63249704,4.725373535,-1.965562592,8.396639099,-0.003143937094,-0.005593629554,-0.001895789523,4
24.65254004,4.721930695,-2.026186523,8.382568359,-0.001139454311,-0.002905142261,-0.00639173016,4
24.67258204,4.73300766,-2.048639832,8.429570618,0.008016226813,0.002583099995,-0.01204375643,4
24.69262504,4.791835327,-2.040107574,8.47956665,0.01696985587,0.002894424135,-0.01495731249,4
24.71266804,4.785249023,-2.024689636,8.477471008,0.02702126466,-0.01048447378,-0.02057172358,4
24.73271004,4.788691864,-2.018552399,8.375383301,0.03754416853,-0.004395793192,-0.0166742485,4
24.75275304,4.664749603,-2.025887146,8.3661026,0.02802329138,0.009772784077,-0.001429772936,4
24.77279604,4.579127655,-1.96930481,8.422834625,0.01407467201,0.006184838712,0.01230999175,4
24.79283804,4.602928162,-1.838776245,8.413104858,-0.00130834477,0.00160958292,0.02507536858,4
24.81288104,4.612807617,-1.79371994,8.350684662,-0.007957942784,0.001789771952,0.02595391124,4
24.83292404,4.647984467,-1.907633057,8.356971588,-0.01013866998,0.01136366744,0.02066228911,4
24.85296604,4.674928436,-2.010319519,8.407716064,-0.00383111136,0.006526175886,0.003471020609,4
24.87300904,4.846771088,-2.117346954,8.501271515,0.01342079975,-0.01249878015,-0.01543557085,4
24.89305204,4.839286652,-2.070644073,8.470136261,0.01904886961,-0.03197205812,-0.009091891348,4
24.91309504,4.700375519,-2.098186798,8.3661026,0.01213262882,-0.01345884893,-0.005884677172,4
24.93313704,4.703219604,-1.99265625,8.417146454,0.006889992394,0.005698520225,0.002061132807,4
24.95318004,4.712051239,-1.885179749,8.341254272,-0.0011803261,0.008417181671,0.01227356121,4
24.97322304,4.70022583,-1.862576752,8.390501862,0.003752804827,0.01093887631,0.01354067773,4
24.99326504,4.762945404,-1.885179749,8.480315094,0.0121289175,0.001385398209,0.01127059665,4
25.01330804,4.739893341,-1.920356598,8.470435638,0.00571948383,-0.01051230542,0.02266018093,4
25.03335104,4.642296295,-1.98098053,8.347990265,-0.002651502145,-0.005549100228,0.02392940596,4
25.05339592,4.650379486,-2.086810455,8.386609955,0.001261118916,0.01384880394,0.008984562941,4
25.07343892,4.706363068,-2.066602478,8.44094696,-0.001190886367,0.009674188681,0.003608990693,4
25.09348192,4.698878632,-1.983674927,8.389304352,-0.008515108377,0.004292238504,0.0048494488,4
25.11352392,4.704417114,-1.986668701,8.391100616,-0.006146775559,0.00786241889,0.003574338043,4
25.13356692,4.740941162,-1.957479401,8.411158905,-0.009678659961,0.01239005849,0.001336750109,4
25.15360992,4.751868439,-1.92709259,8.392597504,-0.01646113954,0.01108179893,0.003423112677,4
25.17365192,4.709356842,-1.930385742,8.404123535,-0.01725994609,0.01184016187,0.006777892821,4
25.19369492,4.710853729,-1.947300568,8.398734741,-0.01707472838,0.01538124122,0.01082772668,4
25.21373792,4.687651978,-2.001188507,8.398585052,-0.01701753214,0.01702901907,0.01313615218,4
25.23378092,4.686005402,-2.019749908,8.392447815,-0.01840114035,0.02080162428,0.01821987703,4
25.25382292,4.682113495,-2.04998703,8.433911591,-0.01592725143,0.02263092436,0.01582089439,4
25.27386592,4.689597931,-2.032922516,8.470136261,-0.01424974203,0.01757272705,0.01375482418,4
25.29390892,4.679868164,-2.015259247,8.454868011,-0.01060844865,0.01246918086,0.007806908339,4
25.31395092,4.693938904,-1.999092865,8.462951202,-0.008023552597,0.01331404317,0.00369709637,4
25.33399392,4.723128204,-2.000440063,8.434360657,-0.008758413605,0.009964824654,-0.001524278428,4
25.35403692,4.718038788,-2.008373566,8.39065155,-0.008580918424,0.005278858822,-0.004868719727,4
25.37407892,4.70142334,-2.023641815,8.391399994,-0.007887809537,0.005596495233,-0.005503051914,4
25.39412192,4.674778748,-2.00433197,8.405470734,-0.009576476179,0.005480743945,-0.001092805993,4
25.41416492,4.652475128,-2.041454773,8.408464508,-0.007566977292,0.006795209832,0.002144223545,4
25.43420692,4.648583221,-2.041005707,8.462502136,0.0008239364251,0.006146194413,0.002362360479,4
25.45424992,4.647236023,-2.023192749,8.463400269,0.002398978919,0.004748198204,0.003202291904,4
25.47429292,4.679868164,-1.998344421,8.437953186,0.0003777646925,-1.20960176e-05,0.003145838389,4
25.49433492,4.665797424,-2.004631348,8.41295517,-0.002340241335,-0.002314877929,0.003579123644,4
25.51437792,4.654121704,-2.017055511,8.380323029,-0.0002201937605,0.001554667717,9.679258801e-05,4
25.53442092,4.690945129,-2.036964111,8.445886688,-0.001131435391,0.004480944481,-0.007633541711,4
25.55446392,4.73764801,-2.026336212,8.480913849,0.002344946377,-0.0009969619568,-0.009833326563,4
25.57450592,4.689298553,-1.996548157,8.453221436,0.00286982581,-0.004627460614,-0.004377064295,4
25.59454892,4.634213104,-2.041155396,8.397387543,0.00459221378,0.001044078963,-0.002495496534,4
25.61459192,4.657564545,-2.028431854,8.416697388,0.002276769374,0.004004986957,-0.0027575735,4
25.63463392,4.683311005,-1.99026123,8.402776337,-0.002677775454,-0.0002968169283,0.0004326272756,4
25.65467692,4.663552094,-1.995350647,8.399932251,-0.003209388349,-0.002756111091,-0.002154912567,4
25.67471992,4.718188477,-2.047891388,8.400381317,0.01003860123,-0.007934067398,-0.008312159218,4
25.69476192,4.67447937,-2.05462738,8.43870163,0.03180796653,-0.03803319484,-0.007305721752,4
25.71480492,4.288731537,-1.904489594,8.617879028,0.01450669579,0.01044898666,0.08047737926,4
25.73484792,4.114194489,-1.804048462,8.135432281,-0.06729292125,-0.004295101389,0.09240090102,4
25.75488992,4.758454742,-1.97858551,8.248297577,-0.02987586893,-0.08988004178,0.05675579607,4
25.77493292,5.007387085,-1.842219086,8.753047943,0.007312807254,-0.2822499275,0.01488773338,4
25.79497592,5.009333038,-1.841919708,8.706195374,0.02912896872,-0.4623923004,-0.008645563386,4
25.81501892,4.639152832,-1.759441223,8.516839142,0.02544550598,-0.3513375521,0.01548079867,4
25.83506092,4.223616943,-1.774709473,7.995024261,-0.03172056749,-0.03978604078,0.04195903987,4
25.85510392,4.271367645,-1.605261841,7.230264587,-0.0693609491,-0.04836077243,0.09447254241,4
25.87514692,4.844525757,-1.778451691,7.957901459,-0.05104326829,-0.08502927423,0.1063949913,4
25.89518892,5.04421051,-1.901645508,8.309220886,-0.06031730399,-0.09194426239,0.09874294698,4
25.91523192,5.090763702,-2.231559448,8.836274872,-0.04987715185,-0.08080657572,0.1187182814,4
25.93527492,4.984185333,-1.994901581,8.549620972,-0.0583672598,-0.153076604,0.1265037358,4
25.95531692,5.077890472,-1.945953369,8.254285126,-0.05895283818,-0.1455290616,0.1100616157,4
25.97535992,5.109175415,-2.205962677,8.105045471,-0.06436919421,-0.07564909011,0.07495877147,4
25.99540292,5.294190674,-2.483186188,8.239016876,-0.06306914985,-0.03846931458,0.06091940776,4
26.01544492,5.508245544,-2.534828796,8.446485443,-0.0467351675,-0.03019109182,0.05758272484,4
26.03548792,5.438789978,-2.545307007,8.443791046,-0.03837259486,0.0104348436,0.05121884495,4
26.05552825,5.112618256,-2.413580933,8.133037262,-0.04334786534,0.0711728856,0.02527460642,4
26.07557025,4.891827393,-2.342778168,8.239615631,-0.04591808096,0.161788553,0.002225480741,4
26.09561325,4.967270508,-2.356100464,8.255033569,-0.04238270223,0.1572207958,-0.0139985159,4
26.11565625,5.142705688,-2.410736847,8.472680969,-0.02101103961,0.1364033222,-0.02545916103,5
26.13569925,5.153782654,-2.353256378,8.475075989,-0.02916994318,0.211667046,-0.05255364254,5
26.15574125,4.995711365,-2.285746765,8.312214661,-0.04642542824,0.2551631927,-0.0796707496,5
26.17578425,4.845723267,-2.225571899,8.305478668,-0.04981729388,0.269967258,-0.09269814193,5
26.19582725,4.664599915,-2.413281555,8.3170047,-0.05139089003,0.3157162964,-0.1313283443,5
26.21586925,4.664899292,-2.64320343,8.39648941,-0.04784389213,0.3971297145,-0.1820556819,5
26.23591225,4.659360809,-2.721790009,8.444240112,-0.042158328,0.4238201082,-0.2400065809,5
26.25595525,4.539759521,-2.760858765,8.374934235,-0.04466461018,0.4385820627,-0.2834571302,5
26.27599725,4.442162476,-2.523153076,8.441246338,-0.07176934183,0.4648910165,-0.2924953699,5
26.29604025,4.264182587,-2.68421814,8.560997314,-0.0635054186,0.4794213772,-0.2946592271,5
26.31608325,4.087998962,-2.749781799,8.62117218,-0.05403312296,0.4550442994,-0.3109422922,5
26.33612625,4.339775391,-2.918331299,8.629704437,-0.0666154474,0.5315077901,-0.3278570771,5
26.35616825,4.34217041,-3.371139679,8.510103149,-0.0520969443,0.5980530381,-0.2986017168,5
26.37621125,4.237088928,-3.49508194,8.540190582,-0.03885142878,0.6485806704,-0.341019243,5
26.39625425,4.477189636,-3.525618439,8.715027008,0.01365540549,0.7079071999,-0.451726824,5
26.41629625,4.866829376,-4.132456512,9.014853516,-0.02993563935,0.7349671125,-0.6585990191,5
26.43633925,5.30511795,-4.269421692,8.920998688,0.1341489255,0.4864644408,-0.7388669848,5
26.45638225,6.049669647,-3.710783386,10.39049286,0.389846772,0.1279180795,-0.5859072208,5
26.47642425,5.862558746,-3.312012634,11.81822388,0.4760049582,0.3036392331,-0.3342766464,5
26.49646725,5.445076904,-3.1346315,12.12613358,0.7152981162,0.02235493623,-0.2905803025,5
26.51651025,4.76578949,-3.040626984,9.171278229,0.917236805,-0.3141309321,-0.3305356801,5
26.53655325,3.996688843,-2.130818939,9.322164459,0.9460618496,-0.3418911994,-0.3273873031,5
26.55659525,4.911735992,-1.66858017,10.5651796,0.6711540818,0.03717436269,-0.4042144418,5
26.57663825,4.539011078,-1.71767807,10.4815036,0.9559455514,-0.04880299419,-0.5055069923,5
26.59668125,4.942122803,-0.9157955933,11.53980286,1.234364271,-0.05180432647,-0.3312544823,5
26.61672325,5.125192108,-1.003662872,11.45792313,1.501818419,0.05747182295,-0.2227354348,5
26.63676625,4.594545593,-1.278042297,10.58748322,1.461029887,0.252438128,-0.2657822669,5
26.65680925,4.733456726,-1.073268127,8.986562347,1.717899561,-0.1156676784,-0.4524922073,5
26.67685125,4.817132721,-1.197809143,9.213640137,1.793361306,-0.1897010356,-0.5914708972,5
26.69689425,5.173691254,-0.5063969421,9.266031189,1.715339184,-0.08009742945,-0.6093772054,5
26.71693725,5.118905182,-0.3800596619,9.815239105,1.735796213,-0.1076652184,-0.5820675492,5
26.73698025,4.946164398,0.3823049927,10.17404297,1.799622774,-0.1732740849,-0.5958176851,5
26.75702225,4.374353485,0.8095166016,9.495653687,1.904077649,-0.3663721085,-0.6606131792,5
26.77706525,3.890110474,0.9217831421,9.014105072,1.921703219,-0.4568549097,-0.7493053079,5
26.79710825,3.639980621,1.242416382,7.936046906,1.830391526,-0.4889509082,-0.863763392,5
26.81715025,3.196752319,1.780098267,7.467970276,1.792377472,-0.5672016144,-0.8987469673,5
26.83719325,3.384911041,2.870730286,7.205565948,1.781298637,-0.5411051512,-0.9359973669,5
26.85723625,3.584296417,3.668122101,7.270231476,1.638611078,-0.5013328791,-0.898679316,5
26.87727925,3.700005798,4.040547638,7.101083221,1.500641227,-0.3065527976,-0.8622797132,5
26.89732125,3.714675293,4.134252777,6.503226471,1.339061975,-0.1188990995,-0.8287957907,5
26.91736425,3.157533875,4.135450287,5.950426025,1.213650346,-0.0844681561,-0.7715159655,5
26.93740725,2.681374054,4.293521576,5.714217224,1.132145882,-0.1879237145,-0.7151840329,5
26.95744925,2.599194946,4.559518433,5.959557037,1.03331399,-0.2794215083,-0.6642159224,5
26.97749225,3.17205368,4.876559143,6.962621155,1.033188581,-0.1737326384,-0.6347008944,5
26.99753525,4.409380646,5.151387634,7.003336487,1.056439638,-0.06776649505,-0.6883127093,5
27.01757825,4.730912018,5.475912781,7.05333252,1.032633543,0.01527961064,-0.6909929514,5
27.03762025,4.54350174,5.966442719,7.378456421,1.037382483,0.09164656699,-0.6965538859,5
27.05766313,4.263434143,6.430627441,7.111711121,1.036442876,0.09751556814,-0.7408222556,5
27.07770612,3.91271347,6.725065155,7.115004272,1.055144548,0.1528952867,-0.7878837585,5
27.09774812,3.445834351,6.837481384,7.059469757,1.046383142,0.2457785159,-0.8469969034,5
27.11779112,3.347937927,6.956932983,6.824308777,1.072328925,0.3403129876,-0.8857914209,5
27.13783412,3.108435974,7.1889505,6.642436981,1.134071827,0.4234499633,-0.865913868,5
27.15787612,2.812800751,7.593708801,6.402036896,1.223907113,0.447070241,-0.8152962923,5
27.17791912,2.580932922,7.642806702,5.827681274,1.244662046,0.316568464,-0.7740851641,5
27.19796212,2.219584351,7.81734375,5.589975586,1.277161121,0.3556075096,-0.7008101344,5
27.21800512,1.961970062,7.837701416,5.631139984,1.339871526,0.4495556056,-0.6443016529,5
27.23804712,1.91541687,7.669451294,5.128634949,1.322183013,0.4479271472,-0.5962488055,5
27.25809012,1.757195892,7.332202606,4.55397995,1.269481659,0.4480555356,-0.5425906777,5
27.27813313,1.497635651,7.272776184,4.592000885,1.326885462,0.3956834972,-0.4707681537,5
27.29817512,1.383722534,7.289541321,4.563110962,1.407902598,0.3288874626,-0.3738344312,5
27.31821812,1.517095184,7.433691559,4.077670441,1.413160682,0.3263286054,-0.3048105836,5
27.33826112,1.373244324,7.562872925,3.330274658,1.346442699,0.3055866063,-0.317081362,5
27.35830412,0.9243278503,7.817643127,2.805615692,1.215762377,0.2666589022,-0.3695248365,5
27.37834612,0.08412506104,8.042475586,3.178490295,1.148198605,0.2271418571,-0.3587422967,5
27.39838912,-0.1462458801,8.18587738,3.519181824,1.101974607,0.04631854221,-0.3341783583,5
27.41843212,0.6126759338,8.357420654,3.394491119,1.067666173,-0.1174613759,-0.3306006491,5
27.43847412,1.051114197,8.632997589,3.432062988,1.175033569,-0.09914780408,-0.2757760286,5
27.45851713,1.257235565,8.913963318,3.015179901,1.073519468,0.04862959683,-0.2207668275,5
27.47856012,1.213077393,9.104666748,2.419568481,0.99526757,0.2023977786,-0.08577574044,5
27.49860312,1.024469604,8.867110748,2.320025482,1.012668967,0.2735356688,0.04710350931,5
27.51864512,1.154698792,8.41639801,2.063159637,0.9888576865,0.2816015482,0.0614776127,5
27.53868812,1.019230499,8.484057312,2.119891663,0.9834292531,0.2992237508,0.06991535425,5
27.55873112,1.006057892,8.853040009,2.127675476,0.9395745397,0.3441562355,0.09337645024,5
27.57877412,1.083596649,9.020541687,1.855840759,0.8984200358,0.4238262475,0.1386229843,5
27.59881612,0.9822573853,8.779243469,1.34555191,0.7843658328,0.4485890865,0.1706022769,5
27.61885912,0.6767427063,8.549022217,1.169368286,0.7647404075,0.3664911091,0.1941651255,5
27.63890212,0.6740483093,8.984317017,1.538051605,0.7745890021,0.2965709269,0.1514083445,5
27.65894412,0.6137237549,9.280251617,1.211131439,0.695941627,0.2262746096,0.08611427993,5
27.67898713,0.3963757324,9.30450119,1.072669373,0.7393333912,0.1259311438,0.03150749579,5
27.69903012,0.5053491211,9.208700409,0.855920105,0.711175561,0.1320421994,-0.1074277163,5
27.71907312,0.3773652649,9.206155701,0.479153595,0.6500408649,0.2372035384,-0.221265614,5
27.73911512,-0.02514770508,9.271869049,0.9939331055,0.713530004,0.3606937826,-0.3088905811,5
27.75915812,0.2995271301,9.626781006,0.8143066406,0.6598294973,0.3639470339,-0.3607039452,5
27.77920112,0.4498146057,9.666897583,0.1797761536,0.6101903319,0.2223483771,-0.3556537926,5
27.79924312,0.5746549988,9.845176849,0.2092648315,0.5700283051,0.05844910815,-0.3166134655,5
27.81928612,0.8791218567,9.901160431,0.2204914856,0.5088084936,-0.03659004346,-0.2516725361,5
27.83932912,0.6483018494,9.361682281,-0.3037184143,0.4803842902,-0.03058718517,-0.1835992038,5
27.85937212,0.5769003296,9.455986176,0.2637515259,0.4482673407,0.04991854727,-0.2127073258,5
27.87941412,0.5451663208,9.529932404,-0.009729766846,0.3838335574,0.06211544946,-0.198971495,5
27.89945713,0.3962260437,9.509724426,-0.325872345,0.3883390725,0.003115904983,-0.1980463266,5
27.91950012,0.5526507568,9.702972565,0.0520916748,0.3825390637,0.007446726318,-0.2451730818,5
27.93954312,0.7893086243,9.854607239,0.1251397705,0.2966271341,0.03021005914,-0.2391908616,5
27.95958512,0.9316625977,9.823172607,0.1496887207,0.2769983709,0.05612409115,-0.1942398548,5
27.97962812,0.9897418213,9.713001709,-0.1170565796,0.2551470101,0.09302293509,-0.1454587579,5
27.99967112,0.7315287781,9.656119995,-0.3394940186,0.2631673217,0.2098862082,-0.1343874484,5
28.01971312,0.6941065979,9.875863037,0.1320254517,0.2443559021,0.2651917934,-0.1399249583,5
28.03975612,0.5313949585,9.67542984,-0.3487747192,0.2203885019,0.2086302936,-0.1135831177,5
28.059799,0.4095483398,9.79952179,-0.2781216431,0.2517791688,0.2023839802,-0.1333091259,5
28.079842,0.45984375,9.689201202,-0.4361929321,0.2451589108,0.2162457705,-0.1363041401,5
28.099884,0.3716770935,9.69414093,-0.4104464722,0.2702897489,0.2204916924,-0.1378945708,5
28.119927,0.3044668579,9.728269958,-0.3589535522,0.2645284235,0.225900203,-0.1482135206,5
28.13997,0.2535726929,9.778864746,-0.5180726624,0.2414681017,0.2089877874,-0.1400972605,5
28.160013,0.2070195007,9.783804474,-0.5845344543,0.249943167,0.1879951805,-0.1394016743,5
28.180055,0.1484912109,9.768386536,-0.6496490479,0.2106926441,0.1481612623,-0.1239944547,5
28.200098,0.1758842468,9.88484436,-0.8099656677,0.1810552925,0.1103148237,-0.09620998055,5
28.220141,0.2059716797,9.938582611,-0.5786965942,0.1485332698,0.08385466039,-0.07364954054,5
28.240183,0.3109034729,9.867630157,-0.6240522766,0.1049167588,0.03105672263,-0.05513203144,5
28.260226,0.2814147949,9.935738525,-0.5135820007,0.09209144861,0.04210279509,-0.04666051641,5
28.280269,0.3466790771,9.859696655,-0.4668791199,0.05975249782,0.02436803654,-0.03347070515,5
28.300312,0.3899391174,9.790690155,-0.8755293274,0.07928474993,0.05581729487,-0.02866581455,5
28.320354,0.4206253052,9.848020935,-0.5186714172,0.07907490432,0.07395666838,-0.007998093031,5
28.340397,0.4351451111,9.70581665,-0.8246351624,0.06952017546,0.0360824354,-0.001204089262,5
28.36044,0.3040177917,9.735604706,-0.8363108826,0.0842018351,0.03214475513,-0.01770318858,5
28.380483,0.2167492676,9.720935211,-0.8104147339,0.08222716302,0.05425525084,-0.01491643675,5
28.400525,0.2155517578,9.801617432,-0.8508306885,0.0741821602,0.03575235605,-0.01471885107,5
28.420568,0.2863545227,9.860445099,-0.8378077698,0.06748639047,0.0273938477,-0.01196246408,5
28.440611,0.2812651062,9.822124786,-0.9376501465,0.05648586154,0.04880568758,-0.01161545143,5
28.460653,0.2577639771,9.703271942,-0.950223999,0.05672908574,0.07364975661,-0.01385863405,5
28.480696,0.2243833923,9.753267975,-0.8988807678,0.06164910272,0.07594192773,-0.02034342289,5
28.500739,0.1442999268,9.843530273,-0.9026229858,0.06319373846,0.06204347312,-0.03291516006,5
28.520782,0.076640625,9.770033112,-0.9060658264,0.05726237595,0.06163527817,-0.0368960388,5
28.540824,-0.03218307495,9.86733078,-0.8665480042,0.05279660225,0.0379405804,-0.03182032704,5
28.560867,0.06825805664,9.838590546,-0.9633966064,0.03696789965,-0.02229754068,-0.02852173522,5
28.58091,0.1919009399,9.742640076,-1.079555054,0.03724674881,-0.0363872014,-0.01648984291,5
28.600953,0.1826202393,9.745184784,-0.9821076965,0.02786249295,-0.03158944845,-0.004893395118,5
28.620995,0.1935475159,9.830357666,-0.9346563721,0.0196629297,-0.00830876641,0.0004140266683,5
28.641038,0.1707948303,9.904004517,-0.8927435303,0.01292259246,0.01030385494,-0.001442439621,5
28.661081,0.1766326904,9.774523773,-0.8641529846,-0.02475903183,-0.0273167789,0.008556895889,5
28.681124,0.219743042,9.693093109,-0.9430389404,-0.012567522,-0.0639898479,0.0167578496,5
28.701166,0.1922003174,9.735754395,-0.8454418945,0.006942749955,-0.02630198561,0.01028529555,5
28.721209,0.2080673218,9.707762604,-0.8753796387,-0.007378417999,0.03045865707,-0.002361229854,5
28.741252,0.2891986084,9.723180542,-0.9449848938,-0.005331101827,0.0541636683,-0.00149519369,5
28.761294,0.2644999695,9.774673462,-0.9141490173,0.007006459869,0.04034508765,0.0115665663,5
28.781337,0.1957928467,9.72812027,-0.8940907288,-0.02063101158,0.02640057169,0.02132571675,5
28.80138,0.2221380615,9.77961319,-0.8876541138,-0.05308180302,0.002555942163,0.02819934487,5
28.821423,0.2164498901,9.778864746,-0.8927435303,-0.05650915205,-0.006493050605,0.02740811743,5
28.841465,0.1580712891,9.728419647,-0.8538244629,-0.06045085937,0.01668802276,0.01933526993,5
28.861508,0.1362167358,9.718839569,-0.8415499878,-0.04952035472,0.037805859,0.01767318323,5
28.881551,0.1432521057,9.709109802,-0.7373666382,0.01451414637,0.0469211638,0.01743776165,5
28.901594,-0.0,9.941576385,-0.6574328613,0.05131712183,0.07201200724,0.003868149593,5
28.921636,0.0628692627,10.11985565,-0.6366261292,0.01641066186,0.09153015167,-0.009142188355,5
28.941679,0.1466949463,9.636510773,-0.9731263733,-0.01024791133,0.05342327803,-0.006684604567,5
28.961722,0.1145118713,9.576186218,-1.138831787,0.03144004196,-0.001003738726,-0.004426273983,5
28.981765,0.1588197327,9.722731476,-1.018332367,0.03117109276,-0.03936277702,0.004493465647,5
29.001807,0.1076261902,9.781259766,-0.8631051636,-0.02500547282,-0.04958301783,0.006921482272,5
29.02185,0.01092727661,9.858499146,-0.8201445007,-0.0617447868,-0.0651184395,0.01061343402,5
29.04189279,0.07888595581,9.816885681,-0.8373587036,-0.08783406019,-0.08570714295,0.02489085495,5
29.06193479,0.1999841309,9.763446808,-0.9065148926,-0.1100373194,-0.119128719,0.04091168195,5
29.08197779,0.2790197754,9.657018127,-0.9565109253,-0.1144552976,-0.1591457278,0.04283604398,5
29.10202079,0.3484753418,9.651329956,-0.9005273438,-0.1113386154,-0.1653685272,0.04292073846,5
29.12206379,0.3598516846,9.721533966,-0.7265890503,-0.08035429567,-0.1271728724,0.03835237771,5
29.14210579,0.3429368591,9.922565918,-0.4306544495,-0.0329099223,-0.06588687003,0.02623523213,5
29.16214879,0.4204756165,10.00339783,-0.4096980286,-0.02520625852,0.004823558033,0.01799996197,5
29.18219179,0.3918850708,9.748178558,-0.7430548096,-0.02375281602,0.01705700904,0.01432772167,5
29.20223479,0.3835025024,9.639055481,-0.8999285889,-0.005310676992,-0.01225666422,0.01197856106,5
29.22227679,0.3531156921,9.666298828,-0.7924520874,0.007560475729,-0.008885063231,0.008287679404,5
29.24231979,0.2597099304,9.79592926,-0.6556365967,-0.001153042307,0.02725188062,0.0003818161786,5
29.26236279,0.2369572449,9.869576111,-0.6313870239,-0.01313700154,0.03936819732,-0.002481614705,5
29.28240579,0.2285746765,9.835596771,-0.6545887756,-0.01260916237,0.008346364833,0.009262925945,5
29.30244779,0.2246827698,9.763297119,-0.7429051208,-0.01266162377,-0.0204855036,0.007690835744,5
29.32249079,0.266894989,9.764644318,-0.8529263306,-0.01091595739,-0.009421831928,0.003536605742,5
29.34253379,0.2052232361,9.791588287,-0.8514294434,-0.00643683318,0.00774477981,0.0002111115027,5
29.36257579,0.1959425354,9.840237122,-0.7890092468,-0.002391947201,0.0321187526,-0.001511941664,5
29.38261879,0.1689985657,9.821825409,-0.7170089722,-0.00323785725,0.03122799098,0.00813985616,5
29.40266179,0.214354248,9.77257782,-0.6845265198,-0.01645238698,0.009811311029,0.009425649419,5
29.42270479,0.2812651062,9.814939728,-0.7379653931,-0.01837282255,-0.01666244119,0.01484597009,5
29.44274679,0.3942800903,9.764045563,-0.7529342651,-0.01058838796,-0.01577293873,0.01142116077,5
29.46278979,0.413739624,9.72572525,-0.7268884277,0.00290215062,0.005951063707,0.006224274635,5
29.48283279,0.4206253052,9.714199219,-0.7282356262,0.007072771899,0.03267624974,-0.0006935610436,5
29.50287579,0.4092489624,9.772278442,-0.7226971436,0.02152491547,0.05036271736,-0.009078516625,5
29.52291779,0.4334985352,9.765692139,-0.6661148071,0.02928781323,0.06100861356,-0.007108321879,5
29.54296079,0.4667294312,9.738448792,-0.6979985046,0.01933689788,0.06752802432,0.0037871846,5
29.56300379,0.4555027771,9.800270233,-0.6143225098,0.03466268256,0.05312057585,0.009328172542,5
29.58304679,0.4607418823,9.798473969,-0.6441105652,0.02909178659,0.07769805193,0.009838175029,5
29.60308879,0.4369413757,9.752220154,-0.7152127075,0.0213018544,0.09963848442,0.01364303101,5
29.62313179,0.4158352661,9.787995758,-0.6529421997,0.02622223087,0.09963636845,0.008130556904,5
29.64317479,0.3047662354,9.788594513,-0.712817688,0.01400881819,0.1000947505,0.00468949182,5
29.66321679,0.274379425,9.811347198,-0.659229126,-0.0002695929725,0.1022150517,0.003174935933,5
29.68325979,0.2812651062,9.793384552,-0.6938072205,-0.01068191137,0.07833345979,0.007770760451,5
29.70330279,0.2962339783,9.743238831,-0.7536827087,-0.00171417254,0.05163412914,0.01506703533,5
29.72334579,0.286204834,9.79248642,-0.7176077271,0.004238006193,0.04810544103,0.01841170341,5
29.74338779,0.264200592,9.771829376,-0.6855743408,0.0005838552024,0.04454106465,0.01736879349,5
29.76343079,0.2691403198,9.754914551,-0.6987469482,0.002807735931,0.03755921498,0.01153300703,5
29.78347379,0.2618055725,9.76314743,-0.7083270264,-0.005873604678,0.04107683524,0.006033568643,5
29.80351679,0.2562670898,9.77841568,-0.7271878052,-0.009062549099,0.03953040391,0.009137725458,5
29.82355879,0.2499801636,9.832902374,-0.7149133301,-0.007201081142,0.011853748,0.0131474128,5
29.84360179,0.2562670898,9.852361908,-0.7466473389,-0.01180821098,-0.009072995745,0.01888520829,5
29.86364479,0.296383667,9.790540466,-0.7711962891,-0.01779076271,-0.01615915075,0.01540495828,5
29.88368779,0.2995271301,9.738448792,-0.7217990112,-0.008713911287,-0.02517128736,0.01525688637,5
29.90372979,0.2730322266,9.744735718,-0.7237449646,-0.01044993382,-0.01948305406,0.006335312035,5
29.92377279,0.3279679871,9.825417938,-0.7384144592,-0.0135245733,-0.007596415468,0.006882876158,5
29.94381579,0.3588038635,9.777068481,-0.6849755859,-0.01282895356,-0.01857769489,0.01439165883,5
29.96385879,0.3496728516,9.812694397,-0.646355896,-0.02203811333,-0.01617396064,0.02193077281,5
29.98390079,0.3490740967,9.818532257,-0.6634204102,-0.02743023448,-0.0203997083,0.027849406,5
30.00394379,0.3399430847,9.764794006,-0.780327301,-0.01990826055,-0.03658410907,0.0264464505,5
30.02398679,0.2915936279,9.758207703,-0.786763916,-0.02235954441,-0.02950946428,0.01884391904,5
30.04403,0.3481759644,9.766290894,-0.7129673767,-0.02832312696,-0.01660712995,0.01911208965,5
30.064072,0.3748205566,9.806407471,-0.6605763245,-0.02398826927,-0.02671051398,0.02513215318,5
30.084115,0.3680845642,9.766290894,-0.6541397095,-0.01916055568,-0.01605836861,0.0179871805,5
30.104158,0.4005670166,9.768985291,-0.5020559692,0.05900878087,0.02861358225,-0.00227573188,5
30.1242,0.2877017212,9.909243622,-0.4650828552,0.07129305601,0.1340489984,-0.04283516109,5
30.144243,0.4107458496,9.929002533,-0.8039781189,0.009952353314,0.1469963938,-0.04530869424,5
30.164286,0.5598358154,9.640103302,-0.7702981567,0.003054154571,0.04979050532,0.0002265691292,5
30.184329,0.4306544495,9.535770264,-1.151854706,-0.006231378298,-0.02140022069,0.02343973704,5
30.204371,0.3673361206,9.772727509,-0.8611592102,0.02731900103,-0.03957693279,0.02445839345,5
30.224414,0.3329077148,9.916129303,-0.4983137512,0.007268968038,-0.01407898311,0.02548265271,5
30.244457,0.3649411011,9.847721558,-0.7176077271,-0.03862667829,-0.021887023,0.02770132944,5
30.2645,0.3776646423,9.825867004,-0.7834707642,-0.02570966072,-0.02669679187,0.02576095983,5
30.284542,0.3917353821,9.767189026,-0.6893165588,-0.01824961416,-0.003854592564,0.01872435585,5
30.304585,0.3746708679,9.762099609,-0.6876699829,-0.03113180771,-0.004354286939,0.002313947305,5
30.324628,0.3754193115,9.718989258,-0.6218069458,-0.03180253506,-0.005197340623,-0.006474749185,5
30.344671,0.3709286499,9.706714783,-0.7743397522,-0.0156023372,-0.03867831081,-0.004867528565,5
30.364713,0.3447331238,9.702224121,-0.8813671875,0.0204736907,-0.03306205943,-0.007469449192,5
30.384756,0.3492237854,9.729467468,-0.6903643799,0.01319105551,0.01045464911,-0.008063062094,5
30.404799,0.4135899353,9.75850708,-0.627046051,-0.001433459576,-0.00182397454,0.0009301742539,5
30.424842,0.4544549561,9.900411987,-0.5373825073,-0.0009397717658,-0.02983022667,0.01184167713,5
30.444884,0.480201416,9.80760498,-0.6340814209,-0.03053792194,-0.02659567632,0.01542175934,5
30.464927,0.4041595459,9.744735718,-0.7108717346,-0.02615772747,-0.04052370414,0.01650512591,5
30.48497,0.2929408264,9.778864746,-0.7773335266,-0.008001719601,-0.006419786252,0.007139573805,5
30.505013,0.3115022278,9.792037354,-0.7084767151,-0.02897107787,-0.02032628655,0.0136374468,5
30.525055,0.3540138245,9.779313812,-0.7006929016,-0.03146985918,-0.04379041493,0.02930828743,5
30.545098,0.3715274048,9.851763153,-0.5698649597,-0.03571471572,-0.03248648718,0.03156371415,5
30.565141,0.4267625427,9.806856537,-0.7204518127,-0.04061982036,-0.03472485766,0.02480273694,5
30.585183,0.4513114929,9.730066223,-0.7481442261,-0.01294219866,-0.01710615866,0.01693895645,5
