time,seconds_elapsed,z,y,x
1780528426326891800,-0.323108154296875,0.15562310814857483,0.0454898327589035,0.047884032130241394
1780528426357195800,-0.29280419921875,0.3663128614425659,1.9608511924743652,0.3902548849582672
1780528426367297300,-0.28270263671875,0.12449848651885986,0.10773907601833344,0.1412578970193863
1780528426377368000,-0.2726318359375,0.33758243918418884,-0.790086567401886,-0.19871874153614044
1780528426397540000,-0.2524599609375,0.023942016065120697,-0.38307225704193115,-0.6560112833976746
1780528426407611000,-0.24238916015625,0.19153612852096558,-0.016759412363171577,-0.2106897532939911
1780528426417712000,-0.232287841796875,0.31842881441116333,0.1388636976480484,-0.1412578970193863
1780528426427783000,-0.222217041015625,0.2992752194404602,0.090979665517807,-0.33279404044151306
1780528426458056400,-0.191943603515625,0.17956513166427612,0.1628057211637497,-0.28730419278144836
1780528426468157700,-0.18184228515625,0.21787235140800476,0.10055647045373917,-0.11252748221158981
1780528426488299300,-0.16170068359375,0.21308395266532898,-0.1843535304069519,0.19393034279346466
1780528426498370000,-0.1516298828125,0.17956513166427612,-0.13407529890537262,0.17717093229293823
1780528426518481200,-0.131518798828125,-0.05985504388809204,0.12210428714752197,0.15801730751991272
1780528426528582700,-0.121417236328125,-0.07422025501728058,0.23702596127986908,0.14604631066322327
1780528426548724200,-0.10127587890625,-0.08140286058187485,0.28969839215278625,0.15801730751991272
1780528426599047700,-0.050952392578125,-0.011971008032560349,0,0
1780528426609149000,-0.04085107421875,-0.10295066982507706,0.047884032130241394,-0.023942016065120697
1780528426619250200,-0.030749755859375,-0.004788403399288654,0.1173158809542656,-0.15322890877723694
1780528426629321200,-0.0206787109375,0.026336219161748886,0.15801730751991272,-0.20111294090747833
1780528426639422500,-0.01057763671875,0.009576806798577309,0.18914192914962769,-0.12210428714752197
1780528426659594500,0.009594482421875,0.035913024097681046,0.13407529890537262,-0.16519992053508759
1780528426679766500,0.0297666015625,0.2801215946674347,-0.033518824726343155,-0.021547814831137657
1780528426689837600,0.039837646484375,0.33279404044151306,-0.004788403399288654,-0.08858546614646912
1780528426699908400,0.049908447265625,0.2801215946674347,-0.07182604819536209,-0.14604631066322327
1780528426710009600,0.060009521484375,0.26096799969673157,-0.06224924325942993,-0.18914192914962769
1780528426730151200,0.080151123046875,0.21787235140800476,-0.038307227194309235,-0.0694318488240242
1780528426740222000,0.090221923828125,0.1628057211637497,-0.026336219161748886,-0.1149216815829277
1780528426760363500,0.110363525390625,0.20350714027881622,0.10773907601833344,0.0071826050989329815
1780528426770434300,0.120434326171875,0.1628057211637497,0.1149216815829277,-0.031124621629714966
1780528426780505000,0.130505126953125,0.18914192914962769,0.043095629662275314,0.002394201699644327
1780528426790575900,0.140575927734375,0.1173158809542656,0.09576806426048279,0.023942016065120697
1780528426800707800,0.150707763671875,0.07182604819536209,0.11013327538967133,-0.021547814831137657
1780528426820880000,0.1708798828125,0.023942016065120697,0.019153613597154617,-0.07900865375995636
1780528426830950700,0.18095068359375,0.05267243832349777,-0.016759412363171577,-0.0694318488240242
1780528426841052200,0.19105224609375,0.033518824726343155,0.22026655077934265,-0.08140286058187485
1780528426851153400,0.2011533203125,0.09576806426048279,0.1867477297782898,0.0071826050989329815
1780528426861254700,0.211254638671875,0.08858546614646912,0.21787235140800476,-0.016759412363171577
1780528426871356000,0.22135595703125,0.05027823522686958,0.15083470940589905,-0.05746084079146385
1780528426881457400,0.23145751953125,0.06224924325942993,0.11971008777618408,-0.035913024097681046
1780528426931903000,0.281903076171875,0.13407529890537262,-0.0694318488240242,0.13407529890537262
1780528426992358100,0.342358154296875,0.16998831927776337,-0.014365210197865963,0.026336219161748886
1780528427002429000,0.352428955078125,0.15322890877723694,-0.014365210197865963,-0.040701430290937424
1780528427012499700,0.362499755859375,0.043095629662275314,0,0.043095629662275314
1780528427022570500,0.372570556640625,0.035913024097681046,0.031124621629714966,0.06224924325942993
1780528427032672000,0.382672119140625,0.035913024097681046,-0.004788403399288654,0
1780528427042742800,0.39274267578125,0.08619125932455063,-0.05746084079146385,-0.016759412363171577
1780528427052813600,0.4028134765625,-0.0071826050989329815,-0.12689268589019775,-0.06464344263076782
1780528427072955100,0.422955078125,0.07182604819536209,0.028730420395731926,-0.11013327538967133
1780528427103228700,0.453228759765625,0.12928688526153564,0.10534487664699554,-0.10295066982507706
1780528427113299500,0.463299560546875,0.07422025501728058,0.12210428714752197,-0.20350714027881622
1780528427123400700,0.473400634765625,0.090979665517807,0.1843535304069519,-0.29209262132644653
1780528427143542300,0.493542236328125,0.10773907601833344,0.3016694188117981,-0.5171475410461426
1780528427153643500,0.5036435546875,0.10295066982507706,0.3280056416988373,-0.667982280254364
1780528427183886600,0.533886474609375,-0.014365210197865963,0.4189853072166443,-0.7829039692878723
1780528427204028200,0.554028076171875,-0.1364694982767105,0.5913678407669067,-0.768538773059845
1780528427214099000,0.564098876953125,-0.08379705995321274,0.6009446382522583,-0.8140285611152649
1780528427224139300,0.57413916015625,-0.12210428714752197,0.5841852426528931,-0.9744400978088379
1780528427234240500,0.584240478515625,-0.07661445438861847,0.7158663272857666,-1.1971008777618408
1780528427244280800,0.59428076171875,0.14365209639072418,0.7781155705451965,-1.4939818382263184
1780528427254351600,0.6043515625,0.26096799969673157,0.9457096457481384,-1.9129672050476074
1780528427264452900,0.614452880859375,0.33758243918418884,1.4293384552001953,-2.315192937850952
1780528427294726400,0.644726318359375,-0.4908113479614258,2.4372973442077637,-3.0095114707946777
1780528427304797200,0.654797119140625,-1.2449848651885986,2.5905263423919678,-3.071760892868042
1780528427314868000,0.664867919921875,-1.1851298809051514,2.5665841102600098,-3.4787750244140625
1780528427324969200,0.67496923828125,-0.9217676520347595,2.3989901542663574,-3.665522813796997
1780528427335040000,0.6850400390625,-0.7565677165985107,2.070984363555908,-3.4117374420166016
1780528427345110800,0.69511083984375,-0.19871874153614044,1.479616641998291,-3.1723172664642334
1780528427355181600,0.705181640625,0.6751648783683777,0.7230489253997803,-3.179499864578247
1780528427365252600,0.715252685546875,1.7621324062347412,-0.22026655077934265,-3.1244332790374756
1780528427395526000,0.74552587890625,2.9233202934265137,-3.0885202884674072,-1.941697597503662
1780528427405627100,0.755627197265625,3.928884983062744,-3.488351821899414,-1.2521674633026123
1780528427415728600,0.765728759765625,4.211400985717773,-3.9647979736328125,-0.47644615173339844
1780528427425830000,0.775829833984375,3.778050184249878,-4.438849925994873,0.18914192914962769
1780528427435900700,0.785900634765625,3.620033025741577,-4.920084476470947,0.9959878921508789
1780528427446002000,0.796001953125,3.93367338180542,-5.655104637145996,2.8395233154296875
1780528427456103400,0.806103515625,3.7277719974517822,-5.2911858558654785,3.2561142444610596
1780528427466204700,0.81620458984375,3.3446998596191406,-4.553771495819092,3.3854012489318848
1780528427486407200,0.8364072265625,1.1540051698684692,-2.698265314102173,2.827552318572998
1780528427506640400,0.856640380859375,0.1412578970193863,-2.1547815799713135,2.801215887069702
1780528427516711200,0.866711181640625,0.4692635238170624,-2.5019407272338867,2.784456491470337
1780528427526812700,0.876812744140625,0.608127236366272,-3.043030261993408,2.7485435009002686
1780528427536914000,0.886913818359375,1.115697979927063,-3.5242648124694824,2.5546131134033203
1780528427547015200,0.89701513671875,1.5442601442337036,-4.089296340942383,2.4013843536376953
1780528427557116400,0.907116455078125,1.6903064250946045,-4.402936935424805,2.183511972427368
1780528427567187200,0.917187255859375,1.237802267074585,-4.503493309020996,1.9369091987609863
1780528427577288700,0.927288818359375,0.5219359993934631,-4.469974517822266,1.800439715385437
1780528427587390000,0.937389892578125,-0.4596867263317108,-4.240131378173828,1.6136919260025024
1780528427597491200,0.9474912109375,-0.8667010068893433,-3.8091750144958496,1.7836803197860718
1780528427607592700,0.9575927734375,-0.6751648783683777,-3.584120035171509,1.647210717201233
1780528427617632800,0.9676328125,-0.8451532125473022,-3.383007049560547,1.5753847360610962
1780528427627734300,0.977734375,-1.0630255937576294,-3.179499864578247,1.556231141090393
1780528427637835500,0.98783544921875,-0.9217676520347595,-2.9089550971984863,1.558625340461731
1780528427647936800,0.997936767578125,-1.1468225717544556,-2.513911724090576,1.278503656387329
1780528427658007600,1.008007568359375,-1.0199298858642578,-2.1499931812286377,1.1300631761550903
1780528427678240800,1.02824072265625,-2.1930887699127197,-0.9193734526634216,0.7015010714530945
1780528427688311600,1.0383115234375,-3.3039982318878174,-0.3687070608139038,0.933738648891449
1780528427698412800,1.048412841796875,-3.4093432426452637,-0.24181437492370605,1.0319008827209473
1780528427718646000,1.06864599609375,-1.403002142906189,-1.192312479019165,0.8954314589500427
1780528427728747300,1.078747314453125,0.043095629662275314,-1.1468225717544556,0.4118026793003082
1780528427738818000,1.088818115234375,0.706289529800415,-0.4644751250743866,-0.22744916379451752
1780528427748950000,1.098949951171875,-0.44771572947502136,0.29209262132644653,-0.3878606855869293
1780528427759051300,1.10905126953125,-2.2026655673980713,0.8882488012313843,0.14604631066322327
1780528427769152500,1.119152587890625,-3.2632968425750732,1.3527239561080933,0.7350199222564697
1780528427819628800,1.16962890625,-3.445256233215332,3.9815573692321777,1.5490485429763794
1780528427829730000,1.17972998046875,-3.3470940589904785,3.976768970489502,2.030282974243164
1780528427849963300,1.19996337890625,-2.3726539611816406,3.6296098232269287,2.7533318996429443
1780528427860064500,1.210064453125,-1.5729905366897583,3.423708438873291,2.9257144927978516
1780528427870165800,1.220165771484375,-1.139639973640442,3.050212860107422,2.940079689025879
1780528427880267300,1.230267333984375,-1.0055646896362305,2.942473888397217,2.9927520751953125
1780528427890368500,1.240368408203125,-0.8643068075180054,2.7988216876983643,3.313575267791748
1780528427900439300,1.250439208984375,-0.44532153010368347,2.7078421115875244,3.620033025741577
1780528427910571000,1.260571044921875,-0.07422025501728058,2.343923568725586,3.6942532062530518
1780528427930773800,1.280773681640625,0.6344634294509888,1.5634137392044067,3.098097085952759
1780528427940875000,1.290875,0.8164227604866028,-0.20350714027881622,1.8076223134994507
1780528427950976300,1.300976318359375,0.5386953949928284,-0.7230489253997803,1.6352397203445435
1780528427961077800,1.311077880859375,0.33758243918418884,-1.0055646896362305,1.3982137441635132
1780528427971179000,1.321178955078125,-0.004788403399288654,-1.161187767982483,1.0462661981582642
1780528428001513500,1.351513427734375,-0.1412578970193863,-1.764526605606079,-0.22266076505184174
1780528428011645400,1.3616455078125,-0.3447650372982025,-2.1332337856292725,-0.9552865028381348
1780528428021746700,1.37174658203125,-0.9744400978088379,-2.3032219409942627,-1.139639973640442
1780528428031848000,1.381847900390625,-1.4628572463989258,-2.5043349266052246,-1.6519991159439087
1780528428041980000,1.39197998046875,-1.460463047027588,-2.403778553009033,-2.164358377456665
1780528428062182400,1.412182373046875,-1.3742717504501343,-1.680729627609253,-2.43011474609375
1780528428072283600,1.42228369140625,-0.7829039692878723,-1.280897855758667,-2.7509377002716064
1780528428092516900,1.442516845703125,-0.5267243981361389,-0.8762778043746948,-3.5960910320281982
1780528428102618000,1.4526181640625,-0.40462008118629456,-0.6584054827690125,-3.0119056701660156
1780528428112719600,1.4627197265625,-0.42377370595932007,-0.3902548849582672,-2.762908697128296
1780528428122820900,1.47282080078125,-1.0630255937576294,-0.19153612852096558,-2.9544448852539062
1780528428173388500,1.523388427734375,-2.2218191623687744,-0.4596867263317108,-2.145204782485962
1780528428183459300,1.533459228515625,-1.2737152576446533,-0.8236053586006165,-2.8227639198303223
1780528428193530000,1.543530029296875,-0.31124621629714966,-1.0295066833496094,-3.4572272300720215
1780528428203601000,1.553600830078125,-0.12928688526153564,-0.811634361743927,-3.6104562282562256
1780528428213671700,1.563671630859375,-0.40701428055763245,-0.3926490843296051,-3.1459810733795166
1780528428223773000,1.57377294921875,-1.1875240802764893,0.2753331959247589,-2.142810583114624
1780528428233843700,1.58384375,-2.0422539710998535,0.9457096457481384,-1.3072341680526733
1780528428243945200,1.5939453125,-2.853888511657715,1.3958195447921753,-0.9050082564353943
1780528428254046500,1.60404638671875,-2.382230758666992,1.3000515699386597,-1.1013327836990356
1780528428264147700,1.614147705078125,-0.8068459630012512,1.4915876388549805,-1.5059528350830078
1780528428274188000,1.62418798828125,2.6024973392486572,1.1204863786697388,-2.765302896499634
1780528428284258800,1.6342587890625,3.825934410095215,1.1516109704971313,-3.4955344200134277
1780528428294329600,1.64432958984375,1.8339585065841675,1.5059528350830078,-2.985569477081299
1780528428304400400,1.654400390625,-0.6751648783683777,0.9217676520347595,-1.8914192914962769
1780528428314471200,1.66447119140625,-1.9512743949890137,0.395043283700943,-0.8092401623725891
1780528428324542000,1.6745419921875,-1.9321208000183105,0.5746083855628967,-0.05027823522686958
1780528428334612700,1.68461279296875,-1.3670891523361206,1.0462661981582642,0.0454898327589035
1780528428344653000,1.694653076171875,-0.6775590777397156,0.8595184087753296,-0.11013327538967133
1780528428354754600,1.704754638671875,-0.6129156351089478,0.2585737705230713,-0.2298433631658554
1780528428364825300,1.714825439453125,-0.7733271718025208,-0.08858546614646912,-0.15322890877723694
1780528428374926600,1.724926513671875,-0.4596867263317108,-0.3471592366695404,0.19153612852096558
1780528428384997400,1.734997314453125,-0.3711012601852417,-0.6129156351089478,0.31603461503982544
1780528428395037700,1.74503759765625,0.19393034279346466,-0.43095630407333374,0.5602431893348694
1780528428405108500,1.7551083984375,0.49799394607543945,0.05985504388809204,0.47165772318840027
1780528428415209700,1.765209716796875,0.49320554733276367,0.009576806798577309,0.24181437492370605
1780528428425311000,1.77531103515625,0.4118026793003082,-0.21787235140800476,-0.1149216815829277
1780528428435381800,1.7853818359375,0.8259995579719543,-0.17717093229293823,-0.08140286058187485
1780528428455523600,1.805523681640625,0.7972691655158997,-0.11013327538967133,0.9313444495201111
1780528428465624800,1.815624755859375,0.4596867263317108,-0.043095629662275314,1.036689281463623
1780528428475695600,1.825695556640625,0.31842881441116333,-0.3687070608139038,0.608127236366272
1780528428485766400,1.835766357421875,0.11252748221158981,-0.6105214357376099,0.004788403399288654
1780528428495867600,1.84586767578125,0.4596867263317108,-0.36152446269989014,-0.8020575642585754
1780528428505969200,1.85596923828125,0.5339069962501526,-0.28730419278144836,-1.41257905960083
1780528428516070400,1.8660703125,0.49559974670410156,0.14604631066322327,-1.7525556087493896
1780528428596789200,1.946789306640625,2.559401512145996,-2.2242133617401123,-0.5339069962501526
1780528428606860000,1.956860107421875,2.0829553604125977,-2.52109432220459,-0.15562310814857483
1780528428677355800,2.027355712890625,-0.5746083855628967,-0.8355764150619507,1.2258312702178955
1780528428747912400,2.097912353515625,-0.6631938815116882,-0.2059013396501541,0.3734954595565796
1780528428828570400,2.1785703125,-0.4692635238170624,0.1628057211637497,0.21308395266532898
1780528428838671600,2.188671630859375,0.8212111592292786,-0.011971008032560349,0.2585737705230713
1780528428848742400,2.198742431640625,2.094926595687866,0.45010992884635925,0.6033388376235962
1780528428858813200,2.208813232421875,2.6599581241607666,0.47165772318840027,0.6488286852836609
1780528428909228300,2.259228271484375,-0.10295066982507706,1.3958195447921753,0.8379706144332886
1780528428969683700,2.31968359375,0.040701430290937424,-2.557007312774658,-1.1468225717544556
1780528429030230500,2.38023046875,0.033518824726343155,0.42377370595932007,-0.8690952062606812
1780528429040301300,2.39030126953125,0.21308395266532898,-0.8236053586006165,-0.8690952062606812
1780528429050372000,2.4003720703125,0.24899697303771973,-0.9864110946655273,-0.7134721279144287
1780528429060473300,2.410473388671875,0.2513911724090576,-0.6105214357376099,-0.5482721924781799
1780528429070574800,2.420574951171875,0.11013327538967133,-0.3878606855869293,-0.5482721924781799
1780528429080676000,2.430676025390625,-0.4118026793003082,-0.5291185975074768,-0.42856210470199585
1780528429090777300,2.44077734375,-0.0694318488240242,0.5195417404174805,-0.304063618183136
1780528429121020400,2.4710205078125,0.27054479718208313,-0.3926490843296051,-0.993593692779541
1780528429151263200,2.50126318359375,1.2832920551300049,-2.4636335372924805,-1.1085153818130493
1780528429161364500,2.511364501953125,1.158793568611145,-0.912190854549408,-0.43335050344467163
1780528429171496400,2.521496337890625,0.5722141861915588,0.7924807667732239,0.07661445438861847
1780528429181536800,2.531536865234375,-0.17956513166427612,1.9153614044189453,0.033518824726343155
1780528429191638000,2.541637939453125,-0.4357447028160095,2.3798365592956543,-0.28969839215278625
1780528429201678300,2.55167822265625,-0.45010992884635925,1.7381904125213623,-0.5171475410461426
1780528429211749000,2.5617490234375,0.14844051003456116,0.6991068720817566,-0.569819986820221
1780528429221820000,2.57181982421875,0.6057330369949341,0.44771572947502136,-0.7374141216278076
1780528429231921200,2.581921142578125,0.7445967197418213,1.0965443849563599,-0.8140285611152649
1780528429242022400,2.5920224609375,0.3208230137825012,0.8307880163192749,-0.5410895943641663
1780528429252124000,2.6021240234375,0.395043283700943,-0.7158663272857666,-0.22744916379451752
1780528429262225200,2.61222509765625,0.6320692300796509,-1.8555063009262085,0.3447650372982025
1780528429272296000,2.6222958984375,0.5937620401382446,-2.2194249629974365,0.608127236366272
1780528429282428000,2.632427978515625,0.49559974670410156,-1.3862427473068237,1.0606313943862915
1780528429292529200,2.642529052734375,0.2513911724090576,-0.19632454216480255,1.2258312702178955
1780528429302630400,2.65263037109375,0,1.139639973640442,0.9816226959228516
1780528429312701200,2.662701171875,-0.7206547260284424,1.8076223134994507,0.7781155705451965
1780528429322802400,2.672802490234375,-1.1635819673538208,1.580173134803772,0.3926490843296051
1780528429332934400,2.682934326171875,-0.6584054827690125,1.0438719987869263,0.08619125932455063
1780528429343005200,2.693005126953125,-0.3280056416988373,0.4141969084739685,0.19393034279346466
1780528429353106400,2.7031064453125,-0.5410895943641663,0.1173158809542656,0.4165911078453064
1780528429363208000,2.7132080078125,-0.871489405632019,0.5386953949928284,0.33758243918418884
1780528429373309200,2.72330908203125,-1.0558429956436157,1.1875240802764893,-0.15083470940589905
1780528429383349500,2.733349609375,-0.7924807667732239,1.7597382068634033,-0.5386953949928284
1780528429393420300,2.743420166015625,-0.8236053586006165,1.7549498081207275,0.05027823522686958
1780528429403521500,2.753521484375,-0.5722141861915588,2.145204782485962,0.790086567401886
1780528429413592300,2.76359228515625,-1.0534487962722778,2.2864625453948975,0.7757213711738586
1780528429423632600,2.773632568359375,-1.094150185585022,1.0678139925003052,0.31842881441116333
1780528429433703400,2.783703369140625,-0.5219359993934631,-0.5123591423034668,-0.304063618183136
1780528429514331000,2.864330810546875,1.534683346748352,-3.021482467651367,2.2218191623687744
1780528429574847200,2.92484716796875,0.2992752194404602,-1.05105459690094,0.6057330369949341
1780528429615160800,2.965160888671875,-2.3295583724975586,1.699883222579956,1.6950948238372803
1780528429645434400,2.995434326171875,-2.140416383743286,1.6208745241165161,-0.4836287498474121
1780528429675708000,3.0257080078125,-3.7924153804779053,1.4676456451416016,-3.2800562381744385
1780528429685809200,3.03580908203125,-2.492363929748535,1.3670891523361206,-3.1316158771514893
1780528429695880000,3.0458798828125,-2.169146776199341,2.4372973442077637,-3.627215623855591
1780528429705950700,3.05595068359375,-2.9065608978271484,2.5905263423919678,-3.8786067962646484
1780528429716021500,3.066021484375,-2.4229321479797363,2.5450363159179688,-3.6320040225982666
1780528429726122800,3.076122802734375,-1.7884687185287476,2.027888774871826,-3.1938650608062744
1780528429736193500,3.086193603515625,-1.357512354850769,1.680729627609253,-2.827552318572998
1780528429746295000,3.096294921875,-0.8523358106613159,1.357512354850769,-2.8993782997131348
1780528429756335400,3.10633544921875,-0.10773907601833344,1.1755530834197998,-2.6024973392486572
1780528429806750200,3.156750244140625,1.460463047027588,-0.43095630407333374,-1.656787633895874
1780528429847094500,3.197094482421875,1.482010841369629,-0.7733271718025208,-1.1540051698684692
1780528429857165300,3.207165283203125,1.4221558570861816,-0.569819986820221,-0.6584054827690125
1780528429897479200,3.247479248046875,0.6105214357376099,-0.47644615173339844,-1.1827356815338135
1780528429927752400,3.27775244140625,0.5817909836769104,-0.43335050344467163,-0.2968810200691223
1780528429937823200,3.2878232421875,0.4357447028160095,-0.9744400978088379,-0.11013327538967133
1780528429947894000,3.29789404296875,0.6560112833976746,-1.0869675874710083,-0.07422025501728058
1780528429957995500,3.30799560546875,0.5195417404174805,-1.1228805780410767,-0.15562310814857483
1780528429968127200,3.318127197265625,0.9050082564353943,-0.8571242094039917,0.05267243832349777
1780528429978228500,3.328228515625,0.0933738648891449,-0.5051765441894531,0.15083470940589905
1780528429988299300,3.33829931640625,0.6272808313369751,-0.17238251864910126,0.10295066982507706
1780528430018603300,3.368603271484375,0.21547815203666687,0.028730420395731926,0.4812345504760742
1780528430028704800,3.378704833984375,0.1173158809542656,0.021547814831137657,0.33039984107017517
1780528430038775600,3.388775634765625,-0.2561795711517334,-0.06464344263076782,0.28969839215278625
1780528430058978000,3.40897802734375,0.3208230137825012,-0.26815059781074524,0.7158663272857666
1780528430069048800,3.419048828125,0.33758243918418884,-0.27054479718208313,1.1683704853057861
1780528430119586000,3.4695859375,-0.1843535304069519,0.8307880163192749,1.7094600200653076
1780528430200335600,3.550335693359375,-1.6687586307525635,-0.22026655077934265,2.073378562927246
1780528430230639400,3.580639404296875,-2.343923568725586,0.17717093229293823,2.470816135406494
1780528430240710100,3.590710205078125,-2.425326347351074,0.38307225704193115,2.7485435009002686
1780528430250811600,3.600811767578125,-2.341529369354248,0.2968810200691223,3.1507694721221924
1780528430260913000,3.610912841796875,-2.2433669567108154,0.21787235140800476,3.354276657104492
1780528430271044600,3.621044677734375,-2.5043349266052246,0.42616790533065796,3.3854012489318848
1780528430281146000,3.63114599609375,-2.5306711196899414,0.6440402865409851,3.5170822143554688
1780528430291247400,3.641247314453125,-2.5067291259765625,0.42856210470199585,3.579331636428833
1780528430301348600,3.6513486328125,-2.183511972427368,0.20111294090747833,3.4548330307006836
1780528430331713800,3.6817138671875,-1.5322890281677246,0.23942017555236816,2.779668092727661
1780528430351946800,3.70194677734375,-1.5849615335464478,0.3471592366695404,2.4660277366638184
1780528430362048300,3.71204833984375,-1.4293384552001953,0.2561795711517334,2.604891538619995
1780528430372149500,3.7221494140625,-1.3335703611373901,-0.047884032130241394,2.736572504043579
1780528430382250800,3.732250732421875,-0.6488286852836609,-0.12928688526153564,2.8586769104003906
1780528430392352000,3.74235205078125,-0.7254431247711182,-0.035913024097681046,2.6791117191314697
1780528430402453500,3.75245361328125,-0.3926490843296051,-0.08619125932455063,2.2673089504241943
1780528430412585200,3.762585205078125,0.5961562395095825,-0.10773907601833344,1.9752163887023926
1780528430422686500,3.7726865234375,1.048660397529602,-0.15562310814857483,1.6041151285171509
1780528430432818400,3.782818359375,1.455674648284912,-0.48602294921875,1.2761094570159912
1780528430442919700,3.792919677734375,1.4700398445129395,-0.7445967197418213,1.2449848651885986
1780528430453051600,3.8030517578125,1.2330138683319092,-0.9576807022094727,1.2114660739898682
1780528430463153000,3.81315283203125,0.33758243918418884,-0.6560112833976746,0.9840168952941895
1780528430473254100,3.823254150390625,0.023942016065120697,-0.028730420395731926,0.6416460275650024
1780528430493457000,3.843456787109375,-0.40940847992897034,0.7661445140838623,0.4668693244457245
1780528430523791400,3.873791259765625,-0.19632454216480255,-0.12210428714752197,0.7374141216278076
1780528430533892600,3.883892578125,-0.6512228846549988,-0.2825157940387726,0.8930372595787048
1780528430543993900,3.893993896484375,-1.3120225667953491,-0.23942017555236816,1.015141487121582
1780528430564196600,3.914196533203125,-2.140416383743286,-0.004788403399288654,0.2059013396501541
1780528430574297900,3.9242978515625,-2.1284453868865967,-0.028730420395731926,-0.5291185975074768
1780528430584429800,3.934429931640625,-2.425326347351074,-0.2513911724090576,-0.8954314589500427
1780528430594561500,3.9445615234375,-2.6024973392486572,-0.19393034279346466,-0.8212111592292786
1780528430604693500,3.954693603515625,-2.736572504043579,0.016759412363171577,-0.6272808313369751
1780528430655352600,4.0053525390625,-1.4077905416488647,0.545877993106842,0.6344634294509888
1780528430675555300,4.025555419921875,-0.8786720037460327,0.4692635238170624,0.8020575642585754
1780528430715960600,4.065960693359375,-0.31842881441116333,0.3471592366695404,0.8044517636299133
1780528430786608600,4.136608642578125,1.4437036514282227,-0.5530605912208557,0.7589619159698486
1780528430847186200,4.197186279296875,3.6080620288848877,-0.1843535304069519,0.3471592366695404
1780528430877459500,4.22745947265625,4.129997730255127,-0.2753331959247589,0.7924807667732239
1780528430887530200,4.2375302734375,4.062960147857666,-0.26336219906806946,0.5267243981361389
1780528430897631700,4.2476318359375,4.137180328369141,-0.2801215946674347,0.6129156351089478
1780528430907702500,4.25770263671875,4.288015365600586,-0.090979665517807,0.5386953949928284
1780528430917773300,4.267773193359375,4.189853191375732,-0.06703764945268631,0.2801215946674347
1780528430927874600,4.27787451171875,3.8762125968933105,-0.08858546614646912,0.06703764945268631
1780528430937975800,4.287975830078125,3.7924153804779053,-0.43335050344467163,-0.14365209639072418
1780528430948046600,4.298046630859375,3.914519786834717,-0.6009446382522583,-0.26336219906806946
1780528430968219000,4.318218994140625,2.6360161304473877,-0.5291185975074768,-0.3447650372982025
1780528431028674000,4.378674072265625,-1.8626888990402222,-0.22026655077934265,-0.9983820915222168
1780528431038775600,4.388775634765625,-2.3056161403656006,-0.24899697303771973,-0.7422025203704834
1780528431079058700,4.42905859375,-2.537853717803955,1.357512354850769,-0.009576806798577309
1780528431089160000,4.439159912109375,-3.0334534645080566,1.558625340461731,-0.2849099934101105
1780528431099200300,4.4492001953125,-2.473210334777832,1.5658079385757446,-0.8140285611152649
1780528431109332000,4.45933203125,-2.449268341064453,1.623268723487854,-0.933738648891449
1780528431119433500,4.46943359375,-2.209848165512085,1.7717092037200928,-0.8475474119186401
1780528431129504300,4.479504150390625,-1.8171991109848022,1.4844050407409668,-0.706289529800415
1780528431139605500,4.48960546875,-1.2545616626739502,1.3239935636520386,-0.35434186458587646
1780528431149706800,4.499706787109375,-0.4118026793003082,1.0127472877502441,-0.4620809257030487
1780528431159777500,4.509777587890625,0.11971008777618408,0.9911994934082031,-0.6967126727104187
1780528431169848300,4.519848388671875,0.395043283700943,1.0606313943862915,-1.2497732639312744
1780528431179980300,4.529980224609375,0.8068459630012512,0.9433154463768005,-1.843535304069519
1780528431190051000,4.540051025390625,1.0678139925003052,0.9648633003234863,-2.3918075561523438
1780528431200152300,4.55015234375,1.292868971824646,0.727837324142456,-3.141192674636841
1780528431210253800,4.56025390625,1.8339585065841675,0.17717093229293823,-3.49314022064209
1780528431220355000,4.57035498046875,1.9033904075622559,0.23702596127986908,-3.1004912853240967
1780528431230425900,4.58042578125,2.4181437492370605,0.5147533416748047,-2.3295583724975586
1780528431240496600,4.59049658203125,2.8155810832977295,0.5171475410461426,-1.886630892753601
1780528431250567400,4.6005673828125,3.423708438873291,0.3471592366695404,-1.8100165128707886
1780528431260638200,4.61063818359375,3.670311212539673,-0.05506663769483566,-1.9752163887023926
1780528431270709000,4.620708984375,3.9384617805480957,-0.30885201692581177,-2.1739351749420166
1780528431290881300,4.64088134765625,4.486733913421631,-0.6416460275650024,-2.6815059185028076
1780528431300982500,4.650982421875,4.656722068786621,-0.7230489253997803,-2.0398597717285156
1780528431311053300,4.66105322265625,4.405331134796143,-0.6727706789970398,-1.436521053314209
1780528431321154600,4.671154541015625,4.02465295791626,-0.5841852426528931,-1.1324573755264282
1780528431331255800,4.681255859375,3.801992416381836,-0.8619126081466675,-1.2234370708465576
1780528431341296000,4.691296142578125,3.778050184249878,-1.3503297567367554,-1.0558429956436157
1780528431381732000,4.731732177734375,1.3192051649093628,-2.126051187515259,-0.12210428714752197
1780528431411975000,4.761974853515625,-1.9608511924743652,1.094150185585022,-1.4197616577148438
1780528431422045700,4.772045654296875,-2.346317768096924,2.056619167327881,-0.9361328482627869
1780528431432147000,4.78214697265625,-2.5258827209472656,1.558625340461731,-0.6200982332229614
1780528431482562000,4.83256201171875,-2.5306711196899414,3.1100680828094482,-1.1994950771331787
1780528431492632800,4.8426328125,-2.427720546722412,2.717418909072876,-1.4269442558288574
1780528431502703600,4.85270361328125,-2.274491548538208,2.1523873805999756,-1.5418659448623657
1780528431553118700,4.90311865234375,-1.6280571222305298,2.7030537128448486,-3.3470940589904785
1780528431563189500,4.913189453125,-0.4213795065879822,2.7102363109588623,-3.0885202884674072
1780528431573290800,4.923290771484375,-0.4357447028160095,2.43011474609375,-2.6024973392486572
1780528431583392300,4.933392333984375,-0.40462008118629456,2.03507137298584,-2.027888774871826
1780528431593463000,4.943463134765625,-0.38546648621559143,2.0207061767578125,-1.479616641998291
1780528431603533800,4.953533935546875,-0.9457096457481384,2.1140801906585693,-1.3910311460494995
1780528431623736300,4.973736328125,-1.4652514457702637,2.698265314102173,-1.8555063009262085
1780528431633807000,4.98380712890625,-0.6129156351089478,2.250549554824829,-1.37906014919281
1780528431643847400,4.993847412109375,-0.727837324142456,1.5059528350830078,-0.8451532125473022
1780528431653948700,5.00394873046875,-0.6943184733390808,1.0773907899856567,-0.6320692300796509
1780528431674121000,5.024120849609375,-2.389413356781006,1.400607943534851,-0.5817909836769104
1780528431714465000,5.064465087890625,-1.4460978507995605,0.2346317619085312,-0.26096799969673157
1780528431724566500,5.07456640625,-1.7190368175506592,0.16998831927776337,-0.035913024097681046
1780528431734637300,5.08463720703125,-2.3582887649536133,0.181959331035614,-0.033518824726343155
1780528431754718000,5.104718017578125,-1.7932571172714233,1.0199298858642578,0.7637503147125244
1780528431764819200,5.114819091796875,-2.1787235736846924,0.7972691655158997,1.1779472827911377
1780528431774859500,5.124859619140625,-1.699883222579956,0.4884171485900879,0.8906430602073669
1780528431805132800,5.1551328125,-1.3551181554794312,0.05746084079146385,0.7110779285430908
1780528431815203600,5.16520361328125,-1.8267759084701538,0,1.0821791887283325
1780528431825305000,5.17530517578125,-0.586579442024231,0.33997663855552673,0.21308395266532898
1780528431835375900,5.1853759765625,-0.8427590131759644,-0.06224924325942993,-0.9002198576927185
1780528431845446700,5.19544677734375,0.3878606855869293,-0.5123591423034668,-1.3215993642807007
1780528431855487000,5.205487060546875,1.0869675874710083,-0.5578489899635315,-0.7158663272857666
1780528431865588200,5.215588134765625,1.1420341730117798,-0.22744916379451752,0.2585737705230713
1780528431885729800,5.235729736328125,0.9097966551780701,0.31364041566848755,1.3694833517074585
1780528431905901800,5.25590185546875,1.115697979927063,0.33997663855552673,-1.2521674633026123
1780528431915972600,5.26597265625,1.1659762859344482,0.5626373887062073,-1.8507179021835327
1780528431926043400,5.27604345703125,1.6735470294952393,0.08379705995321274,-1.1540051698684692
1780528431936083700,5.286083740234375,1.678335428237915,-0.26096799969673157,-0.09576806426048279
1780528431946185200,5.296185302734375,1.7094600200653076,-0.4572925269603729,0.1604115068912506
1780528431966357200,5.316357177734375,1.01753568649292,0.23702596127986908,-0.5267243981361389
1780528431976428000,5.326427978515625,-0.09816227108240128,0.8212111592292786,0.3256114423274994
1780528431986529300,5.336529296875,-0.6919242739677429,0.5530605912208557,1.0079588890075684
1780528431996630800,5.346630859375,-0.8164227604866028,-0.42616790533065796,0.7757213711738586
1780528432036944400,5.3869443359375,0.37828385829925537,-1.0606313943862915,0.35673606395721436
1780528432047045600,5.397045654296875,-0.4812345504760742,-0.038307227194309235,0.6320692300796509
1780528432057147100,5.407147216796875,-0.6560112833976746,0.2322375625371933,0.5722141861915588
1780528432067218000,5.417218017578125,-0.5554547905921936,0.49559974670410156,0.5770025849342346
1780528432077288700,5.427288818359375,-0.24660277366638184,0.7422025203704834,0.8762778043746948
1780528432087390000,5.437389892578125,0.26096799969673157,-0.4165911078453064,1.072602391242981
1780528432097460700,5.447460693359375,1.0342950820922852,-0.689530074596405,1.1061211824417114
1780528432107531500,5.457531494140625,1.3239935636520386,-2.070984363555908,0.9457096457481384
1780528432117632800,5.4676328125,2.298433542251587,-3.3063924312591553,1.8195933103561401
1780528432127703600,5.47770361328125,2.7509377002716064,-3.268085241317749,3.5242648124694824
1780528432137805000,5.48780517578125,1.1204863786697388,-4.288015365600586,4.273650169372559
1780528432147875800,5.497875732421875,1.3838485479354858,-3.4787750244140625,3.6966474056243896
1780528432157977000,5.50797705078125,2.1787235736846924,-2.8203697204589844,2.4636335372924805
1780528432168047900,5.5180478515625,0.7182605266571045,-3.665522813796997,2.1787235736846924
1780528432228533800,5.57853369140625,1.0055646896362305,-0.9265560507774353,6.229712963104248
1780528432238604500,5.5886044921875,1.9153614044189453,-3.8714241981506348,6.66785192489624
1780528432248705800,5.598705810546875,1.3311761617660522,-5.853823184967041,7.785943984985352
1780528432258807300,5.608807373046875,0.5147533416748047,-4.8051629066467285,8.798690795898438
1780528432268908500,5.618908447265625,0.9864110946655273,-5.0014872550964355,8.248024940490723
1780528432279009800,5.629009765625,-0.9888052940368652,-4.702212333679199,6.021417140960693
1780528432289111000,5.639111083984375,-2.892195701599121,-2.051830768585205,3.883395195007324
1780528432299181800,5.649181884765625,-4.345476150512695,0.2513911724090576,2.22660756111145
1780528432309313800,5.659313720703125,-5.506663799285889,1.5298948287963867,1.161187767982483
1780528432339526100,5.689526123046875,0.18914192914962769,2.894589900970459,6.596025466918945
1780528432349627400,5.69962744140625,4.829104900360107,3.5218706130981445,8.034940719604492
1780528432359698200,5.7096982421875,6.256049156188965,4.843470096588135,7.072471618652344
1780528432369769200,5.719769287109375,3.950432777404785,3.4141316413879395,4.077325344085693
1780528432399951000,5.749951171875,0.043095629662275314,-6.734889507293701,1.702277421951294
1780528432410052400,5.76005224609375,-0.22266076505184174,-2.8179752826690674,1.4053963422775269
1780528432420123100,5.770123046875,-0.4644751250743866,0.4381389021873474,1.7094600200653076
1780528432430224400,5.780224365234375,4.692635536193848,-0.689530074596405,2.6168625354766846
1780528432460498000,5.810497802734375,-1.7549498081207275,-11.109095573425293,1.9057846069335938
1780528432470568700,5.820568603515625,-2.5761611461639404,-7.46033239364624,-0.023942016065120697
1780528432480639500,5.830639404296875,-3.7636849880218506,-3.7876269817352295,-0.38307225704193115
1780528432490710300,5.840710205078125,-1.8267759084701538,-0.021547814831137657,-0.22026655077934265
1780528432561267000,5.911266845703125,0.7350199222564697,1.3862427473068237,-1.0271124839782715
1780528432571368200,5.9213681640625,-0.9744400978088379,0.7637503147125244,-1.6615760326385498
1780528432581408500,5.931408447265625,-0.1388636976480484,-0.5793967843055725,-0.6200982332229614
1780528432591479300,5.941479248046875,2.7102363109588623,-2.628833532333374,0.9265560507774353
1780528432601550000,5.951550048828125,3.7205893993377686,-4.163516521453857,1.7693150043487549
1780528432611651300,5.9616513671875,3.9025487899780273,-4.345476150512695,1.3072341680526733
1780528432631854000,5.98185400390625,2.0183119773864746,0.4812345504760742,-3.251325845718384
1780528432641924900,5.9919248046875,-0.6057330369949341,1.8770540952682495,-3.600879430770874
1780528432652026000,6.002026123046875,-1.6759412288665771,3.2776620388031006,-2.6623523235321045
1780528432662127600,6.012127685546875,-1.86508309841156,1.2617442607879639,-1.3982137441635132
1780528432672228900,6.022228759765625,1.0558429956436157,-2.073378562927246,0.016759412363171577
1780528432682299600,6.032299560546875,4.570530891418457,-4.683058738708496,1.4077905416488647
1780528432692370400,6.042370361328125,4.505887508392334,-4.558559894561768,1.0989385843276978
1780528432702471700,6.0524716796875,2.0159177780151367,-1.644816517829895,-0.8786720037460327
1780528432712573000,6.062572998046875,-1.721431016921997,1.8626888990402222,-2.051830768585205
1780528432722674400,6.07267431640625,-5.161899089813232,4.335899353027344,-2.2673089504241943
1780528432732775700,6.082775634765625,-6.36378812789917,3.9384617805480957,-2.7676970958709717
1780528432742877000,6.092876953125,-4.280832767486572,2.3127987384796143,-2.7533318996429443
1780528432752978400,6.102978515625,-0.3519476354122162,-0.011971008032560349,-1.7142484188079834
1780528432763110100,6.113110107421875,2.078166961669922,-3.07415509223938,0.6560112833976746
1780528432823626500,6.17362646484375,-3.5386300086975098,3.8953661918640137,-2.7246015071868896
1780528432853869300,6.203869384765625,0.13168109953403473,-2.451662540435791,1.4700398445129395
1780528432863970800,6.213970703125,-2.6862943172454834,-2.2625205516815186,-0.3423708379268646
1780528432874102500,6.2241025390625,-3.7421371936798096,-0.11252748221158981,-2.0207061767578125
1780528432894274800,6.24427490234375,-3.3877954483032227,3.7158010005950928,-1.9273324012756348
1780528432904376000,6.2543759765625,-2.032677173614502,3.5482068061828613,-0.7972691655158997
1780528432914507800,6.2645078125,-1.3335703611373901,1.4724340438842773,0.016759412363171577
1780528432924578600,6.27457861328125,-0.13168109953403473,0.031124621629714966,0.5506663918495178
1780528432985217000,6.335217041015625,-1.6208745241165161,3.3710360527038574,0.9911994934082031
1780528432995318500,6.345318603515625,-0.6607996821403503,1.8746598958969116,1.381454348564148
1780528433005419800,6.355419677734375,-0.6919242739677429,-0.5889736413955688,0.033518824726343155
1780528433015490600,6.365490478515625,-0.363918662071228,-1.4915876388549805,-1.800439715385437
1780528433035723800,6.385723876953125,0.090979665517807,-0.5434837937355042,-2.051830768585205
1780528433086260700,6.4362607421875,-0.6560112833976746,-0.26336219906806946,-1.1276689767837524
1780528433136767500,6.486767578125,-0.6536170840263367,0.19871874153614044,0.8834604024887085
1780528433146899200,6.496899169921875,-0.751779317855835,-0.2346317619085312,-0.10534487664699554
1780528433157061600,6.5070615234375,-0.9169792532920837,-0.7326257228851318,-1.280897855758667
1780528433167193300,6.517193359375,-0.7637503147125244,-1.048660397529602,-1.5849615335464478
1780528433177294800,6.527294921875,-0.2513911724090576,-1.048660397529602,-1.1994950771331787
1780528433187426600,6.537426513671875,0.06703764945268631,-0.7182605266571045,-0.8834604024887085
1780528433197558500,6.54755859375,-0.49320554733276367,-0.09576806426048279,-0.6727706789970398
1780528433207690200,6.557690185546875,-0.5171475410461426,0.3687070608139038,-0.45010992884635925
1780528433238055200,6.58805517578125,-0.07661445438861847,-0.6512228846549988,0.4141969084739685
1780528433248187100,6.598187255859375,-0.2849099934101105,-0.608127236366272,0.05985504388809204
1780528433258288400,6.608288330078125,-0.363918662071228,-0.8882488012313843,-0.38067805767059326
1780528433268389600,6.6183896484375,-0.27054479718208313,-0.9361328482627869,-0.4644751250743866
1780528433278491100,6.6284912109375,-0.5937620401382446,-0.8643068075180054,-0.3495534360408783
1780528433288592400,6.63859228515625,-1.1779472827911377,-0.3016694188117981,-0.14844051003456116
1780528433298693600,6.648693603515625,-1.1252747774124146,0.5937620401382446,-0.0071826050989329815
1780528433308856000,6.65885595703125,-0.8236053586006165,0.993593692779541,-0.1149216815829277
1780528433329058600,6.67905859375,-0.4668693244457245,-0.05506663769483566,-0.14365209639072418
1780528433349291800,6.699291748046875,-0.6153098344802856,-0.8212111592292786,-0.629675030708313
1780528433359393000,6.70939306640625,-0.9720458984375,-0.586579442024231,-0.7565677165985107
1780528433369494500,6.71949462890625,-0.8906430602073669,0.15322890877723694,-0.524330198764801
1780528433379595800,6.729595703125,-1.1755530834197998,0.993593692779541,-0.13407529890537262
1780528433389697000,6.739697021484375,-1.8387469053268433,1.158793568611145,-0.11971008777618408
1780528433399798300,6.74979833984375,-1.3646949529647827,1.216254472732544,-0.3423708379268646
1780528433409899800,6.759899658203125,-0.7445967197418213,1.1899182796478271,-0.9313444495201111
1780528433419970600,6.769970458984375,-0.8355764150619507,0.7948749661445618,-1.338358759880066
1780528433430071800,6.78007177734375,-0.9864110946655273,0.09576806426048279,-0.9217676520347595
1780528433440173000,6.790173095703125,-0.667982280254364,-0.0454898327589035,-0.0933738648891449
1780528433450335500,6.80033544921875,-0.586579442024231,0,-0.0454898327589035
1780528433460436700,6.810436767578125,-0.36152446269989014,-0.12689268589019775,-0.2298433631658554
1780528433470568700,6.820568603515625,-0.15801730751991272,-0.031124621629714966,-0.6057330369949341
1780528433490832400,6.840832275390625,0.4884171485900879,0.040701430290937424,-1.534683346748352
1780528433500933600,6.85093359375,0.5961562395095825,-0.44771572947502136,-1.6352397203445435
1780528433511096000,6.861095947265625,1.2306196689605713,-0.7182605266571045,-0.7086837291717529
1780528433521197300,6.871197265625,1.4053963422775269,-0.48602294921875,-0.035913024097681046
1780528433531298600,6.881298583984375,1.6950948238372803,-0.13168109953403473,-0.05746084079146385
1780528433541400000,6.891400146484375,1.6615760326385498,-0.002394201699644327,-0.7038952708244324
1780528433551501300,6.901501220703125,1.4700398445129395,0.2059013396501541,-0.9648633003234863
1780528433622241000,6.972240966796875,1.070208191871643,1.4173674583435059,-1.4891934394836426
1780528433652606000,7.00260595703125,1.139639973640442,0.7924807667732239,-1.4939818382263184
1780528433723376400,7.07337646484375,-0.871489405632019,-0.2298433631658554,-1.4867992401123047
1780528433733386000,7.083385986328125,-1.3000515699386597,-0.4884171485900879,-1.647210717201233
1780528433783709400,7.13370947265625,-1.5610195398330688,0.4357447028160095,-0.7661445140838623
1780528433834155000,7.184155029296875,-0.8092401623725891,0.07900865375995636,-1.4748282432556152
1780528433844225800,7.194225830078125,0,0.6105214357376099,-1.4891934394836426
1780528433854296600,7.204296630859375,0.10055647045373917,0.7565677165985107,-1.601720929145813
1780528433864398000,7.214398193359375,0.07182604819536209,0.5147533416748047,-1.764526605606079
1780528433874468900,7.22446875,0.768538773059845,0.17238251864910126,-1.8938134908676147
1780528433884570000,7.234570068359375,0.9241618514060974,0.18914192914962769,-2.011129379272461
1780528433894610400,7.2446103515625,0.8810662031173706,0.45010992884635925,-1.5897499322891235
1780528433904711700,7.254711669921875,0.9816226959228516,0.7589619159698486,-1.4867992401123047
1780528433934954800,7.284954833984375,1.1971008777618408,-0.21787235140800476,-1.8722656965255737
1780528433945025500,7.295025634765625,1.2497732639312744,-0.24899697303771973,-1.534683346748352
1780528433955096300,7.305096435546875,1.0031704902648926,-0.07900865375995636,-1.2210428714752197
1780528433965197600,7.315197509765625,0.3998316824436188,0.22026655077934265,-1.2186486721038818
1780528433975298800,7.325298828125,0.15083470940589905,0.6344634294509888,-1.5275006294250488
1780528433985369600,7.33536962890625,0.0694318488240242,0.8547300100326538,-1.920149803161621
1780528433995440400,7.3454404296875,0.043095629662275314,0.6967126727104187,-2.293645143508911
1780528434005511200,7.35551123046875,-0.42377370595932007,0.4165911078453064,-2.2457611560821533
1780528434015612700,7.36561279296875,-0.3519476354122162,0.6033388376235962,-2.1595699787139893
1780528434025683500,7.375683349609375,-0.6775590777397156,0.667982280254364,-2.300827741622925
1780528434035784700,7.38578466796875,-1.3646949529647827,0.9672574996948242,-2.1284453868865967
1780528434055895800,7.405895751953125,-2.456450939178467,1.6160861253738403,-1.3072341680526733
1780528434065966600,7.415966552734375,-2.1475989818573,1.1803414821624756,-1.213860273361206
1780528434076067800,7.42606787109375,-2.27209734916687,0.3734954595565796,-1.4939818382263184
1780528434086169300,7.43616943359375,-2.2361843585968018,0.08858546614646912,-1.824381709098816
1780528434096270600,7.4462705078125,-2.276885747909546,0.40462008118629456,-1.5873557329177856
1780528434106341400,7.45634130859375,-2.075772762298584,0.727837324142456,-0.8667010068893433
1780528434116412200,7.466412109375,-2.408566951751709,0.8236053586006165,-0.35434186458587646
1780528434126452500,7.476452392578125,-2.8562827110290527,0.811634361743927,-0.3495534360408783
1780528434136553700,7.4865537109375,-2.2649147510528564,0.7230489253997803,-1.1013327836990356
1780528434146624500,7.49662451171875,-1.1300631761550903,0.5913678407669067,-1.7621324062347412
1780528434156695300,7.5066953125,-0.7613561153411865,-0.3687070608139038,-1.436521053314209
1780528434166766000,7.51676611328125,-1.0031704902648926,-0.8236053586006165,-0.5770025849342346
1780528434176836900,7.5268369140625,-1.0989385843276978,-0.17238251864910126,-0.031124621629714966
1780528434186907600,7.53690771484375,-1.357512354850769,0.5746083855628967,-0.3974374830722809
1780528434197009200,7.547009033203125,-1.194706678390503,0.7876923680305481,-0.7015010714530945
1780528434207080000,7.557079833984375,-1.6519991159439087,0.17238251864910126,-0.24660277366638184
1780528434297839000,7.647839111328125,-0.05267243832349777,-0.1843535304069519,-1.4772224426269531
1780528434378405600,7.728405517578125,-1.4197616577148438,1.338358759880066,0.2059013396501541
1780528434469103900,7.819103759765625,-0.4429273009300232,-0.17956513166427612,-0.19632454216480255
1780528434559832600,7.90983251953125,1.3503297567367554,-0.07182604819536209,2.0254945755004883
1780528434610247700,7.96024755859375,1.7262194156646729,-1.8124107122421265,3.313575267791748
1780528434620379400,7.97037939453125,2.5115175247192383,-0.7972691655158997,3.1507694721221924
1780528434630450200,7.9804501953125,2.894589900970459,0.1412578970193863,2.7437551021575928
1780528434640521000,7.99052099609375,2.4205379486083984,-0.22026655077934265,2.3319525718688965
1780528434650622500,8.00062255859375,2.0638017654418945,-0.8786720037460327,2.9879636764526367
1780528434660723700,8.0107236328125,2.47560453414917,-0.7829039692878723,4.369418144226074
1780528434670825000,8.020824951171875,1.7334020137786865,-0.090979665517807,5.856217384338379
1780528434680926200,8.03092626953125,0.6440402865409851,-0.871489405632019,5.585672378540039
1780528434711138800,8.061138916015626,2.9927520751953125,-3.2178070545196533,2.518700122833252
1780528434721209600,8.071209716796876,2.650381326675415,-3.098097085952759,1.316810965538025
1780528434731310800,8.081310791015625,1.644816517829895,-2.360682964324951,1.3862427473068237
1780528434741381600,8.091381591796875,0.7206547260284424,-1.5729905366897583,3.1268274784088135
1780528434751452400,8.101452392578125,-0.090979665517807,-0.6847416758537292,5.935225963592529
1780528434761523200,8.111523193359375,-1.292868971824646,-0.16759411990642548,7.668628215789795
1780528434771594000,8.121593994140625,-2.2888567447662354,0.11971008777618408,7.441178798675537
1780528434781664800,8.131664794921875,-2.3247697353363037,-0.6488286852836609,5.604825973510742
1780528434791735600,8.141735595703125,-0.2753331959247589,-0.9888052940368652,3.7924153804779053
1780528434801806300,8.151806396484375,1.4245500564575195,-1.0630255937576294,2.494758129119873
1780528434811877400,8.16187744140625,1.2210428714752197,-2.070984363555908,2.6431987285614014
1780528434821978600,8.171978515625,0.21547815203666687,-2.786850690841675,4.424484729766846
1780528434832049400,8.18204931640625,-0.2106897532939911,-2.2026655673980713,5.731719017028809
1780528434842120200,8.1921201171875,-0.1412578970193863,-1.0630255937576294,5.274426460266113
1780528434852221400,8.202221435546875,-0.014365210197865963,0.14844051003456116,3.8331170082092285
1780528434862292200,8.212292236328125,-0.15801730751991272,0.9241618514060974,3.2561142444610596
1780528434872363000,8.222363037109375,-0.7326257228851318,1.0654197931289673,3.9695863723754883
1780528434912707300,8.262707275390625,0.1173158809542656,-0.14365209639072418,3.646369218826294
1780528434983202800,8.333202880859375,1.6711528301239014,-0.07661445438861847,4.575319290161133
1780528435023516700,8.3735166015625,3.1292216777801514,-2.207453966140747,0.6727706789970398
1780528435084033000,8.434032958984375,1.2641384601593018,0.35434186458587646,0.1604115068912506
1780528435104174600,8.454174560546875,2.4181437492370605,-0.14604631066322327,-0.9624691009521484
1780528435124377300,8.47437744140625,0.4596867263317108,-1.434126853942871,-0.6416460275650024
1780528435134448000,8.4844482421875,0.009576806798577309,-0.8403648138046265,-0.7374141216278076
1780528435144549400,8.49454931640625,-1.482010841369629,0.3758896589279175,-2.118868589401245
1780528435154620200,8.5046201171875,-1.2737152576446533,2.008735179901123,-3.002328872680664
1780528435164691000,8.51469091796875,0.47884035110473633,2.5450363159179688,-1.8962076902389526
1780528435174761700,8.52476171875,-0.021547814831137657,2.054224967956543,0.16998831927776337
1780528435184863000,8.534863037109375,-0.7709329724311829,1.2401964664459229,0.5554547905921936
1780528435194934000,8.54493408203125,-1.3072341680526733,-1.4676456451416016,-1.900996208190918
1780528435205035300,8.55503515625,0.4381389021873474,-3.1699230670928955,-4.522646903991699
1780528435215075600,8.56507568359375,0.6727706789970398,-3.021482467651367,-5.2696380615234375
1780528435235278000,8.585278076171875,-1.2880805730819702,1.213860273361206,0.47165772318840027
1780528435245318400,8.595318359375,-0.7757213711738586,4.05817174911499,3.512293815612793
1780528435265551600,8.615551513671875,-0.5315127968788147,2.8131868839263916,0.790086567401886
1780528435275622400,8.625622314453125,-0.4668693244457245,-1.2449848651885986,-2.432508945465088
1780528435285754000,8.635754150390625,0.3687070608139038,-2.695871114730835,-3.892971992492676
1780528435295825000,8.645824951171875,0.507570743560791,-3.4165258407592773,-2.9903578758239746
1780528435316027600,8.666027587890625,-2.3726539611816406,1.479616641998291,0.26815059781074524
1780528435326129000,8.67612890625,-2.0829553604125977,4.697423934936523,1.173158884048462
1780528435336199700,8.68619970703125,-2.5953147411346436,4.819528102874756,0.2992752194404602
1780528435356372000,8.7063720703125,-1.2497732639312744,-0.646434485912323,-3.620033025741577
1780528435366473200,8.71647314453125,0.5626373887062073,-1.4413094520568848,-3.0382418632507324
1780528435376544000,8.7265439453125,0.3974374830722809,-1.965639591217041,-0.9002198576927185
1780528435386614800,8.73661474609375,0.17956513166427612,-0.5027823448181152,1.3527239561080933
1780528435396716000,8.746716064453125,-0.5530605912208557,0.8762778043746948,2.248155355453491
1780528435406786800,8.756786865234375,-0.8882488012313843,1.702277421951294,0.7469909191131592
1780528435416918800,8.766918701171875,-1.113303780555725,1.2976573705673218,-2.8131868839263916
1780528435426989600,8.776989501953125,-0.6153098344802856,0.15322890877723694,-3.136404275894165
1780528435437090800,8.7870908203125,0.1412578970193863,-1.414973258972168,-2.4851813316345215
1780528435447222800,8.797222900390626,0.9840168952941895,-1.3934253454208374,-1.4891934394836426
1780528435457263000,8.80726318359375,0.5147533416748047,-1.1516109704971313,-0.5985504388809204
1780528435467364400,8.8173642578125,0.20350714027881622,-0.7086837291717529,-0.038307227194309235
1780528435477435100,8.82743505859375,0.1628057211637497,-0.06224924325942993,-0.4381389021873474
1780528435487536400,8.837536376953125,0.3280056416988373,0.7589619159698486,-1.01753568649292
1780528435497607200,8.847607177734375,0.3998316824436188,1.4389152526855469,-0.8164227604866028
1780528435507708700,8.857708740234376,-0.16998831927776337,1.6136919260025024,-0.7876923680305481
1780528435517810000,8.867809814453125,-0.05267243832349777,1.0893617868423462,-0.5889736413955688
1780528435527911200,8.8779111328125,0.1149216815829277,0.35673606395721436,-0.4596867263317108
1780528435538012400,8.888012451171875,0.5123591423034668,-0.3926490843296051,-0.5913678407669067
1780528435548114000,8.898114013671876,1.113303780555725,-0.45010992884635925,-0.8164227604866028
1780528435558184700,8.908184814453126,1.036689281463623,-0.15322890877723694,-0.6368576288223267
1780528435578387200,8.92838720703125,0.9097966551780701,1.137245774269104,0.3998316824436188
1780528435588519200,8.938519287109376,0.002394201699644327,1.2042834758758545,-0.1867477297782898
1780528435598590000,8.94858984375,-0.5746083855628967,0.933738648891449,-0.40222588181495667
1780528435608691200,8.958691162109375,-0.2825157940387726,0.22505496442317963,-0.23942017555236816
1780528435618792400,8.96879248046875,-0.24660277366638184,-0.9313444495201111,-0.2849099934101105
1780528435638995200,8.9889951171875,1.5610195398330688,-1.3982137441635132,0.014365210197865963
1780528435659167200,9.009167236328125,0.14604631066322327,-0.5506663918495178,-0.6823474764823914
1780528435679400400,9.029400390625,-0.19632454216480255,0.5841852426528931,-0.07422025501728058
1780528435689532200,9.0395322265625,-1.7118542194366455,0.49559974670410156,0.033518824726343155
1780528435699633700,9.049633544921875,-1.0319008827209473,-0.0454898327589035,-0.12449848651885986
1780528435709735000,9.05973486328125,0.1412578970193863,-0.8643068075180054,-0.7613561153411865
1780528435719866600,9.06986669921875,0.5602431893348694,-1.37906014919281,-1.1228805780410767
1780528435740069400,9.0900693359375,-0.08858546614646912,-0.9313444495201111,-1.0103530883789062
1780528435790606600,9.140606689453126,-0.5267243981361389,0.21308395266532898,0.08140286058187485
1780528435810839600,9.160839599609375,-0.016759412363171577,-0.4165911078453064,-0.44532153010368347
1780528435871569700,9.221569580078125,-0.8475474119186401,1.280897855758667,0.1173158809542656
1780528435881701400,9.231701416015625,-0.4429273009300232,0.20111294090747833,-0.47644615173339844
1780528435891803000,9.241802978515626,-0.038307227194309235,-0.6416460275650024,-1.702277421951294
1780528435912005400,9.26200537109375,-1.2090718746185303,-0.4596867263317108,-2.1284453868865967
1780528435922137300,9.272137451171876,-1.8602946996688843,0.31603461503982544,-1.237802267074585
1780528435942309400,9.292309326171875,-2.0231003761291504,0.8571242094039917,-0.8451532125473022
1780528435952410600,9.30241064453125,-1.4844050407409668,0.40222588181495667,-0.993593692779541
1780528435972583000,9.3225830078125,-1.0247182846069336,-0.3423708379268646,-0.40462008118629456
1780528435992877000,9.342876953125,-0.7709329724311829,-0.751779317855835,-0.569819986820221
1780528436002978300,9.352978271484375,-0.8930372595787048,-0.5386953949928284,-0.304063618183136
1780528436013079600,9.36307958984375,-1.0606313943862915,-0.0694318488240242,-0.11013327538967133
1780528436023242000,9.373241943359375,-1.2856862545013428,0.11013327538967133,-0.3711012601852417
1780528436033343200,9.38334326171875,-1.2330138683319092,0.1628057211637497,-0.5339069962501526
1780528436043444700,9.39344482421875,-1.0749965906143188,0.09576806426048279,-0.5626373887062073
1780528436063647200,9.413647216796875,-0.15801730751991272,-0.31842881441116333,-0.5386953949928284
1780528436083880400,9.43388037109375,0.9576807022094727,-0.7757213711738586,0.23942017555236816
1780528436104113700,9.45411376953125,1.2234370708465576,-0.7637503147125244,0.5410895943641663
1780528436124377300,9.47437744140625,1.5682021379470825,-0.33518823981285095,-0.811634361743927
1780528436134478600,9.484478515625,1.139639973640442,-0.014365210197865963,-1.0342950820922852
1780528436154681000,9.50468115234375,0.9816226959228516,0.9600749015808105,-0.7230489253997803
1780528436164782600,9.514782470703125,1.0989385843276978,1.0630255937576294,-0.49320554733276367
1780528436174883800,9.5248837890625,1.6759412288665771,0.730231523513794,-0.27054479718208313
1780528436184985000,9.534985107421875,1.9369091987609863,-0.040701430290937424,-0.22026655077934265
1780528436195086600,9.545086669921876,1.8483237028121948,-0.38067805767059326,-0.545877993106842
1780528436205187800,9.555187744140625,1.6184803247451782,-0.33279404044151306,-0.9528923034667969
1780528436215319600,9.565319580078125,1.335964560508728,-0.21308395266532898,-1.2425906658172607
1780528436225421000,9.575421142578126,0.9241618514060974,-0.17238251864910126,-1.158793568611145
1780528436235552800,9.585552734375,0.646434485912323,0.05985504388809204,-0.8762778043746948
1780528436245654000,9.595654052734375,0.21547815203666687,0.33039984107017517,-0.4357447028160095
1780528436255786000,9.605785888671875,0.06703764945268631,0.35913026332855225,-0.0933738648891449
1780528436265887200,9.61588720703125,-0.1149216815829277,0.08619125932455063,-0.23702596127986908
1780528436275988500,9.625988525390625,-0.15562310814857483,-0.4429273009300232,-0.9744400978088379
1780528436286120400,9.636120361328125,-0.5602431893348694,-0.5985504388809204,-1.3862427473068237
1780528436296221700,9.6462216796875,-0.7158663272857666,-0.667982280254364,-1.2282254695892334
1780528436306353700,9.656353759765626,-0.8547300100326538,-0.20111294090747833,-0.6033388376235962
1780528436316515800,9.666515869140625,-1.577778935432434,0.37828385829925537,-0.2082955539226532
1780528436326647800,9.676647705078125,-1.5873557329177856,0.8643068075180054,-0.10534487664699554
1780528436336749000,9.6867490234375,-1.45806884765625,0.8355764150619507,-0.5434837937355042
1780528436346850300,9.696850341796875,-1.644816517829895,0.6799532771110535,-1.1109095811843872
1780528436356951800,9.706951904296876,-1.6160861253738403,0.06224924325942993,-1.4724340438842773
1780528436377184800,9.727184814453125,-1.434126853942871,-0.040701430290937424,-1.0869675874710083
1780528436387286300,9.737286376953126,-1.7525556087493896,0.44771572947502136,-0.5339069962501526
1780528436397387500,9.747387451171875,-2.0398597717285156,1.0989385843276978,0.014365210197865963
1780528436407519200,9.757519287109375,-1.9393033981323242,1.4173674583435059,-0.011971008032560349
1780528436417651200,9.767651123046875,-1.7956513166427612,1.0079588890075684,-0.4908113479614258
1780528436427783000,9.777782958984375,-1.7310078144073486,0.8092401623725891,-1.0606313943862915
1780528436437884400,9.787884521484376,-1.4101848602294922,0.5386953949928284,-1.2018892765045166
1780528436447985700,9.797985595703125,-0.849941611289978,0.0694318488240242,-0.7422025203704834
1780528436458117400,9.808117431640625,-0.9672574996948242,-0.10773907601833344,-0.5961562395095825
1780528436478320000,9.828320068359375,-1.53707754611969,1.0797849893569946,-1.4077905416488647
1780528436488451800,9.838451904296875,-1.1061211824417114,1.5322890281677246,-1.5897499322891235
1780528436539050000,9.889050048828125,-0.4381389021873474,0.2537853717803955,-1.4269442558288574
1780528436569354000,9.91935400390625,-0.6751648783683777,0.7757213711738586,-1.0055646896362305
1780528436660143900,10.010143798828125,-2.0422539710998535,0.7445967197418213,-0.7469909191131592
1780528436680255000,10.0302548828125,-1.699883222579956,0.7805097699165344,-1.4221558570861816
1780528436690356200,10.040356201171875,-2.279279947280884,0.5027823448181152,-1.5634137392044067
1780528436781115600,10.13111572265625,-0.9169792532920837,0.18914192914962769,-0.5674257874488831
1780528436831439000,10.181439208984376,-1.0438719987869263,0.090979665517807,0.1628057211637497
1780528436891863800,10.24186376953125,-0.811634361743927,0.040701430290937424,-0.9983820915222168
1780528436901965000,10.251965087890625,-0.8427590131759644,0.569819986820221,-2.078166961669922
1780528436922106600,10.272106689453125,-1.7549498081207275,0.586579442024231,0.08140286058187485
1780528437002703600,10.35270361328125,-0.5291185975074768,0.06703764945268631,-0.5051765441894531
1780528437012774400,10.3627744140625,0.0933738648891449,-0.2753331959247589,-0.8643068075180054
1780528437103594800,10.4535947265625,0.9696516990661621,-1.0606313943862915,0.751779317855835
1780528437123736300,10.473736328125,0.5841852426528931,-0.7565677165985107,0.028730420395731926
1780528437214526200,10.564526123046875,1.656787633895874,0.1628057211637497,3.399766445159912
1780528437234698200,10.5846982421875,1.2473790645599365,-0.8690952062606812,2.346317768096924
1780528437315356200,10.665356201171875,0.7876923680305481,-0.3256114423274994,3.584120035171509
1780528437396044800,10.746044921875,0.20111294090747833,-0.43095630407333374,3.6296098232269287
1780528437406146000,10.75614599609375,0.40462008118629456,-0.1388636976480484,4.3406877517700195
1780528437506915000,10.8569150390625,0.1412578970193863,0.8882488012313843,3.8283286094665527
1780528437527056600,10.877056640625,1.723825216293335,-0.9720458984375,1.7262194156646729
1780528437537127400,10.88712744140625,2.0614075660705566,-1.2473790645599365,2.5019407272338867
1780528437547198200,10.8971982421875,1.0989385843276978,-1.4269442558288574,4.146757125854492
1780528437577441300,10.927441162109375,1.070208191871643,-0.5674257874488831,3.8067808151245117
1780528437627825700,10.97782568359375,2.719813108444214,-0.6512228846549988,4.4292731285095215
1780528437637896400,10.987896484375,2.978386878967285,-0.6344634294509888,4.086902141571045
1780528437647998000,10.997998046875,2.5234885215759277,-1.2401964664459229,2.6431987285614014
1780528437668139500,11.018139404296875,2.140416383743286,-0.05027823522686958,0.7589619159698486
1780528437688281000,11.038281005859375,2.1045033931732178,-1.8746598958969116,2.030282974243164
1780528437698351900,11.048351806640625,2.5929205417633057,-2.3367409706115723,2.3942017555236816
1780528437708453000,11.058453125,1.9249382019042969,-2.9089550971984863,0.9600749015808105
1780528437718524000,11.06852392578125,2.2601263523101807,-2.343923568725586,-1.0414776802062988
1780528437728625400,11.07862548828125,1.7501614093780518,-0.9624691009521484,-2.63362193107605
1780528437738696200,11.0886962890625,0.06224924325942993,0.040701430290937424,-2.978386878967285
1780528437748797400,11.09879736328125,-1.113303780555725,1.0127472877502441,-1.4413094520568848
1780528437758898700,11.108898681640625,-0.8475474119186401,2.3774423599243164,0.33518823981285095
1780528437768969500,11.118969482421875,0.07900865375995636,2.1045033931732178,0.08858546614646912
1780528437779071000,11.129071044921876,1.3048399686813354,-1.015141487121582,-1.1420341730117798
1780528437789141800,11.139141845703126,2.9688100814819336,-3.184288263320923,-1.5945383310317993
1780528437799212500,11.149212646484376,2.5737667083740234,-3.24414324760437,-1.8555063009262085
1780528437809313800,11.159313720703125,-0.35673606395721436,-0.8068459630012512,-2.1116859912872314
1780528437819384600,11.169384521484375,-1.7836803197860718,2.5234885215759277,-1.8938134908676147
1780528437829455400,11.179455322265625,-2.183511972427368,5.195417881011963,-0.8331822156906128
1780528437839556600,11.189556640625,-2.7916390895843506,5.307945251464844,0.3687070608139038
1780528437849658000,11.199658203125,-1.623268723487854,4.177882194519043,1.41257905960083
1780528437859759400,11.20975927734375,0.6272808313369751,0.7230489253997803,1.3455413579940796
1780528437869860600,11.219860595703125,2.2864625453948975,-3.066972494125366,0.12928688526153564
1780528437879961900,11.2299619140625,3.028665065765381,-4.292803764343262,-1.5610195398330688
1780528437890063400,11.2400634765625,-0.06464344263076782,-2.5450363159179688,-2.1930887699127197
1780528437960650500,11.310650390625,1.623268723487854,-5.240907669067383,-1.1803414821624756
1780528438010943500,11.360943603515626,-2.454056739807129,4.924872875213623,-3.646369218826294
1780528438081500200,11.431500244140626,-1.6879122257232666,2.7892448902130127,-3.2106244564056396
1780528438131854000,11.48185400390625,1.0582371950149536,-0.8451532125473022,0.950498104095459
1780528438141955300,11.491955322265625,-0.7445967197418213,0.16519992053508759,-0.7445967197418213
1780528438152026000,11.502026123046875,-0.9217676520347595,0.19632454216480255,-1.8411411046981812
1780528438162127600,11.512127685546876,0.5267243981361389,0.7829039692878723,-1.4269442558288574
1780528438172228900,11.522228759765625,1.139639973640442,1.1492167711257935,-0.19871874153614044
1780528438182299600,11.532299560546875,0.20111294090747833,1.1085153818130493,0.7158663272857666
1780528438192370400,11.542370361328125,-0.6512228846549988,0.6871358752250671,0.7326257228851318
1780528438202471700,11.5524716796875,-0.5961562395095825,0.667982280254364,0.5722141861915588
1780528438212512000,11.562511962890625,-0.8643068075180054,0.8427590131759644,0.07661445438861847
1780528438222644000,11.57264404296875,-0.8307880163192749,0.849941611289978,-0.40462008118629456
1780528438273089300,11.62308935546875,-0.8427590131759644,0.22505496442317963,-0.9433154463768005
1780528438333666800,11.683666748046875,0.4141969084739685,-0.3711012601852417,-0.2106897532939911
1780528438343737600,11.693737548828125,0.6344634294509888,-0.6847416758537292,-0.7852981686592102
1780528438353838800,11.7038388671875,0.3423708379268646,-1.1516109704971313,-0.7876923680305481
1780528438363940400,11.7139404296875,0.37828385829925537,-0.9600749015808105,-0.2298433631658554
1780528438374011100,11.72401123046875,0.6799532771110535,-0.24660277366638184,0.028730420395731926
1780528438404284400,11.754284423828125,1.0606313943862915,-0.8882488012313843,-2.296039342880249
1780528438414355200,11.764355224609375,-0.5171475410461426,-0.20111294090747833,-1.522712230682373
1780528438424426000,11.774426025390625,-1.1180921792984009,-0.047884032130241394,-0.21547815203666687
1780528438434527500,11.784527587890626,-0.40701428055763245,0.2825157940387726,0.3974374830722809
1780528438444628700,11.794628662109375,-0.2992752194404602,0.2992752194404602,-0.023942016065120697
1780528438454730000,11.80472998046875,-0.8044517636299133,0.2777273952960968,-0.29209262132644653
1780528438464800800,11.81480078125,-1.0342950820922852,0.31842881441116333,-0.6775590777397156
1780528438474902300,11.82490234375,-0.5506663918495178,0.19871874153614044,-1.4676456451416016
1780528438484973000,11.83497314453125,-0.9097966551780701,0.29209262132644653,-2.1116859912872314
1780528438495074300,11.84507421875,-1.7094600200653076,0.6009446382522583,-1.7693150043487549
1780528438505206000,11.8552060546875,-2.456450939178467,0.6129156351089478,-0.33039984107017517
1780528438565814000,11.91581396484375,-2.0422539710998535,0.9217676520347595,-0.6560112833976746
1780528438626483000,11.97648291015625,-2.1811177730560303,-0.05985504388809204,-0.15083470940589905
1780528438677081000,12.0270810546875,0.11252748221158981,-0.5123591423034668,0.038307227194309235
1780528438687213000,12.037213134765626,0.3687070608139038,-0.4429273009300232,0.2585737705230713
1780528438707415600,12.05741552734375,0.08858546614646912,-0.08140286058187485,1.5131354331970215
1780528438717547500,12.067547607421876,0.8906430602073669,0.07422025501728058,1.9057846069335938
1780528438727679200,12.07767919921875,1.623268723487854,-0.15083470940589905,1.7070658206939697
1780528438737780500,12.087780517578125,2.185906171798706,-0.2322375625371933,0.7996633648872375
1780528438747912400,12.097912353515625,1.8962076902389526,-0.21547815203666687,0.014365210197865963
1780528438758044200,12.108044189453125,1.9393033981323242,0.35673606395721436,-0.6488286852836609
1780528438768176000,12.118176025390625,1.8315643072128296,1.072602391242981,-1.173158884048462
1780528438778277400,12.12827734375,1.580173134803772,1.1204863786697388,-1.460463047027588
1780528438798480100,12.148480224609376,1.5610195398330688,0.21787235140800476,-1.0079588890075684
1780528438808642300,12.158642333984375,1.6065093278884888,-0.646434485912323,-1.436521053314209
1780528438859179500,12.209179443359375,0.5889736413955688,0.20350714027881622,-1.3766659498214722
1780528438879412700,12.229412841796876,0.06703764945268631,-0.4405331015586853,-1.5298948287963867
1780528438889514000,12.239513916015625,0.19632454216480255,-0.363918662071228,-1.2186486721038818
1780528438899645700,12.249645751953125,-0.2944868206977844,0.002394201699644327,-0.6129156351089478
1780528438909777700,12.259777587890625,-0.9241618514060974,0.5650315880775452,-0.2753331959247589
1780528438919879000,12.26987890625,-1.0342950820922852,0.8020575642585754,-0.22744916379451752
1780528438929919200,12.279919189453125,-1.1635819673538208,1.0845733880996704,-0.7829039692878723
1780528438940051200,12.29005126953125,-1.525106430053711,0.9409212470054626,-1.5394717454910278
1780528438970294000,12.3202939453125,-2.5330653190612793,0.17477671802043915,-2.2912509441375732
1780528439020861700,12.37086181640625,-4.0964789390563965,1.158793568611145,-1.1348515748977661
1780528439030963000,12.380962890625,-2.9281086921691895,0.38546648621559143,-0.7374141216278076
1780528439071429400,12.421429443359376,-2.0398597717285156,-0.569819986820221,-0.5291185975074768
1780528439081561000,12.43156103515625,-2.2218191623687744,-0.09816227108240128,-0.751779317855835
1780528439091692800,12.44169287109375,-2.0805611610412598,0.16519992053508759,-0.5937620401382446
1780528439101824800,12.45182470703125,-1.070208191871643,0.5554547905921936,-0.38067805767059326
1780528439111926000,12.461926025390625,-0.8403648138046265,0.42616790533065796,0
1780528439122058000,12.47205810546875,-0.7015010714530945,-0.0694318488240242,0.2777273952960968
1780528439132189700,12.482189697265625,-0.42856210470199585,-0.272938996553421,0.1364694982767105
1780528439142291000,12.492291015625,-0.22505496442317963,-0.3687070608139038,-0.5434837937355042
1780528439162493700,12.51249365234375,0.19871874153614044,0.5650315880775452,-1.278503656387329
1780528439172564500,12.522564453125,0.8068459630012512,0.6991068720817566,-0.3256114423274994
1780528439182727000,12.532726806640625,0.9816226959228516,0.4118026793003082,0.507570743560791
1780528439192858600,12.542858642578125,0.4213795065879822,0.16998831927776337,0.3998316824436188
1780528439202960100,12.552960205078126,0.24181437492370605,0,-0.26096799969673157
1780528439213061400,12.563061279296875,0.0454898327589035,0.31603461503982544,-0.6703764796257019
1780528439243395800,12.593395751953125,-0.1628057211637497,0.950498104095459,-0.6057330369949341
1780528439253527600,12.603527587890625,-0.10055647045373917,0.8427590131759644,-0.5267243981361389
1780528439263629000,12.613629150390626,-0.5123591423034668,0.5291185975074768,-0.7876923680305481
1780528439273760800,12.6237607421875,-0.9552865028381348,0.49799394607543945,-0.9911994934082031
1780528439283923200,12.633923095703125,-1.6352397203445435,0.4620809257030487,-0.9552865028381348
1780528439294024400,12.6440244140625,-2.0254945755004883,0.706289529800415,-1.036689281463623
1780528439364886300,12.71488623046875,-2.8227639198303223,1.237802267074585,-1.9536685943603516
1780528439385089000,12.735089111328126,-2.6575639247894287,1.3670891523361206,-2.4803929328918457
1780528439395190300,12.745190185546875,-2.537853717803955,0.7996633648872375,-1.3024457693099976
1780528439405322000,12.755322021484375,-1.5107412338256836,0.7661445140838623,-1.1683704853057861
1780528439415423500,12.765423583984376,-1.778891921043396,0.9241618514060974,-1.1971008777618408
1780528439425555200,12.77555517578125,-2.3080103397369385,1.1420341730117798,-0.7086837291717529
1780528439435687200,12.785687255859376,-2.0374655723571777,1.4269442558288574,0.1388636976480484
1780528439445819000,12.79581884765625,-1.577778935432434,0.727837324142456,0.6153098344802856
1780528439455920000,12.805920166015625,-1.3718775510787964,-0.181959331035614,0.26815059781074524
1780528439466052000,12.816052001953125,-1.381454348564148,-0.6344634294509888,-0.2849099934101105
1780528439496386600,12.846386474609375,-1.9823989868164062,0.23942017555236816,-0.07422025501728058
1780528439506487800,12.85648779296875,-2.4396915435791016,0.2059013396501541,0.05746084079146385
1780528439516589000,12.866589111328125,-1.599326729774475,-0.05985504388809204,-0.06464344263076782
1780528439526690600,12.876690673828126,-1.1516109704971313,-0.5315127968788147,-0.49320554733276367
1780528439536791800,12.886791748046875,-0.8978256583213806,-0.667982280254364,-0.5195417404174805
1780528439546893000,12.89689306640625,-0.6272808313369751,-1.1444283723831177,0.4357447028160095
1780528439557025000,12.90702490234375,-0.8906430602073669,-0.768538773059845,2.190694570541382
1780528439567126300,12.917126220703125,-0.9241618514060974,-0.15801730751991272,3.3063924312591553
1780528439597369000,12.947369140625,0.026336219161748886,0.3423708379268646,-0.31364041566848755
1780528439607440000,12.95743994140625,-0.4884171485900879,-0.9888052940368652,-1.400607943534851
1780528439627581700,12.977581787109376,-0.7613561153411865,0.12928688526153564,0.2992752194404602
1780528439637683000,12.987682861328125,-0.3878606855869293,-0.23942017555236816,1.3766659498214722
1780528439698168800,13.0481689453125,-0.6105214357376099,1.9488801956176758,0.6129156351089478
1780528439738543600,13.088543701171876,-0.44532153010368347,0.3064578175544739,0.21308395266532898
1780528439748644900,13.098644775390625,-1.4652514457702637,0.22026655077934265,0.0071826050989329815
1780528439758746000,13.10874609375,-1.1276689767837524,0.35673606395721436,-0.8954314589500427
1780528439768817000,13.11881689453125,-0.3208230137825012,0.828393816947937,-1.113303780555725
1780528439778887700,13.1288876953125,-0.2106897532939911,0.811634361743927,-0.49799394607543945
1780528439799029200,13.149029296875,-0.15801730751991272,-2.0661959648132324,1.6950948238372803
1780528439809100000,13.15910009765625,0.24899697303771973,-2.999934673309326,1.534683346748352
1780528439819171000,13.169171142578126,1.094150185585022,-2.52109432220459,0.44771572947502136
1780528439829241900,13.179241943359376,0.6392518281936646,-0.6272808313369751,-0.014365210197865963
1780528439839343000,13.189343017578125,0.043095629662275314,1.2641384601593018,0.8858546018600464
1780528439849383400,13.199383544921876,0.5674257874488831,2.4588451385498047,2.9281086921691895
1780528439859545600,13.209545654296875,0.6775590777397156,2.363077163696289,3.5170822143554688
1780528439869616400,13.219616455078125,2.1068975925445557,0.6248866319656372,2.6791117191314697
1780528439879718000,13.2297177734375,3.536235809326172,-1.4053963422775269,1.656787633895874
1780528439909991200,13.2599912109375,2.229001760482788,-2.631227731704712,2.1930887699127197
1780528439920092700,13.2700927734375,0.3471592366695404,-0.12210428714752197,2.935291290283203
1780528439930133000,13.280133056640626,-0.2585737705230713,1.5969325304031372,4.005499362945557
1780528439940234200,13.290234130859375,-1.1540051698684692,2.190694570541382,4.101267337799072
1780528439950305000,13.300304931640625,-0.9768342971801758,0.7829039692878723,3.0382418632507324
1780528439960436700,13.310436767578125,0.7876923680305481,-2.0254945755004883,3.5003228187561035
1780528439970477000,13.32047705078125,3.40216064453125,-3.6176388263702393,4.742913722991943
1780528439990679800,13.3406796875,4.455609321594238,-3.294421434402466,4.750096321105957
1780528440020922600,13.370922607421875,0.7038952708244324,-0.05027823522686958,4.845864295959473
1780528440030993400,13.380993408203125,-0.2825157940387726,-1.5873557329177856,4.6255974769592285
1780528440121691600,13.471691650390625,-0.5985504388809204,-0.5339069962501526,3.8953661918640137
1780528440162066400,13.51206640625,0.5674257874488831,-0.7565677165985107,3.050212860107422
1780528440172167700,13.522167724609375,0.8690952062606812,-0.993593692779541,3.5865142345428467
1780528440182238500,13.532238525390625,1.7381904125213623,-1.2401964664459229,3.9695863723754883
1780528440192370400,13.542370361328125,2.765302896499634,-1.0271124839782715,3.914519786834717
1780528440202441200,13.552441162109375,3.0621838569641113,-0.8092401623725891,3.248931646347046
1780528440212512000,13.562511962890625,3.2776620388031006,-0.7757213711738586,2.408566951751709
1780528440232684000,13.58268408203125,2.58813214302063,0.33997663855552673,2.9520506858825684
1780528440242785500,13.59278564453125,1.2090718746185303,-0.090979665517807,4.201824188232422
1780528440252856300,13.602856201171875,0.8690952062606812,-0.4118026793003082,4.721365928649902
1780528440273028400,13.6230283203125,2.4612393379211426,-1.2737152576446533,1.7046716213226318
1780528440283129600,13.633129638671875,4.627991676330566,-0.7924807667732239,0.5434837937355042
1780528440303302000,13.653302001953126,2.762908697128296,-1.845929503440857,1.9919757843017578
1780528440313403100,13.663403076171875,1.8315643072128296,-2.6360161304473877,2.073378562927246
1780528440323474000,13.673473876953125,0.9672574996948242,-2.0015525817871094,1.5945383310317993
1780528440333544700,13.683544677734375,-0.5626373887062073,-0.038307227194309235,0.4572925269603729
1780528440343646000,13.69364599609375,0.13168109953403473,1.7094600200653076,0
1780528440353716700,13.703716796875,1.3838485479354858,2.0590133666992188,-0.026336219161748886
1780528440363848700,13.7138486328125,2.5761611461639404,1.37906014919281,-0.1843535304069519
1780528440373889000,13.723888916015625,2.169146776199341,-1.1204863786697388,-0.09576806426048279
1780528440383959800,13.733959716796875,1.2306196689605713,-1.8626888990402222,-0.5985504388809204
1780528440394030600,13.744030517578125,0.6512228846549988,-3.028665065765381,-1.941697597503662
1780528440404162300,13.754162353515625,1.357512354850769,-2.3104045391082764,-2.6001031398773193
1780528440414202600,13.76420263671875,1.4987702369689941,0.26575639843940735,-2.212242364883423
1780528440424273400,13.7742734375,-0.3926490843296051,1.8100165128707886,-0.7805097699165344
1780528440454486000,13.804486083984376,-1.802833914756775,1.5514427423477173,-1.7717092037200928
1780528440484820500,13.834820556640626,0.38067805767059326,-0.6655880808830261,-1.6639702320098877
1780528440545275600,13.895275634765625,1.6352397203445435,-2.7222073078155518,-1.623268723487854
1780528440595721200,13.94572119140625,-2.233790159225464,2.229001760482788,1.2545616626739502
1780528440646227700,13.996227783203125,0.7422025203704834,-2.27209734916687,-0.7876923680305481
1780528440666369500,14.01636962890625,-0.9289502501487732,0.44532153010368347,0.6655880808830261
1780528440676470800,14.026470703125,-1.1803414821624756,0.5937620401382446,-1.8291701078414917
1780528440696582000,14.046581787109375,-0.5171475410461426,1.2641384601593018,-0.7876923680305481
1780528440706652700,14.056652587890625,-0.35673606395721436,1.0869675874710083,1.745373010635376
1780528440716723500,14.066723388671875,-0.40940847992897034,-0.1388636976480484,2.557007312774658
1780528440726794200,14.076794189453125,0.4189853072166443,-0.4812345504760742,0.8906430602073669
1780528440736895500,14.0868955078125,1.237802267074585,-1.3886369466781616,-1.8818424940109253
1780528440746966300,14.09696630859375,0.6512228846549988,-1.5682021379470825,-3.4763808250427246
1780528440757067800,14.10706787109375,0.17717093229293823,-0.8954314589500427,-2.7892448902130127
1780528440767138600,14.117138671875,0.043095629662275314,0.05267243832349777,-0.8188169598579407
1780528440777179000,14.127178955078126,-0.2513911724090576,0.8810662031173706,0.5482721924781799
1780528440787280100,14.137280029296875,-0.2825157940387726,1.0749965906143188,0.1412578970193863
1780528440797381400,14.14738134765625,-0.5626373887062073,0.47405192255973816,-0.9433154463768005
1780528440827624200,14.177624267578125,-0.3663128614425659,0.07182604819536209,-1.0773907899856567
1780528440888079600,14.23807958984375,-0.9983820915222168,0.6943184733390808,-1.9129672050476074
1780528440928393500,14.2783935546875,1.359906554222107,-0.40222588181495667,0.586579442024231
1780528440978808300,14.328808349609375,0.016759412363171577,1.1971008777618408,0.181959331035614
1780528440988879000,14.338879150390625,0.05985504388809204,0.8906430602073669,0.6488286852836609
1780528440998980600,14.348980712890626,0.33039984107017517,0.19393034279346466,0.33039984107017517
1780528441019122200,14.3691220703125,0.871489405632019,-1.4676456451416016,-0.7589619159698486
1780528441039233300,14.3892333984375,0.06464344263076782,-1.2258312702178955,-1.4269442558288574
1780528441049304000,14.399303955078125,-0.9169792532920837,0.8786720037460327,-0.5889736413955688
1780528441059374800,14.409374755859375,-0.5746083855628967,1.5275006294250488,-0.19153612852096558
1780528441069476000,14.41947607421875,-0.8690952062606812,0.9289502501487732,-0.9074024558067322
1780528441079577300,14.429577392578125,-0.24660277366638184,0.16759411990642548,-0.6751648783683777
1780528441099719200,14.44971923828125,0.4141969084739685,-0.933738648891449,-0.3734954595565796
1780528441129870300,14.479870361328125,-0.5650315880775452,0.5027823448181152,-0.12210428714752197
1780528441180255000,14.5302548828125,0.7374141216278076,-0.1628057211637497,-0.9409212470054626
1780528441220660200,14.57066015625,-0.7134721279144287,-0.13407529890537262,-2.3702597618103027
1780528441230761500,14.580761474609375,-1.139639973640442,0.48602294921875,-3.043030261993408
1780528441240832300,14.590832275390625,-1.0462661981582642,1.8171991109848022,-3.0597896575927734
1780528441250872600,14.60087255859375,-0.7589619159698486,2.387019157409668,-2.183511972427368
1780528441261004500,14.611004638671876,-0.507570743560791,1.4197616577148438,-0.629675030708313
1780528441281176600,14.631176513671875,0.22026655077934265,-0.5554547905921936,1.381454348564148
1780528441291277800,14.64127783203125,-0.6105214357376099,-0.5003881454467773,0.5937620401382446
1780528441301379300,14.65137939453125,-1.922544002532959,0.30885201692581177,-0.19393034279346466
1780528441311480600,14.66148046875,-2.691082715988159,1.292868971824646,-0.7134721279144287
1780528441341784600,14.69178466796875,-1.9823989868164062,1.0127472877502441,-1.4101848602294922
1780528441351855400,14.70185546875,-1.039083480834961,-0.24899697303771973,-0.7996633648872375
1780528441402301000,14.752301025390626,-1.1851298809051514,-0.8307880163192749,-0.07661445438861847
1780528441412402200,14.762402099609375,-1.6639702320098877,0.12449848651885986,-0.040701430290937424
1780528441422473000,14.772472900390625,-1.213860273361206,0.5770025849342346,-0.3280056416988373
1780528441432574200,14.78257421875,-0.272938996553421,0.2968810200691223,-0.6488286852836609
1780528441452746500,14.80274658203125,2.252943754196167,-1.0678139925003052,0.019153613597154617
1780528441462878200,14.812878173828125,2.9472622871398926,-1.4173674583435059,0.608127236366272
1780528441483019800,14.833019775390625,2.3558945655822754,-1.2210428714752197,1.158793568611145
1780528441503131000,14.853130859375,1.5418659448623657,0.8690952062606812,-0.5722141861915588
1780528441523333600,14.873333740234376,1.194706678390503,1.6950948238372803,-1.45806884765625
1780528441533435000,14.883434814453125,2.1499931812286377,0.7829039692878723,-1.9776105880737305
1780528441543505700,14.893505615234375,2.3511061668395996,-0.3711012601852417,-1.9105730056762695
1780528441553576400,14.903576416015625,2.647987127304077,-1.139639973640442,-0.9169792532920837
1780528441563647200,14.913647216796875,2.801215887069702,-1.0079588890075684,0.021547814831137657
1780528441573779200,14.923779296875,1.5514427423477173,-0.11252748221158981,-0.031124621629714966
1780528441614215000,14.96421484375,-0.6631938815116882,1.5945383310317993,-2.47560453414917
1780528441624316200,14.974316162109375,0.24181437492370605,0.6871358752250671,-2.3535003662109375
1780528441634417400,14.98441748046875,1.0797849893569946,-0.3064578175544739,-0.9002198576927185
1780528441644519000,14.994518798828125,0.45489832758903503,-0.6320692300796509,0.8738836050033569
1780528441654650600,15.004650634765625,-0.363918662071228,0.2561795711517334,1.6041151285171509
1780528441664752000,15.014752197265626,-1.235408067703247,1.3048399686813354,0.4836287498474121
1780528441674883800,15.0248837890625,-2.647987127304077,2.006340980529785,-1.05105459690094
1780528441695056000,15.045055908203125,-1.7501614093780518,1.9967641830444336,-2.2026655673980713
1780528441705157400,15.055157470703126,-0.4668693244457245,0.6009446382522583,-1.436521053314209
1780528441765856800,15.115856689453125,-2.5330653190612793,1.8267759084701538,-1.8124107122421265
1780528441775958000,15.1259580078125,-2.853888511657715,1.482010841369629,-2.27209734916687
1780528441786090000,15.136090087890626,-2.3702597618103027,0.871489405632019,-2.2840683460235596
1780528441796191200,15.146191162109375,-1.867477297782898,0.38546648621559143,-1.5825673341751099
1780528441806292500,15.15629248046875,-2.22660756111145,0.05506663769483566,-0.8882488012313843
1780528441856829700,15.20682958984375,-3.066972494125366,1.3766659498214722,-1.6927006244659424
1780528441866931000,15.216930908203125,-2.9759926795959473,1.4724340438842773,-1.9560627937316895
1780528441937701000,15.287701171875,-2.698265314102173,0.811634361743927,-0.8619126081466675
1780528442028674000,15.378674072265625,-0.7086837291717529,0.2585737705230713,-0.5171475410461426
1780528442059008500,15.409008544921875,-0.6105214357376099,0.07900865375995636,-0.9552865028381348
1780528442069110000,15.419110107421876,-0.1412578970193863,-0.014365210197865963,-1.0965443849563599
1780528442079211300,15.429211181640625,-0.395043283700943,-0.3495534360408783,-0.8307880163192749
1780528442089282000,15.439281982421875,-0.9983820915222168,-0.13168109953403473,-0.043095629662275314
1780528442099413800,15.449413818359375,-0.7086837291717529,0.9193734526634216,0.2585737705230713
1780528442109515300,15.459515380859376,-0.7134721279144287,1.1803414821624756,0.304063618183136
1780528442139788500,15.48978857421875,-1.3694833517074585,0.524330198764801,-0.28969839215278625
1780528442149890000,15.49989013671875,-1.01753568649292,0.20350714027881622,0.5913678407669067
1780528442159991300,15.5099912109375,-0.31124621629714966,0.10534487664699554,1.3215993642807007
1780528442170123000,15.520123046875,-0.1628057211637497,0.05506663769483566,0.7661445140838623
1780528442180224500,15.530224609375,-0.4165911078453064,-0.44771572947502136,-0.2992752194404602
1780528442190325800,15.54032568359375,-0.2777273952960968,-1.0630255937576294,-0.790086567401886
1780528442200457500,15.55045751953125,-1.290474772453308,-0.24181437492370605,-0.8140285611152649
1780528442210589400,15.56058935546875,-2.075772762298584,0.3423708379268646,-0.5123591423034668
1780528442220690700,15.570690673828125,-0.8379706144332886,1.1228805780410767,0.08379705995321274
1780528442230792000,15.5807919921875,-0.272938996553421,0.7038952708244324,0.33997663855552673
1780528442240924000,15.590923828125,0.12449848651885986,0.23702596127986908,0.26096799969673157
1780528442251055600,15.6010556640625,0.004788403399288654,0.790086567401886,0.8355764150619507
1780528442271258400,15.62125830078125,-1.599326729774475,0.4381389021873474,0.33279404044151306
1780528442281359600,15.631359619140625,-1.2545616626739502,-0.26575639843940735,-0.3926490843296051
1780528442291460900,15.6414609375,0.19153612852096558,-0.3280056416988373,-1.139639973640442
1780528442301562400,15.651562255859375,-0.13168109953403473,0.17477671802043915,-1.678335428237915
1780528442311663600,15.66166357421875,-0.15083470940589905,0.19153612852096558,-1.6759412288665771
1780528442321734400,15.671734375,0.22266076505184174,-0.6560112833976746,-1.3096283674240112
1780528442392230100,15.742230224609376,1.2473790645599365,0.5626373887062073,0.08858546614646912
1780528442452746500,15.80274658203125,0.9313444495201111,-0.181959331035614,1.6184803247451782
1780528442462847700,15.81284765625,1.9105730056762695,-1.3096283674240112,2.3511061668395996
1780528442523303000,15.873302978515625,0.33518823981285095,-0.40222588181495667,2.8347349166870117
1780528442613940200,15.963940185546875,-1.2282254695892334,1.0606313943862915,3.4308910369873047
1780528442694506800,16.0445068359375,-1.1109095811843872,2.6240451335906982,5.480327606201172
1780528442724749600,16.07474951171875,1.5538369417190552,-3.7277719974517822,1.4077905416488647
1780528442734850800,16.084850830078125,2.1092917919158936,-3.9432501792907715,1.8579005002975464
1780528442744921600,16.094921630859375,1.8483237028121948,-2.449268341064453,3.4835634231567383
1780528442754992400,16.104992431640625,2.140416383743286,-0.667982280254364,4.795586109161377
1780528442765063200,16.115063232421875,1.7070658206939697,0.28969839215278625,4.632780075073242
1780528442775134200,16.12513427734375,1.1683704853057861,-0.3280056416988373,3.4620156288146973
1780528442785205000,16.135205078125,1.6089035272598267,-1.7884687185287476,2.9089550971984863
1780528442815447800,16.16544775390625,-0.21547815203666687,-0.47644615173339844,3.0885202884674072
1780528442825518600,16.1755185546875,0.5578489899635315,0.4668693244457245,3.8331170082092285
1780528442835589400,16.18558935546875,1.7477672100067139,0.9193734526634216,4.242525577545166
1780528442845690600,16.195690673828125,2.3271639347076416,0.7445967197418213,3.955221176147461
1780528442855731000,16.20573095703125,1.7070658206939697,-0.7709329724311829,3.205836057662964
1780528442865801700,16.2158017578125,1.9584569931030273,-2.4205379486083984,2.513911724090576
1780528442875872500,16.22587255859375,2.513911724090576,-2.8850131034851074,2.2433669567108154
1780528442885974000,16.23597412109375,2.676717519760132,-2.5761611461639404,2.6168625354766846
1780528442896014300,16.246014404296876,1.6903064250946045,-1.5945383310317993,4.335899353027344
1780528442926257200,16.276257080078125,-0.28969839215278625,2.389413356781006,4.72376012802124
1780528442946429200,16.29642919921875,3.6296098232269287,-2.2864625453948975,0.5027823448181152
1780528442956500000,16.3065,4.618414878845215,-4.302380561828613,0.7350199222564697
1780528443016955400,16.366955322265625,0.7422025203704834,1.659181833267212,1.1204863786697388
1780528443027056600,16.377056640625,3.1268274784088135,-1.0414776802062988,-0.569819986820221
1780528443037158000,16.387157958984375,3.8594532012939453,-3.711012601852417,-0.8259995579719543
1780528443047167700,16.397167724609375,4.288015365600586,-4.697423934936523,0.569819986820221
1780528443057269000,16.40726904296875,4.077325344085693,-4.000710964202881,2.516305923461914
1780528443067339800,16.41733984375,1.048660397529602,-2.0254945755004883,3.428496837615967
1780528443077410800,16.427410888671876,-2.760514497756958,0.9409212470054626,3.090914487838745
1780528443087481600,16.437481689453126,-3.308786630630493,3.7612907886505127,1.3000515699386597
1780528443097582800,16.447582763671875,-1.072602391242981,3.6367924213409424,-1.3431471586227417
1780528443107623200,16.457623046875,0.8954314589500427,0.4620809257030487,-3.380612850189209
1780528443137805000,16.48780517578125,4.611232280731201,-5.719748020172119,2.873042106628418
1780528443147906300,16.49790625,3.1507694721221924,-3.622427225112915,2.513911724090576
1780528443157977000,16.50797705078125,-0.6991068720817566,-0.5291185975074768,-0.12928688526153564
1780528443168017400,16.518017333984375,-3.155557870864868,2.140416383743286,-1.460463047027588
1780528443178118700,16.52811865234375,-4.091690540313721,3.581725835800171,-2.0254945755004883
1780528443188159000,16.538158935546875,-3.227383852005005,3.8163576126098633,-2.0470423698425293
1780528443198229800,16.548229736328125,1.2042834758758545,0.6512228846549988,-1.0223240852355957
1780528443208270000,16.55827001953125,3.995922565460205,-3.1866824626922607,-0.4692635238170624
1780528443218371300,16.568371337890625,5.832275390625,-4.311957359313965,-1.1420341730117798
1780528443228411600,16.57841162109375,3.737348794937134,-5.480327606201172,-2.099714994430542
1780528443238513000,16.588512939453125,-0.29209262132644653,-2.8610711097717285,-2.7557260990142822
1780528443248583700,16.598583740234375,-6.3518171310424805,4.78122091293335,-1.434126853942871
1780528443268756000,16.618755859375,-0.8667010068893433,5.959167957305908,-0.033518824726343155
1780528443278826800,16.62882666015625,2.4181437492370605,1.259350061416626,-1.5059528350830078
1780528443288928000,16.638927978515625,3.2752678394317627,-2.9161376953125,-1.821987509727478
1780528443298998800,16.648998779296875,1.8411411046981812,-3.3949780464172363,-1.4293384552001953
1780528443369463800,16.7194638671875,1.6400281190872192,-1.8339585065841675,-2.008735179901123
1780528443379565300,16.7295654296875,0.11252748221158981,-2.1475989818573,-0.11971008777618408
1780528443389636000,16.739635986328125,-1.2832920551300049,-1.3000515699386597,0.790086567401886
1780528443399707000,16.749706787109375,-2.8610711097717285,1.2425906658172607,0.5195417404174805
1780528443409777700,16.759777587890625,-2.631227731704712,4.343081951141357,-0.090979665517807
1780528443419879000,16.76987890625,-2.6360161304473877,5.0254292488098145,-0.993593692779541
1780528443429980200,16.779980224609375,-1.9584569931030273,3.691859006881714,-1.7477672100067139
1780528443440112000,16.790112060546875,-1.2497732639312744,1.680729627609253,-2.207453966140747
1780528443450183000,16.800182861328125,-0.07900865375995636,0.36152446269989014,-1.7549498081207275
1780528443460284200,16.8102841796875,-0.1388636976480484,0.11013327538967133,-0.7589619159698486
1780528443470385700,16.8203857421875,-1.2952631711959839,0.7589619159698486,0.37828385829925537
1780528443541033700,16.89103369140625,-0.009576806798577309,1.359906554222107,-1.1827356815338135
1780528443551135000,16.901135009765625,-0.033518824726343155,1.9081788063049316,0.6967126727104187
1780528443561236500,16.911236572265626,0.10055647045373917,2.2457611560821533,1.8602946996688843
1780528443581378000,16.9313779296875,-0.24181437492370605,1.3479355573654175,0.2992752194404602
1780528443591418400,16.94141845703125,0.45010992884635925,0.7876923680305481,-0.8475474119186401
1780528443601519600,16.95151953125,0.6775590777397156,0.16998831927776337,-1.292868971824646
1780528443611560000,16.961559814453125,0.5003881454467773,-0.0454898327589035,-0.9672574996948242
1780528443661883400,17.01188330078125,-0.20111294090747833,0.1388636976480484,-0.3208230137825012
1780528443671984600,17.021984619140625,0.1149216815829277,-0.21547815203666687,-0.05267243832349777
1780528443742571800,17.09257177734375,-1.1755530834197998,-0.7541735172271729,-0.22744916379451752
1780528443772814800,17.12281494140625,-0.9457096457481384,-0.21308395266532898,-1.170764684677124
1780528443792956400,17.142956298828125,-0.09816227108240128,-0.06464344263076782,0.5410895943641663
1780528443803027200,17.153027099609375,-0.4141969084739685,-0.6631938815116882,0.6991068720817566
1780528443813128400,17.16312841796875,-0.4165911078453064,-0.5195417404174805,0.7326257228851318
1780528443823199200,17.17319921875,-1.0869675874710083,-0.090979665517807,0.26575639843940735
1780528443833239600,17.183239501953125,-1.6735470294952393,-0.10055647045373917,-0.42856210470199585
1780528443843310300,17.193310302734375,-1.0869675874710083,-0.011971008032560349,-1.2449848651885986
1780528443853381000,17.203381103515625,0.004788403399288654,0.13407529890537262,-2.0422539710998535
1780528443863452000,17.213451904296875,0.26815059781074524,0.14604631066322327,-2.1978771686553955
1780528443873522700,17.223522705078125,0.12928688526153564,0.5506663918495178,-1.7884687185287476
1780528443893664300,17.243664306640625,-0.17956513166427612,0.4692635238170624,-0.3758896589279175
1780528443903735000,17.253735107421875,0.023942016065120697,0.4118026793003082,-0.304063618183136
1780528443913806000,17.26380615234375,0.3232172429561615,0.24181437492370605,-0.6392518281936646
1780528443923907300,17.2739072265625,0.6488286852836609,0.24420857429504395,-0.8690952062606812
1780528443944140500,17.294140625,0.2968810200691223,1.2114660739898682,-0.6344634294509888
1780528443954241800,17.30424169921875,-0.49559974670410156,1.3862427473068237,-0.7422025203704834
1780528443994616600,17.344616455078125,0.5267243981361389,0.5386953949928284,-0.524330198764801
1780528444024889900,17.374889892578125,-0.40701428055763245,-0.07661445438861847,0.6129156351089478
1780528444065234200,17.415234130859375,-0.3687070608139038,0.2968810200691223,-0.9720458984375
1780528444115649300,17.465649169921875,0.31603461503982544,-0.6177040338516235,-0.4357447028160095
1780528444125720000,17.475719970703125,-0.08858546614646912,-0.4357447028160095,-0.9050082564353943
1780528444135851800,17.485851806640625,-0.24899697303771973,-0.30885201692581177,-1.091755986213684
1780528444145953300,17.495953369140626,-0.18914192914962769,-0.4165911078453064,-1.1037269830703735
1780528444156024000,17.506024169921876,-0.09576806426048279,-0.646434485912323,-1.0319008827209473
1780528444166094800,17.5160947265625,0.3495534360408783,-0.5746083855628967,-0.7182605266571045
1780528444176196000,17.526196044921875,0.3256114423274994,-0.5291185975074768,-0.45010992884635925
1780528444196368100,17.5463681640625,0.3878606855869293,-0.2513911724090576,-0.8643068075180054
1780528444236773400,17.5867734375,0.009576806798577309,-0.09576806426048279,-0.7589619159698486
1780528444246875000,17.596875,-0.2346317619085312,0.19632454216480255,-0.9816226959228516
1780528444256976100,17.60697607421875,-0.24420857429504395,0.49799394607543945,-1.3335703611373901
1780528444267077400,17.617077392578125,-0.11971008777618408,0.33279404044151306,-1.1994950771331787
1780528444277179000,17.627178955078126,0.3734954595565796,0.21308395266532898,-1.0199298858642578
1780528444287249700,17.637249755859376,0.3280056416988373,0.28730419278144836,-0.8307880163192749
1780528444307482600,17.657482666015625,0.17956513166427612,0.3711012601852417,-0.4812345504760742
1780528444317584100,17.667584228515626,0.31603461503982544,-0.026336219161748886,-1.0127472877502441
1780528444327655000,17.677655029296876,0.19393034279346466,-0.24660277366638184,-1.656787633895874
1780528444388323800,17.73832373046875,0.7398083209991455,0.8738836050033569,-1.2090718746185303
1780528444398425000,17.748425048828125,0.9624691009521484,0.6751648783683777,-1.4532804489135742
1780528444418627800,17.7686279296875,0.5937620401382446,0.3734954595565796,-1.1061211824417114
1780528444438830300,17.788830322265625,-0.014365210197865963,1.0103530883789062,-0.9265560507774353
1780528444459002400,17.80900244140625,0.5099649429321289,1.4173674583435059,-0.5410895943641663
1780528444469103900,17.819103759765625,0.2082955539226532,1.1061211824417114,-0.507570743560791
1780528444479205000,17.829205078125,0.21787235140800476,0.7781155705451965,-0.3447650372982025
1780528444489306400,17.839306396484375,-0.023942016065120697,0.48602294921875,-0.35673606395721436
1780528444499408000,17.849407958984376,-0.43335050344467163,0.5506663918495178,-0.5291185975074768
1780528444529711600,17.879711669921875,-0.4572925269603729,1.0103530883789062,-1.1085153818130493
1780528444560046000,17.910046142578125,-0.569819986820221,0.2298433631658554,-0.2992752194404602
1780528444570147600,17.920147705078126,-0.40222588181495667,0.3974374830722809,-0.7326257228851318
1780528444580248800,17.930248779296875,-0.14365209639072418,0.44771572947502136,-1.0103530883789062
1780528444590319600,17.940319580078125,-1.137245774269104,0.26096799969673157,-1.3910311460494995
1780528444600451600,17.95045166015625,-1.7166426181793213,0.20350714027881622,-1.2689268589019775
1780528444610552800,17.960552734375,-1.534683346748352,0.24181437492370605,-0.933738648891449
1780528444651019000,18.00101904296875,-0.751779317855835,0.1843535304069519,-1.2042834758758545
1780528444731646500,18.081646484375,0.026336219161748886,-0.002394201699644327,0.181959331035614
1780528444771960300,18.121960205078125,-0.19153612852096558,0.751779317855835,-1.1037269830703735
1780528444782000600,18.132000732421876,-0.4596867263317108,0.5985504388809204,-0.3232172429561615
1780528444792102000,18.142101806640625,-0.07661445438861847,0.4381389021873474,-0.08379705995321274
1780528444802203100,18.152203125,0.5506663918495178,-0.09576806426048279,-1.0821791887283325
1780528444812274000,18.16227392578125,0.5793967843055725,-0.5027823448181152,-1.802833914756775
1780528444822375400,18.17237548828125,0.23702596127986908,-0.4884171485900879,-1.4987702369689941
1780528444842547500,18.19254736328125,0.629675030708313,0.08858546614646912,0.031124621629714966
1780528444862719500,18.212719482421875,-0.019153613597154617,-0.11252748221158981,-0.5650315880775452
1780528444872790300,18.222790283203125,0.5339069962501526,-0.2346317619085312,-0.9074024558067322
1780528444882861000,18.232861083984375,-0.3495534360408783,-0.5027823448181152,-1.0797849893569946
1780528444892931800,18.242931884765625,-0.4429273009300232,0.0454898327589035,-0.26575639843940735
1780528444903033300,18.253033447265626,-0.6200982332229614,0.6320692300796509,0.6607996821403503
1780528444913134600,18.263134521484375,-0.6847416758537292,0.569819986820221,0.9097966551780701
1780528444923235800,18.27323583984375,-0.768538773059845,0.047884032130241394,0.2753331959247589
1780528444943408000,18.293408203125,-0.6009446382522583,0.17956513166427612,-0.33758243918418884
1780528444953509400,18.30350927734375,-0.7350199222564697,0.026336219161748886,0.18914192914962769
1780528444963580200,18.313580078125,-0.5291185975074768,0.49559974670410156,0.15562310814857483
1780528444973681400,18.323681396484375,0.44532153010368347,0.3687070608139038,0.028730420395731926
1780528445003985400,18.3539853515625,-0.38067805767059326,-0.12928688526153564,0.33758243918418884
1780528445014056200,18.36405615234375,-0.14604631066322327,0.22744916379451752,0.4141969084739685
1780528445024127000,18.374126953125,-0.20350714027881622,-0.22505496442317963,-0.44771572947502136
1780528445034228200,18.384228271484375,0.033518824726343155,-0.1867477297782898,-1.2976573705673218
1780528445074542000,18.4245419921875,-0.6344634294509888,0.9193734526634216,1.7932571172714233
1780528445084643300,18.434643310546875,-0.28969839215278625,1.8411411046981812,0.7086837291717529
1780528445094744600,18.44474462890625,0.15562310814857483,2.274491548538208,0.6368576288223267
1780528445104815400,18.4548154296875,0.1364694982767105,2.9472622871398926,1.742978811264038
1780528445114916900,18.464916748046875,-0.4405331015586853,1.9105730056762695,2.387019157409668
1780528445124987600,18.474987548828125,-0.28969839215278625,0.272938996553421,2.22660756111145
1780528445135058400,18.485058349609375,-0.20111294090747833,-0.9289502501487732,1.8962076902389526
1780528445145159700,18.49515966796875,0.15083470940589905,-2.315192937850952,1.2497732639312744
1780528445155230500,18.50523046875,1.0558429956436157,-1.7142484188079834,0.1628057211637497
1780528445165240300,18.515240234375,1.2952631711959839,-0.6272808313369751,-0.26815059781074524
1780528445215594200,18.56559423828125,0.07422025501728058,-1.139639973640442,0.08858546614646912
1780528445296283000,18.646282958984376,-1.5849615335464478,0.15801730751991272,2.1499931812286377
1780528445377001700,18.727001708984375,-0.3423708379268646,-1.3694833517074585,1.7932571172714233
1780528445387103000,18.73710302734375,-0.24420857429504395,-0.3447650372982025,1.601720929145813
1780528445407305700,18.7573056640625,1.7597382068634033,-0.040701430290937424,2.1715409755706787
1780528445417376500,18.76737646484375,2.056619167327881,-0.7948749661445618,2.3750481605529785
1780528445427477800,18.777477783203125,0.9241618514060974,-2.3702597618103027,3.1435868740081787
1780528445437548500,18.787548583984375,1.1851298809051514,-2.365471363067627,4.189853191375732
1780528445447619300,18.797619384765625,0.9911994934082031,-1.3670891523361206,4.041412353515625
1780528445457690000,18.807690185546875,0.6105214357376099,-0.8595184087753296,3.7852327823638916
1780528445467761200,18.81776123046875,1.5131354331970215,-1.3527239561080933,3.825934410095215
1780528445487902700,18.83790283203125,1.2258312702178955,-0.8212111592292786,3.711012601852417
1780528445498004000,18.84800390625,0.950498104095459,-0.11252748221158981,4.194641590118408
1780528445508074800,18.85807470703125,0.9624691009521484,0.4141969084739685,4.062960147857666
1780528445528246800,18.878246826171875,1.05105459690094,-2.1116859912872314,4.529829502105713
1780528445548419000,18.898419189453126,2.3487119674682617,-2.008735179901123,4.199429988861084
1780528445568591000,18.918591064453125,1.7310078144073486,-0.38067805767059326,3.095702886581421
1780528445588732700,18.938732666015625,1.723825216293335,0.09576806426048279,3.004723072052002
1780528445598834000,18.948833984375,1.2689268589019775,-1.192312479019165,3.332728862762451
1780528445608935400,18.958935302734375,1.623268723487854,-2.276885747909546,3.93367338180542
1780528445649279500,18.999279541015625,-0.07661445438861847,0.6320692300796509,2.9257144927978516
1780528445659350300,19.009350341796875,-0.1867477297782898,1.2952631711959839,3.5960910320281982
1780528445669451800,19.01945166015625,1.3024457693099976,1.213860273361206,3.9217023849487305
1780528445679522600,19.0295224609375,2.698265314102173,-0.44771572947502136,3.354276657104492
1780528445689593300,19.03959326171875,3.028665065765381,-2.006340980529785,2.7102363109588623
1780528445699694600,19.049694580078125,2.9520506858825684,-3.4524388313293457,2.315192937850952
1780528445709765400,19.059765380859375,2.851494312286377,-3.40216064453125,2.0685901641845703
1780528445740008400,19.090008544921876,-2.3104045391082764,3.6727054119110107,2.7676970958709717
1780528445750079200,19.100079345703126,-0.3064578175544739,2.363077163696289,2.2577321529388428
1780528445810565000,19.160565185546876,-1.7381904125213623,0.9672574996948242,-0.10055647045373917
1780528445820666400,19.170666259765625,-2.3319525718688965,3.7397429943084717,0.8307880163192749
1780528445830706700,19.180706787109376,-2.477998733520508,3.8115692138671875,0.6536170840263367
1780528445850878700,19.200878662109375,1.3192051649093628,-1.2713210582733154,-1.0007762908935547
1780528445860949500,19.210949462890625,2.403778553009033,-3.4356794357299805,-1.2545616626739502
1780528445871050800,19.22105078125,3.361459255218506,-4.881777286529541,-0.5626373887062073
1780528445881121500,19.23112158203125,2.983175277709961,-3.509899616241455,0.14844051003456116
1780528445951617300,19.3016171875,4.570530891418457,-5.638344764709473,-2.470816135406494
1780528445991931000,19.341930908203125,-5.207388877868652,6.531382083892822,1.455674648284912
1780528446042346000,19.392345947265625,3.4763808250427246,-5.365406036376953,-0.2537853717803955
1780528446052416800,19.402416748046875,2.8826189041137695,-4.2760443687438965,1.6112977266311646
1780528446062518000,19.41251806640625,-1.3503297567367554,-0.2777273952960968,1.6927006244659424
1780528446072588800,19.4225888671875,-5.293580055236816,4.60165548324585,0.6799532771110535
1780528446082659800,19.432659912109376,-6.512228488922119,7.532158374786377,-0.8834604024887085
1780528446092761000,19.442760986328125,-4.72376012802124,6.782773494720459,-3.222595453262329
1780528446102862300,19.4528623046875,-0.8930372595787048,3.0119056701660156,-4.78122091293335
1780528446112963600,19.462963623046875,2.5905263423919678,-0.6967126727104187,-3.552995204925537
1780528446123095600,19.473095458984375,3.9264907836914062,-3.509899616241455,-0.16759411990642548
1780528446133166300,19.483166259765625,2.894589900970459,-5.207388877868652,2.7485435009002686
1780528446163348200,19.51334814453125,-1.9800047874450684,2.9305028915405273,-3.31118106842041
1780528446173419000,19.5234189453125,-1.7262194156646729,4.28322696685791,-3.5913026332855225
1780528446183520300,19.533520263671875,-1.0630255937576294,4.299986362457275,-2.2912509441375732
1780528446193591000,19.543591064453125,1.3024457693099976,2.5067291259765625,0.1149216815829277
1780528446203661800,19.553661865234375,2.341529369354248,-0.40222588181495667,1.522712230682373
1780528446213763300,19.563763427734376,1.8818424940109253,-2.049436569213867,1.2330138683319092
1780528446223864600,19.573864501953125,0.021547814831137657,-0.7086837291717529,-0.3208230137825012
1780528446233935400,19.583935302734375,-0.7110779285430908,1.5298948287963867,-1.039083480834961
1780528446244067000,19.594067138671875,-1.0893617868423462,3.064578056335449,-0.1364694982767105
1780528446254138000,19.60413818359375,-0.7158663272857666,3.318363666534424,0.4357447028160095
1780528446314562800,19.664562744140625,-0.08379705995321274,-0.5650315880775452,-1.4101848602294922
1780528446385089000,19.735089111328126,0.026336219161748886,-0.586579442024231,-1.41257905960083
1780528446395159800,19.745159912109376,-0.9313444495201111,0.19153612852096558,-1.800439715385437
1780528446405230600,19.755230712890626,-1.2186486721038818,0.950498104095459,-0.9528923034667969
1780528446415331800,19.765331787109375,-1.1252747774124146,0.6512228846549988,-0.2298433631658554
1780528446425402600,19.775402587890625,-0.2513911724090576,0.08140286058187485,-0.44771572947502136
1780528446435503900,19.78550390625,0.2059013396501541,-0.5746083855628967,-1.2665326595306396
1780528446445544200,19.795544189453125,-0.6224924325942993,-0.9840168952941895,-1.7070658206939697
1780528446455645400,19.8056455078125,-0.7422025203704834,-0.7158663272857666,-1.3048399686813354
1780528446465747000,19.815746826171875,-0.7326257228851318,-0.21308395266532898,-0.8667010068893433
1780528446475848200,19.82584814453125,-1.2737152576446533,-0.26096799969673157,-0.7493851184844971
1780528446506091000,19.856091064453125,-0.667982280254364,0.2298433631658554,-0.9672574996948242
1780528446516192500,19.866192626953126,-0.7206547260284424,0.5793967843055725,-0.7589619159698486
1780528446526263300,19.87626318359375,-1.1300631761550903,0.8547300100326538,-0.5817909836769104
1780528446546465800,19.8964658203125,-1.5131354331970215,-0.016759412363171577,-0.9265560507774353
1780528446556567300,19.9065673828125,-0.8451532125473022,-0.6368576288223267,-0.9409212470054626
1780528446596941800,19.94694189453125,-0.9911994934082031,1.1635819673538208,-1.920149803161621
1780528446627245800,19.977245849609375,-0.5267243981361389,0.8092401623725891,-1.1994950771331787
1780528446637347300,19.987347412109376,-0.6368576288223267,0.569819986820221,-1.1300631761550903
1780528446647448600,19.997448486328125,-0.7781155705451965,0.4692635238170624,-0.9457096457481384
1780528446667620600,20.01762060546875,0.8188169598579407,0.7182605266571045,-0.6536170840263367
1780528446677691400,20.02769140625,0.8523358106613159,0.7637503147125244,-0.4836287498474121
1780528446687762200,20.03776220703125,0.9145850539207458,0.7637503147125244,-0.42856210470199585
1780528446697894100,20.04789404296875,0.8259995579719543,0.9528923034667969,-0.24660277366638184
1780528446738299400,20.08829931640625,1.5394717454910278,-0.07422025501728058,-1.3670891523361206
1780528446748400600,20.098400634765625,1.9776105880737305,-0.7541735172271729,-0.9241618514060974
1780528446758502000,20.108501953125,1.7118542194366455,-0.9624691009521484,-0.47165772318840027
1780528446788806000,20.138805908203125,1.3120225667953491,-0.8379706144332886,-0.6512228846549988
1780528446849414000,20.199413818359375,0.5339069962501526,-0.38546648621559143,-1.0534487962722778
1780528446879718000,20.2297177734375,-0.12689268589019775,0.37828385829925537,-0.10773907601833344
1780528446930254800,20.2802548828125,-1.460463047027588,0.6416460275650024,-1.0582371950149536
1780528446940356400,20.2903564453125,-1.7693150043487549,1.216254472732544,-0.6967126727104187
1780528446970690800,20.32069091796875,-0.9265560507774353,0.7661445140838623,-0.9002198576927185
1780528446980761600,20.33076171875,-0.7493851184844971,0.9481038451194763,-0.9576807022094727
1780528446990893300,20.340893310546875,-0.6919242739677429,1.015141487121582,-0.7805097699165344
1780528447000994600,20.35099462890625,-1.3192051649093628,1.3527239561080933,-0.6560112833976746
1780528447011096000,20.361095947265625,-1.5610195398330688,1.7357962131500244,-0.6823474764823914
1780528447021197300,20.371197265625,-1.194706678390503,2.293645143508911,-1.0534487962722778
1780528447031298600,20.381298583984375,-0.5722141861915588,2.145204782485962,-1.3694833517074585
1780528447041400000,20.391400146484376,-0.49799394607543945,1.6831238269805908,-1.403002142906189
1780528447051501300,20.401501220703125,-0.43095630407333374,1.0462661981582642,-0.9385270476341248
1780528447061602600,20.4116025390625,-0.021547814831137657,0.8068459630012512,-0.3878606855869293
1780528447071703800,20.421703857421875,-1.1228805780410767,0.8307880163192749,-0.6200982332229614
1780528447081805300,20.431805419921876,-2.0398597717285156,1.3120225667953491,-1.1971008777618408
1780528447091937000,20.44193701171875,-2.231395959854126,1.9991583824157715,-1.5969325304031372
1780528447102038300,20.452038330078125,-1.623268723487854,2.3343467712402344,-1.6065093278884888
1780528447112139800,20.462139892578126,-0.7637503147125244,1.9273324012756348,-0.912190854549408
1780528447122241000,20.472240966796875,-0.9074024558067322,1.1300631761550903,-0.45489832758903503
1780528447132342300,20.48234228515625,-1.4676456451416016,0.2801215946674347,0.033518824726343155
1780528447142443800,20.49244384765625,-2.279279947280884,-0.37828385829925537,0.14844051003456116
1780528447152545000,20.502544921875,-2.96162748336792,-0.35673606395721436,-0.3423708379268646
1780528447162676700,20.5126767578125,-2.8586769104003906,0.9744400978088379,-1.0103530883789062
1780528447182879500,20.53287939453125,-2.7269957065582275,2.382230758666992,-2.1547815799713135
1780528447192980700,20.542980712890625,-2.298433542251587,1.9249382019042969,-1.922544002532959
1780528447203051500,20.553051513671875,-2.274491548538208,1.0271124839782715,-1.0582371950149536
1780528447213183500,20.56318359375,-2.363077163696289,0.3758896589279175,-0.38307225704193115
1780528447223284700,20.57328466796875,-2.3942017555236816,0,-0.15562310814857483
1780528447233416400,20.58341650390625,-2.5905263423919678,0.2537853717803955,-0.6703764796257019
1780528447294055000,20.644054931640625,-1.8770540952682495,-0.22266076505184174,-1.0558429956436157
1780528447304156400,20.654156494140626,-2.5761611461639404,-0.5219359993934631,-0.5961562395095825
1780528447374712800,20.724712890625,-1.194706678390503,0.4189853072166443,0.2801215946674347
1780528447465380600,20.815380615234375,-0.2944868206977844,-0.2059013396501541,-1.1492167711257935
1780528447505663700,20.855663818359375,-1.455674648284912,0.5267243981361389,1.1013327836990356
1780528447515704000,20.8657041015625,-1.2497732639312744,1.1276689767837524,-0.09816227108240128
1780528447525774800,20.87577490234375,0.4668693244457245,0.667982280254364,-0.586579442024231
1780528447535845600,20.885845703125,0.6775590777397156,-0.26815059781074524,-0.3471592366695404
1780528447545947100,20.895947021484375,-0.17477671802043915,-0.6655880808830261,0.5889736413955688
1780528447556048400,20.90604833984375,-0.45250412821769714,-0.38307225704193115,0.768538773059845
1780528447566088700,20.916088623046875,0.45010992884635925,0.026336219161748886,-0.33997663855552673
1780528447576190000,20.92618994140625,0.667982280254364,-0.26575639843940735,-1.5179238319396973
1780528447596331500,20.94633154296875,-0.12689268589019775,-0.4118026793003082,-0.47644615173339844
1780528447606402300,20.95640234375,-1.1659762859344482,-0.4668693244457245,0.1388636976480484
1780528447616503800,20.96650390625,-1.0893617868423462,-0.16759411990642548,-0.12928688526153564
1780528447626605000,20.97660498046875,-1.6065093278884888,-0.23702596127986908,-0.5602431893348694
1780528447636706300,20.986706298828125,-1.4269442558288574,-0.16519992053508759,-0.33518823981285095
1780528447646777000,20.996777099609375,-1.158793568611145,0.07661445438861847,0.4213795065879822
1780528447656848000,21.006847900390625,-0.667982280254364,-0.0694318488240242,0.7757213711738586
1780528447666949400,21.016949462890626,-0.304063618183136,-0.3423708379268646,0.933738648891449
1780528447677020200,21.027020263671876,-0.6488286852836609,-1.2856862545013428,1.7501614093780518
1780528447697192200,21.047192138671875,-1.3239935636520386,-1.9919757843017578,2.6671407222747803
1780528447707263000,21.057262939453125,-0.7158663272857666,-1.170764684677124,1.601720929145813
1780528447717333800,21.067333740234375,-0.3998316824436188,-0.48602294921875,0.5171475410461426
1780528447767718400,21.117718505859376,1.8411411046981812,-1.0414776802062988,3.251325845718384
1780528447808032000,21.158031982421875,0.4189853072166443,-0.5554547905921936,5.240907669067383
1780528447848406800,21.19840673828125,1.1037269830703735,0.033518824726343155,3.914519786834717
1780528447929126000,21.2791259765625,-0.14604631066322327,-0.15801730751991272,6.224924564361572
1780528447999713000,21.349713134765626,0.33758243918418884,-0.5099649429321289,6.342240333557129
1780528448019854600,21.3698544921875,1.4245500564575195,0.004788403399288654,3.141192674636841
1780528448029955800,21.379955810546875,0.9265560507774353,-0.7134721279144287,3.045424461364746
1780528448040057000,21.39005712890625,1.039083480834961,-1.558625340461731,3.957615375518799
1780528448050128000,21.4001279296875,0.8930372595787048,-2.094926595687866,4.707000732421875
1780528448060137700,21.4101376953125,-0.047884032130241394,-2.298433542251587,4.795586109161377
1780528448070208500,21.42020849609375,-0.47405192255973816,-0.7422025203704834,5.018246650695801
1780528448080279300,21.430279296875,-0.3447650372982025,0.5578489899635315,5.037400245666504
1780528448090350000,21.44035009765625,0.22026655077934265,0.5722141861915588,4.613626480102539
1780528448100420900,21.4504208984375,0.8738836050033569,-0.9241618514060974,3.995922565460205
