time,seconds_elapsed,z,y,x
1780528426316821000,-0.333178955078125,8.978256225585938,4.304774761199951,-0.35913026332855225
1780528426357195800,-0.29280419921875,8.939949035644531,4.3861775398254395,-0.17477671802043915
1780528426367297300,-0.28270263671875,9.153033256530762,3.488351821899414,-0.5027823448181152
1780528426377368000,-0.2726318359375,9.05247688293457,3.7038300037384033,-1.1085153818130493
1780528426387469300,-0.26253076171875,8.865729331970215,3.84269380569458,-0.950498104095459
1780528426407611000,-0.24238916015625,9.181763648986816,4.3191399574279785,-0.4836287498474121
1780528426417712000,-0.232287841796875,9.165003776550293,4.264073371887207,-0.6919242739677429
1780528426427783000,-0.222217041015625,9.157821655273438,4.355052947998047,-0.7805097699165344
1780528426458056400,-0.191943603515625,9.093177795410156,4.242525577545166,-0.5482721924781799
1780528426468157700,-0.18184228515625,9.090784072875977,4.1156325340271,-0.33279404044151306
1780528426478228500,-0.171771484375,9.102754592895508,3.9240965843200684,-0.2537853717803955
1780528426488299300,-0.16170068359375,9.07641887664795,3.957615375518799,-0.26815059781074524
1780528426498370000,-0.1516298828125,8.968679428100586,4.039018154144287,-0.28969839215278625
1780528426508441000,-0.141558837890625,8.844181060791016,4.199429988861084,-0.2801215946674347
1780528426518481200,-0.131518798828125,8.827422142028809,4.316745758056641,-0.28969839215278625
1780528426528582700,-0.121417236328125,8.769960403442383,4.390965938568115,-0.22744916379451752
1780528426538653400,-0.1113466796875,8.815450668334961,4.383783340454102,-0.26575639843940735
1780528426558764500,-0.0912353515625,8.791508674621582,4.347870349884033,-0.1388636976480484
1780528426609149000,-0.04085107421875,8.865729331970215,4.271255970001221,-0.5195417404174805
1780528426619250200,-0.030749755859375,8.89445972442627,4.323928356170654,-0.5722141861915588
1780528426629321200,-0.0206787109375,8.87051773071289,4.369418144226074,-0.5003881454467773
1780528426639422500,-0.01057763671875,8.848969459533691,4.424484729766846,-0.5434837937355042
1780528426659594500,0.009594482421875,8.978256225585938,4.264073371887207,-0.5482721924781799
1780528426669695700,0.01969580078125,9.121908187866211,4.182670593261719,-0.4357447028160095
1780528426679766500,0.0297666015625,9.172186851501465,4.211400985717773,-0.507570743560791
1780528426689837600,0.039837646484375,9.119514465332031,4.144362926483154,-0.569819986820221
1780528426699908400,0.049908447265625,9.100360870361328,4.153939723968506,-0.6224924325942993
1780528426710009600,0.060009521484375,9.097966194152832,4.1156325340271,-0.5650315880775452
1780528426720080400,0.070080322265625,9.059659004211426,4.173093795776367,-0.5195417404174805
1780528426730151200,0.080151123046875,9.004592895507812,4.182670593261719,-0.5722141861915588
1780528426740222000,0.090221923828125,9.006986618041992,4.2975921630859375,-0.5267243981361389
1780528426750292700,0.100292724609375,9.045293807983398,4.3191399574279785,-0.4644751250743866
1780528426760363500,0.110363525390625,9.002198219299316,4.32871675491333,-0.5099649429321289
1780528426770434300,0.120434326171875,9.028534889221191,4.259284973144531,-0.47644615173339844
1780528426780505000,0.130505126953125,8.954314231872559,4.314351558685303,-0.4572925269603729
1780528426790575900,0.140575927734375,8.908824920654297,4.32871675491333,-0.507570743560791
1780528426810778600,0.160778564453125,8.860940933227539,4.240131378173828,-0.569819986820221
1780528426830950700,0.18095068359375,8.868123054504395,4.443638324737549,-0.5793967843055725
1780528426841052200,0.19105224609375,8.927978515625,4.412513732910156,-0.4908113479614258
1780528426851153400,0.2011533203125,8.918401718139648,4.448426723480225,-0.5195417404174805
1780528426861254700,0.211254638671875,8.877699851989746,4.3861775398254395,-0.5626373887062073
1780528426871356000,0.22135595703125,8.887276649475098,4.359841346740723,-0.5434837937355042
1780528426881457400,0.23145751953125,8.968679428100586,4.278438568115234,-0.5171475410461426
1780528426931903000,0.281903076171875,8.791508674621582,4.288015365600586,-0.5219359993934631
1780528426992358100,0.342358154296875,8.975862503051758,4.225766181945801,-0.5770025849342346
1780528427002429000,0.352428955078125,8.87291145324707,4.228160381317139,-0.49559974670410156
1780528427012499700,0.362499755859375,8.865729331970215,4.259284973144531,-0.47884035110473633
1780528427022570500,0.372570556640625,8.865729331970215,4.223371982574463,-0.5267243981361389
1780528427032672000,0.382672119140625,8.916007041931152,4.168305397033691,-0.5434837937355042
1780528427042742800,0.39274267578125,8.827422142028809,4.084507942199707,-0.5913678407669067
1780528427052813600,0.4028134765625,8.918401718139648,4.0964789390563965,-0.5889736413955688
1780528427062854000,0.41285400390625,8.923190116882324,4.2090067863464355,-0.6560112833976746
1780528427072955100,0.422955078125,8.887276649475098,4.228160381317139,-0.6200982332229614
1780528427103228700,0.453228759765625,8.927978515625,4.2975921630859375,-0.7733271718025208
1780528427113299500,0.463299560546875,8.944737434387207,4.357447147369385,-0.8667010068893433
1780528427123400700,0.473400634765625,8.983044624328613,4.596867084503174,-0.9600749015808105
1780528427143542300,0.493542236328125,8.944737434387207,4.517858505249023,-1.2880805730819702
1780528427153643500,0.5036435546875,8.916007041931152,4.534617900848389,-1.4053963422775269
1780528427163745000,0.5137451171875,8.81784439086914,4.666299343109131,-1.4293384552001953
1780528427183886600,0.533886474609375,8.616731643676758,4.7405195236206055,-1.678335428237915
1780528427204028200,0.554028076171875,8.650250434875488,4.941632270812988,-1.802833914756775
1780528427214099000,0.564098876953125,8.583212852478027,4.965574264526367,-2.03507137298584
1780528427224139300,0.57413916015625,8.597578048706055,5.135562419891357,-2.3343467712402344
1780528427234240500,0.584240478515625,8.789113998413086,5.240907669067383,-2.7126305103302
1780528427244280800,0.59428076171875,8.87291145324707,5.446808815002441,-3.2154128551483154
1780528427254351600,0.6043515625,8.918401718139648,5.96874475479126,-3.6990416049957275
1780528427264452900,0.614452880859375,9.08838939666748,6.45476770401001,-4.0533833503723145
1780528427274523600,0.624523681640625,8.832210540771484,6.823474884033203,-4.158728122711182
1780528427294726400,0.644726318359375,7.307103633880615,7.189787864685059,-4.4077253341674805
1780528427304797200,0.654797119140625,7.398083209991455,7.129932880401611,-4.73573112487793
1780528427314868000,0.664867919921875,7.714118003845215,6.885724067687988,-4.836287498474121
1780528427324969200,0.67496923828125,7.955932140350342,6.435614109039307,-4.479551315307617
1780528427335040000,0.6850400390625,8.611943244934082,5.671864032745361,-4.120420932769775
1780528427345110800,0.69511083984375,9.603142738342285,4.692635536193848,-3.995922565460205
1780528427355181600,0.705181640625,10.821791648864746,3.4596214294433594,-3.804386615753174
1780528427365252600,0.715252685546875,11.78665542602539,1.8914192914962769,-3.5170822143554688
1780528427375353900,0.725353759765625,12.212822914123535,0.4620809257030487,-2.896984100341797
1780528427405627100,0.755627197265625,13.924676895141602,-2.652775526046753,-0.28969839215278625
1780528427415728600,0.765728759765625,13.543998718261719,-3.6750996112823486,0.5889736413955688
1780528427425830000,0.775829833984375,13.39555835723877,-4.577713489532471,1.6280571222305298
1780528427435900700,0.785900634765625,13.69962215423584,-5.736507415771484,3.6990416049957275
1780528427446002000,0.796001953125,13.467384338378906,-5.585672378540039,4.32871675491333
1780528427456103400,0.806103515625,13.055582046508789,-4.953603267669678,4.659116744995117
1780528427466204700,0.81620458984375,12.138602256774902,-3.8786067962646484,4.51067590713501
1780528427476306000,0.826305908203125,10.812214851379395,-3.050212860107422,4.477157115936279
1780528427486407200,0.8364072265625,9.883264541625977,-2.4157495498657227,4.572925090789795
1780528427496508700,0.8465087890625,9.742006301879883,-2.315192937850952,4.788403511047363
1780528427506640400,0.856640380859375,10.031704902648926,-2.5905263423919678,4.944026470184326
1780528427516711200,0.866711181640625,10.127472877502441,-3.098097085952759,5.0900726318359375
1780528427526812700,0.876812744140625,10.587160110473633,-3.5865142345428467,5.085284233093262
1780528427536914000,0.886913818359375,10.960655212402344,-4.180276393890381,5.128379821777344
1780528427547015200,0.89701513671875,11.046846389770508,-4.517858505249023,5.1116204261779785
1780528427557116400,0.907116455078125,10.524910926818848,-4.620809078216553,5.073313236236572
1780528427567187200,0.917187255859375,9.737217903137207,-4.548983097076416,5.149928092956543
1780528427577288700,0.927288818359375,8.662221908569336,-4.228160381317139,5.202600479125977
1780528427587390000,0.937389892578125,8.164227485656738,-3.6798880100250244,5.595249176025391
1780528427597491200,0.9474912109375,8.252813339233398,-3.3063924312591553,5.686229228973389
1780528427607592700,0.9575927734375,7.967903137207031,-2.937685489654541,5.841852188110352
1780528427617632800,0.9676328125,7.625532627105713,-2.5498247146606445,6.050147533416748
1780528427627734300,0.977734375,7.627926826477051,-2.0853497982025146,6.279991149902344
1780528427637835500,0.98783544921875,7.252037048339844,-1.4891934394836426,6.22731876373291
1780528427647936800,0.997936767578125,7.220912456512451,-0.9840168952941895,6.308721542358398
1780528427658007600,1.008007568359375,6.732495307922363,-0.2585737705230713,6.301538944244385
1780528427668109000,1.018109130859375,5.750872611999512,0.19393034279346466,6.337451934814453
1780528427688311600,1.0383115234375,4.20421838760376,0.45489832758903503,7.168240070343018
1780528427698412800,1.048412841796875,4.843470096588135,0.08858546614646912,7.4316020011901855
1780528427708544800,1.058544677734375,5.805939197540283,-0.5051765441894531,7.503427982330322
1780528427728747300,1.078747314453125,7.529764175415039,0.12210428714752197,6.787561893463135
1780528427738818000,1.088818115234375,6.244078159332275,0.7829039692878723,6.756437301635742
1780528427748950000,1.098949951171875,4.371812343597412,1.3766659498214722,7.402871608734131
1780528427759051300,1.10905126953125,3.1507694721221924,1.946485996246338,8.125920295715332
1780528427769152500,1.119152587890625,2.4229321479797363,2.6671407222747803,8.801085472106934
1780528427819628800,1.16962890625,1.5131354331970215,5.841852188110352,10.338163375854492
1780528427829730000,1.17972998046875,1.3503297567367554,6.026205539703369,11.03248119354248
1780528427839861800,1.18986181640625,1.6184803247451782,6.167463779449463,11.338939666748047
1780528427849963300,1.19996337890625,2.212242364883423,6.054935932159424,11.57596492767334
1780528427860064500,1.210064453125,2.542642116546631,5.6670756340026855,11.640608787536621
1780528427870165800,1.220165771484375,2.5929205417633057,5.523423194885254,11.738770484924316
1780528427880267300,1.230267333984375,2.6671407222747803,5.324704647064209,12.102689743041992
1780528427890368500,1.240368408203125,3.0190882682800293,5.157110691070557,12.45703125
1780528427900439300,1.250439208984375,3.335123062133789,4.711789131164551,12.574347496032715
1780528427910571000,1.260571044921875,3.993528366088867,3.840299606323242,12.021286964416504
1780528427925738200,1.27573828125,4.290409564971924,2.808398485183716,11.30063247680664
1780528427930773800,1.280773681640625,4.125209331512451,1.9728221893310547,10.776301383972168
1780528427940875000,1.290875,3.7421371936798096,1.2330138683319092,10.6925048828125
1780528427950976300,1.300976318359375,3.4763808250427246,0.8331822156906128,10.500968933105469
1780528427961077800,1.311077880859375,3.0621838569641113,0.5602431893348694,10.196905136108398
1780528427971179000,1.321178955078125,2.7964274883270264,0.21547815203666687,9.921571731567383
1780528428001513500,1.351513427734375,2.4181437492370605,-0.9074024558067322,8.370129585266113
1780528428011645400,1.3616455078125,1.699883222579956,-1.2090718746185303,8.226476669311523
1780528428021746700,1.37174658203125,1.1300631761550903,-1.5442601442337036,7.752425193786621
1780528428031848000,1.381847900390625,1.048660397529602,-1.6615760326385498,7.283161640167236
1780528428041980000,1.39197998046875,0.8595184087753296,-1.599326729774475,7.048529624938965
1780528428062182400,1.412182373046875,1.4748282432556152,-0.9816226959228516,6.782773494720459
1780528428072283600,1.42228369140625,1.623268723487854,-0.8379706144332886,6.066906929016113
1780528428087451000,1.437450927734375,1.6160861253738403,-0.7781155705451965,5.96874475479126
1780528428092516900,1.442516845703125,1.6831238269805908,-0.6751648783683777,6.567295074462891
1780528428102618000,1.4526181640625,1.6208745241165161,-0.5027823448181152,6.823474884033203
1780528428112719600,1.4627197265625,0.9433154463768005,-0.395043283700943,6.6391215324401855
1780528428122820900,1.47282080078125,-0.17956513166427612,-0.3016694188117981,6.524199485778809
1780528428173388500,1.523388427734375,0.6009446382522583,-1.5394717454910278,6.773196697235107
1780528428183459300,1.533459228515625,1.577778935432434,-1.8339585065841675,6.129156112670898
1780528428193530000,1.543530029296875,1.7836803197860718,-1.699883222579956,5.963956356048584
1780528428203601000,1.553600830078125,1.5394717454910278,-1.357512354850769,6.414066314697266
1780528428213671700,1.563671630859375,0.7972691655158997,-0.751779317855835,7.400477409362793
1780528428223773000,1.57377294921875,-0.014365210197865963,-0.12449848651885986,8.224082946777344
1780528428233843700,1.58384375,-0.7781155705451965,0.304063618183136,8.611943244934082
1780528428243945200,1.5939453125,-0.2537853717803955,0.19632454216480255,8.403648376464844
1780528428254046500,1.60404638671875,1.381454348564148,0.3758896589279175,7.9846625328063965
1780528428264147700,1.614147705078125,4.855441093444824,-0.019153613597154617,6.7061591148376465
1780528428274188000,1.62418798828125,6.133944988250732,-0.031124621629714966,5.959167957305908
1780528428284258800,1.6342587890625,4.173093795776367,0.26575639843940735,6.452373504638672
1780528428294329600,1.64432958984375,1.6519991159439087,-0.3902548849582672,7.539340972900391
1780528428304400400,1.654400390625,0.3423708379268646,-0.9720458984375,8.621520042419434
1780528428314471200,1.66447119140625,0.31364041566848755,-0.8475474119186401,9.385271072387695
1780528428324542000,1.6745419921875,0.828393816947937,-0.42856210470199585,9.485827445983887
1780528428334612700,1.68461279296875,1.4748282432556152,-0.6631938815116882,9.330204010009766
1780528428344653000,1.694653076171875,1.5059528350830078,-1.3096283674240112,9.210494041442871
1780528428354754600,1.704754638671875,1.3239935636520386,-1.7094600200653076,9.284713745117188
1780528428364825300,1.714825439453125,1.623268723487854,-2.0231003761291504,9.624691009521484
1780528428374926600,1.724926513671875,1.6950948238372803,-2.3343467712402344,9.744400978088379
1780528428384997400,1.734997314453125,2.229001760482788,-2.169146776199341,9.99339771270752
1780528428395037700,1.74503759765625,2.4875755310058594,-1.6735470294952393,9.914389610290527
1780528428405108500,1.7551083984375,2.451662540435791,-1.7142484188079834,9.691728591918945
1780528428415209700,1.765209716796875,2.360682964324951,-1.941697597503662,9.334992408752441
1780528428425311000,1.77531103515625,2.7772738933563232,-1.9321208000183105,9.363722801208496
1780528428435381800,1.7853818359375,2.806004285812378,-1.9033904075622559,9.8784761428833
1780528428455523600,1.805523681640625,2.5450363159179688,-1.8746598958969116,10.438719749450684
1780528428465624800,1.815624755859375,2.432508945465088,-2.2409727573394775,9.998186111450195
1780528428475695600,1.825695556640625,2.248155355453491,-2.537853717803955,9.378087997436523
1780528428485766400,1.835766357421875,2.612074136734009,-2.363077163696289,8.549694061279297
1780528428495867600,1.84586767578125,2.7222073078155518,-2.363077163696289,7.915230751037598
1780528428505969200,1.85596923828125,2.7533318996429443,-1.9991583824157715,7.5417351722717285
1780528428516070400,1.8660703125,1.9752163887023926,-1.8842366933822632,7.503427982330322
1780528428586688000,1.93668798828125,4.479551315307617,-4.855441093444824,8.712499618530273
1780528428606860000,1.956860107421875,2.8658595085144043,-3.6391866207122803,9.864110946655273
1780528428667285000,2.017284912109375,1.678335428237915,-3.7493197917938232,10.311826705932617
1780528428737811200,2.087811279296875,1.3287819623947144,-3.2992098331451416,9.461885452270508
1780528428818469000,2.16846923828125,0.5147533416748047,-2.734178304672241,9.526528358459473
1780528428838671600,2.188671630859375,2.9041666984558105,-2.38462495803833,9.952696800231934
1780528428848742400,2.198742431640625,3.533841609954834,-2.3080103397369385,10.010157585144043
1780528428858813200,2.208813232421875,3.0382418632507324,-2.918531894683838,10.012551307678223
1780528428868914700,2.218914794921875,2.2625205516815186,-3.428496837615967,10.505757331848145
1780528428919299000,2.269299072265625,1.5825673341751099,-2.889801502227783,9.138668060302734
1780528428979754500,2.32975439453125,1.4460978507995605,-2.3558945655822754,8.89445972442627
1780528429030230500,2.38023046875,1.867477297782898,-3.248931646347046,8.482656478881836
1780528429040301300,2.39030126953125,1.8962076902389526,-3.3662476539611816,8.652645111083984
1780528429050372000,2.4003720703125,1.8962076902389526,-2.959233283996582,8.825027465820312
1780528429060473300,2.410473388671875,1.764526605606079,-2.7317841053009033,8.825027465820312
1780528429070574800,2.420574951171875,1.2545616626739502,-2.8826189041137695,8.939949035644531
1780528429080676000,2.430676025390625,1.5921441316604614,-1.8555063009262085,9.059659004211426
1780528429090777300,2.44077734375,1.8986018896102905,-0.9528923034667969,8.887276649475098
1780528429100848000,2.45084814453125,1.534683346748352,-1.6041151285171509,8.633491516113281
1780528429131121700,2.48112158203125,2.7533318996429443,-5.3342814445495605,7.841010570526123
1780528429151263200,2.50126318359375,2.9472622871398926,-3.5913026332855225,8.825027465820312
1780528429161364500,2.511364501953125,2.473210334777832,-2.0398597717285156,9.26795482635498
1780528429171496400,2.521496337890625,1.824381709098816,-1.0007762908935547,9.17697525024414
1780528429181536800,2.531536865234375,1.6208745241165161,-0.5410895943641663,8.83699893951416
1780528429191638000,2.541637939453125,1.6328455209732056,-1.1492167711257935,8.616731643676758
1780528429201678300,2.55167822265625,2.229001760482788,-2.1595699787139893,8.571242332458496
1780528429211749000,2.5617490234375,2.676717519760132,-2.406172752380371,8.40843677520752
1780528429221820000,2.57181982421875,2.808398485183716,-1.764526605606079,8.33182144165039
1780528429231921200,2.581921142578125,2.387019157409668,-2.032677173614502,8.60236644744873
1780528429242022400,2.5920224609375,2.4684219360351562,-3.5865142345428467,8.913613319396973
1780528429252124000,2.6021240234375,2.7222073078155518,-4.742913722991943,9.478644371032715
1780528429262225200,2.61222509765625,2.7269957065582275,-5.157110691070557,9.715670585632324
1780528429272296000,2.6222958984375,2.6886885166168213,-4.436455726623535,10.11550235748291
1780528429282428000,2.632427978515625,2.470816135406494,-3.3494882583618164,10.24000072479248
1780528429292529200,2.642529052734375,2.2218191623687744,-2.0638017654418945,9.976638793945312
1780528429302630400,2.65263037109375,1.5155296325683594,-1.4053963422775269,9.765948295593262
1780528429312701200,2.662701171875,1.0749965906143188,-1.577778935432434,9.399636268615723
1780528429322802400,2.672802490234375,1.5442601442337036,-2.0159177780151367,9.136273384094238
1780528429332934400,2.682934326171875,1.821987509727478,-2.537853717803955,9.29189682006836
1780528429343005200,2.693005126953125,1.558625340461731,-2.7533318996429443,9.552865028381348
1780528429353106400,2.7031064453125,1.173158884048462,-2.276885747909546,9.502586364746094
1780528429363208000,2.7132080078125,0.9097966551780701,-1.5705963373184204,9.047688484191895
1780528429373309200,2.72330908203125,1.0678139925003052,-0.9050082564353943,8.707711219787598
1780528429383349500,2.733349609375,0.9457096457481384,-0.8092401623725891,9.346963882446289
1780528429393420300,2.743420166015625,1.1061211824417114,-0.2992752194404602,10.134655952453613
1780528429403521500,2.753521484375,0.5267243981361389,0.011971008032560349,10.180145263671875
1780528429413592300,2.76359228515625,0.363918662071228,-0.993593692779541,9.792284965515137
1780528429423632600,2.773632568359375,0.7996633648872375,-2.3989901542663574,9.222464561462402
1780528429433703400,2.783703369140625,0.790086567401886,-3.6367924213409424,8.757989883422852
1780528429443804700,2.7938046875,1.2689268589019775,-4.5825018882751465,7.797914981842041
1780528429524401700,2.874401611328125,4.19224739074707,-5.638344764709473,8.99740982055664
1780528429594988800,2.94498876953125,-0.3687070608139038,-1.7142484188079834,11.068394660949707
1780528429615160800,2.965160888671875,-1.2306196689605713,-2.0446481704711914,10.967838287353516
1780528429645434400,2.995434326171875,-3.4835634231567383,1.1013327836990356,6.931213855743408
1780528429675708000,3.0257080078125,-2.2385785579681396,-1.280897855758667,6.303933143615723
1780528429685809200,3.03580908203125,-1.886630892753601,-0.24660277366638184,5.796362400054932
1780528429695880000,3.0458798828125,-2.58813214302063,-0.1149216815829277,5.537788391113281
1780528429705950700,3.05595068359375,-2.0638017654418945,-0.16519992053508759,5.781997203826904
1780528429716021500,3.066021484375,-1.3934253454208374,-0.6823474764823914,6.217741966247559
1780528429726122800,3.076122802734375,-0.9313444495201111,-1.0247182846069336,6.584054470062256
1780528429736193500,3.086193603515625,-0.3998316824436188,-1.335964560508728,6.514622688293457
1780528429746295000,3.096294921875,0.3687070608139038,-1.50355863571167,6.8162922859191895
1780528429756335400,3.10633544921875,0.5746083855628967,-1.7860745191574097,7.2352776527404785
1780528429766436600,3.1164365234375,0.8978256583213806,-2.518700122833252,7.33583402633667
1780528429847094500,3.197094482421875,1.9608511924743652,-3.1507694721221924,8.78193187713623
1780528429867266600,3.2172666015625,1.845929503440857,-3.579331636428833,9.038111686706543
1780528429927752400,3.27775244140625,1.0845733880996704,-3.533841609954834,9.330204010009766
1780528429937823200,3.2878232421875,1.3862427473068237,-3.7014358043670654,9.344569206237793
1780528429947894000,3.29789404296875,1.3503297567367554,-3.825934410095215,9.229647636413574
1780528429957995500,3.30799560546875,1.8387469053268433,-3.667917013168335,9.399636268615723
1780528429968127200,3.318127197265625,1.1468225717544556,-3.4308910369873047,9.44991397857666
1780528429978228500,3.328228515625,1.7693150043487549,-3.1938650608062744,9.361329078674316
1780528429988299300,3.33829931640625,1.314416766166687,-2.999934673309326,9.588777542114258
1780528429998400800,3.34840087890625,1.5705963373184204,-3.3279404640197754,9.708487510681152
1780528430018603300,3.368603271484375,1.4724340438842773,-3.0550012588500977,9.5408935546875
1780528430028704800,3.378704833984375,1.1204863786697388,-3.1196448802948,9.50498104095459
1780528430038775600,3.388775634765625,2.0398597717285156,-3.2776620388031006,9.95748519897461
1780528430069048800,3.419048828125,1.7357962131500244,-2.9688100814819336,10.649409294128418
1780528430079150000,3.429150146484375,1.7046716213226318,-2.492363929748535,10.639832496643066
1780528430129687300,3.479687255859375,2.212242364883423,-3.177105665206909,11.528080940246582
1780528430220507600,3.570507568359375,-0.7254431247711182,-2.22660756111145,11.836933135986328
1780528430230639400,3.580639404296875,-0.8164227604866028,-2.0015525817871094,12.1194486618042
1780528430240710100,3.590710205078125,-0.7422025203704834,-2.0661959648132324,12.528857231140137
1780528430250811600,3.600811767578125,-0.6488286852836609,-2.126051187515259,12.737153053283691
1780528430260913000,3.610912841796875,-0.9002198576927185,-1.8938134908676147,12.773066520690918
1780528430271044600,3.621044677734375,-0.9074024558067322,-1.6543933153152466,12.90714168548584
1780528430281146000,3.63114599609375,-0.8595184087753296,-1.8507179021835327,12.969390869140625
1780528430291247400,3.641247314453125,-0.5051765441894531,-2.0638017654418945,12.842497825622559
1780528430301348600,3.6513486328125,-0.17717093229293823,-2.3511061668395996,12.555193901062012
1780528430311480600,3.66148046875,0.08379705995321274,-2.276885747909546,12.33253288269043
1780528430331713800,3.6817138671875,0.3016694188117981,-2.054224967956543,11.824962615966797
1780528430351946800,3.70194677734375,0.47405192255973816,-2.1308395862579346,11.920730590820312
1780528430362048300,3.71204833984375,0.6009446382522583,-2.492363929748535,12.030863761901855
1780528430372149500,3.7221494140625,1.3120225667953491,-2.631227731704712,12.131420135498047
1780528430382250800,3.732250732421875,1.2617442607879639,-2.5977089405059814,11.930307388305664
1780528430392352000,3.74235205078125,1.6280571222305298,-2.7102363109588623,11.494562149047852
1780528430402453500,3.75245361328125,2.650381326675415,-2.784456491470337,11.18092155456543
1780528430412585200,3.762585205078125,3.136404275894165,-2.8826189041137695,10.788272857666016
1780528430422686500,3.7726865234375,3.5721490383148193,-3.2609026432037354,10.438719749450684
1780528430432818400,3.782818359375,3.6104562282562256,-3.5673606395721436,10.38604736328125
1780528430442919700,3.792919677734375,3.3877954483032227,-3.8307228088378906,10.333374977111816
1780528430453051600,3.8030517578125,2.5019407272338867,-3.5745432376861572,10.089165687561035
1780528430463153000,3.81315283203125,2.1954829692840576,-2.9903578758239746,9.732429504394531
1780528430473254100,3.823254150390625,1.965639591217041,-2.4013843536376953,9.543288230895996
1780528430493457000,3.843456787109375,1.7190368175506592,-2.5019407272338867,9.600749015808105
1780528430503558100,3.85355810546875,1.7310078144073486,-2.935291290283203,9.619902610778809
1780528430533892600,3.883892578125,0.7757213711738586,-3.337517261505127,10.079588890075684
1780528430543993900,3.893993896484375,0.4668693244457245,-3.1435868740081787,9.907206535339355
1780528430554095400,3.904095458984375,-0.1412578970193863,-3.1004912853240967,9.29189682006836
1780528430574297900,3.9242978515625,-0.6799532771110535,-3.318363666534424,8.250418663024902
1780528430584429800,3.934429931640625,-1.1085153818130493,-3.268085241317749,8.365341186523438
1780528430594561500,3.9445615234375,-1.558625340461731,-3.0813376903533936,8.597578048706055
1780528430604693500,3.954693603515625,-1.7597382068634033,-2.9759926795959473,8.935160636901855
1780528430655352600,4.0053525390625,-1.5466543436050415,-2.406172752380371,9.952696800231934
1780528430675555300,4.025555419921875,-1.3239935636520386,-2.765302896499634,10.311826705932617
1780528430715960600,4.065960693359375,-0.9169792532920837,-2.652775526046753,10.144232749938965
1780528430726061800,4.076061767578125,-0.7469909191131592,-2.6815059185028076,9.914389610290527
1780528430786608600,4.136608642578125,1.2713210582733154,-3.450044631958008,10.225635528564453
1780528430847186200,4.197186279296875,3.026270866394043,-3.160346269607544,9.801861763000488
1780528430867358200,4.217358154296875,3.7612907886505127,-3.201047658920288,10.141838073730469
1780528430877459500,4.22745947265625,3.6846764087677,-3.205836057662964,9.871294021606445
1780528430887530200,4.2375302734375,3.7445313930511475,-3.2393548488616943,9.952696800231934
1780528430897631700,4.2476318359375,3.8762125968933105,-3.064578056335449,9.871294021606445
1780528430907702500,4.25770263671875,3.754108190536499,-3.0550012588500977,9.607931137084961
1780528430917773300,4.267773193359375,3.4141316413879395,-3.090914487838745,9.390059471130371
1780528430927874600,4.27787451171875,3.3039982318878174,-3.450044631958008,9.169792175292969
1780528430937975800,4.287975830078125,3.4332852363586426,-3.6367924213409424,9.045293807983398
1780528430948046600,4.298046630859375,2.7269957065582275,-3.550601005554199,8.96389102935791
1780528430958117400,4.308117431640625,2.274491548538208,-3.6176388263702393,8.951920509338379
1780528431008563000,4.35856298828125,-0.028730420395731926,-3.378218650817871,8.355764389038086
1780528431028674000,4.378674072265625,-1.1659762859344482,-3.6535518169403076,8.379706382751465
1780528431038775600,4.388775634765625,-1.1300631761550903,-3.1507694721221924,8.901641845703125
1780528431048846300,4.398846435546875,-1.6400281190872192,-2.6144683361053467,9.327810287475586
1780528431089160000,4.439159912109375,-2.2146365642547607,-1.6496049165725708,8.44195556640625
1780528431099200300,4.4492001953125,-2.367865562438965,-1.5179238319396973,8.35097599029541
1780528431109332000,4.45933203125,-2.27209734916687,-1.3072341680526733,8.458714485168457
1780528431119433500,4.46943359375,-1.9943699836730957,-1.5394717454910278,8.616731643676758
1780528431129504300,4.479504150390625,-1.53707754611969,-1.6519991159439087,8.980650901794434
1780528431139605500,4.48960546875,-0.8020575642585754,-1.9081788063049316,8.887276649475098
1780528431149706800,4.499706787109375,-0.3519476354122162,-1.8818424940109253,8.662221908569336
1780528431159777500,4.509777587890625,-0.11971008777618408,-1.7764976024627686,8.118738174438477
1780528431169848300,4.519848388671875,0.2944868206977844,-1.889025092124939,7.527369976043701
1780528431179980300,4.529980224609375,0.5841852426528931,-1.8818424940109253,6.976703643798828
1780528431190051000,4.540051025390625,0.8403648138046265,-2.1332337856292725,6.224924564361572
1780528431200152300,4.55015234375,1.414973258972168,-2.695871114730835,5.870582580566406
1780528431210253800,4.56025390625,1.525106430053711,-2.652775526046753,6.258443355560303
1780528431220355000,4.57035498046875,2.0901381969451904,-2.3918075561523438,7.026981830596924
1780528431230425900,4.58042578125,2.537853717803955,-2.4013843536376953,7.467514991760254
1780528431240496600,4.59049658203125,3.1938650608062744,-2.5761611461639404,7.544129371643066
1780528431250567400,4.6005673828125,3.488351821899414,-2.983175277709961,7.378929615020752
1780528431260638200,4.61063818359375,3.797203779220581,-3.2369606494903564,7.180211067199707
1780528431280810200,4.630810302734375,4.41969633102417,-3.5745432376861572,6.672640323638916
1780528431290881300,4.64088134765625,4.627991676330566,-3.665522813796997,7.311892032623291
1780528431300982500,4.650982421875,4.4077253341674805,-3.6320040225982666,7.908048152923584
1780528431311053300,4.66105322265625,4.048594951629639,-3.5625722408294678,8.20732307434082
1780528431321154600,4.671154541015625,3.8331170082092285,-3.861847400665283,8.109161376953125
1780528431331255800,4.681255859375,3.847482204437256,-4.376600742340088,8.267178535461426
1780528431341296000,4.691296142578125,3.890577793121338,-4.977545261383057,8.552088737487793
1780528431351397600,4.701397705078125,3.550601005554199,-5.51624059677124,8.83699893951416
1780528431381732000,4.731732177734375,1.9608511924743652,-5.329493045806885,8.161833763122559
1780528431411975000,4.761974853515625,-0.08140286058187485,-1.9847931861877441,7.702147006988525
1780528431422045700,4.772045654296875,-0.26575639843940735,-2.432508945465088,8.042123794555664
1780528431432147000,4.78214697265625,0.10055647045373917,-2.8802247047424316,8.501810073852539
1780528431482562000,4.83256201171875,-0.2106897532939911,-0.7350199222564697,7.474697589874268
1780528431492632800,4.8426328125,-0.047884032130241394,-1.1971008777618408,7.398083209991455
1780528431502703600,4.85270361328125,0.9600749015808105,-1.4389152526855469,7.156269073486328
1780528431512774400,4.8627744140625,0.586579442024231,-1.113303780555725,6.528987884521484
1780528431553118700,4.90311865234375,1.8986018896102905,-0.14604631066322327,5.9974751472473145
1780528431563189500,4.913189453125,1.9033904075622559,-0.3495534360408783,6.502651691436768
1780528431583392300,4.933392333984375,1.9752163887023926,-0.5913678407669067,7.668628215789795
1780528431593463000,4.943463134765625,1.414973258972168,-0.42377370595932007,7.778761386871338
1780528431603533800,4.953533935546875,0.6943184733390808,0.1364694982767105,7.383718013763428
1780528431623736300,4.973736328125,1.7693150043487549,-0.06703764945268631,7.843404769897461
1780528431633807000,4.98380712890625,1.6687586307525635,-0.7422025203704834,8.389283180236816
1780528431643847400,4.993847412109375,1.7142484188079834,-1.1061211824417114,8.614337921142578
1780528431653948700,5.00394873046875,0.667982280254364,-0.9672574996948242,8.760383605957031
1780528431664019500,5.01401953125,0.040701430290937424,-0.6631938815116882,8.688557624816895
1780528431714465000,5.064465087890625,0.849941611289978,-1.6304513216018677,9.251194953918457
1780528431724566500,5.07456640625,0.24420857429504395,-1.5825673341751099,9.251194953918457
1780528431734637300,5.08463720703125,0.3232172429561615,-1.37906014919281,9.428366661071777
1780528431754718000,5.104718017578125,0.3734954595565796,-0.8188169598579407,10.503362655639648
1780528431764819200,5.114819091796875,0.6584054827690125,-1.0319008827209473,10.285490036010742
1780528431774859500,5.124859619140625,1.3335703611373901,-0.9002198576927185,9.397241592407227
1780528431784960800,5.134960693359375,1.5179238319396973,-1.6065093278884888,9.10993766784668
1780528431805132800,5.1551328125,-0.2753331959247589,-1.2234370708465576,10.685321807861328
1780528431815203600,5.16520361328125,0.7422025203704834,-0.849941611289978,9.854534149169922
1780528431825305000,5.17530517578125,0.33518823981285095,-1.213860273361206,8.762778282165527
1780528431835375900,5.1853759765625,1.4915876388549805,-1.644816517829895,8.35336971282959
1780528431845446700,5.19544677734375,2.188300371170044,-1.702277421951294,8.956708908081055
1780528431855487000,5.205487060546875,2.296039342880249,-1.400607943534851,9.923966407775879
1780528431865588200,5.215588134765625,2.693476915359497,-0.9409212470054626,10.881647109985352
1780528431875659000,5.225658935546875,2.2170307636260986,-0.9050082564353943,11.008539199829102
1780528431885729800,5.235729736328125,2.389413356781006,-0.9457096457481384,9.785101890563965
1780528431895770000,5.24577001953125,2.6001031398773193,-0.8930372595787048,8.358158111572266
1780528431905901800,5.25590185546875,2.7916390895843506,-0.6607996821403503,7.738059997558594
1780528431915972600,5.26597265625,3.442862033843994,-1.1348515748977661,8.4108304977417
1780528431926043400,5.27604345703125,3.603273630142212,-1.4987702369689941,9.435548782348633
1780528431936083700,5.286083740234375,3.8067808151245117,-1.723825216293335,9.653421401977539
1780528431946185200,5.296185302734375,3.7205893993377686,-1.7525556087493896,9.133879661560059
1780528431966357200,5.316357177734375,2.5450363159179688,-0.5817909836769104,9.660603523254395
1780528431976428000,5.326427978515625,2.0446481704711914,-0.8475474119186401,10.316615104675293
1780528431986529300,5.336529296875,1.9369091987609863,-1.824381709098816,10.08198356628418
1780528431996630800,5.346630859375,2.5306711196899414,-1.3215993642807007,9.253589630126953
1780528432006732000,5.35673193359375,2.8634653091430664,-1.2186486721038818,8.927978515625
1780528432047045600,5.397045654296875,2.1523873805999756,-1.599326729774475,9.785101890563965
1780528432057147100,5.407147216796875,2.2385785579681396,-1.4101848602294922,9.77791976928711
1780528432067218000,5.417218017578125,2.5234885215759277,-1.2234370708465576,10.072406768798828
1780528432077288700,5.427288818359375,3.0142998695373535,-2.4588451385498047,10.259154319763184
1780528432087390000,5.437389892578125,3.7708675861358643,-2.8419175148010254,10.271124839782715
1780528432097460700,5.447460693359375,4.060565948486328,-4.383783340454102,10.072406768798828
1780528432107531500,5.457531494140625,5.0469770431518555,-5.839457988739014,10.884040832519531
1780528432117632800,5.4676328125,5.509057998657227,-6.057330131530762,12.507309913635254
1780528432127703600,5.47770361328125,3.890577793121338,-7.333439826965332,13.170503616333008
1780528432137805000,5.48780517578125,4.173093795776367,-6.746860504150391,12.507309913635254
1780528432147875800,5.497875732421875,4.999093055725098,-6.2847795486450195,11.190498352050781
1780528432157977000,5.50797705078125,3.584120035171509,-7.314286231994629,10.81460952758789
1780528432168047900,5.5180478515625,4.81473970413208,-8.7268648147583,12.624625205993652
1780528432208361700,5.55836181640625,3.466804027557373,-6.390124320983887,13.802573204040527
1780528432228533800,5.57853369140625,5.276820659637451,-8.31985092163086,14.72912883758545
1780528432238604500,5.5886044921875,4.76924991607666,-10.345345497131348,15.78976058959961
1780528432248705800,5.598705810546875,4.0078935623168945,-9.344569206237793,16.752229690551758
1780528432258807300,5.608807373046875,4.534617900848389,-9.557653427124023,16.16804313659668
1780528432268908500,5.618908447265625,2.63362193107605,-9.227252960205078,13.927071571350098
1780528432279009800,5.629009765625,0.8331822156906128,-6.502651691436768,11.784260749816895
1780528432289111000,5.639111083984375,-0.49799394607543945,-4.077325344085693,10.137049674987793
1780528432299181800,5.649181884765625,-1.525106430053711,-2.652775526046753,9.083600997924805
1780528432309313800,5.659313720703125,-2.164358377456665,-2.671929121017456,9.962273597717285
1780528432329485800,5.67948583984375,4.479551315307617,-0.8978256583213806,14.551958084106445
1780528432339526100,5.689526123046875,9.153033256530762,-0.22026655077934265,15.995661735534668
1780528432349627400,5.69962744140625,10.587160110473633,1.1252747774124146,15.040374755859375
1780528432359698200,5.7096982421875,8.257601737976074,-0.2849099934101105,12.069170951843262
1780528432369769200,5.719769287109375,3.9600095748901367,-7.189787864685059,11.05402946472168
1780528432379809300,5.729809326171875,4.41969633102417,-11.403582572937012,11.027692794799805
1780528432399951000,5.749951171875,3.713406801223755,-6.550535678863525,9.57201862335205
1780528432410052400,5.76005224609375,3.404554843902588,-3.2417490482330322,9.931148529052734
1780528432420123100,5.770123046875,8.506598472595215,-4.299986362457275,10.896012306213379
1780528432430224400,5.780224365234375,11.611878395080566,-8.995016098022461,12.607866287231445
1780528432440295200,5.790295166015625,6.260837554931641,-14.168885231018066,12.433089256286621
1780528432460498000,5.810497802734375,0.7805097699165344,-10.76193618774414,8.573636054992676
1780528432470568700,5.820568603515625,-0.48602294921875,-6.919242858886719,8.307879447937012
1780528432480639500,5.830639404296875,1.41257905960083,-2.937685489654541,8.559270858764648
1780528432490710300,5.840710205078125,6.392518520355225,-0.706289529800415,8.978256225585938
1780528432500811500,5.8508115234375,9.84495735168457,-0.43335050344467163,9.169792175292969
1780528432561267000,5.911266845703125,1.745373010635376,-0.6631938815116882,7.647080421447754
1780528432571368200,5.9213681640625,2.5306711196899414,-1.8076223134994507,8.731653213500977
1780528432581408500,5.931408447265625,5.3342814445495605,-3.734954595565796,10.307038307189941
1780528432591479300,5.941479248046875,6.303933143615723,-5.195417881011963,11.168951034545898
1780528432601550000,5.951550048828125,6.466738700866699,-5.327098846435547,10.718840599060059
1780528432611651300,5.9616513671875,5.303156852722168,-3.184288263320923,8.564059257507324
1780528432621752800,5.9717529296875,4.577713489532471,-0.2968810200691223,6.179434776306152
1780528432631854000,5.98185400390625,1.9608511924743652,1.256955862045288,5.839457988739014
1780528432641924900,5.9919248046875,1.1348515748977661,2.557007312774658,6.701370716094971
1780528432652026000,6.002026123046875,1.170764684677124,0.45489832758903503,7.886500358581543
1780528432662127600,6.012127685546875,4.137180328369141,-2.8874073028564453,9.289502143859863
1780528432672228900,6.022228759765625,7.718906402587891,-5.633556365966797,10.642226219177246
1780528432682299600,6.032299560546875,7.836222171783447,-5.8203043937683105,10.232817649841309
1780528432692370400,6.042370361328125,5.343858242034912,-2.9664158821105957,8.245630264282227
1780528432702471700,6.0524716796875,1.6352397203445435,0.5363011956214905,7.062894821166992
1780528432712573000,6.062572998046875,-1.5753847360610962,2.8610711097717285,6.734889507293701
1780528432722674400,6.07267431640625,-2.784456491470337,2.5905263423919678,6.258443355560303
1780528432732775700,6.082775634765625,-0.7182605266571045,1.0773907899856567,6.296750545501709
1780528432742877000,6.092876953125,3.1890766620635986,-1.213860273361206,7.347805023193359
1780528432752978400,6.102978515625,5.595249176025391,-4.307168960571289,9.725247383117676
1780528432763110100,6.113110107421875,5.513846397399902,-6.0597243309021,12.236764907836914
1780528432773181000,6.123180908203125,3.6750996112823486,-3.3303346633911133,11.753135681152344
1780528432853869300,6.203869384765625,0.5363011956214905,-3.825934410095215,8.78193187713623
1780528432863970800,6.213970703125,-0.5674257874488831,-1.6974890232086182,7.117961883544922
1780528432874102500,6.2241025390625,-0.5147533416748047,0.4668693244457245,6.641515731811523
1780528432884173300,6.23417333984375,-0.2059013396501541,2.1595699787139893,7.2137298583984375
1780528432894274800,6.24427490234375,1.1875240802764893,2.008735179901123,8.33182144165039
1780528432904376000,6.2543759765625,1.9153614044189453,-0.06464344263076782,9.138668060302734
1780528432914507800,6.2645078125,3.1100680828094482,-1.5298948287963867,9.670180320739746
1780528432924578600,6.27457861328125,2.564189910888672,-2.7700912952423096,9.435548782348633
1780528432934680000,6.28468017578125,1.9297266006469727,-3.60566782951355,8.688557624816895
1780528432995318500,6.345318603515625,2.3104045391082764,-2.1284453868865967,9.239224433898926
1780528433005419800,6.355419677734375,2.4827871322631836,-2.9161376953125,7.469909191131592
1780528433015490600,6.365490478515625,2.918531894683838,-2.892195701599121,6.531382083892822
1780528433025622300,6.375622314453125,2.8586769104003906,-2.0207061767578125,7.2352776527404785
1780528433045855500,6.39585546875,1.577778935432434,1.0271124839782715,10.678139686584473
1780528433096392700,6.446392822265625,2.980781078338623,-2.4372973442077637,7.0772600173950195
1780528433136767500,6.486767578125,1.501164436340332,-1.5634137392044067,9.342175483703613
1780528433146899200,6.496899169921875,1.3024457693099976,-2.0877439975738525,8.169015884399414
1780528433157061600,6.5070615234375,1.4245500564575195,-2.4468741416931152,7.86734676361084
1780528433167193300,6.517193359375,1.9033904075622559,-2.5091233253479004,8.250418663024902
1780528433177294800,6.527294921875,2.188300371170044,-2.248155355453491,8.564059257507324
1780528433187426600,6.537426513671875,1.5825673341751099,-1.6974890232086182,8.772355079650879
1780528433197558500,6.54755859375,1.5059528350830078,-1.2761094570159912,8.99740982055664
1780528433207690200,6.557690185546875,1.3431471586227417,-1.7286136150360107,9.157821655273438
1780528433217791500,6.56779150390625,1.3407529592514038,-2.2888567447662354,9.524134635925293
1780528433238055200,6.58805517578125,1.4772224426269531,-2.4181437492370605,9.533711433410645
1780528433248187100,6.598187255859375,1.3407529592514038,-2.7557260990142822,9.090784072875977
1780528433258288400,6.608288330078125,1.381454348564148,-2.875436305999756,8.999804496765137
1780528433268389600,6.6183896484375,1.0079588890075684,-2.9017724990844727,9.102754592895508
1780528433278491100,6.6284912109375,0.3687070608139038,-2.4420857429504395,9.29189682006836
1780528433288592400,6.63859228515625,0.3423708379268646,-1.6184803247451782,9.428366661071777
1780528433298693600,6.648693603515625,0.5602431893348694,-1.2521674633026123,9.32541561126709
1780528433308856000,6.65885595703125,0.395043283700943,-1.556231141090393,9.2033109664917
1780528433329058600,6.67905859375,1.072602391242981,-2.75812029838562,9.320627212524414
1780528433339190500,6.6891904296875,0.4644751250743866,-3.090914487838745,8.844181060791016
1780528433359393000,6.70939306640625,0.06703764945268631,-2.2146365642547607,8.939949035644531
1780528433369494500,6.71949462890625,-0.2849099934101105,-1.414973258972168,9.32541561126709
1780528433379595800,6.729595703125,-1.0295066833496094,-1.2545616626739502,9.346963882446289
1780528433389697000,6.739697021484375,-0.6631938815116882,-1.1683704853057861,9.138668060302734
1780528433399798300,6.74979833984375,-0.14844051003456116,-1.1563993692398071,8.56645393371582
1780528433409899800,6.759899658203125,-0.31603461503982544,-1.5203180313110352,8.17141056060791
1780528433419970600,6.769970458984375,-0.5195417404174805,-2.205059766769409,8.595184326171875
1780528433430071800,6.78007177734375,-0.26096799969673157,-2.3487119674682617,9.425971984863281
1780528433440173000,6.790173095703125,-0.2585737705230713,-2.300827741622925,9.476250648498535
1780528433450335500,6.80033544921875,-0.1173158809542656,-2.425326347351074,9.296685218811035
1780528433460436700,6.810436767578125,0.014365210197865963,-2.3319525718688965,8.920795440673828
1780528433470568700,6.820568603515625,0.09816227108240128,-2.2242133617401123,8.425195693969727
1780528433480731100,6.830731201171875,0.6033388376235962,-2.279279947280884,7.989450931549072
1780528433500933600,6.85093359375,1.3551181554794312,-3.0789434909820557,8.803479194641113
1780528433511096000,6.861095947265625,1.5490485429763794,-2.8802247047424316,9.469067573547363
1780528433521197300,6.871197265625,1.886630892753601,-2.5713725090026855,9.433155059814453
1780528433531298600,6.881298583984375,1.944091796875,-2.4827871322631836,8.774748802185059
1780528433551501300,6.901501220703125,2.0039467811584473,-2.1380221843719482,8.334216117858887
1780528433632372700,6.982372802734375,2.1930887699127197,-1.314416766166687,7.872135162353516
1780528433652606000,7.00260595703125,2.765302896499634,-2.6791117191314697,7.95832633972168
1780528433713275000,7.06327490234375,0.6153098344802856,-3.0166940689086914,7.793126583099365
1780528433733386000,7.083385986328125,0.18914192914962769,-3.0166940689086914,8.054094314575195
1780528433763659500,7.113659423828125,-0.0694318488240242,-2.126051187515259,8.616731643676758
1780528433834155000,7.184155029296875,1.6112977266311646,-2.3535003662109375,7.714118003845215
1780528433844225800,7.194225830078125,1.7573440074920654,-2.1954829692840576,7.599195957183838
1780528433854296600,7.204296630859375,1.7812861204147339,-2.410961151123047,7.433996200561523
1780528433864398000,7.214398193359375,2.5234885215759277,-2.7269957065582275,7.304709434509277
1780528433874468900,7.22446875,2.7126305103302,-2.6791117191314697,7.189787864685059
1780528433884570000,7.234570068359375,2.7006595134735107,-2.38462495803833,7.615955829620361
1780528433894610400,7.2446103515625,2.82515811920166,-2.027888774871826,7.728483200073242
1780528433904711700,7.254711669921875,3.1435868740081787,-1.9560627937316895,7.527369976043701
1780528433934954800,7.284954833984375,3.1292216777801514,-2.7916390895843506,7.745242595672607
1780528433945025500,7.295025634765625,2.889801502227783,-2.5474305152893066,8.075642585754395
1780528433955096300,7.305096435546875,2.296039342880249,-2.1595699787139893,8.099584579467773
1780528433965197600,7.315197509765625,2.056619167327881,-1.6543933153152466,7.812280178070068
1780528433975298800,7.325298828125,1.9919757843017578,-1.338358759880066,7.438784599304199
1780528433985369600,7.33536962890625,1.98958158493042,-1.3886369466781616,7.084442615509033
1780528433995440400,7.3454404296875,1.5514427423477173,-1.5682021379470825,7.1490864753723145
1780528434005511200,7.35551123046875,1.656787633895874,-1.278503656387329,7.249642848968506
1780528434015612700,7.36561279296875,1.359906554222107,-1.1061211824417114,7.122750282287598
1780528434025683500,7.375683349609375,0.6991068720817566,-0.6919242739677429,7.309497833251953
1780528434035784700,7.38578466796875,-0.14604631066322327,-0.15801730751991272,7.778761386871338
1780528434055895800,7.405895751953125,-0.038307227194309235,-0.1388636976480484,8.267178535461426
1780528434065966600,7.415966552734375,-0.1604115068912506,-0.8475474119186401,7.999027729034424
1780528434076067800,7.42606787109375,-0.12689268589019775,-1.0462661981582642,7.680599212646484
1780528434086169300,7.43616943359375,-0.16759411990642548,-0.6512228846549988,7.927201747894287
1780528434096270600,7.4462705078125,0.040701430290937424,-0.2537853717803955,8.652645111083984
1780528434106341400,7.45634130859375,-0.2777273952960968,-0.07422025501728058,9.169792175292969
1780528434116412200,7.466412109375,-0.7110779285430908,-0.004788403399288654,9.17936897277832
1780528434126452500,7.476452392578125,-0.09816227108240128,-0.016759412363171577,8.429984092712402
1780528434136553700,7.4865537109375,1.0606313943862915,-0.08379705995321274,7.769184589385986
1780528434146624500,7.49662451171875,1.4628572463989258,-0.9864110946655273,8.090007781982422
1780528434156695300,7.5066953125,1.2545616626739502,-1.3886369466781616,8.944737434387207
1780528434166766000,7.51676611328125,1.1899182796478271,-0.6919242739677429,9.485827445983887
1780528434176836900,7.5268369140625,0.9576807022094727,0.10534487664699554,9.114726066589355
1780528434186907600,7.53690771484375,1.1468225717544556,0.3758896589279175,8.808267593383789
1780528434197009200,7.547009033203125,0.7254431247711182,-0.17717093229293823,9.255983352661133
1780528434207080000,7.557079833984375,1.335964560508728,-0.44532153010368347,9.799467086791992
1780528434297839000,7.647839111328125,2.4612393379211426,-0.7876923680305481,8.858546257019043
1780528434378405600,7.728405517578125,1.4939818382263184,0.3902548849582672,9.337387084960938
1780528434459033000,7.809033203125,1.6663644313812256,-1.5634137392044067,9.275136947631836
1780528434549761800,7.89976171875,3.2824504375457764,-2.6599581241607666,11.281478881835938
1780528434610247700,7.96024755859375,4.381389141082764,-4.455609321594238,12.052411079406738
1780528434620379400,7.97037939453125,4.754884719848633,-3.6942532062530518,11.571176528930664
1780528434630450200,7.9804501953125,4.278438568115234,-4.211400985717773,11.092336654663086
1780528434640521000,7.99052099609375,3.9240965843200684,-5.013458251953125,11.678915977478027
1780528434650622500,8.00062255859375,4.326322555541992,-5.073313236236572,12.986149787902832
1780528434660723700,8.0107236328125,3.550601005554199,-4.54419469833374,14.39872932434082
1780528434670825000,8.020824951171875,2.43011474609375,-5.446808815002441,14.068328857421875
1780528434680926200,8.03092626953125,3.313575267791748,-6.524199485778809,13.833697319030762
1780528434690966500,8.040966552734375,4.486733913421631,-7.307103633880615,12.722787857055664
1780528434711138800,8.061138916015626,4.369418144226074,-8.109161376953125,9.567230224609375
1780528434721209600,8.071209716796876,3.361459255218506,-7.445967197418213,9.591172218322754
1780528434731310800,8.081310791015625,2.4444799423217773,-6.722918510437012,11.288661003112793
1780528434741381600,8.091381591796875,1.6496049165725708,-5.87776517868042,14.0635404586792
1780528434751452400,8.101452392578125,0.4620809257030487,-5.386953830718994,15.777789115905762
1780528434761523200,8.111523193359375,-0.5434837937355042,-5.102043628692627,15.550339698791504
1780528434771594000,8.121593994140625,-0.6033388376235962,-5.861005783081055,13.728352546691895
1780528434781664800,8.131664794921875,1.4269442558288574,-6.186617374420166,11.927912712097168
1780528434791735600,8.141735595703125,3.1268274784088135,-6.256049156188965,10.63504409790039
1780528434801806300,8.151806396484375,2.9328970909118652,-7.252037048339844,10.788272857666016
1780528434811877400,8.16187744140625,1.9393033981323242,-7.9415669441223145,12.583924293518066
1780528434821978600,8.171978515625,1.5083470344543457,-7.314286231994629,13.917494773864746
1780528434832049400,8.18204931640625,1.5634137392044067,-6.112396717071533,13.503297805786133
1780528434842120200,8.1921201171875,1.6927006244659424,-4.807557106018066,12.11705493927002
1780528434852221400,8.202221435546875,1.5825673341751099,-3.9264907836914062,11.595118522644043
1780528434862292200,8.212292236328125,1.0654197931289673,-3.667917013168335,12.36365795135498
1780528434872363000,8.222363037109375,1.41257905960083,-3.6990416049957275,13.974955558776855
1780528434882464500,8.232464599609376,1.3670891523361206,-3.533841609954834,14.563928604125977
1780528434912707300,8.262707275390625,3.2776620388031006,-5.652710437774658,12.109871864318848
1780528434983202800,8.333202880859375,4.05817174911499,-3.354276657104492,13.132196426391602
1780528435023516700,8.3735166015625,4.920084476470947,-5.240907669067383,9.215282440185547
1780528435084033000,8.434032958984375,3.823540210723877,-1.5131354331970215,9.265560150146484
1780528435094073300,8.4440732421875,3.840299606323242,-1.8076223134994507,8.592789649963379
1780528435114306600,8.464306640625,1.8626888990402222,-2.911349296569824,8.947132110595703
1780528435134448000,8.4844482421875,0.10055647045373917,-1.1755530834197998,7.429207801818848
1780528435144549400,8.49454931640625,0.5003881454467773,0.2513911724090576,6.476315498352051
1780528435154620200,8.5046201171875,2.293645143508911,0.8188169598579407,7.580042362213135
1780528435164691000,8.51469091796875,1.8291701078414917,0.3902548849582672,9.653421401977539
1780528435174761700,8.52476171875,1.1228805780410767,-0.363918662071228,10.038887977600098
1780528435184863000,8.534863037109375,0.5961562395095825,-2.9927520751953125,7.594407558441162
1780528435194934000,8.54493408203125,2.3247697353363037,-4.656722068786621,4.982333660125732
1780528435205035300,8.55503515625,2.5522189140319824,-4.4723687171936035,4.242525577545166
1780528435215075600,8.56507568359375,1.357512354850769,-3.265691041946411,6.00226354598999
1780528435225176800,8.5751767578125,0.5937620401382446,-0.17238251864910126,9.99339771270752
1780528435245318400,8.595318359375,0.7206547260284424,3.426102638244629,12.847286224365234
1780528435255419600,8.605419677734375,1.2521674633026123,1.7357962131500244,10.369287490844727
1780528435275622400,8.625622314453125,2.027888774871826,-3.4979286193847656,5.736507415771484
1780528435285754000,8.635754150390625,2.1571757793426514,-4.242525577545166,6.636727333068848
1780528435295825000,8.645824951171875,1.3958195447921753,-2.691082715988159,8.578424453735352
1780528435305926400,8.655926513671876,-0.7541735172271729,0.6009446382522583,9.897629737854004
1780528435326129000,8.67612890625,-1.036689281463623,4.015076160430908,9.945513725280762
1780528435336199700,8.68619970703125,-1.194706678390503,1.3096283674240112,7.522581577301025
1780528435346270500,8.6962705078125,0.2561795711517334,-1.3096283674240112,6.042964935302734
1780528435366473200,8.71647314453125,1.9345149993896484,-2.717418909072876,8.75080680847168
1780528435376544000,8.7265439453125,1.723825216293335,-1.2952631711959839,11.001357078552246
1780528435386614800,8.73661474609375,0.9864110946655273,0.05746084079146385,11.894393920898438
1780528435396716000,8.746716064453125,0.5793967843055725,0.8906430602073669,10.405200958251953
1780528435406786800,8.756786865234375,0.26815059781074524,0.5482721924781799,6.861782073974609
1780528435416918800,8.766918701171875,0.7589619159698486,-0.5985504388809204,6.540958881378174
1780528435426989600,8.776989501953125,1.53707754611969,-2.2170307636260986,7.184999465942383
1780528435437090800,8.7870908203125,2.3965959548950195,-2.252943754196167,8.17380428314209
1780528435447222800,8.797222900390626,1.9393033981323242,-2.0614075660705566,9.057265281677246
1780528435457263000,8.80726318359375,1.6328455209732056,-1.647210717201233,9.612719535827637
1780528435467364400,8.8173642578125,1.5873557329177856,-1.0199298858642578,9.21288776397705
1780528435477435100,8.82743505859375,1.7501614093780518,-0.22505496442317963,8.631096839904785
1780528435487536400,8.837536376953125,1.824381709098816,0.42856210470199585,8.829815864562988
1780528435497607200,8.847607177734375,1.259350061416626,0.5817909836769104,8.853757858276367
1780528435507708700,8.857708740234376,1.3766659498214722,0.043095629662275314,9.05247688293457
1780528435517810000,8.867809814453125,1.5490485429763794,-0.6991068720817566,9.17936897277832
1780528435527911200,8.8779111328125,1.9512743949890137,-1.45806884765625,9.045293807983398
1780528435538012400,8.888012451171875,2.564189910888672,-1.525106430053711,8.81784439086914
1780528435548114000,8.898114013671876,2.513911724090576,-1.2497732639312744,8.992621421813965
1780528435558184700,8.908184814453126,2.609679937362671,-0.6177040338516235,9.75637149810791
1780528435568286000,8.918285888671875,2.5067291259765625,0.031124621629714966,10.010157585144043
1780528435588519200,8.938519287109376,1.173158884048462,-0.0454898327589035,9.193734169006348
1780528435598590000,8.94858984375,1.4867992401123047,-0.689530074596405,9.35893440246582
1780528435608691200,8.958691162109375,1.522712230682373,-1.8100165128707886,9.315838813781738
1780528435618792400,8.96879248046875,2.8778305053710938,-2.470816135406494,9.521739959716797
1780528435628924400,8.97892431640625,3.339911460876465,-2.382230758666992,9.605537414550781
1780528435638995200,8.9889951171875,2.7006595134735107,-1.800439715385437,9.172186851501465
1780528435659167200,9.009167236328125,2.255337953567505,-1.2497732639312744,9.069235801696777
1780528435679400400,9.029400390625,0.35913026332855225,-0.8331822156906128,9.524134635925293
1780528435689532200,9.0395322265625,1.0007762908935547,-1.37906014919281,9.370905876159668
1780528435699633700,9.049633544921875,2.1140801906585693,-2.2026655673980713,8.746018409729004
1780528435709735000,9.05973486328125,2.5019407272338867,-2.75812029838562,8.38688850402832
1780528435719866600,9.06986669921875,2.209848165512085,-2.7509377002716064,8.451532363891602
1780528435729968000,9.079968017578125,1.8363527059555054,-2.477998733520508,8.47547435760498
1780528435740069400,9.0900693359375,1.577778935432434,-2.0638017654418945,8.595184326171875
1780528435800768800,9.150768798828125,1.6089035272598267,-2.1954829692840576,9.05487060546875
1780528435810839600,9.160839599609375,1.5729905366897583,-2.343923568725586,9.241618156433105
1780528435861468400,9.211468505859376,0.5099649429321289,-0.5506663918495178,9.653421401977539
1780528435881701400,9.231701416015625,1.1803414821624756,-2.3750481605529785,7.869740962982178
1780528435891803000,9.241802978515626,0.9050082564353943,-2.5450363159179688,7.2352776527404785
1780528435912005400,9.26200537109375,-0.7134721279144287,-1.5131354331970215,8.324639320373535
1780528435922137300,9.272137451171876,-0.7015010714530945,-0.8595184087753296,8.815450668334961
1780528435932208000,9.2822080078125,-0.9169792532920837,-1.039083480834961,8.707711219787598
1780528435952410600,9.30241064453125,0.11252748221158981,-1.7381904125213623,8.71489429473877
1780528435972583000,9.3225830078125,0.3878606855869293,-2.631227731704712,8.992621421813965
1780528435982714600,9.332714599609375,0.23702596127986908,-2.782062292098999,8.966285705566406
1780528436002978300,9.352978271484375,-0.15801730751991272,-2.1571757793426514,9.423578262329102
1780528436013079600,9.36307958984375,-0.47405192255973816,-2.006340980529785,9.165003776550293
1780528436023242000,9.373241943359375,-0.5195417404174805,-1.9752163887023926,9.004592895507812
1780528436033343200,9.38334326171875,-0.45489832758903503,-2.0638017654418945,8.978256225585938
1780528436043444700,9.39344482421875,-0.13407529890537262,-2.248155355453491,8.927978515625
1780528436063647200,9.413647216796875,0.9145850539207458,-2.7700912952423096,9.217676162719727
1780528436083880400,9.43388037109375,1.414973258972168,-3.184288263320923,10.261548042297363
1780528436104113700,9.45411376953125,2.0422539710998535,-3.023876667022705,9.258378028869629
1780528436124377300,9.47437744140625,1.8602946996688843,-2.5905263423919678,8.396465301513672
1780528436134478600,9.484478515625,1.867477297782898,-2.2026655673980713,8.56884765625
1780528436154681000,9.50468115234375,2.169146776199341,-1.580173134803772,8.884882926940918
1780528436164782600,9.514782470703125,2.8395233154296875,-1.886630892753601,9.102754592895508
1780528436174883800,9.5248837890625,3.2130186557769775,-2.6192567348480225,9.150638580322266
1780528436184985000,9.534985107421875,3.272873640060425,-2.935291290283203,8.810662269592285
1780528436195086600,9.545086669921876,3.2130186557769775,-2.8850131034851074,8.377311706542969
1780528436205187800,9.555187744140625,3.095702886581421,-2.782062292098999,8.051700592041016
1780528436215319600,9.565319580078125,2.827552318572998,-2.765302896499634,8.101978302001953
1780528436225421000,9.575421142578126,2.6647465229034424,-2.559401512145996,8.35097599029541
1780528436235552800,9.585552734375,2.3271639347076416,-2.31758713722229,8.762778282165527
1780528436245654000,9.595654052734375,2.250549554824829,-2.3032219409942627,9.083600997924805
1780528436255786000,9.605785888671875,2.121262788772583,-2.5785553455352783,8.927978515625
1780528436265887200,9.61588720703125,2.1092917919158936,-3.114856481552124,8.180987358093262
1780528436275988500,9.625988525390625,1.7166426181793213,-3.2992098331451416,7.757213592529297
1780528436286120400,9.636120361328125,1.5610195398330688,-3.406949043273926,7.905653953552246
1780528436296221700,9.6462216796875,1.4173674583435059,-2.9879636764526367,8.516175270080566
1780528436306353700,9.656353759765626,0.6799532771110535,-2.454056739807129,8.899248123168945
1780528436316515800,9.666515869140625,0.6392518281936646,-2.006340980529785,8.99740982055664
1780528436326647800,9.676647705078125,0.7230489253997803,-2.054224967956543,8.564059257507324
1780528436336749000,9.6867490234375,0.49799394607543945,-2.2194249629974365,8.003816604614258
1780528436346850300,9.696850341796875,0.5123591423034668,-2.849100112915039,7.642292022705078
1780528436356951800,9.706951904296876,0.7829039692878723,-3.287238836288452,7.733271598815918
1780528436377184800,9.727184814453125,0.4572925269603729,-2.5115175247192383,8.544905662536621
1780528436387286300,9.737286376953126,0.21547815203666687,-1.8602946996688843,9.083600997924805
1780528436397387500,9.747387451171875,0.3663128614425659,-1.534683346748352,9.045293807983398
1780528436407519200,9.757519287109375,0.5339069962501526,-1.9273324012756348,8.56645393371582
1780528436417651200,9.767651123046875,0.629675030708313,-2.1092917919158936,7.994239330291748
1780528436427783000,9.777782958984375,1.0055646896362305,-2.365471363067627,7.843404769897461
1780528436437884400,9.787884521484376,1.623268723487854,-2.8179752826690674,8.291120529174805
1780528436447985700,9.797985595703125,1.5682021379470825,-2.980781078338623,8.425195693969727
1780528436458117400,9.808117431640625,1.1899182796478271,-2.4660277366638184,8.090007781982422
1780528436478320000,9.828320068359375,1.5873557329177856,-1.292868971824646,7.400477409362793
1780528436488451800,9.838451904296875,2.1045033931732178,-1.5705963373184204,7.694964408874512
1780528436539050000,9.889050048828125,2.873042106628418,-1.867477297782898,7.575253963470459
1780528436569354000,9.91935400390625,2.2146365642547607,-1.6376339197158813,8.614337921142578
1780528436579424800,9.9294248046875,2.410961151123047,-1.7717092037200928,8.80587387084961
1780528436680255000,10.0302548828125,0.6919242739677429,-1.2976573705673218,7.601590633392334
1780528436690356200,10.040356201171875,0.8523358106613159,-1.4173674583435059,7.797914981842041
1780528436700457500,10.05045751953125,0.9888052940368652,-1.2952631711959839,7.876923561096191
1780528436781115600,10.13111572265625,1.7477672100067139,-1.1755530834197998,8.628703117370605
1780528436801226500,10.1512265625,1.5729905366897583,-0.9624691009521484,8.83699893951416
1780528436831439000,10.181439208984376,2.4205379486083984,-1.0749965906143188,8.93037223815918
1780528436881854000,10.23185400390625,1.7405846118927002,-0.9983820915222168,8.40843677520752
1780528436901965000,10.251965087890625,1.036689281463623,-0.304063618183136,8.003816604614258
1780528436912035800,10.262035888671875,0.7206547260284424,-0.38067805767059326,9.519346237182617
1780528436922106600,10.272106689453125,0.6153098344802856,-0.9576807022094727,10.60391902923584
1780528437002703600,10.35270361328125,1.6065093278884888,-1.1492167711257935,8.78193187713623
1780528437012774400,10.3627744140625,0.8858546018600464,-0.40222588181495667,9.215282440185547
1780528437063220000,10.413219970703125,1.5705963373184204,0.1364694982767105,9.105149269104004
1780528437123736300,10.473736328125,1.9345149993896484,-0.9361328482627869,10.687716484069824
1780528437133837800,10.483837890625,2.7102363109588623,-0.2992752194404602,11.626243591308594
1780528437214526200,10.564526123046875,2.846705913543701,-2.786850690841675,12.607866287231445
1780528437234698200,10.5846982421875,3.576937437057495,-3.2321722507476807,11.33654499053955
1780528437315356200,10.665356201171875,2.564189910888672,-4.757278919219971,11.779472351074219
1780528437396044800,10.746044921875,2.33913516998291,-4.649539470672607,12.828132629394531
1780528437406146000,10.75614599609375,2.650381326675415,-4.752490520477295,13.723564147949219
1780528437506915000,10.8569150390625,2.7246015071868896,-4.426878929138184,10.752359390258789
1780528437527056600,10.877056640625,4.039018154144287,-5.432443618774414,11.14500904083252
1780528437537127400,10.88712744140625,3.0789434909820557,-5.540182590484619,12.820950508117676
1780528437547198200,10.8971982421875,2.2409727573394775,-5.4013190269470215,14.214375495910645
1780528437587542500,10.93754248046875,3.794809579849243,-3.663128614425659,11.348516464233398
1780528437627825700,10.97782568359375,4.793191909790039,-3.6152446269989014,13.24711799621582
1780528437637896400,10.987896484375,4.288015365600586,-4.07014274597168,11.860875129699707
1780528437647998000,10.997998046875,3.471592426300049,-3.7828385829925537,10.613495826721191
1780528437678210300,11.028210205078125,3.732560396194458,-4.108449935913086,11.437101364135742
1780528437688281000,11.038281005859375,4.19224739074707,-4.446032524108887,11.834539413452148
1780528437698351900,11.048351806640625,3.4763808250427246,-4.876988887786865,10.438719749450684
1780528437708453000,11.058453125,3.7612907886505127,-4.163516521453857,8.473079681396484
1780528437718524000,11.06852392578125,3.2106244564056396,-2.6192567348480225,6.916848659515381
1780528437728625400,11.07862548828125,1.501164436340332,-1.4460978507995605,6.603208065032959
1780528437738696200,11.0886962890625,0.31364041566848755,-0.31364041566848755,8.164227485656738
1780528437748797400,11.09879736328125,0.706289529800415,1.015141487121582,9.919178009033203
1780528437758898700,11.108898681640625,1.7836803197860718,0.6727706789970398,9.636661529541016
1780528437768969500,11.118969482421875,3.1268274784088135,-2.434903144836426,8.38449478149414
1780528437779071000,11.129071044921876,4.944026470184326,-4.649539470672607,7.893682956695557
1780528437789141800,11.139141845703126,4.776432514190674,-4.884171485900879,7.553706169128418
1780528437799212500,11.149212646484376,2.1045033931732178,-2.7126305103302,7.182605266571045
1780528437809313800,11.159313720703125,0.7996633648872375,0.49559974670410156,7.343016624450684
1780528437819384600,11.169384521484375,0.4213795065879822,3.2393548488616943,8.413225173950195
1780528437829455400,11.179455322265625,-0.17238251864910126,3.469198226928711,9.636661529541016
1780528437839556600,11.189556640625,1.0055646896362305,2.449268341064453,10.697293281555176
1780528437849658000,11.199658203125,3.184288263320923,-0.7948749661445618,10.687716484069824
1780528437859759400,11.20975927734375,4.7189717292785645,-4.311957359313965,9.545681953430176
1780528437869860600,11.219860595703125,5.420472621917725,-5.43723201751709,7.876923561096191
1780528437879961900,11.2299619140625,2.4157495498657227,-3.8067808151245117,7.206547260284424
1780528437890063400,11.2400634765625,-2.3582887649536133,0.24181437492370605,8.719682693481445
1780528437960650500,11.310650390625,1.7142484188079834,-4.941632270812988,10.642226219177246
1780528438010943500,11.360943603515626,1.137245774269104,0.8619126081466675,5.810727596282959
1780528438081500200,11.431500244140626,0.8355764150619507,1.1492167711257935,6.6846113204956055
1780528438091540200,11.441540283203125,3.117250680923462,-0.9169792532920837,8.406042098999023
1780528438131854000,11.48185400390625,1.170764684677124,-1.0558429956436157,8.791508674621582
1780528438141955300,11.491955322265625,0.9911994934082031,-1.01753568649292,7.694964408874512
1780528438152026000,11.502026123046875,2.4372973442077637,-0.4405331015586853,8.109161376953125
1780528438162127600,11.512127685546876,3.0597896575927734,-0.0933738648891449,9.332598686218262
1780528438172228900,11.522228759765625,2.142810583114624,-0.12689268589019775,10.247182846069336
1780528438182299600,11.532299560546875,1.3096283674240112,-0.4812345504760742,10.266336441040039
1780528438192370400,11.542370361328125,1.3551181554794312,-0.40222588181495667,10.120290756225586
1780528438202471700,11.5524716796875,1.0606313943862915,-0.12928688526153564,9.641449928283691
1780528438212512000,11.562511962890625,1.048660397529602,-0.028730420395731926,9.174580574035645
1780528438222644000,11.57264404296875,1.2880805730819702,-0.49320554733276367,9.150638580322266
1780528438273089300,11.62308935546875,1.216254472732544,-0.45489832758903503,9.224859237670898
1780528438333666800,11.683666748046875,2.2457611560821533,-1.6041151285171509,8.83939266204834
1780528438343737600,11.693737548828125,1.98958158493042,-2.123656988143921,8.827422142028809
1780528438353838800,11.7038388671875,2.0638017654418945,-2.0183119773864746,9.368511199951172
1780528438363940400,11.7139404296875,2.403778553009033,-1.400607943534851,9.610325813293457
1780528438374011100,11.72401123046875,3.1459810733795166,-1.7956513166427612,8.755595207214355
1780528438384112400,11.7341123046875,3.464409828186035,-2.542642116546631,7.515398979187012
1780528438404284400,11.754284423828125,1.5083470344543457,-1.656787633895874,7.95832633972168
1780528438414355200,11.764355224609375,0.8954314589500427,-1.5538369417190552,9.258378028869629
1780528438424426000,11.774426025390625,1.5634137392044067,-1.2521674633026123,9.8784761428833
1780528438434527500,11.784527587890626,1.625662922859192,-1.2617442607879639,9.459490776062012
1780528438444628700,11.794628662109375,1.072602391242981,-1.2976573705673218,9.198522567749023
1780528438454730000,11.80472998046875,0.7829039692878723,-1.2617442607879639,8.825027465820312
1780528438464800800,11.81480078125,1.1971008777618408,-1.3910311460494995,8.044517517089844
1780528438474902300,11.82490234375,0.7733271718025208,-1.3239935636520386,7.4100542068481445
1780528438484973000,11.83497314453125,-0.0694318488240242,-1.0462661981582642,7.754819393157959
1780528438495074300,11.84507421875,-0.849941611289978,-1.0630255937576294,9.193734169006348
1780528438505206000,11.8552060546875,-0.7852981686592102,-0.21787235140800476,9.634267807006836
1780528438515276800,11.86527685546875,-0.9648633003234863,0.15083470940589905,8.78432559967041
1780528438586047200,11.936047119140625,-0.2968810200691223,-1.7908629179000854,8.47786808013916
1780528438636645400,11.986645263671875,-0.028730420395731926,-2.6384103298187256,8.415618896484375
1780528438677081000,12.0270810546875,1.2856862545013428,-2.7676970958709717,9.739612579345703
1780528438687213000,12.037213134765626,0.7445967197418213,-2.7748796939849854,10.14902114868164
1780528438717547500,12.067547607421876,2.2242133617401123,-2.559401512145996,11.190498352050781
1780528438727679200,12.07767919921875,2.8131868839263916,-2.655169725418091,10.278307914733887
1780528438737780500,12.087780517578125,2.58813214302063,-2.652775526046753,9.485827445983887
1780528438747912400,12.097912353515625,2.719813108444214,-2.099714994430542,8.808267593383789
1780528438758044200,12.108044189453125,2.7509377002716064,-1.3910311460494995,8.269572257995605
1780528438768176000,12.118176025390625,2.7102363109588623,-1.3096283674240112,7.967903137207031
1780528438778277400,12.12827734375,2.7317841053009033,-1.482010841369629,8.243236541748047
1780528438808642300,12.158642333984375,3.60566782951355,-3.780444383621216,7.989450931549072
1780528438818743800,12.168743896484376,3.40216064453125,-3.308786630630493,8.396465301513672
1780528438869280800,12.21928076171875,2.5043349266052246,-2.96162748336792,7.625532627105713
1780528438879412700,12.229412841796876,2.6599581241607666,-2.9065608978271484,7.922413349151611
1780528438889514000,12.239513916015625,2.188300371170044,-2.564189910888672,8.513781547546387
1780528438899645700,12.249645751953125,1.577778935432434,-2.03507137298584,8.83699893951416
1780528438909777700,12.259777587890625,1.4676456451416016,-1.821987509727478,8.880094528198242
1780528438919879000,12.26987890625,1.3287819623947144,-1.5634137392044067,8.31985092163086
1780528438929919200,12.279919189453125,0.9576807022094727,-1.7310078144073486,7.558494567871094
1780528438940051200,12.29005126953125,0.6224924325942993,-2.049436569213867,7.19936466217041
1780528438950152400,12.30015234375,0.2777273952960968,-2.4229321479797363,6.921637058258057
1780528438970294000,12.3202939453125,-0.6344634294509888,-2.736572504043579,6.8043212890625
1780528439020861700,12.37086181640625,-0.40462008118629456,-2.5785553455352783,8.257601737976074
1780528439030963000,12.380962890625,0.5889736413955688,-3.663128614425659,8.516175270080566
1780528439071429400,12.421429443359376,0.5003881454467773,-3.1483752727508545,8.157045364379883
1780528439081561000,12.43156103515625,0.6943184733390808,-2.8850131034851074,8.29830265045166
1780528439091692800,12.44169287109375,1.7597382068634033,-2.494758129119873,8.494627952575684
1780528439101824800,12.45182470703125,2.0422539710998535,-2.6216509342193604,8.860940933227539
1780528439111926000,12.461926025390625,2.233790159225464,-3.1100680828094482,9.124302864074707
1780528439122058000,12.47205810546875,2.470816135406494,-3.313575267791748,8.995016098022461
1780528439132189700,12.482189697265625,2.5713725090026855,-3.423708438873291,8.341399192810059
1780528439142291000,12.492291015625,2.7246015071868896,-3.045424461364746,7.716512203216553
1780528439152392400,12.502392333984375,2.87064790725708,-2.5091233253479004,7.637503623962402
1780528439172564500,12.522564453125,3.6583402156829834,-2.6216509342193604,9.437943458557129
1780528439182727000,12.532726806640625,3.1076738834381104,-2.82515811920166,9.339780807495117
1780528439192858600,12.542858642578125,2.942473888397217,-2.9544448852539062,8.686163902282715
1780528439202960100,12.552960205078126,2.7724854946136475,-2.583343744277954,8.286332130432129
1780528439213061400,12.563061279296875,2.8874073028564453,-2.2146365642547607,8.018181800842285
1780528439253527600,12.603527587890625,2.341529369354248,-2.030282974243164,8.233659744262695
1780528439263629000,12.613629150390626,1.9057846069335938,-1.98958158493042,8.04691219329834
1780528439273760800,12.6237607421875,1.2306196689605713,-1.9536685943603516,8.101978302001953
1780528439283923200,12.633923095703125,0.8451532125473022,-1.6424223184585571,8.037335395812988
1780528439294024400,12.6440244140625,0.9959878921508789,-1.3479355573654175,7.675810813903809
1780528439304125700,12.654125732421875,0.6919242739677429,-0.871489405632019,7.2783732414245605
1780528439364886300,12.71488623046875,0.19153612852096558,-0.45010992884635925,6.524199485778809
1780528439385089000,12.735089111328126,0.43095630407333374,-0.8810662031173706,7.886500358581543
1780528439395190300,12.745190185546875,1.4915876388549805,-0.8523358106613159,8.020575523376465
1780528439405322000,12.755322021484375,1.2545616626739502,-0.6320692300796509,7.99184513092041
1780528439415423500,12.765423583984376,0.7613561153411865,-0.3471592366695404,8.480262756347656
1780528439425555200,12.77555517578125,1.0678139925003052,0.004788403399288654,9.327810287475586
1780528439435687200,12.785687255859376,1.556231141090393,-0.6320692300796509,9.804255485534668
1780528439445819000,12.79581884765625,1.7884687185287476,-1.4891934394836426,9.457097053527832
1780528439455920000,12.805920166015625,1.800439715385437,-1.8962076902389526,8.899248123168945
1780528439466052000,12.816052001953125,2.2649147510528564,-1.6400281190872192,8.774748802185059
1780528439476183800,12.826183837890625,1.7741034030914307,-1.216254472732544,8.856152534484863
1780528439496386600,12.846386474609375,0.7637503147125244,-0.8619126081466675,9.260771751403809
1780528439506487800,12.85648779296875,1.5418659448623657,-1.0893617868423462,9.162610054016113
1780528439516589000,12.866589111328125,1.8914192914962769,-1.5298948287963867,8.769960403442383
1780528439526690600,12.876690673828126,2.0446481704711914,-1.647210717201233,8.779537200927734
1780528439536791800,12.886791748046875,2.2170307636260986,-2.118868589401245,9.768342971801758
1780528439546893000,12.89689306640625,1.800439715385437,-1.7764976024627686,11.563994407653809
1780528439557025000,12.90702490234375,1.501164436340332,-1.2545616626739502,12.741941452026367
1780528439567126300,12.917126220703125,1.766920804977417,-0.8164227604866028,12.722787857055664
1780528439577197000,12.927197021484375,1.7932571172714233,-0.26336219906806946,11.109095573425293
1780528439597369000,12.947369140625,1.6208745241165161,-2.013523578643799,8.11634349822998
1780528439607440000,12.95743994140625,0.8068459630012512,-1.867477297782898,8.300697326660156
1780528439627581700,12.977581787109376,1.3982137441635132,-1.3886369466781616,10.946290016174316
1780528439637683000,12.987682861328125,1.6136919260025024,-1.8626888990402222,9.971850395202637
1780528439688098000,13.03809814453125,0.9289502501487732,0.8259995579719543,10.230423927307129
1780528439738543600,13.088543701171876,-0.1867477297782898,-0.5291185975074768,9.6989107131958
1780528439748644900,13.098644775390625,0.08619125932455063,-0.38067805767059326,8.803479194641113
1780528439758746000,13.10874609375,0.8379706144332886,0.08140286058187485,8.5903959274292
1780528439768817000,13.11881689453125,0.9265560507774353,0.0454898327589035,9.208099365234375
1780528439788958500,13.13895849609375,0.9193734526634216,-2.8610711097717285,11.405977249145508
1780528439799029200,13.149029296875,1.280897855758667,-3.890577793121338,11.243170738220215
1780528439809100000,13.15910009765625,2.1116859912872314,-3.5865142345428467,10.141838073730469
1780528439819171000,13.169171142578126,1.6831238269805908,-1.900996208190918,9.648633003234863
1780528439829241900,13.179241943359376,1.1348515748977661,-0.17477671802043915,10.522516250610352
1780528439839343000,13.189343017578125,1.699883222579956,0.8906430602073669,12.538434028625488
1780528439849383400,13.199383544921876,1.8411411046981812,0.6967126727104187,13.105859756469727
1780528439859545600,13.209545654296875,3.2968156337738037,-1.2018892765045166,12.236764907836914
1780528439869616400,13.219616455078125,4.747702121734619,-3.40216064453125,11.17852783203125
1780528439879718000,13.2297177734375,5.408501625061035,-5.74129581451416,10.972626686096191
1780528439889788700,13.23978857421875,5.0876784324646,-7.220912456512451,11.010933876037598
1780528439909991200,13.2599912109375,1.6112977266311646,-2.9041666984558105,12.251130104064941
1780528439920092700,13.2700927734375,1.05105459690094,-1.3431471586227417,13.263877868652344
1780528439930133000,13.280133056640626,0.22505496442317963,-0.8978256583213806,13.30218505859375
1780528439940234200,13.290234130859375,0.47165772318840027,-2.470816135406494,12.172121047973633
1780528439950305000,13.300304931640625,2.276885747909546,-5.461174011230469,12.559982299804688
1780528439960436700,13.310436767578125,4.891354084014893,-7.271190643310547,13.716381072998047
1780528439970477000,13.32047705078125,6.119579315185547,-8.152256965637207,13.874399185180664
1780528439980578300,13.330578369140625,5.901707172393799,-7.333439826965332,13.565546989440918
1780528439990679800,13.3406796875,4.347870349884033,-5.822698593139648,13.117831230163574
1780528440000750600,13.35075048828125,3.1507694721221924,-4.410119533538818,13.175292015075684
1780528440030993400,13.380993408203125,1.968033790588379,-7.079654216766357,12.437877655029297
1780528440121691600,13.471691650390625,1.656787633895874,-4.819528102874756,12.136208534240723
1780528440162066400,13.51206640625,2.7748796939849854,-5.128379821777344,12.267889976501465
1780528440172167700,13.522167724609375,3.6296098232269287,-5.286397457122803,12.696451187133789
1780528440182238500,13.532238525390625,4.642356872558594,-4.9799394607543945,12.686874389648438
1780528440192370400,13.542370361328125,4.927267074584961,-4.649539470672607,12.073959350585938
1780528440202441200,13.552441162109375,5.130774021148682,-4.503493309020996,11.283872604370117
1780528440212512000,13.562511962890625,5.080495834350586,-3.756502389907837,11.109095573425293
1780528440222582800,13.572582763671875,4.4077253341674805,-3.138798475265503,11.93509578704834
1780528440242785500,13.59278564453125,2.6144683361053467,-3.6320040225982666,13.814543724060059
1780528440252856300,13.602856201171875,3.026270866394043,-3.8714241981506348,12.583924293518066
1780528440262957600,13.61295751953125,4.113238334655762,-4.206612586975098,10.912771224975586
1780528440273028400,13.6230283203125,6.236895561218262,-3.576937437057495,9.806650161743164
1780528440293200400,13.643200439453125,4.261679172515869,-4.355052947998047,11.350910186767578
1780528440303302000,13.653302001953126,3.2585084438323975,-5.0014872550964355,11.480196952819824
1780528440313403100,13.663403076171875,2.315192937850952,-4.201824188232422,11.05402946472168
1780528440323474000,13.673473876953125,0.727837324142456,-2.0877439975738525,9.95748519897461
1780528440333544700,13.683544677734375,1.3862427473068237,-0.16998831927776337,9.5408935546875
1780528440343646000,13.69364599609375,2.6192567348480225,0.35673606395721436,9.548076629638672
1780528440353716700,13.703716796875,3.8091750144958496,-0.1628057211637497,9.41639518737793
1780528440363848700,13.7138486328125,3.399766445159912,-2.5282769203186035,9.526528358459473
1780528440373889000,13.723888916015625,2.4420857429504395,-3.1531636714935303,9.042900085449219
1780528440383959800,13.733959716796875,1.824381709098816,-4.211400985717773,7.718906402587891
1780528440394030600,13.744030517578125,2.583343744277954,-3.4572272300720215,7.058106422424316
1780528440404162300,13.754162353515625,2.9233202934265137,-0.993593692779541,7.405265808105469
1780528440414202600,13.76420263671875,1.3862427473068237,0.31364041566848755,8.741230010986328
1780528440424273400,13.7742734375,0.507570743560791,1.1851298809051514,10.04846477508545
1780528440454486000,13.804486083984376,1.2449848651885986,-1.1468225717544556,6.660669326782227
1780528440474688500,13.8246884765625,2.3295583724975586,-1.8579005002975464,7.869740962982178
1780528440545275600,13.895275634765625,3.488351821899414,-3.8594532012939453,7.4316020011901855
1780528440595721200,13.94572119140625,-0.7110779285430908,2.212242364883423,10.608707427978516
1780528440646227700,13.996227783203125,1.50355863571167,-0.8667010068893433,10.78587818145752
1780528440666369500,14.01636962890625,0.28730419278144836,-0.0933738648891449,7.838616371154785
1780528440676470800,14.026470703125,1.01753568649292,0.1149216815829277,6.9240312576293945
1780528440686511000,14.036510986328125,0.9528923034667969,0.5363011956214905,8.875306129455566
1780528440696582000,14.046581787109375,1.1180921792984009,0.3280056416988373,11.408370971679688
1780528440706652700,14.056652587890625,1.036689281463623,-0.8786720037460327,12.224793434143066
1780528440716723500,14.066723388671875,1.800439715385437,-1.161187767982483,10.572794914245605
1780528440726794200,14.076794189453125,2.609679937362671,-2.078166961669922,7.800309181213379
1780528440736895500,14.0868955078125,2.0661959648132324,-2.3056161403656006,6.196194171905518
1780528440746966300,14.09696630859375,1.656787633895874,-1.7142484188079834,6.866570472717285
1780528440757067800,14.10706787109375,1.558625340461731,-0.8212111592292786,8.825027465820312
1780528440767138600,14.117138671875,1.280897855758667,-0.0454898327589035,10.187328338623047
1780528440777179000,14.127178955078126,1.259350061416626,0.1149216815829277,9.775525093078613
1780528440787280100,14.137280029296875,0.9816226959228516,-0.49559974670410156,8.688557624816895
1780528440797381400,14.14738134765625,1.213860273361206,-1.213860273361206,7.833827972412109
1780528440807482600,14.157482666015625,1.4891934394836426,-1.1994950771331787,7.532158374786377
1780528440837725700,14.1877255859375,1.9393033981323242,-0.933738648891449,10.194510459899902
1780528440908251600,14.258251708984375,2.7078421115875244,-1.216254472732544,10.51054573059082
1780528440968737500,14.318737548828125,1.7334020137786865,-0.22744916379451752,9.730035781860352
1780528440988879000,14.338879150390625,2.0159177780151367,-1.2066776752471924,9.885659217834473
1780528440998980600,14.348980712890626,2.5713725090026855,-2.0614075660705566,9.38048267364502
1780528441009021000,14.35902099609375,2.580949544906616,-2.8371291160583496,8.796297073364258
1780528441019122200,14.3691220703125,2.7557260990142822,-3.1675288677215576,8.180987358093262
1780528441029162500,14.37916259765625,1.86508309841156,-2.7485435009002686,8.087613105773926
1780528441039233300,14.3892333984375,0.9145850539207458,-0.7398083209991455,8.904036521911621
1780528441049304000,14.399303955078125,1.256955862045288,-0.12449848651885986,9.294290542602539
1780528441059374800,14.409374755859375,0.950498104095459,-0.7182605266571045,8.583212852478027
1780528441069476000,14.41947607421875,1.558625340461731,-1.4700398445129395,8.81784439086914
1780528441079577300,14.429577392578125,1.9991583824157715,-2.3104045391082764,9.241618156433105
1780528441099719200,14.44971923828125,1.678335428237915,-2.3295583724975586,8.937555313110352
1780528441109759200,14.45975927734375,1.2952631711959839,-1.8171991109848022,9.081207275390625
1780528441129870300,14.479870361328125,1.3192051649093628,-1.0127472877502441,9.368511199951172
1780528441190356200,14.540356201171875,1.41257905960083,-2.2649147510528564,9.38048267364502
1780528441220660200,14.57066015625,0.37828385829925537,-1.5179238319396973,6.430825710296631
1780528441230761500,14.580761474609375,0.45489832758903503,-0.20111294090747833,6.414066314697266
1780528441240832300,14.590832275390625,0.7206547260284424,0.3711012601852417,7.295132637023926
1780528441250872600,14.60087255859375,0.9433154463768005,-0.5793967843055725,8.856152534484863
1780528441261004500,14.611004638671876,1.4221558570861816,-1.8579005002975464,10.431536674499512
1780528441281176600,14.631176513671875,0.6967126727104187,-2.4660277366638184,10.108319282531738
1780528441291277800,14.64127783203125,-0.6631938815116882,-1.6400281190872192,9.330204010009766
1780528441301379300,14.65137939453125,-1.4963760375976562,-0.6320692300796509,8.822632789611816
1780528441311480600,14.66148046875,-2.47560453414917,-0.0933738648891449,8.339004516601562
1780528441321581800,14.671581787109375,-2.0183119773864746,-0.1867477297782898,8.188169479370117
1780528441341784600,14.69178466796875,0,-2.2002713680267334,8.75080680847168
1780528441351855400,14.70185546875,0.5291185975074768,-3.6774938106536865,9.667786598205566
1780528441412402200,14.762402099609375,-1.0031704902648926,-2.0853497982025146,9.102754592895508
1780528441422473000,14.772472900390625,-0.19153612852096558,-2.3989901542663574,8.774748802185059
1780528441432574200,14.78257421875,0.7182605266571045,-3.0334534645080566,8.801085472106934
1780528441452746500,14.80274658203125,2.985569477081299,-4.213795185089111,10.005369186401367
1780528441462878200,14.812878173828125,2.9520506858825684,-4.505887508392334,10.527304649353027
1780528441483019800,14.833019775390625,2.628833532333374,-3.1507694721221924,9.758766174316406
1780528441493060000,14.84306005859375,2.1978771686553955,-2.1811177730560303,8.719682693481445
1780528441513232100,14.863232177734375,2.296039342880249,-1.3215993642807007,7.802703380584717
1780528441533435000,14.883434814453125,3.7876269817352295,-3.287238836288452,7.338228225708008
1780528441543505700,14.893505615234375,4.223371982574463,-4.067748546600342,8.305485725402832
1780528441553576400,14.903576416015625,4.568136692047119,-3.976768970489502,9.196128845214844
1780528441563647200,14.913647216796875,3.6128504276275635,-3.1459810733795166,9.059659004211426
1780528441573779200,14.923779296875,2.4420857429504395,-1.8483237028121948,8.341399192810059
1780528441583880400,14.93388037109375,1.5873557329177856,-1.094150185585022,7.7643961906433105
1780528441614215000,14.96421484375,2.7988216876983643,-2.319981336593628,6.619967937469482
1780528441624316200,14.974316162109375,3.6320040225982666,-3.339911460876465,8.066065788269043
1780528441634417400,14.98441748046875,3.004723072052002,-3.6942532062530518,9.832986831665039
1780528441644519000,14.994518798828125,2.2026655673980713,-2.8131868839263916,10.553641319274902
1780528441654650600,15.004650634765625,1.3670891523361206,-1.7286136150360107,9.435548782348633
1780528441664752000,15.014752197265626,-0.031124621629714966,-0.9552865028381348,7.920019149780273
1780528441674883800,15.0248837890625,-0.07422025501728058,-0.40222588181495667,6.593631267547607
1780528441684954600,15.03495458984375,0.9097966551780701,-0.9050082564353943,6.775590896606445
1780528441695056000,15.045055908203125,2.2170307636260986,-2.300827741622925,7.534552574157715
1780528441705157400,15.055157470703126,2.669534921646118,-3.6774938106536865,8.329427719116211
1780528441765856800,15.115856689453125,0.038307227194309235,-1.3192051649093628,6.665457725524902
1780528441775958000,15.1259580078125,0.5626373887062073,-1.8914192914962769,6.651092529296875
1780528441786090000,15.136090087890626,1.0845733880996704,-2.343923568725586,7.357381820678711
1780528441796191200,15.146191162109375,0.730231523513794,-2.6431987285614014,8.058882713317871
1780528441806292500,15.15629248046875,1.1516109704971313,-2.449268341064453,9.01895809173584
1780528441816393700,15.166393798828125,0.9768342971801758,-2.5737667083740234,9.004592895507812
1780528441866931000,15.216930908203125,0.5554547905921936,-1.2018892765045166,7.486668586730957
1780528441877063000,15.22706298828125,0.7541735172271729,-1.37906014919281,8.274360656738281
1780528441947833000,15.2978330078125,1.3910311460494995,-1.094150185585022,8.731653213500977
1780528442028674000,15.378674072265625,2.408566951751709,-1.460463047027588,8.628703117370605
1780528442059008500,15.409008544921875,2.6671407222747803,-1.2282254695892334,8.216899871826172
1780528442069110000,15.419110107421876,2.406172752380371,-1.5107412338256836,8.489839553833008
1780528442079211300,15.429211181640625,1.800439715385437,-1.2473790645599365,9.284713745117188
1780528442089282000,15.439281982421875,2.0638017654418945,-0.15801730751991272,9.600749015808105
1780528442099413800,15.449413818359375,2.0159177780151367,0.15801730751991272,9.66539192199707
1780528442109515300,15.459515380859376,1.6136919260025024,0.13407529890537262,9.265560150146484
1780528442119616500,15.469616455078125,1.0845733880996704,-0.06224924325942993,8.944737434387207
1780528442139788500,15.48978857421875,1.4293384552001953,-0.5363011956214905,10.055646896362305
1780528442149890000,15.49989013671875,2.0231003761291504,-0.5746083855628967,10.819397926330566
1780528442159991300,15.5099912109375,2.032677173614502,-0.569819986820221,10.299856185913086
1780528442170123000,15.520123046875,1.6639702320098877,-1.0295066833496094,9.260771751403809
1780528442180224500,15.530224609375,1.7310078144073486,-1.6376339197158813,8.786720275878906
1780528442190325800,15.54032568359375,0.6799532771110535,-0.8547300100326538,8.769960403442383
1780528442200457500,15.55045751953125,-0.1628057211637497,-0.2992752194404602,9.078812599182129
1780528442210589400,15.56058935546875,0.9864110946655273,0.4812345504760742,9.694122314453125
1780528442220690700,15.570690673828125,1.460463047027588,0.10534487664699554,9.971850395202637
1780528442230792000,15.5807919921875,1.7764976024627686,-0.3064578175544739,9.909601211547852
1780528442240924000,15.590923828125,1.6065093278884888,0.28730419278144836,10.493785858154297
1780528442251055600,15.6010556640625,0.8595184087753296,0.2801215946674347,10.51054573059082
1780528442261157000,15.6111572265625,-0.10534487664699554,0.0694318488240242,10.014945983886719
1780528442281359600,15.631359619140625,1.4676456451416016,-0.6153098344802856,8.576030731201172
1780528442291460900,15.6414609375,1.1276689767837524,-0.12449848651885986,8.037335395812988
1780528442301562400,15.651562255859375,1.1276689767837524,-0.12449848651885986,8.037335395812988
1780528442311663600,15.66166357421875,1.5322890281677246,-0.9888052940368652,8.398859977722168
1780528442321734400,15.671734375,2.3798365592956543,-1.599326729774475,9.038111686706543
1780528442392230100,15.742230224609376,2.540247917175293,0.2346317619085312,10.170568466186523
1780528442462847700,15.81284765625,4.050989151000977,-3.093308687210083,10.984597206115723
1780528442523303000,15.873302978515625,3.3470940589904785,-2.274491548538208,11.978191375732422
1780528442593798700,15.943798583984375,0.5315127968788147,-1.8076223134994507,13.007698059082031
1780528442664263700,16.014263671875,2.1571757793426514,-3.423708438873291,12.121843338012695
1780528442714678800,16.0646787109375,3.3710360527038574,-7.781155586242676,10.146626472473145
1780528442734850800,16.084850830078125,3.665522813796997,-6.66785192489624,12.143390655517578
1780528442744921600,16.094921630859375,3.955221176147461,-4.922478675842285,13.438653945922852
1780528442754992400,16.104992431640625,3.5242648124694824,-3.957615375518799,13.278243064880371
1780528442765063200,16.115063232421875,3.004723072052002,-4.548983097076416,12.1194486618042
1780528442775134200,16.12513427734375,3.4620156288146973,-5.9735331535339355,11.578359603881836
1780528442785205000,16.135205078125,3.2297780513763428,-6.701370716094971,11.3269681930542
1780528442815447800,16.16544775390625,2.3965959548950195,-3.6104562282562256,12.555193901062012
1780528442825518600,16.1755185546875,3.6104562282562256,-3.093308687210083,12.988544464111328
1780528442835589400,16.18558935546875,4.223371982574463,-3.201047658920288,12.725181579589844
1780528442845690600,16.195690673828125,3.624821424484253,-4.642356872558594,12.006921768188477
1780528442855731000,16.20573095703125,3.8786067962646484,-6.208165168762207,11.350910186767578
1780528442865801700,16.2158017578125,4.41969633102417,-6.598419666290283,11.113883972167969
1780528442875872500,16.22587255859375,4.5609540939331055,-6.229712963104248,11.51611042022705
1780528442885974000,16.23597412109375,3.555389642715454,-5.17626428604126,13.26866626739502
1780528442906085000,16.256085205078126,0.181959331035614,-1.039083480834961,15.258247375488281
1780528442926257200,16.276257080078125,3.993528366088867,-2.33913516998291,11.32457447052002
1780528442956500000,16.3065,6.0836663246154785,-7.474697589874268,10.972626686096191
1780528443016955400,16.366955322265625,4.72376012802124,-2.911349296569824,8.918401718139648
1780528443027056600,16.377056640625,5.439626216888428,-5.48272180557251,8.683769226074219
1780528443037158000,16.387157958984375,5.832275390625,-6.3949127197265625,10.101137161254883
1780528443047167700,16.397167724609375,5.5545477867126465,-5.612008571624756,12.073959350585938
1780528443057269000,16.40726904296875,2.434903144836426,-3.5170822143554688,13.017274856567383
1780528443067339800,16.41733984375,-1.4748282432556152,-0.3878606855869293,12.717999458312988
1780528443077410800,16.427410888671876,-2.097320795059204,2.58813214302063,10.958261489868164
1780528443087481600,16.437481689453126,0.08379705995321274,2.612074136734009,8.336610794067383
1780528443097582800,16.447582763671875,2.0374655723571777,-0.4381389021873474,6.313509941101074
1780528443107623200,16.457623046875,3.201047658920288,-3.7612907886505127,6.947973251342773
1780528443117694000,16.46769384765625,4.359841346740723,-5.899312973022461,9.9000244140625
1780528443137805000,16.48780517578125,4.479551315307617,-4.73573112487793,12.162544250488281
1780528443147906300,16.49790625,0.5746083855628967,-1.5514427423477173,9.536105155944824
1780528443157977000,16.50797705078125,-1.900996208190918,1.2473790645599365,8.219294548034668
1780528443168017400,16.518017333984375,-2.7724854946136475,2.691082715988159,7.647080421447754
1780528443178118700,16.52811865234375,-1.8914192914962769,2.7916390895843506,7.608773231506348
1780528443198229800,16.548229736328125,5.305551052093506,-4.141968727111816,9.198522567749023
1780528443208270000,16.55827001953125,7.254431247711182,-5.370194435119629,8.49941635131836
1780528443218371300,16.568371337890625,5.473145008087158,-6.797138690948486,7.457938194274902
1780528443228411600,16.57841162109375,1.7286136150360107,-4.4939165115356445,6.696582317352295
1780528443238513000,16.588512939453125,-4.165910720825195,2.9328970909118652,7.9415669441223145
1780528443248583700,16.598583740234375,-1.9536685943603516,5.504269599914551,9.44991397857666
1780528443258685200,16.608685302734376,1.381454348564148,4.240131378173828,9.351752281188965
1780528443278826800,16.62882666015625,5.588066577911377,-4.627991676330566,7.548917770385742
1780528443288928000,16.638927978515625,4.129997730255127,-5.166687488555908,7.936778545379639
1780528443298998800,16.648998779296875,1.2880805730819702,-3.4524388313293457,8.542511940002441
1780528443369463800,16.7194638671875,2.5450363159179688,-4.02465295791626,9.188945770263672
1780528443379565300,16.7295654296875,1.0869675874710083,-3.2561142444610596,10.098742485046387
1780528443389636000,16.739635986328125,-0.5363011956214905,-0.7541735172271729,9.832986831665039
1780528443399707000,16.749706787109375,-0.31842881441116333,2.33913516998291,9.220070838928223
1780528443409777700,16.759777587890625,-0.2992752194404602,3.0310592651367188,8.315062522888184
1780528443419879000,16.76987890625,0.4189853072166443,1.7094600200653076,7.553706169128418
1780528443429980200,16.779980224609375,1.1563993692398071,-0.3208230137825012,7.082048416137695
1780528443440112000,16.790112060546875,2.3271639347076416,-1.699883222579956,7.5201873779296875
1780528443450183000,16.800182861328125,2.2457611560821533,-2.030282974243164,8.504204750061035
1780528443460284200,16.8102841796875,1.0606313943862915,-1.4532804489135742,9.634267807006836
1780528443470385700,16.8203857421875,0.6344634294509888,-0.6392518281936646,10.409989356994629
1780528443480456400,16.83045654296875,0.35434186458587646,0.014365210197865963,10.371682167053223
1780528443551135000,16.901135009765625,2.3942017555236816,-0.22505496442317963,11.065999984741211
1780528443561236500,16.911236572265626,2.03507137298584,-0.5889736413955688,10.72841739654541
1780528443581378000,16.9313779296875,2.5905263423919678,-1.1827356815338135,8.513781547546387
1780528443591418400,16.94141845703125,2.7988216876983643,-1.6735470294952393,8.097189903259277
1780528443601519600,16.95151953125,2.626439332962036,-1.845929503440857,8.432378768920898
1780528443611560000,16.961559814453125,2.542642116546631,-1.4077905416488647,8.801085472106934
1780528443621630700,16.971630615234375,2.408566951751709,-1.0127472877502441,8.925583839416504
1780528443661883400,17.01188330078125,2.2816741466522217,-1.802833914756775,9.375694274902344
1780528443671984600,17.021984619140625,1.8291701078414917,-2.300827741622925,10.067618370056152
1780528443722399700,17.072399658203125,1.8842366933822632,-2.3367409706115723,8.856152534484863
1780528443752642600,17.102642578125,0.8978256583213806,-1.8914192914962769,8.293514251708984
1780528443772814800,17.12281494140625,1.721431016921997,-1.7621324062347412,9.246406555175781
1780528443782885600,17.1328857421875,1.7764976024627686,-1.8507179021835327,9.995792388916016
1780528443792956400,17.142956298828125,1.3958195447921753,-2.4851813316345215,10.160991668701172
1780528443803027200,17.153027099609375,1.3192051649093628,-2.3965959548950195,10.196905136108398
1780528443813128400,17.16312841796875,0.5770025849342346,-2.027888774871826,9.732429504394531
1780528443823199200,17.17319921875,-0.10055647045373917,-2.0877439975738525,9.040505409240723
1780528443833239600,17.183239501953125,0.35913026332855225,-2.0446481704711914,8.236053466796875
1780528443843310300,17.193310302734375,1.3623007535934448,-1.941697597503662,7.441178798675537
1780528443853381000,17.203381103515625,1.601720929145813,-1.9728221893310547,7.280767440795898
1780528443863452000,17.213451904296875,1.4508862495422363,-1.599326729774475,7.682993412017822
1780528443873522700,17.223522705078125,1.292868971824646,-1.6136919260025024,8.406042098999023
1780528443883593500,17.233593505859375,1.0749965906143188,-1.7286136150360107,9.093177795410156
1780528443893664300,17.243664306640625,1.2401964664459229,-1.800439715385437,9.167398452758789
1780528443903735000,17.253735107421875,1.50355863571167,-1.9752163887023926,8.834604263305664
1780528443913806000,17.26380615234375,1.8100165128707886,-1.9704279899597168,8.609549522399902
1780528443923907300,17.2739072265625,2.0254945755004883,-1.723825216293335,8.899248123168945
1780528443934039000,17.2840390625,1.4724340438842773,-0.9983820915222168,8.841787338256836
1780528443944140500,17.294140625,0.6919242739677429,-0.8140285611152649,8.736441612243652
1780528443954241800,17.30424169921875,0.7182605266571045,-0.9983820915222168,8.853757858276367
1780528443994616600,17.344616455078125,1.6112977266311646,-1.8363527059555054,9.136273384094238
1780528444034991400,17.384991455078126,0.9026140570640564,-2.140416383743286,9.897629737854004
1780528444075305000,17.425304931640625,1.4077905416488647,-2.0829553604125977,8.887276649475098
1780528444115649300,17.465649169921875,1.0869675874710083,-2.6839001178741455,8.564059257507324
1780528444125720000,17.475719970703125,0.9385270476341248,-2.5905263423919678,8.367734909057617
1780528444135851800,17.485851806640625,1.0055646896362305,-2.7269957065582275,8.346187591552734
1780528444145953300,17.495953369140626,1.1061211824417114,-2.9903578758239746,8.4108304977417
1780528444156024000,17.506024169921876,1.556231141090393,-2.964021682739258,8.712499618530273
1780528444166094800,17.5160947265625,1.53707754611969,-2.9712042808532715,8.966285705566406
1780528444176196000,17.526196044921875,1.5729905366897583,-2.9879636764526367,8.889671325683594
1780528444186267000,17.536266845703125,1.6376339197158813,-2.806004285812378,8.516175270080566
1780528444206439000,17.55643896484375,1.7980455160140991,-3.1244332790374756,8.53293514251709
1780528444236773400,17.5867734375,1.2114660739898682,-2.6024973392486572,8.300697326660156
1780528444246875000,17.596875,1.2186486721038818,-2.3247697353363037,7.939172744750977
1780528444256976100,17.60697607421875,1.3527239561080933,-2.5043349266052246,8.066065788269043
1780528444267077400,17.617077392578125,1.8531121015548706,-2.63362193107605,8.243236541748047
1780528444277179000,17.627178955078126,1.8148049116134644,-2.5761611461639404,8.425195693969727
1780528444287249700,17.637249755859376,1.6543933153152466,-2.4660277366638184,8.710105895996094
1780528444297381400,17.64738134765625,1.678335428237915,-2.52109432220459,8.762778282165527
1780528444317584100,17.667584228515626,1.721431016921997,-3.160346269607544,7.577648162841797
1780528444327655000,17.677655029296876,1.9560627937316895,-2.889801502227783,7.230489253997803
1780528444388323800,17.73832373046875,2.650381326675415,-2.250549554824829,7.750030994415283
1780528444398425000,17.748425048828125,2.734178304672241,-2.5091233253479004,7.773972988128662
1780528444408495900,17.758495849609375,2.3032219409942627,-2.561795711517334,8.090007781982422
1780528444428729000,17.77872900390625,1.7046716213226318,-1.9177556037902832,8.267178535461426
1780528444448931600,17.798931640625,2.252943754196167,-1.4844050407409668,8.65743350982666
1780528444459002400,17.80900244140625,1.9632453918457031,-1.7764976024627686,8.695740699768066
1780528444469103900,17.819103759765625,1.9776105880737305,-2.0853497982025146,8.863334655761719
1780528444479205000,17.829205078125,1.742978811264038,-2.3535003662109375,8.856152534484863
1780528444489306400,17.839306396484375,1.3503297567367554,-2.252943754196167,8.69334602355957
1780528444499408000,17.849407958984376,1.4101848602294922,-2.032677173614502,8.564059257507324
1780528444509478700,17.859478759765626,1.5538369417190552,-1.8291701078414917,8.355764389038086
1780528444529711600,17.879711669921875,1.5107412338256836,-2.0853497982025146,8.7484130859375
1780528444560046000,17.910046142578125,1.4891934394836426,-2.075772762298584,8.561665534973145
1780528444570147600,17.920147705078126,1.7525556087493896,-1.9728221893310547,8.29830265045166
1780528444580248800,17.930248779296875,0.7709329724311829,-2.1068975925445557,7.927201747894287
1780528444590319600,17.940319580078125,0.21308395266532898,-2.1045033931732178,8.061277389526367
1780528444600451600,17.95045166015625,0.4165911078453064,-2.011129379272461,8.403648376464844
1780528444610552800,17.960552734375,0.545877993106842,-1.9105730056762695,8.418013572692871
1780528444620684500,17.9706845703125,0.13168109953403473,-1.98958158493042,8.190564155578613
1780528444701434000,18.05143408203125,1.4963760375976562,-1.0989385843276978,7.90086555480957
1780528444771960300,18.121960205078125,1.9560627937316895,-0.9409212470054626,9.050082206726074
1780528444782000600,18.132000732421876,2.367865562438965,-1.0630255937576294,9.289502143859863
1780528444792102000,18.142101806640625,2.9975404739379883,-1.558625340461731,8.29590892791748
1780528444802203100,18.152203125,3.0382418632507324,-1.9345149993896484,7.577648162841797
1780528444812274000,18.16227392578125,2.715024709701538,-1.8914192914962769,7.881711959838867
1780528444822375400,18.17237548828125,2.9903578758239746,-1.625662922859192,8.863334655761719
1780528444832446200,18.1824462890625,3.136404275894165,-1.2497732639312744,9.41400146484375
1780528444842547500,18.19254736328125,1.9105730056762695,-1.5418659448623657,9.07641887664795
1780528444852648700,18.202648681640625,2.5067291259765625,-1.414973258972168,8.815450668334961
1780528444862719500,18.212719482421875,3.066972494125366,-1.525106430053711,8.473079681396484
1780528444872790300,18.222790283203125,2.1978771686553955,-1.7884687185287476,8.29830265045166
1780528444882861000,18.232861083984375,2.1164743900299072,-1.2258312702178955,9.10993766784668
1780528444892931800,18.242931884765625,1.944091796875,-0.6272808313369751,10.038887977600098
1780528444903033300,18.253033447265626,1.8698714971542358,-0.6607996821403503,10.295066833496094
1780528444913134600,18.263134521484375,1.7549498081207275,-1.1420341730117798,9.672574996948242
1780528444923235800,18.27323583984375,1.8626888990402222,-1.1300631761550903,9.030928611755371
1780528444933306600,18.283306640625,1.8291701078414917,-0.9672574996948242,9.08838939666748
1780528444943408000,18.293408203125,1.6615760326385498,-1.094150185585022,9.62947940826416
1780528444953509400,18.30350927734375,1.8124107122421265,-0.6057330369949341,9.612719535827637
1780528444963580200,18.313580078125,2.734178304672241,-0.7038952708244324,9.502586364746094
1780528444973681400,18.323681396484375,2.1978771686553955,-0.8571242094039917,9.342175483703613
1780528444983782700,18.33378271484375,1.3862427473068237,-1.1971008777618408,9.361329078674316
1780528445003985400,18.3539853515625,2.073378562927246,-0.7637503147125244,9.911994934082031
1780528445014056200,18.36405615234375,1.9847931861877441,-1.1994950771331787,9.057265281677246
1780528445024127000,18.374126953125,2.209848165512085,-1.1516109704971313,8.212111473083496
1780528445034228200,18.384228271484375,1.8052281141281128,-0.849941611289978,8.305485725402832
1780528445074542000,18.4245419921875,1.821987509727478,0.9696516990661621,10.24239444732666
1780528445084643300,18.434643310546875,2.2385785579681396,1.4939818382263184,10.18493366241455
1780528445094744600,18.44474462890625,2.2218191623687744,2.2888567447662354,11.30063247680664
1780528445104815400,18.4548154296875,1.6615760326385498,1.3455413579940796,11.944672584533691
1780528445114916900,18.464916748046875,1.8411411046981812,-0.29209262132644653,11.779472351074219
1780528445124987600,18.474987548828125,1.9752163887023926,-1.5634137392044067,11.434707641601562
1780528445135058400,18.485058349609375,2.3798365592956543,-3.0334534645080566,10.769119262695312
1780528445145159700,18.49515966796875,3.332728862762451,-2.5234885215759277,9.66539192199707
1780528445155230500,18.50523046875,3.6176388263702393,-1.5298948287963867,9.21288776397705
1780528445165240300,18.515240234375,3.4141316413879395,-1.9488801956176758,9.830592155456543
1780528445175341600,18.525341552734375,3.1531636714935303,-1.4987702369689941,11.233593940734863
1780528445255969000,18.605968994140625,0.6919242739677429,-1.45806884765625,11.714828491210938
1780528445346728400,18.696728515625,2.477998733520508,-4.486733913421631,11.276689529418945
1780528445377001700,18.727001708984375,1.9608511924743652,-3.8786067962646484,10.47702693939209
1780528445387103000,18.73710302734375,3.339911460876465,-3.4356794357299805,10.828974723815918
1780528445407305700,18.7573056640625,4.355052947998047,-4.685452938079834,11.075576782226562
1780528445417376500,18.76737646484375,3.2178070545196533,-6.380547523498535,11.791443824768066
1780528445427477800,18.777477783203125,3.4620156288146973,-6.478709697723389,12.792220115661621
1780528445437548500,18.787548583984375,3.24414324760437,-5.57370138168335,12.60547161102295
1780528445447619300,18.797619384765625,2.8778305053710938,-5.104437828063965,12.325350761413574
1780528445457690000,18.807690185546875,3.8115692138671875,-5.626373767852783,12.344504356384277
1780528445467761200,18.81776123046875,4.065354347229004,-5.9735331535339355,12.023680686950684
1780528445477832000,18.82783203125,3.56017804145813,-5.149928092956543,12.191274642944336
1780528445498004000,18.84800390625,3.3303346633911133,-3.9169139862060547,12.531251907348633
1780528445508074800,18.85807470703125,3.5936968326568604,-4.855441093444824,12.459425926208496
1780528445518176000,18.868176025390625,3.4763808250427246,-6.414066314697266,12.99812126159668
1780528445538348300,18.888348388671876,4.800374507904053,-6.291962146759033,12.67011547088623
1780528445558489900,18.90848974609375,4.230554580688477,-4.580107688903809,11.595118522644043
1780528445578662000,18.928661865234375,4.314351558685303,-3.955221176147461,11.547234535217285
1780528445598834000,18.948833984375,4.235342979431152,-6.174646377563477,12.540828704833984
1780528445608935400,18.958935302734375,5.233725070953369,-6.4380083084106445,12.612654685974121
1780528445619006200,18.969006103515625,5.410895824432373,-5.870582580566406,12.066776275634766
1780528445649279500,18.999279541015625,2.2864625453948975,-2.118868589401245,12.445060729980469
1780528445659350300,19.009350341796875,3.7493197917938232,-2.0470423698425293,12.835315704345703
1780528445669451800,19.01945166015625,5.116408824920654,-3.5889084339141846,12.320562362670898
1780528445679522600,19.0295224609375,5.408501625061035,-5.037400245666504,11.724405288696289
1780528445689593300,19.03959326171875,5.286397457122803,-6.3733649253845215,11.377246856689453
1780528445699694600,19.049694580078125,5.140350818634033,-6.205770969390869,11.17852783203125
1780528445709765400,19.059765380859375,2.695871114730835,-3.1675288677215576,11.082759857177734
1780528445719836200,19.069836181640625,0.8930372595787048,-0.4429273009300232,11.259930610656738
1780528445740008400,19.090008544921876,1.9321208000183105,0.19153612852096558,11.552022933959961
1780528445810565000,19.160565185546876,-0.22266076505184174,2.3535003662109375,10.304644584655762
1780528445820666400,19.170666259765625,-0.3711012601852417,2.557007312774658,10.146626472473145
1780528445830706700,19.180706787109376,1.3838485479354858,0.3016694188117981,9.174580574035645
1780528445850878700,19.200878662109375,4.49870491027832,-4.697423934936523,8.238448143005371
1780528445860949500,19.210949462890625,5.542576789855957,-6.323086738586426,8.884882926940918
1780528445871050800,19.22105078125,5.260061264038086,-5.123591423034668,9.548076629638672
1780528445881121500,19.23112158203125,1.1540051698684692,-0.790086567401886,9.476250648498535
1780528445951617300,19.3016171875,7.024587631225586,-7.8960771560668945,8.123526573181152
1780528445961688000,19.31168798828125,3.8570590019226074,-6.038176536560059,9.749189376831055
1780528445991931000,19.341930908203125,-4.101267337799072,6.478709697723389,9.172186851501465
1780528446002001700,19.352001708984375,-2.293645143508911,4.850652694702148,6.885724067687988
1780528446042346000,19.392345947265625,4.750096321105957,-5.580883979797363,11.1474027633667
1780528446052416800,19.402416748046875,0.5530605912208557,-1.7118542194366455,11.202469825744629
1780528446062518000,19.41251806640625,-3.375824451446533,3.0813376903533936,10.17296314239502
1780528446072588800,19.4225888671875,-4.730942726135254,6.141127586364746,8.655038833618164
1780528446082659800,19.432659912109376,-3.064578056335449,5.583278179168701,6.36378812789917
1780528446092761000,19.442760986328125,0.8140285611152649,1.8339585065841675,4.800374507904053
1780528446102862300,19.4528623046875,4.357447147369385,-1.9273324012756348,6.011840343475342
1780528446112963600,19.462963623046875,5.7125654220581055,-4.845864295959473,9.378087997436523
1780528446123095600,19.473095458984375,4.6471452713012695,-6.658275127410889,12.284648895263672
1780528446133166300,19.483166259765625,1.9488801956176758,-4.2760443687438965,11.135432243347168
1780528446143237000,19.493237060546875,-0.3519476354122162,-1.115697979927063,7.994239330291748
1780528446163348200,19.51334814453125,0.016759412363171577,2.6575639247894287,5.918466567993164
1780528446173419000,19.5234189453125,0.7398083209991455,2.6647465229034424,7.204153060913086
1780528446183520300,19.533520263671875,3.157952070236206,0.8427590131759644,9.59835433959961
1780528446193591000,19.543591064453125,4.199429988861084,-2.1092917919158936,10.99656867980957
1780528446203661800,19.553661865234375,3.708618402481079,-3.797203779220581,10.704475402832031
1780528446213763300,19.563763427734376,1.8626888990402222,-2.382230758666992,9.160215377807617
1780528446223864600,19.573864501953125,1.158793568611145,-0.090979665517807,8.44434928894043
1780528446233935400,19.583935302734375,0.8044517636299133,1.4915876388549805,9.351752281188965
1780528446244067000,19.594067138671875,1.1851298809051514,1.843535304069519,9.940725326538086
1780528446254138000,19.60413818359375,2.3726539611816406,0.6560112833976746,9.952696800231934
1780528446314562800,19.664562744140625,1.3263877630233765,-0.6919242739677429,7.41484260559082
1780528446395159800,19.745159912109376,0.6392518281936646,-0.38067805767059326,8.578424453735352
1780528446405230600,19.755230712890626,0.7110779285430908,-0.6967126727104187,9.30386734008789
1780528446415331800,19.765331787109375,1.53707754611969,-1.2665326595306396,9.095572471618652
1780528446425402600,19.775402587890625,1.9560627937316895,-1.9393033981323242,8.281543731689453
1780528446435503900,19.78550390625,1.0989385843276978,-2.387019157409668,7.841010570526123
1780528446445544200,19.795544189453125,0.9481038451194763,-2.166752576828003,8.24084186553955
1780528446455645400,19.8056455078125,0.9169792532920837,-1.7142484188079834,8.678980827331543
1780528446465747000,19.815746826171875,0.33279404044151306,-1.8076223134994507,8.796297073364258
1780528446475848200,19.82584814453125,0.751779317855835,-1.7405846118927002,9.038111686706543
1780528446485919000,19.8359189453125,0.8762778043746948,-1.455674648284912,8.863334655761719
1780528446506091000,19.856091064453125,0.7182605266571045,-1.1276689767837524,8.78432559967041
1780528446516192500,19.866192626953126,0.272938996553421,-0.8978256583213806,8.959102630615234
1780528446526263300,19.87626318359375,-0.3902548849582672,-0.912190854549408,8.738836288452148
1780528446536364500,19.886364501953125,-0.22266076505184174,-1.8698714971542358,8.611943244934082
1780528446546465800,19.8964658203125,0.3926490843296051,-2.5522189140319824,8.592789649963379
1780528446556567300,19.9065673828125,0.6248866319656372,-2.3702597618103027,8.497021675109863
1780528446566668500,19.91666845703125,0.5985504388809204,-1.98958158493042,8.197746276855469
1780528446607043300,19.957043212890625,0.9481038451194763,-1.4867992401123047,8.030152320861816
1780528446637347300,19.987347412109376,0.15322890877723694,-2.169146776199341,8.449137687683105
1780528446647448600,19.997448486328125,1.0821791887283325,-1.968033790588379,8.56884765625
1780528446657519400,20.007519287109375,1.7310078144073486,-2.0039467811584473,8.719682693481445
1780528446667620600,20.01762060546875,1.766920804977417,-1.9847931861877441,8.880094528198242
1780528446677691400,20.02769140625,1.8363527059555054,-2.006340980529785,8.927978515625
1780528446687762200,20.03776220703125,1.7525556087493896,-1.8315643072128296,9.105149269104004
1780528446697894100,20.04789404296875,1.6424223184585571,-1.723825216293335,9.181763648986816
1780528446707995400,20.057995361328125,1.6112977266311646,-1.8411411046981812,8.829815864562988
1780528446738299400,20.08829931640625,3.0095114707946777,-3.4620156288146973,8.439560890197754
1780528446748400600,20.098400634765625,2.7940332889556885,-3.6822822093963623,8.884882926940918
1780528446758502000,20.108501953125,3.023876667022705,-3.794809579849243,9.074024200439453
1780528446768603400,20.118603271484375,3.0166940689086914,-3.732560396194458,8.698134422302246
1780528446788806000,20.138805908203125,2.5522189140319824,-3.3710360527038574,8.650250434875488
1780528446798907400,20.148907470703126,3.112462282180786,-3.315969467163086,8.44195556640625
1780528446849414000,20.199413818359375,2.82515811920166,-3.2848446369171143,8.185775756835938
1780528446869616400,20.219616455078125,2.449268341064453,-2.9472622871398926,8.746018409729004
1780528446889849600,20.239849609375,1.824381709098816,-2.853888511657715,7.905653953552246
1780528446930254800,20.2802548828125,0.8307880163192749,-2.1787235736846924,8.123526573181152
1780528446940356400,20.2903564453125,0.828393816947937,-2.126051187515259,8.101978302001953
1780528446970690800,20.32069091796875,1.900996208190918,-2.4684219360351562,7.838616371154785
1780528446980761600,20.33076171875,1.98958158493042,-2.4013843536376953,8.006210327148438
1780528446990893300,20.340893310546875,1.400607943534851,-2.054224967956543,8.123526573181152
1780528447000994600,20.35099462890625,1.1994950771331787,-1.6615760326385498,8.087613105773926
1780528447011096000,20.361095947265625,1.601720929145813,-1.0893617868423462,7.711723804473877
1780528447021197300,20.371197265625,2.2649147510528564,-1.2210428714752197,7.3885064125061035
1780528447031298600,20.381298583984375,2.382230758666992,-1.6663644313812256,7.347805023193359
1780528447041400000,20.391400146484376,2.494758129119873,-2.2864625453948975,7.802703380584717
1780528447051501300,20.401501220703125,2.940079689025879,-2.5091233253479004,8.346187591552734
1780528447061602600,20.4116025390625,1.8722656965255737,-2.4660277366638184,8.111555099487305
1780528447071703800,20.421703857421875,0.9888052940368652,-1.9632453918457031,7.532158374786377
1780528447081805300,20.431805419921876,0.8307880163192749,-1.2497732639312744,7.129932880401611
1780528447091937000,20.44193701171875,1.4700398445129395,-0.8882488012313843,7.117961883544922
1780528447102038300,20.452038330078125,2.3558945655822754,-1.2689268589019775,7.812280178070068
1780528447112139800,20.462139892578126,2.22660756111145,-2.03507137298584,8.276755332946777
1780528447122241000,20.472240966796875,1.6663644313812256,-2.8562827110290527,8.777143478393555
1780528447132342300,20.48234228515625,0.8427590131759644,-3.485957622528076,8.9064302444458
