time,seconds_elapsed,z,y,x
1781033667828659200,0.4986591796875,0.781962513923645,1.527899980545044,-0.3283500075340271
1781033667838415600,0.50841552734375,0.781962513923645,1.527899980545044,-0.3283500075340271
1781033667857932800,0.527932861328125,1.041837453842163,1.906849980354309,-0.533637523651123
1781033667877453300,0.547453369140625,1.1959749460220337,2.0880749225616455,-0.6703125238418579
1781033667896968200,0.56696826171875,1.2548249959945679,2.1588873863220215,-0.7316374778747559
1781033667916478700,0.586478759765625,1.291812539100647,2.191612482070923,-0.7075750231742859
1781033667935992800,0.605992919921875,1.3737624883651733,2.258437395095825,-0.6011499762535095
1781033667955507500,0.625507568359375,1.4474624395370483,2.3583998680114746,-0.44151249527931213
1781033667975020500,0.6450205078125,1.4276624917984009,2.433199882507324,-0.28421249985694885
1781033667994536000,0.664535888671875,1.277787446975708,2.4151875972747803,-0.19717499613761902
1781033668014054000,0.684053955078125,0.6897000074386597,1.985087513923645,-0.3158375024795532
1781033668033568000,0.703568115234375,0.6897000074386597,1.985087513923645,-0.3158375024795532
1781033668053081300,0.723081298828125,0.3558500111103058,1.645187497138977,-0.4329875111579895
1781033668072595700,0.742595703125,0.09129999577999115,1.293737530708313,-0.5174124836921692
1781033668092110600,0.762110595703125,-0.05884999781847,0.9761124849319458,-0.5626500248908997
1781033668111626000,0.7816259765625,-0.08910000324249268,0.7156875133514404,-0.5785999894142151
1781033668131139800,0.801139892578125,-0.030937500298023224,0.5164499878883362,-0.5658124685287476
1781033668150654200,0.820654296875,0.05362499877810478,0.3636874854564667,-0.5205749869346619
1781033668170168600,0.84016845703125,0.11866249889135361,0.23017500340938568,-0.45883750915527344
1781033668189680000,0.85968017578125,0.1498750001192093,0.08841250091791153,-0.41593748331069946
1781033668209192700,0.879192626953125,0.15111249685287476,-0.07177499681711197,-0.4115374982357025
1781033668228710000,0.8987099609375,0.14011250436306,-0.24199999868869781,-0.44206249713897705
1781033668248227800,0.918227783203125,0.14093749225139618,-0.40053749084472656,-0.48881250619888306
1781033668267744000,0.937743896484375,0.16499999165534973,-0.5307499766349792,-0.5271750092506409
1781033668287257000,0.957257080078125,0.19483749568462372,-0.6318125128746033,-0.5317124724388123
1781033668306769200,0.97676904296875,0.2149125039577484,-0.7006999850273132,-0.4857875108718872
1781033668326280700,0.99628076171875,0.24461250007152557,-0.7291625142097473,-0.3957250118255615
1781033668345788000,1.015787841796875,0.30951249599456787,-0.7111499905586243,-0.27953749895095825
1781033668365297700,1.035297607421875,0.4010874927043915,-0.6550499796867371,-0.1531749963760376
1781033668384811300,1.054811279296875,0.48633748292922974,-0.5853375196456909,-0.0317624993622303
1781033668404325000,1.0743251953125,0.5354250073432922,-0.5252500176429749,0.0719124972820282
1781033668423840000,1.093840087890625,0.5395500063896179,-0.48510000109672546,0.15152500569820404
1781033668443356700,1.113356689453125,0.5112249851226807,-0.45649999380111694,0.20542499423027039
1781033668462870800,1.132870849609375,0.46970000863075256,-0.42253750562667847,0.23787499964237213
1781033668482383400,1.15238330078125,0.42899999022483826,-0.370012491941452,0.2564375102519989
1781033668501900300,1.171900390625,0.383899986743927,-0.2985124886035919,0.2634499967098236
1781033668521413000,1.1914130859375,0.3240875005722046,-0.22123749554157257,0.25286251306533813
1781033668540923400,1.21092333984375,0.3240875005722046,-0.22123749554157257,0.25286251306533813
1781033668560434200,1.23043408203125,0.2535499930381775,-0.15565000474452972,0.21051250398159027
1781033668579943400,1.249943359375,0.10889999568462372,-0.1368124932050705,-0.0002749999985098839
1781033668599452400,1.269452392578125,0.04331250116229057,-0.19126249849796295,-0.13928750157356262
1781033668618964000,1.2889638671875,0.0042624999769032,-0.2554749846458435,-0.2623499929904938
1781033668638476800,1.308476806640625,0.0042624999769032,-0.2554749846458435,-0.2623499929904938
1781033668657991000,1.327990966796875,0.016087500378489494,-0.30002498626708984,-0.34127500653266907
1781033668677507300,1.34750732421875,0.08181250095367432,-0.3190000057220459,-0.3511750102043152
1781033668697021700,1.367021728515625,0.19346250593662262,-0.31597501039505005,-0.27994999289512634
1781033668716539000,1.386538818359375,0.3377000093460083,-0.2868250012397766,-0.14176249504089355
1781033668736059400,1.406059326171875,0.48785001039505005,-0.22769999504089355,0.027912499383091927
1781033668755574800,1.42557470703125,0.6045874953269958,-0.14492499828338623,0.1938749998807907
1781033668775084500,1.44508447265625,0.6553249955177307,-0.04908749833703041,0.33096250891685486
1781033668794596900,1.464596923828125,0.6133875250816345,0.06998749822378159,0.42899999022483826
1781033668814114800,1.48411474609375,0.4587000012397766,0.233474999666214,0.48963749408721924
1781033668833632500,1.503632568359375,0.2116124927997589,0.4398624897003174,0.5171374678611755
1781033668853144600,1.52314453125,-0.08181250095367432,0.6553249955177307,0.4973374903202057
1781033668872657700,1.54265771484375,-0.38609999418258667,0.8391624689102173,0.40796250104904175
1781033668892172500,1.562172607421875,-0.6626124978065491,0.9283999800682068,0.2297624945640564
1781033668911686400,1.581686279296875,-0.8197749853134155,0.8118000030517578,-0.05555000156164169
1781033668931204900,1.601204833984375,-0.7595499753952026,0.4273499846458435,-0.43092501163482666
1781033668950725600,1.6207255859375,-0.4848249852657318,-0.12526249885559082,-0.8140000104904175
1781033668970246100,1.64024609375,-0.10477499663829803,-0.6282374858856201,-1.0907875299453735
1781033668989763000,1.65976318359375,0.2414499968290329,-0.9167125225067139,-1.2017500400543213
1781033669009284400,1.679284423828125,0.47011250257492065,-0.9729499816894531,-1.1732875108718872
1781033669028806700,1.698806640625,0.5868499875068665,-0.8772500157356262,-1.0686500072479248
1781033669048319200,1.7183193359375,0.6593124866485596,-0.7243499755859375,-0.929224967956543
1781033669067832300,1.737832275390625,0.7556999921798706,-0.5696625113487244,-0.7640874981880188
1781033669087354600,1.757354736328125,0.8769749999046326,-0.4240500032901764,-0.5790125131607056
1781033669106877200,1.776877197265625,0.953837513923645,-0.2777499854564667,-0.39586248993873596
1781033669126391000,1.79639111328125,0.9332125186920166,-0.1274625062942505,-0.2465374916791916
1781033669145901300,1.8159013671875,0.8252750039100647,0.010037500411272049,-0.15441249310970306
1781033669165412400,1.835412353515625,0.6690750122070312,0.11055000126361847,-0.12622499465942383
1781033669184921000,1.854921142578125,0.48124998807907104,0.15661250054836273,-0.17132499814033508
1781033669204433700,1.87443359375,0.2488749921321869,0.14423750340938568,-0.29122498631477356
1781033669223950000,1.8939501953125,-0.025987500324845314,0.09707500040531158,-0.44714999198913574
1781033669243464400,1.91346435546875,-0.2870999872684479,0.059950001537799835,-0.571862518787384
1781033669262976500,1.9329765625,-0.44536250829696655,0.07466249912977219,-0.6142125129699707
1781033669282494200,1.952494140625,-0.454987496137619,0.1555124968290329,-0.5707625150680542
1781033669302013700,1.972013671875,-0.34347498416900635,0.27197501063346863,-0.468874990940094
1781033669321526300,1.9915263671875,-0.1732500046491623,0.3624500036239624,-0.3526875078678131
1781033669341039600,2.01103955078125,-0.1732500046491623,0.3624500036239624,-0.3526875078678131
1781033669360558600,2.03055859375,0.01347499992698431,0.3749625086784363,-0.2712875008583069
1781033669380075800,2.05007568359375,0.3398999869823456,0.22426250576972961,-0.26083749532699585
1781033669399591700,2.069591796875,0.3398999869823456,0.22426250576972961,-0.26083749532699585
1781033669419108400,2.0891083984375,0.4375250041484833,0.04688749834895134,-0.3260124921798706
1781033669438625500,2.10862548828125,0.4020499885082245,-0.03355000168085098,-0.34773749113082886
1781033669458140400,2.128140380859375,0.4020499885082245,-0.03355000168085098,-0.34773749113082886
1781033669477656000,2.147656005859375,0.3515875041484833,-0.09583749622106552,-0.3572250008583069
1781033669497173800,2.167173828125,0.3008500039577484,-0.1293874979019165,-0.35186249017715454
1781033669516692700,2.186692626953125,0.23512500524520874,-0.1297999918460846,-0.3264249861240387
1781033669536211500,2.20621142578125,0.14657500386238098,-0.11137499660253525,-0.28654998540878296
1781033669555723500,2.2257236328125,0.06737499684095383,-0.10175000131130219,-0.2488749921321869
1781033669575229200,2.245229248046875,0.05609999969601631,-0.12430000305175781,-0.22343750298023224
1781033669594734300,2.264734375,0.1471250057220459,-0.18796250224113464,-0.20679999887943268
1781033669614243300,2.284243408203125,0.4877125024795532,-0.44151249527931213,-0.17737500369548798
1781033669633757700,2.3037578125,0.4877125024795532,-0.44151249527931213,-0.17737500369548798
1781033669653275100,2.323275146484375,0.585474967956543,-0.6001874804496765,-0.1621125042438507
1781033669672790500,2.34279052734375,0.5821750164031982,-0.7357624769210815,-0.14739999175071716
1781033669692301300,2.36230126953125,0.5024250149726868,-0.8305000066757202,-0.13420000672340393
1781033669711814100,2.381814208984375,0.37345001101493835,-0.8823375105857849,-0.11701250076293945
1781033669731330800,2.401330810546875,0.23457500338554382,-0.9305999875068665,-0.09308750182390213
1781033669750847000,2.420846923828125,0.13529999554157257,-1.0253374576568604,-0.06929999589920044
1781033669770360000,2.440360107421875,0.09652499854564667,-1.1683374643325806,-0.05857500061392784
1781033669789864400,2.459864501953125,0.08249999582767487,-1.3154624700546265,-0.06984999775886536
1781033669809371400,2.479371337890625,0.04262499883770943,-1.4174875020980835,-0.0989999994635582
1781033669828886800,2.49888671875,-0.020624998956918716,-1.465749979019165,-0.12856249511241913
1781033669848403700,2.51840380859375,-0.06627500057220459,-1.4664374589920044,-0.1311749964952469
1781033669867918000,2.53791796875,-0.07383749634027481,-1.4225749969482422,-0.08951249718666077
1781033669887429400,2.557429443359375,-0.06393750011920929,-1.3480499982833862,-0.007424999959766865
1781033669906936600,2.5769365234375,-0.07479999959468842,-1.252074956893921,0.09748750180006027
1781033669926444500,2.596444580078125,-0.12622499465942383,-1.1478500366210938,0.20817500352859497
1781033669945955000,2.615955078125,-0.19002500176429749,-1.0554499626159668,0.3128125071525574
1781033669965465000,2.635465087890625,-0.19456249475479126,-0.9961875081062317,0.40383750200271606
1781033669984978400,2.654978515625,-0.04853750020265579,-1.0023750066757202,0.48413750529289246
1781033670004496600,2.67449658203125,0.29493749141693115,-1.0936750173568726,0.5655375123023987
1781033670024012000,2.694011962890625,0.7906249761581421,-1.2432750463485718,0.6606875061988831
1781033670043527700,2.713527587890625,1.3144999742507935,-1.377887487411499,0.7698624730110168
1781033670063038500,2.73303857421875,1.7410249710083008,-1.4359124898910522,0.9048874974250793
1781033670082544600,2.752544677734375,2.005574941635132,-1.4134999513626099,1.0901000499725342
1781033670102054400,2.772054443359375,2.0726749897003174,-1.3304499387741089,1.30611252784729
1781033670121565000,2.79156494140625,1.9570374488830566,-1.208899974822998,1.5107125043869019
1781033670141070800,2.81107080078125,1.7296124696731567,-1.0714000463485718,1.6710374355316162
1781033670160574200,2.83057421875,1.4502124786376953,-0.9315624833106995,1.7693499326705933
1781033670180077600,2.85007763671875,1.1574749946594238,-0.7964000105857849,1.7931374311447144
1781033670199581400,2.86958154296875,1.1574749946594238,-0.7964000105857849,1.7931374311447144
1781033670219085600,2.88908544921875,0.6765000224113464,-0.5197499990463257,1.4976500272750854
1781033670238588700,2.908588623046875,0.6765000224113464,-0.5197499990463257,1.4976500272750854
1781033670258090500,2.928090576171875,0.5226374864578247,-0.341825008392334,1.1413874626159668
1781033670277592600,2.947592529296875,0.38266250491142273,-0.13832500576972961,0.6854375004768372
1781033670297097000,2.967096923828125,0.2153249979019165,0.05664999783039093,0.17379999160766602
1781033670316600800,2.986600830078125,0.031075000762939453,0.2139499932527542,-0.3653374910354614
1781033670336102400,3.006102294921875,-0.14506250619888306,0.33934998512268066,-0.891962468624115
1781033670355605200,3.025605224609375,-0.32010000944137573,0.4575999975204468,-1.3305875062942505
1781033670375110700,3.045110595703125,-0.5264874696731567,0.5869874954223633,-1.6064125299453735
1781033670394616300,3.0646162109375,-0.7716500163078308,0.7260000109672546,-1.704587459564209
1781033670414126300,3.084126220703125,-0.9960500001907349,0.8456249833106995,-1.6568750143051147
1781033670433635600,3.103635498046875,-1.12681245803833,0.9140999913215637,-1.5131875276565552
1781033670453139500,3.123139404296875,-1.1440000534057617,0.926337480545044,-1.3253624439239502
1781033670472645400,3.142645263671875,-1.10013747215271,0.9101125001907349,-1.1320375204086304
1781033670492152000,3.162152099609375,-1.0823999643325806,0.9003499746322632,-0.9659374952316284
1781033670511655700,3.18165576171875,-1.1251624822616577,0.9083250164985657,-0.8439750075340271
1781033670531156500,3.201156494140625,-1.2090375423431396,0.9355499744415283,-0.7759125232696533
1781033670550657500,3.220657470703125,-1.303225040435791,0.9827125072479248,-0.7572125196456909
1781033670570159900,3.240159912109375,-1.3945250511169434,1.0456874370574951,-0.7636749744415283
1781033670589661700,3.25966162109375,-1.4829374551773071,1.114437460899353,-0.7673875093460083
1781033670609168600,3.279168701171875,-1.547974944114685,1.169987440109253,-0.7547374963760376
1781033670628682800,3.298682861328125,-1.5728625059127808,1.1976250410079956,-0.7316374778747559
1781033670648197400,3.318197265625,-1.5538874864578247,1.1919875144958496,-0.7009750008583069
1781033670667711500,3.33771142578125,-1.5034250020980835,1.1628375053405762,-0.6556000113487244
1781033670687225600,3.3572255859375,-1.442924976348877,1.13052499294281,-0.5867124795913696
1781033670706735600,3.376735595703125,-1.3792624473571777,1.1070125102996826,-0.48963749408721924
1781033670726247700,3.39624755859375,-1.3168375492095947,1.1013749837875366,-0.3716624975204468
1781033670745765000,3.41576513671875,-1.2449250221252441,1.1130625009536743,-0.24969999492168427
1781033670765276400,3.4352763671875,-1.144687533378601,1.130662441253662,-0.14423750340938568
1781033670784785200,3.45478515625,-1.021762490272522,1.1459250450134277,-0.0695749968290329
1781033670804301300,3.47430126953125,-0.8984249830245972,1.1562374830245972,-0.027912499383091927
1781033670823821800,3.49382177734375,-0.7907624840736389,1.1654499769210815,-0.010587500408291817
1781033670843342000,3.513342041015625,-0.6982250213623047,1.1694375276565552,-0.004399999976158142
1781033670862857700,3.532857666015625,-0.6155874729156494,1.1574749946594238,0.0008249999955296516
1781033670882376200,3.552376220703125,-0.5405125021934509,1.1215875148773193,0.009349999949336052
1781033670901894400,3.571894287109375,-0.4641999900341034,1.055862545967102,0.021037500351667404
1781033670921409800,3.591409912109375,-0.38225001096725464,0.9670374989509583,0.037812501192092896
1781033670940924400,3.61092431640625,-0.3067624866962433,0.8699625134468079,0.06737499684095383
1781033670960439000,3.63043896484375,-0.2513499855995178,0.7761874794960022,0.11577499657869339
1781033670979954700,3.64995458984375,-0.2167000025510788,0.6912124752998352,0.18108749389648438
1781033670999466000,3.669466064453125,-0.18741250038146973,0.612012505531311,0.25423750281333923
1781033671018975000,3.68897509765625,-0.13062499463558197,0.5339124798774719,0.32010000944137573
1781033671038484500,3.708484375,-0.019112499430775642,0.4595249891281128,0.36313748359680176
1781033671057994500,3.727994384765625,-0.019112499430775642,0.4595249891281128,0.36313748359680176
1781033671077504800,3.7475048828125,0.1270499974489212,0.3997125029563904,0.37908750772476196
1781033671097013500,3.767013427734375,0.23594999313354492,0.36918750405311584,0.37798750400543213
1781033671116524800,3.78652490234375,0.24062499403953552,0.37716248631477356,0.3712500035762787
1781033671136033800,3.80603369140625,0.14176249504089355,0.4207499921321869,0.3624500036239624
1781033671155540000,3.8255400390625,-0.011549999937415123,0.4904625117778778,0.3554374873638153
1781033671175050200,3.84505029296875,-0.18438750505447388,0.593999981880188,0.36492499709129333
1781033671194561300,3.864561279296875,-0.3596999943256378,0.7522624731063843,0.40658751130104065
1781033671214074000,3.88407421875,-0.6298875212669373,1.2457499504089355,0.5779125094413757
1781033671233582800,3.903582763671875,-0.6298875212669373,1.2457499504089355,0.5779125094413757
1781033671253090800,3.9230908203125,-0.6919000148773193,1.5027375221252441,0.6675624847412109
1781033671272601900,3.942601806640625,-0.7053750157356262,1.6938624382019043,0.7312250137329102
1781033671292114400,3.962114501953125,-0.6791124939918518,1.8136249780654907,0.7671124935150146
1781033671311630300,3.98163037109375,-0.6144874691963196,1.8766000270843506,0.7799000144004822
1781033671331145200,4.001145263671875,-0.520437479019165,1.9036874771118164,0.7777000069618225
1781033671350660400,4.020660400390625,-0.40755000710487366,1.8957124948501587,0.7601000070571899
1781033671370174200,4.04017431640625,-0.28888750076293945,1.8892500400543213,0.7346624732017517
1781033671389687600,4.0596875,-0.171875,1.9665249586105347,0.7193999886512756
1781033671409205200,4.079205322265625,-0.09583749622106552,2.1495375633239746,0.6778749823570251
1781033671428715800,4.0987158203125,-0.1274625062942505,2.257474899291992,0.4978874921798706
1781033671448224800,4.118224853515625,-0.28600001335144043,1.9233499765396118,0.07727500051259995
1781033671467735300,4.1377353515625,-0.5186499953269958,0.9238625168800354,-0.5502749681472778
1781033671487243000,4.157242919921875,-0.6749874949455261,-0.545324981212616,-1.1948750019073486
1781033671506754300,4.17675439453125,-0.6095374822616577,-1.8816875219345093,-1.6149375438690186
1781033671526264800,4.196264892578125,-0.317487508058548,-2.554612398147583,-1.6783249378204346
1781033671545775600,4.215775634765625,0.089649997651577,-2.5199625492095947,-1.4199625253677368
1781033671565288000,4.235287841796875,0.5115000009536743,-2.0726749897003174,-0.9630500078201294
1781033671584800000,4.254800048828125,0.9200124740600586,-1.5434374809265137,-0.4441249966621399
1781033671604311000,4.27431103515625,1.2513874769210815,-1.0994499921798706,0.006324999965727329
1781033671623820800,4.29382080078125,1.4012625217437744,-0.7999749779701233,0.2639999985694885
1781033671643332400,4.313332275390625,1.3169749975204468,-0.6645374894142151,0.2579500079154968
1781033671662845400,4.332845458984375,1.0414249897003174,-0.6682500243186951,0.029975000768899918
1781033671682357500,4.352357421875,0.6953374743461609,-0.7602375149726868,-0.28806251287460327
1781033671701867800,4.37186767578125,0.3889875113964081,-0.8786249756813049,-0.5634750127792358
1781033671721377300,4.391377197265625,0.18548749387264252,-0.9605749845504761,-0.7221499681472778
1781033671740885000,4.410885009765625,0.18548749387264252,-0.9605749845504761,-0.7221499681472778
1781033671760395800,4.430395751953125,0.1387374997138977,-0.8728500008583069,-0.6844750046730042
1781033671779909000,4.4499091796875,0.2671625018119812,-0.736175000667572,-0.5665000081062317
1781033671799422200,4.469422119140625,0.44852501153945923,-0.593999981880188,-0.453062504529953
1781033671818934000,4.48893408203125,0.6294749975204468,-0.48688748478889465,-0.381974995136261
1781033671838449000,4.508448974609375,0.7623000144958496,-0.43793749809265137,-0.3665750026702881
1781033671857964000,4.527964111328125,0.7623000144958496,-0.43793749809265137,-0.3665750026702881
1781033671877475600,4.5474755859375,0.825962483882904,-0.4478375017642975,-0.3928374946117401
1781033671896985300,4.5669853515625,0.8391624689102173,-0.5062749981880188,-0.4353249967098236
1781033671916496100,4.58649609375,0.8398500084877014,-0.5933125019073486,-0.46915000677108765
1781033671936010000,4.606010009765625,0.8295375108718872,-0.6802124977111816,-0.466949999332428
1781033671955524600,4.625524658203125,0.7812749743461609,-0.7492374777793884,-0.40796250104904175
1781033671975037200,4.645037109375,0.6850249767303467,-0.8005250096321106,-0.2868250012397766
1781033671994556000,4.664555908203125,0.5497249960899353,-0.8428750038146973,-0.11797499656677246
1781033672014073600,4.684073486328125,0.1746249943971634,-0.9020000100135803,0.2186249941587448
1781033672033588700,4.703588623046875,0.1746249943971634,-0.9020000100135803,0.2186249941587448
1781033672053106700,4.723106689453125,-0.055412501096725464,-0.9134125113487244,0.3018124997615814
1781033672072621300,4.742621337890625,-0.2404875010251999,-0.9697874784469604,0.30057498812675476
1781033672092133400,4.76213330078125,-0.29301249980926514,-1.1758999824523926,0.227974995970726
1781033672111644000,4.781643798828125,-0.18603749573230743,-1.5265250205993652,0.1508374959230423
1781033672131158500,4.801158447265625,0.0034374999813735485,-1.8731625080108643,0.1601874977350235
1781033672150672000,4.820671875,0.15372499823570251,-2.0477874279022217,0.29878750443458557
1781033672170181000,4.84018115234375,0.2428250014781952,-2.024137496948242,0.5378999710083008
1781033672189691000,4.85969091796875,0.353237509727478,-1.9146875143051147,0.8069875240325928
1781033672209203500,4.879203369140625,0.5543999671936035,-1.8325999975204468,1.0599875450134277
1781033672228718000,4.898718017578125,0.865149974822998,-1.8532249927520752,1.280400037765503
1781033672248234500,4.918234375,1.288100004196167,-2.0037875175476074,1.4632749557495117
1781033672267746000,4.93774609375,1.8613375425338745,-2.2692999839782715,1.6282750368118286
1781033672287255300,4.95725537109375,2.608649969100952,-2.15063738822937,1.8156875371932983
1781033672306766600,4.9767666015625,3.3742499351501465,-2.107187509536743,2.0304625034332275
1781033672326277600,4.996277587890625,3.887399911880493,-2.3922250270843506,2.2090749740600586
1781033672345788200,5.0157880859375,3.9630250930786133,-2.3398375511169434,2.248537540435791
1781033672365299200,5.03529931640625,3.5960373878479004,-2.060299873352051,2.1015501022338867
1781033672384813800,5.054813720703125,2.9435999393463135,-1.7237000465393066,1.8195375204086304
1781033672404330200,5.074330322265625,2.194087505340576,-1.396862506866455,1.4896750450134277
1781033672423842600,5.093842529296875,1.5148375034332275,-1.0902374982833862,1.1625624895095825
1781033672443352600,5.1133525390625,0.9998999834060669,-0.8225250244140625,0.8269249796867371
1781033672462863400,5.13286328125,0.6308500170707703,-0.551925003528595,0.44440001249313354
1781033672482377200,5.152377197265625,0.34732499718666077,-0.2404875010251999,-0.011687500402331352
1781033672501895400,5.1718955078125,0.12553749978542328,0.10092499852180481,-0.5170000195503235
1781033672521405700,5.19140576171875,-0.03341250121593475,0.428725004196167,-1.0224499702453613
1781033672540911000,5.2109111328125,-0.03341250121593475,0.428725004196167,-1.0224499702453613
1781033672560420600,5.230420654296875,-0.28929999470710754,0.4302375018596649,-1.8459374904632568
1781033672579931600,5.249931640625,-0.4573250114917755,0.7495124936103821,-2.107874870300293
1781033672599442700,5.269442626953125,-0.4573250114917755,0.7495124936103821,-2.107874870300293
1781033672618958300,5.288958251953125,-0.7107374668121338,1.1660000085830688,-2.240837574005127
1781033672638475500,5.3084755859375,-0.7107374668121338,1.1660000085830688,-2.240837574005127
1781033672657993200,5.3279931640625,-0.7580375075340271,1.2760000228881836,-2.1405999660491943
1781033672677511400,5.347511474609375,-0.8153749704360962,1.3443374633789062,-2.000075101852417
1781033672697024000,5.36702392578125,-0.9378874897956848,1.4092375040054321,-1.8654625415802002
1781033672716531000,5.386531005859375,-1.127774953842163,1.4920125007629395,-1.7535375356674194
1781033672736040200,5.406040283203125,-1.3334749937057495,1.5907374620437622,-1.6549500226974487
1781033672755556000,5.42555615234375,-1.490362524986267,1.690287470817566,-1.5519624948501587
1781033672775073500,5.445073486328125,-1.5767124891281128,1.7788374423980713,-1.4335750341415405
1781033672794591700,5.464591796875,-1.6198874711990356,1.8541874885559082,-1.3030874729156494
1781033672814108700,5.484108642578125,-1.6563249826431274,1.9436999559402466,-1.0687874555587769
1781033672833621800,5.503621826171875,-1.6563249826431274,1.9436999559402466,-1.0687874555587769
1781033672853134300,5.52313427734375,-1.642300009727478,1.9391624927520752,-0.9915124773979187
1781033672872648700,5.542648681640625,-1.6293749809265137,1.907812476158142,-0.937749981880188
1781033672892159200,5.5621591796875,-1.6484874486923218,1.8836125135421753,-0.891962468624115
1781033672911671600,5.581671630859375,-1.6770875453948975,1.8767374753952026,-0.8276125192642212
1781033672931186400,5.6011865234375,-1.6722749471664429,1.8739874362945557,-0.7280625104904175
1781033672950695700,5.62069580078125,-1.622499942779541,1.8499250411987305,-0.592074990272522
1781033672970207200,5.640207275390625,-1.5433000326156616,1.788599967956543,-0.4347749948501587
1781033672989724000,5.659723876953125,-1.4386625289916992,1.6971625089645386,-0.2780250012874603
1781033673009237500,5.679237548828125,-1.295662522315979,1.589224934577942,-0.13323749601840973
1781033673028748500,5.69874853515625,-1.1225500106811523,1.4830750226974487,0.0006874999962747097
1781033673048263400,5.718263427734375,-0.9455875158309937,1.3861374855041504,0.12484999746084213
1781033673067778600,5.737778564453125,-0.7786625027656555,1.2931874990463257,0.23663750290870667
1781033673087290600,5.75729052734375,-0.6121500134468079,1.1940499544143677,0.33233749866485596
1781033673106800000,5.776800048828125,-0.4361499845981598,1.0781375169754028,0.40700000524520874
1781033673126306600,5.796306640625,-0.2681249976158142,0.9516375064849854,0.4595249891281128
1781033673145811200,5.815811279296875,-0.1354375034570694,0.8298124670982361,0.48881250619888306
1781033673165319400,5.8353193359375,-0.038224998861551285,0.7207750082015991,0.4908750057220459
1781033673184831200,5.854831298828125,0.05169999971985817,0.6235625147819519,0.4670875072479248
1781033673204344000,5.874343994140625,0.15166249871253967,0.5307499766349792,0.426800012588501
1781033673223859500,5.893859375,0.2523125112056732,0.43834999203681946,0.3858250081539154
1781033673243379000,5.91337890625,0.3404499888420105,0.34952500462532043,0.35144999623298645
1781033673262896000,5.932896240234375,0.41497498750686646,0.27348750829696655,0.32133749127388
1781033673282409500,5.952409423828125,0.47203749418258667,0.22481249272823334,0.2928749918937683
1781033673301921500,5.971921630859375,0.49334999918937683,0.21559999883174896,0.26647499203681946
1781033673321433300,5.991433349609375,0.4589749872684479,0.25011250376701355,0.2457125037908554
1781033673340945700,6.010945556640625,0.4589749872684479,0.25011250376701355,0.2457125037908554
1781033673360459300,6.030459228515625,0.3639625012874603,0.32106250524520874,0.2340250015258789
1781033673379971300,6.049971435546875,0.2264624983072281,0.4193750023841858,0.23759999871253967
1781033673399481900,6.06948193359375,0.08483749628067017,0.5418875217437744,0.26606249809265137
1781033673418996500,6.08899658203125,-0.09583749622106552,0.8405374884605408,0.3932499885559082
1781033673438508500,6.108508544921875,-0.09583749622106552,0.8405374884605408,0.3932499885559082
1781033673458024700,6.128024658203125,-0.13598750531673431,0.9865624904632568,0.46213749051094055
1781033673477545700,6.147545654296875,-0.16513749957084656,1.110587477684021,0.5130124688148499
1781033673497058600,6.16705859375,-0.20377500355243683,1.2199000120162964,0.54339998960495
1781033673516568800,6.18656884765625,-0.2712875008583069,1.3338874578475952,0.5630624890327454
1781033673536081000,6.206080810546875,-0.37619999051094055,1.4778499603271484,0.5927624702453613
1781033673555594800,6.2255947265625,-0.4904625117778778,1.6325374841690063,0.6362124681472778
1781033673575106800,6.24510693359375,-0.5752999782562256,1.7681125402450562,0.6774625182151794
1781033673594620200,6.2646201171875,-0.6148999929428101,1.883887529373169,0.7011125087738037
1781033673614136300,6.28413623046875,-0.5796999931335449,2.0460000038146973,0.6774625182151794
1781033673633643500,6.3036435546875,-0.5796999931335449,2.0460000038146973,0.6774625182151794
1781033673653143300,6.323143310546875,-0.5091624855995178,2.047650098800659,0.6355249881744385
1781033673672651000,6.342651123046875,-0.4197874963283539,2.027437448501587,0.589187502861023
1781033673692167700,6.362167724609375,-0.34113749861717224,2.1029250621795654,0.5526124835014343
1781033673711680800,6.3816806640625,-0.32903748750686646,2.249500036239624,0.45883750915527344
1781033673731191300,6.40119140625,-0.5264874696731567,2.1894125938415527,0.13653749227523804
1781033673750707000,6.42070703125,-1.0806125402450562,1.480875015258789,-0.06187500059604645
1781033673770226000,6.440225830078125,-1.830399990081787,-0.02199999988079071,-0.5380374789237976
1781033673789741800,6.459741943359375,-2.127537488937378,-1.7892874479293823,-1.3105125427246094
1781033673809254100,6.479254150390625,-1.4234000444412231,-3.058000087738037,-1.5049375295639038
1781033673828768500,6.4987685546875,-0.029424998909235,-3.4517998695373535,-1.1791999340057373
1781033673848287500,6.51828759765625,1.266374945640564,-3.1263375282287598,-0.5824499726295471
1781033673867808000,6.53780810546875,1.9673500061035156,-2.474862575531006,-0.026124998927116394
1781033673887328000,6.557327880859375,1.994712471961975,-1.808537483215332,0.24529999494552612
1781033673906842600,6.576842529296875,1.4881625175476074,-1.292087435722351,0.13337500393390656
1781033673926353200,6.596353271484375,0.6672874689102173,-1.0008624792099,-0.3073124885559082
1781033673945861400,6.615861328125,-0.19373749196529388,-0.944350004196167,-0.8908625245094299
1781033673965369900,6.635369873046875,-0.7702749967575073,-1.068237543106079,-1.346537470817566
1781033673984883500,6.654883544921875,-0.8152375221252441,-1.2743500471115112,-1.4598374366760254
1781033674004398800,6.67439892578125,-0.33137500286102295,-1.4431999921798706,-1.193774938583374
1781033674023912400,6.693912353515625,0.4081000089645386,-1.4404499530792236,-0.6703125238418579
1781033674043420700,6.713420654296875,1.028362512588501,-1.2010624408721924,-0.09047500044107437
1781033674062925600,6.732925537109375,1.3336124420166016,-0.8324249982833862,0.36451250314712524
1781033674082430700,6.7524306640625,1.3791249990463257,-0.5531625151634216,0.599637508392334
1781033674101940000,6.77193994140625,1.272837519645691,-0.49348750710487366,0.603487491607666
1781033674121458400,6.79145849609375,1.0553125143051147,-0.6204000115394592,0.4310624897480011
1781033674140980000,6.81097998046875,0.7316374778747559,-0.808775007724762,0.17366249859333038
1781033674160501200,6.830501220703125,0.7316374778747559,-0.808775007724762,0.17366249859333038
1781033674180022300,6.850022216796875,0.3381125032901764,-0.9657999873161316,-0.09006249904632568
1781033674199542500,6.86954248046875,-0.1812250018119812,-1.1720499992370605,-0.2681249976158142
1781033674219063300,6.889063232421875,-0.1428624987602234,-1.2453374862670898,-0.018287500366568565
1781033674238584300,6.908584228515625,0.025712499395012856,-0.9803749918937683,0.42858749628067017
1781033674258103300,6.928103271484375,0.025712499395012856,-0.9803749918937683,0.42858749628067017
1781033674277620500,6.947620361328125,0.23663750290870667,-0.544362485408783,0.9490249752998352
1781033674297136600,6.96713671875,0.45100000500679016,-0.5009124875068665,1.4306875467300415
1781033674316651000,6.986651123046875,0.6382749676704407,-0.6476249694824219,1.7975374460220337
1781033674336167200,7.006167236328125,0.729574978351593,-0.7138999700546265,1.9760124683380127
1781033674355685600,7.025685546875,0.6830999851226807,-0.7347999811172485,1.9458999633789062
1781033674375206400,7.045206298828125,0.5498625040054321,-0.7646374702453613,1.7532625198364258
1781033674394730500,7.06473046875,0.46158748865127563,-0.8761500120162964,1.4661624431610107
1781033674414250000,7.08425,0.8633624911308289,-1.4356374740600586,0.8472750186920166
1781033674433764900,7.103764892578125,0.8633624911308289,-1.4356374740600586,0.8472750186920166
1781033674453279700,7.12327978515625,1.2916749715805054,-1.7400624752044678,0.6478999853134155
1781033674472796700,7.142796630859375,1.743499994277954,-1.950024962425232,0.5431249737739563
1781033674492319000,7.162319091796875,2.2374000549316406,-2.099900007247925,0.5578374862670898
1781033674511842300,7.18184228515625,2.782862424850464,-2.2380874156951904,0.708674967288971
1781033674531362000,7.201362060546875,3.2892749309539795,-2.35509991645813,0.9972875118255615
1781033674550879000,7.22087890625,3.5795373916625977,-2.386312484741211,1.372112512588501
1781033674570390500,7.240390625,3.5297625064849854,-2.282637596130371,1.7269999980926514
1781033674589902800,7.25990283203125,3.197974920272827,-2.0659375190734863,1.9788999557495117
1781033674609424400,7.27942431640625,2.712049961090088,-1.7877750396728516,2.088487386703491
1781033674628943000,7.298943115234375,2.176762580871582,-1.4928375482559204,2.0388500690460205
1781033674648460300,7.318460205078125,1.6352875232696533,-1.1901999711990356,1.7910749912261963
1781033674667980500,7.33798046875,1.0701625347137451,-0.855525016784668,1.3216500282287598
1781033674687502600,7.357502685546875,0.477400004863739,-0.48977500200271606,0.699874997138977
1781033674707025000,7.37702490234375,-0.09446249902248383,-0.12856249511241913,0.05128749832510948
1781033674726545400,7.39654541015625,-0.5469750165939331,0.18947499990463257,-0.5343250036239624
1781033674746060500,7.416060546875,-0.8104249835014343,0.44577500224113464,-1.034000039100647
1781033674765571800,7.43557177734375,-0.8991125226020813,0.6382749676704407,-1.4422374963760376
1781033674785081900,7.455081787109375,-0.6513375043869019,0.4750624895095825,-1.7489999532699585
1781033674804589800,7.47458984375,-0.48069998621940613,0.3623124957084656,-1.9475499391555786
1781033674824097500,7.49409765625,-0.6589000225067139,0.5917999744415283,-2.050950050354004
1781033674843605800,7.513605712890625,-0.8314625024795532,0.7627124786376953,-2.066075086593628
1781033674863116300,7.5331162109375,-0.957687497138977,0.8863250017166138,-1.9938875436782837
1781033674882631400,7.55263134765625,-1.0421124696731567,0.9744625091552734,-1.8639500141143799
1781033674902144000,7.57214404296875,-1.1259875297546387,1.039775013923645,-1.7107750177383423
1781033674921654300,7.591654296875,-1.2464375495910645,1.097249984741211,-1.563099980354309
1781033674941164000,7.6111640625,-1.4011249542236328,1.1543124914169312,-1.4269750118255615
1781033674960677600,7.630677734375,-1.553612470626831,1.2102749347686768,-1.2828749418258667
1781033674980191500,7.65019140625,-1.657425045967102,1.269950032234192,-1.1130625009536743
1781033674999701200,7.669701171875,-1.657425045967102,1.269950032234192,-1.1130625009536743
1781033675019210200,7.689210205078125,-1.6787375211715698,1.3374625444412231,-0.9208375215530396
1781033675038718500,7.708718505859375,-1.6198874711990356,1.4986125230789185,-0.6392375230789185
1781033675058230300,7.728230224609375,-1.6198874711990356,1.4986125230789185,-0.6392375230789185
1781033675077741000,7.747740966796875,-1.612874984741211,1.572587490081787,-0.602524995803833
1781033675097250600,7.76725048828125,-1.5852375030517578,1.6197500228881836,-0.5979874730110168
1781033675116761300,7.78676123046875,-1.5034250020980835,1.630062460899353,-0.5425750017166138
1781033675136273000,7.80627294921875,-1.3752750158309937,1.6018749475479126,-0.4441249966621399
1781033675155782400,7.825782470703125,-1.2376375198364258,1.546875,-0.3689124882221222
1781033675175292000,7.8452919921875,-1.120212435722351,1.475237488746643,-0.3375625014305115
1781033675194800400,7.86480029296875,-1.0405999422073364,1.4008499383926392,-0.3251875042915344
1781033675214307300,7.884307373046875,-0.943387508392334,1.2925000190734863,-0.25189998745918274
1781033675233822500,7.903822509765625,-0.943387508392334,1.2925000190734863,-0.25189998745918274
1781033675253339600,7.923339599609375,-0.8777999877929688,1.2548249959945679,-0.21175000071525574
1781033675272859600,7.942859619140625,-0.7957124710083008,1.21646249294281,-0.17159999907016754
1781033675292377900,7.9623779296875,-0.7107374668121338,1.1789250373840332,-0.12540000677108765
1781033675311896000,7.98189599609375,-0.6345624923706055,1.140012502670288,-0.07177499681711197
1781033675331415000,8.0014150390625,-0.5725499987602234,1.095462441444397,-0.018562499433755875
1781033675350930000,8.020929931640625,-0.5178250074386597,1.0335874557495117,0.02186249941587448
1781033675370444000,8.040444091796875,-0.4575999975204468,0.942425012588501,0.04496249929070473
1781033675389958100,8.059958251953125,-0.392425000667572,0.8265125155448914,0.05829999968409538
1781033675409474800,8.079474853515626,-0.32394999265670776,0.7011125087738037,0.07136250287294388
1781033675428989700,8.09898974609375,-0.2377374917268753,0.5795624852180481,0.08786249905824661
1781033675448502800,8.118502685546876,-0.11357499659061432,0.4624125063419342,0.10656250268220901
1781033675468016600,8.1380166015625,0.04977500066161156,0.34127500653266907,0.12856249511241913
1781033675487532500,8.157532470703124,0.23319999873638153,0.21133749186992645,0.15674999356269836
1781033675507047700,8.177047607421875,0.4111250042915344,0.08043749630451202,0.1872749924659729
1781033675526561000,8.19656103515625,0.5564625263214111,-0.03217500075697899,0.21408750116825104
1781033675546074000,8.21607421875,0.6353874802589417,-0.10628750175237656,0.233474999666214
1781033675565592300,8.23559228515625,0.6221874952316284,-0.1331000030040741,0.2437874972820282
1781033675585109200,8.255109130859376,0.524150013923645,-0.11866249889135361,0.24598750472068787
1781033675604623400,8.274623291015626,0.3746874928474426,-0.07301250100135803,0.2461249977350235
1781033675624141000,8.29414111328125,0.21697500348091125,-0.0037124999798834324,0.25478750467300415
1781033675643657000,8.313656982421875,0.08717499673366547,0.08277499675750732,0.281187504529953
1781033675663169000,8.3331689453125,0.006324999965727329,0.17765000462532043,0.3246375024318695
1781033675682685700,8.352685791015626,-0.021449999883770943,0.27211248874664307,0.37523749470710754
1781033675702203100,8.372203125,-0.010724999941885471,0.3591499924659729,0.4175874888896942
1781033675721712600,8.391712646484375,0.004674999974668026,0.4408249855041504,0.44714999198913574
1781033675741221400,8.411221435546874,-0.012924999929964542,0.5211250185966492,0.47093749046325684
1781033675760739300,8.4307392578125,-0.07301250100135803,0.5993624925613403,0.49156248569488525
1781033675780254000,8.45025390625,-0.15441249310970306,0.6733375191688538,0.5050374865531921
1781033675799767600,8.469767578125,-0.15441249310970306,0.6733375191688538,0.5050374865531921
1781033675819287000,8.489287109375,-0.27114999294281006,0.8118000030517578,0.4973374903202057
1781033675838801700,8.5088017578125,-0.27431249618530273,0.8842625021934509,0.4904625117778778
1781033675858312000,8.52831201171875,-0.24021250009536743,0.9475125074386597,0.4877125024795532
1781033675877825800,8.54782568359375,-0.24021250009536743,0.9475125074386597,0.4877125024795532
1781033675897341700,8.567341796875,-0.19277499616146088,0.9895874857902527,0.48730000853538513
1781033675916855800,8.586855712890625,-0.17118750512599945,1.020937442779541,0.4877125024795532
1781033675936367000,8.6063671875,-0.20432500541210175,1.0748374462127686,0.4907374978065491
1781033675955879000,8.62587890625,-0.29205000400543213,1.1758999824523926,0.49678748846054077
1781033675975392300,8.645392333984375,-0.40521249175071716,1.3227499723434448,0.5050374865531921
1781033675994903600,8.664903564453125,-0.49857500195503235,1.479087471961975,0.5123249888420105
1781033676014415600,8.68441552734375,-0.5444999933242798,1.7366249561309814,0.5378999710083008
1781033676033927700,8.703927734375,-0.5444999933242798,1.7366249561309814,0.5378999710083008
1781033676053440500,8.7234404296875,-0.5103999972343445,1.8602374792099,0.5673249959945679
1781033676072953900,8.742953857421876,-0.45237499475479126,1.9581375122070312,0.5868499875068665
1781033676092464400,8.76246435546875,-0.37564998865127563,1.9229375123977661,0.5435374975204468
1781033676111973600,8.7819736328125,-0.2732124924659729,1.5492124557495117,0.3723500072956085
1781033676131483000,8.80148291015625,-0.1414874941110611,0.7052375078201294,0.050462499260902405
1781033676150991000,8.8209912109375,0.011137500405311584,-0.4982999861240387,-0.37853750586509705
1781033676170495200,8.8404951171875,0.17159999907016754,-1.6477999687194824,-0.780174970626831
1781033676190002000,8.860001953125,0.33316248655319214,-2.2054998874664307,-0.9572749733924866
1781033676209513000,8.879512939453125,0.5245624780654907,-1.9501625299453735,-0.7748125195503235
1781033676229028000,8.899028076171875,0.7871875166893005,-1.1489499807357788,-0.2788499891757965
1781033676248547300,8.91854736328125,1.0854250192642212,-0.3330250084400177,0.29205000400543213
1781033676268064000,8.93806396484375,1.278612494468689,0.06902500241994858,0.6279624700546265
1781033676287581200,8.957581298828124,1.2284250259399414,-0.060362499207258224,0.513700008392334
1781033676307097000,8.97709716796875,0.9356874823570251,-0.5801125168800354,-0.02956249937415123
1781033676326608600,8.996608642578124,0.5579749941825867,-1.2243000268936157,-0.7492374777793884
1781033676346119200,9.016119140625,0.2656500041484833,-1.7484500408172607,-1.3510749340057373
1781033676365629400,9.03562939453125,0.12072499841451645,-2.0162999629974365,-1.6718624830245972
1781033676385137200,9.05513720703125,0.11055000126361847,-2.008049964904785,-1.6898750066757202
1781033676404646700,9.074646728515624,0.2199999988079071,-1.7972625494003296,-1.442787528038025
1781033676424157700,9.09415771484375,0.4221250116825104,-1.4896750450134277,-1.0016875267028809
1781033676443673900,9.113673828125,0.6496874690055847,-1.1702624559402466,-0.48743748664855957
1781033676463187700,9.133187744140624,0.8394374847412109,-0.8930624723434448,-0.033275000751018524
1781033676482697000,9.152697021484375,0.9488874673843384,-0.6891499757766724,0.2628999948501587
1781033676502210600,9.17221044921875,0.9497125148773193,-0.5824499726295471,0.3665750026702881
1781033676521725700,9.1917255859375,0.8245875239372253,-0.5801125168800354,0.3156999945640564
1781033676541239300,9.2112392578125,0.5669124722480774,-0.6528499722480774,0.1849374920129776
1781033676560750600,9.23075048828125,0.5669124722480774,-0.6528499722480774,0.1849374920129776
1781033676580263200,9.25026318359375,-0.1288374960422516,-0.8501625061035156,-0.0672374963760376
1781033676599782400,9.269782470703126,-0.1288374960422516,-0.8501625061035156,-0.0672374963760376
1781033676619300400,9.28930029296875,-0.20803749561309814,-1.1787874698638916,0.05252499878406525
1781033676638814000,9.30881396484375,-0.20803749561309814,-1.1787874698638916,0.05252499878406525
1781033676658324500,9.328324462890626,0.17407499253749847,-1.3965874910354614,0.3302749991416931
1781033676677833000,9.3478330078125,0.6250749826431274,-1.5427500009536743,0.6715499758720398
1781033676697340400,9.36734033203125,0.9074999690055847,-1.3894374370574951,0.9688249826431274
1781033676716846800,9.386846923828125,0.9255124926567078,-1.1103124618530273,1.128737449645996
1781033676736355800,9.40635595703125,0.7555624842643738,-1.0163999795913696,1.125712513923645
1781033676755864800,9.42586474609375,0.559487521648407,-1.0111750364303589,1.004712462425232
1781033676775374800,9.445374755859374,0.44398748874664307,-1.0557249784469604,0.8112499713897705
1781033676794887200,9.46488720703125,0.45223748683929443,-1.1805750131607056,0.5744749903678894
1781033676814401800,9.48440185546875,0.9402250051498413,-1.685612440109253,0.11343749612569809
1781033676833918200,9.503918212890625,0.9402250051498413,-1.685612440109253,0.11343749612569809
1781033676853430500,9.523430419921874,1.3659249544143677,-1.9798624515533447,-0.00494999997317791
1781033676872942600,9.542942626953124,1.7978124618530273,-2.2027499675750732,0.017875000834465027
1781033676892459800,9.562459716796875,2.185837507247925,-2.3276000022888184,0.2190375030040741
1781033676911973000,9.58197314453125,2.5048375129699707,-2.366925001144409,0.5887749791145325
1781033676931481000,9.601481201171875,2.718787431716919,-2.3406624794006348,1.0485750436782837
1781033676950990000,9.620989990234374,2.788637399673462,-2.2560999393463135,1.4819749593734741
1781033676970498800,9.640498779296875,2.703387498855591,-2.1185998916625977,1.8022124767303467
1781033676990007300,9.66000732421875,2.467437505722046,-1.9333875179290771,1.9535999298095703
1781033677009515000,9.679514892578124,2.0931625366210938,-1.6945500373840332,1.9006625413894653
1781033677029024800,9.699024658203125,1.6123249530792236,-1.3998874425888062,1.6502749919891357
1781033677048540200,9.7185400390625,1.0620499849319458,-1.053112506866455,1.229662537574768
1781033677068059100,9.73805908203125,0.5048999786376953,-0.676087498664856,0.6946499943733215
1781033677087581700,9.757581787109375,0.028049999848008156,-0.30717501044273376,0.11893749982118607
1781033677107099100,9.77709912109375,-0.2843500077724457,0.011274999938905239,-0.4236375093460083
1781033677126610400,9.7966103515625,-0.41786250472068787,0.2593249976634979,-0.8810999989509583
1781033677146125300,9.816125244140625,-0.4343625009059906,0.44288748502731323,-1.2258124351501465
1781033677165643800,9.835643798828125,-0.41456249356269836,0.5724124908447266,-1.4469125270843506
1781033677185159200,9.8551591796875,-0.4047999978065491,0.6608250141143799,-1.5673625469207764
1781033677204672000,9.874672119140625,-0.39118748903274536,0.7198125123977661,-1.6159000396728516
1781033677224183800,9.894183837890624,-0.3543374836444855,0.7585874795913696,-1.623462438583374
1781033677243695400,9.9136953125,-0.3258749842643738,0.785812497138977,-1.6238750219345093
1781033677263209500,9.93320947265625,-0.3559874892234802,0.8237624764442444,-1.628000020980835
1781033677282721800,9.9527216796875,-0.4538874924182892,0.9006249904632568,-1.6201624870300293
1781033677302236000,9.97223583984375,-0.5966125130653381,1.016950011253357,-1.5817999839782715
1781033677321752800,9.9917529296875,-0.7719249725341797,1.1537624597549438,-1.5256999731063843
1781033677341268000,10.01126806640625,-0.9783124923706055,1.2890625,-1.4680874347686768
1781033677360784100,10.0307841796875,-0.9783124923706055,1.2890625,-1.4680874347686768
1781033677380295000,10.050294921875,-1.4422374963760376,1.5358749628067017,-1.3289375305175781
1781033677399803100,10.06980322265625,-1.4422374963760376,1.5358749628067017,-1.3289375305175781
1781033677419316000,10.08931591796875,-1.6440874338150024,1.6607249975204468,-1.2480875253677368
1781033677438829300,10.108829345703125,-1.7543624639511108,1.8026249408721924,-1.088724970817566
1781033677458340600,10.128340576171874,-1.7543624639511108,1.8026249408721924,-1.088724970817566
1781033677477852000,10.147851806640626,-1.6619625091552734,1.7668750286102295,-1.0118625164031982
1781033677497365500,10.167365478515626,-1.5273499488830566,1.6814874410629272,-0.9326624870300293
1781033677516878000,10.186878173828125,-1.384487509727478,1.5894999504089355,-0.8463125228881836
1781033677536391400,10.206391357421875,-1.2583999633789062,1.523224949836731,-0.7514374852180481
1781033677555900700,10.225900634765624,-1.1687500476837158,1.496962547302246,-0.6509249806404114
1781033677575410200,10.24541015625,-1.0931249856948853,1.4885749816894531,-0.5464249849319458
1781033677594922800,10.2649228515625,-0.9954999685287476,1.4649250507354736,-0.45196250081062317
1781033677614437400,10.284437255859375,-0.7540500164031982,1.3571250438690186,-0.36616250872612
1781033677633953300,10.303953369140626,-0.7540500164031982,1.3571250438690186,-0.36616250872612
1781033677653465600,10.323465576171875,-0.6532624959945679,1.29868745803833,-0.3712500035762787
1781033677672976100,10.34297607421875,-0.5757125020027161,1.2458875179290771,-0.37482500076293945
1781033677692489200,10.3624892578125,-0.5271750092506409,1.2066999673843384,-0.346637487411499
1781033677712003000,10.382003173828124,-0.5119125247001648,1.1805750131607056,-0.27293750643730164
1781033677731512300,10.40151220703125,-0.5179625153541565,1.1631125211715698,-0.1667875051498413
1781033677751019500,10.42101953125,-0.5189250111579895,1.1433124542236328,-0.05857500061392784
1781033677770528500,10.440528564453125,-0.48922500014305115,1.1079750061035156,0.02736249938607216
1781033677790039000,10.4600390625,-0.4273499846458435,1.0543500185012817,0.08470000326633453
1781033677809551000,10.479551025390625,-0.3503499925136566,0.9818875193595886,0.12182500213384628
1781033677829065200,10.499065185546876,-0.2681249976158142,0.8904500007629395,0.1518000066280365
1781033677848579600,10.51857958984375,-0.17806249856948853,0.7775624990463257,0.18205000460147858
1781033677868090400,10.53809033203125,-0.07878749817609787,0.6462500095367432,0.21422499418258667
1781033677887599400,10.557599365234376,0.018424998968839645,0.5083374977111816,0.24832500517368317
1781033677907110700,10.577110595703125,0.10395000129938126,0.3745499849319458,0.28228750824928284
1781033677926622000,10.5966220703125,0.18768750131130219,0.2525874972343445,0.3129499852657318
1781033677946135600,10.616135498046875,0.2849000096321106,0.15001249313354492,0.3367374837398529
1781033677965651700,10.635651611328125,0.3796375095844269,0.07796250283718109,0.3562625050544739
1781033677985168000,10.65516796875,0.41868749260902405,0.04839999973773956,0.3834874927997589
1781033678004689200,10.674689208984375,0.367125004529953,0.06311249732971191,0.4248749911785126
1781033678024212200,10.694212158203126,0.2591874897480011,0.10642500221729279,0.47189998626708984
1781033678043731700,10.713731689453125,0.1695374995470047,0.15248750150203705,0.5069624781608582
1781033678063250200,10.733250244140624,0.13997499644756317,0.1821874976158142,0.5246999859809875
1781033678082770400,10.7527705078125,0.1527625024318695,0.1915374994277954,0.5359749794006348
1781033678102292000,10.7722919921875,0.16637499630451202,0.18232500553131104,0.5483499765396118
1781033678121812700,10.791812744140625,0.1625249981880188,0.15771250426769257,0.5574250221252441
1781033678141329700,10.81132958984375,0.1555124968290329,0.12044999748468399,0.5469750165939331
1781033678160841700,10.830841796875,0.1555124968290329,0.12044999748468399,0.5469750165939331
1781033678180353300,10.850353271484375,0.1714625060558319,0.03616249933838844,0.4362874925136566
1781033678199865300,10.869865234375,0.1714625060558319,0.03616249933838844,0.4362874925136566
1781033678219382500,10.889382568359375,0.07851249724626541,0.00989999994635582,0.3190000057220459
1781033678238904800,10.90890478515625,0.0004124999977648258,0.02227500081062317,0.28600001335144043
1781033678258422300,10.92842236328125,-0.06173750013113022,0.04179999977350235,0.26317501068115234
1781033678277935000,10.94793505859375,-0.06173750013113022,0.04179999977350235,0.26317501068115234
1781033678297447200,10.967447265625,-0.11495000123977661,0.06696250289678574,0.2521750032901764
1781033678316960500,10.98696044921875,-0.1802625060081482,0.11096250265836716,0.2628999948501587
1781033678336481000,11.00648095703125,-0.2667500078678131,0.19236250221729279,0.303600013256073
1781033678356000000,11.026,-0.3676750063896179,0.3156999945640564,0.36918750405311584
1781033678375511300,11.04551123046875,-0.4797374904155731,0.4830375015735626,0.44852501153945923
1781033678395023600,11.065023681640625,-0.6018375158309937,0.6946499943733215,0.5315750241279602
1781033678414537000,11.084536865234375,-0.8034124970436096,1.1394624710083008,0.6773250102996826
1781033678434049800,11.1040498046875,-0.8034124970436096,1.1394624710083008,0.6773250102996826
1781033678453564000,11.12356396484375,-0.8520874977111816,1.293874979019165,0.7284749746322632
1781033678473073200,11.1430732421875,-0.8695499897003174,1.3897124528884888,0.7647749781608582
1781033678492577800,11.162577880859375,-0.8722999691963196,1.4649250507354736,0.7984625101089478
1781033678512089300,11.18208935546875,-0.8643249869346619,1.5433000326156616,0.8359999656677246
1781033678531604000,11.20160400390625,-0.8476874828338623,1.6363874673843384,0.8794500231742859
1781033678551115500,11.221115478515625,-0.8156499862670898,1.732224941253662,0.9171249866485596
1781033678570626000,11.2406259765625,-0.7561125159263611,1.8090875148773193,0.926337480545044
1781033678590140000,11.260139892578126,-0.6700375080108643,1.8598250150680542,0.8969125151634216
1781033678609654500,11.279654541015624,-0.5761250257492065,1.9108375310897827,0.8419125080108643
1781033678629166600,11.29916650390625,-0.49568748474121094,2.009012460708618,0.7785249948501587
1781033678648676600,11.318676513671875,-0.4408249855041504,2.0950875282287598,0.6727874875068665
1781033678668190500,11.3381904296875,-0.40136250853538513,1.9563499689102173,0.45210000872612
1781033678687712800,11.357712646484375,-0.3335750102996826,1.4613499641418457,0.07975000143051147
1781033678707232000,11.37723193359375,-0.19139999151229858,0.4427500069141388,0.11618749797344208
1781033678726749000,11.3967490234375,0.0668250024318695,-0.9361000061035156,0.006874999962747097
1781033678746266000,11.41626611328125,0.4236375093460083,-2.049987554550171,-0.5762624740600586
1781033678765780500,11.435780517578126,0.7844374775886536,-2.461937427520752,-0.8146874904632568
1781033678785296000,11.4552958984375,1.0869375467300415,-2.1399126052856445,-0.7026249766349792
1781033678804812000,11.47481201171875,1.354099988937378,-1.4207874536514282,-0.34498751163482666
1781033678824326000,11.494325927734375,1.6024249792099,-0.7343875169754028,0.05637500062584877
1781033678843840000,11.513840087890625,1.6906999349594116,-0.35653749108314514,0.2433750033378601
1781033678863356400,11.5333564453125,1.4569499492645264,-0.38183748722076416,0.027499999850988388
1781033678882872600,11.55287255859375,0.9596124887466431,-0.7556999921798706,-0.5464249849319458
1781033678902385400,11.572385498046875,0.4422000050544739,-0.7092249989509583,-1.2038124799728394
1781033678921896400,11.591896484375,0.12925000488758087,-0.7444249987602234,-1.6662249565124512
1781033678941410600,11.61141064453125,0.08084999769926071,-1.211787462234497,-1.7954750061035156
1781033678960927000,11.630927001953125,0.23622499406337738,-1.2959375381469727,-1.5896375179290771
1781033678980439300,11.650439208984375,0.4866124987602234,-1.0899624824523926,-1.1517000198364258
1781033678999949800,11.66994970703125,0.7272375226020813,-0.7336999773979187,-0.6333249807357788
1781033679019462100,11.689462158203124,0.7272375226020813,-0.7336999773979187,-0.6333249807357788
1781033679038979800,11.708979736328125,0.9684125185012817,-0.20377500355243683,0.0010999999940395355
1781033679058495200,11.7284951171875,0.9684125185012817,-0.20377500355243683,0.0010999999940395355
1781033679078008800,11.7480087890625,0.955762505531311,-0.2560249865055084,-0.08689999580383301
1781033679097526000,11.767526123046874,0.909974992275238,-0.49623748660087585,-0.37345001101493835
1781033679117041000,11.787041015625,0.8581374883651733,-0.7891125082969666,-0.6829624772071838
1781033679136555300,11.80655517578125,0.7698624730110168,-1.0100749731063843,-0.8797249794006348
1781033679156072400,11.826072509765625,0.6193000078201294,-1.1169124841690063,-0.9125875234603882
1781033679175588900,11.8455888671875,0.4449499845504761,-1.117050051689148,-0.7640874981880188
1781033679195103500,11.865103515625,0.3359124958515167,-1.0612249374389648,-0.44013750553131104
1781033679214619000,11.884618896484374,0.3546124994754791,-1.023550033569336,0.011824999935925007
1781033679234133200,11.90413330078125,0.4713499844074249,-1.036062479019165,0.5047624707221985
1781033679253645000,11.92364501953125,0.35516250133514404,-1.0736000537872314,0.9359624981880188
1781033679273156900,11.943156982421876,0.23319999873638153,-1.108799934387207,1.1941875219345093
1781033679292669400,11.96266943359375,0.303600013256073,-1.1809874773025513,1.2065625190734863
1781033679312180000,11.982179931640625,0.28049999475479126,-1.3337500095367432,0.9996249675750732
1781033679331690500,12.0016904296875,0.22192500531673431,-1.535325050354004,0.6946499943733215
1781033679351205000,12.021205078125,0.16060000658035278,-1.6999125480651855,0.42858749628067017
1781033679370722600,12.04072265625,0.1163249984383583,-1.7755374908447266,0.25423750281333923
1781033679390235100,12.060235107421875,0.1451999992132187,-1.8119750022888184,0.15537500381469727
1781033679409747200,12.079747314453124,0.3147374987602234,-1.9043749570846558,0.11027500033378601
1781033679429256000,12.099255859375,0.6682500243186951,-2.1205248832702637,0.12058749794960022
1781033679448765000,12.118764892578126,1.2142624855041504,-2.435537576675415,0.22247499227523804
1781033679468280600,12.138280517578124,1.8929624557495117,-2.7366623878479004,0.47905001044273376
1781033679487801000,12.157801025390626,2.564924955368042,-2.915412425994873,0.9340375065803528
1781033679507319600,12.177319580078125,3.0170249938964844,-2.9148623943328857,1.5394500494003296
1781033679526832000,12.19683203125,3.0820624828338623,-2.7565999031066895,2.1547625064849854
1781033679546344400,12.216344482421874,2.7530250549316406,-2.5040125846862793,2.601637601852417
1781033679565858600,12.235858642578124,2.1573750972747803,-2.2013750076293945,2.7697999477386475
1781033679585371100,12.25537109375,1.4993000030517578,-1.8818249702453613,2.6709375381469727
1781033679604886300,12.27488623046875,0.9594749808311462,-1.5679124593734741,2.366925001144409
1781033679624404000,12.294404052734375,0.6159999966621399,-1.2790249586105347,1.9221124649047852
1781033679643917600,12.31391748046875,0.4357374906539917,-1.015987515449524,1.3785749673843384
1781033679663426600,12.333426513671874,0.31693750619888306,-0.7565249800682068,0.7594124674797058
1781033679682937600,12.3529375,0.17737500369548798,-0.48730000853538513,0.09803749620914459
1781033679702451200,12.372451171875,-0.0005499999970197678,-0.21697500348091125,-0.5483499765396118
1781033679721967000,12.391967041015626,-0.20542499423027039,0.03684999793767929,-1.1217249631881714
1781033679741481000,12.41148095703125,-0.4147000014781952,0.2616625130176544,-1.5916999578475952
1781033679760994600,12.43099462890625,-0.3096500039100647,0.19043749570846558,-1.9420499801635742
1781033679780509200,12.45050927734375,-0.3096500039100647,0.19043749570846558,-1.9420499801635742
1781033679800024600,12.470024658203124,-0.2303124964237213,0.16142499446868896,-2.162874937057495
1781033679819538200,12.4895380859375,-0.4355999827384949,0.4232249855995178,-2.263937473297119
1781033679839047700,12.509047607421875,-0.7024874687194824,0.8184000253677368,-2.247575044631958
1781033679858560800,12.528560791015625,-0.7024874687194824,0.8184000253677368,-2.247575044631958
1781033679878072600,12.548072509765625,-0.8020374774932861,0.9583749771118164,-2.1665875911712646
1781033679897579500,12.56757958984375,-0.824037492275238,1.0476125478744507,-2.0272998809814453
1781033679917088500,12.587088623046874,-0.7607874870300293,1.0903749465942383,-1.8281999826431274
1781033679936603100,12.60660302734375,-0.6718249917030334,1.1097625494003296,-1.6004999876022339
1781033679956121600,12.62612158203125,-0.6287875175476074,1.1235125064849854,-1.3894374370574951
1781033679975640800,12.645640869140625,-0.6683874726295471,1.1405625343322754,-1.2333749532699585
1781033679995155000,12.665155029296875,-0.7833374738693237,1.1665500402450562,-1.1411124467849731
1781033680014667500,12.68466748046875,-1.0642499923706055,1.272974967956543,-1.0100749731063843
1781033680034181400,12.704181396484374,-1.0642499923706055,1.272974967956543,-1.0100749731063843
1781033680053695700,12.72369580078125,-1.0806125402450562,1.3424124717712402,-0.8877000212669373
1781033680073208800,12.743208740234374,-0.9789999723434448,1.3898500204086304,-0.7401624917984009
1781033680092722200,12.76272216796875,-0.8509874939918518,1.4118499755859375,-0.6384124755859375
1781033680112237000,12.782237060546874,-0.7913125157356262,1.4213374853134155,-0.6290624737739563
1781033680131753200,12.801753173828125,-0.8046500086784363,1.4430625438690186,-0.696025013923645
1781033680151269600,12.82126953125,-0.8267874717712402,1.4867874383926392,-0.7764624953269958
1781033680170785000,12.840784912109376,-0.8064374923706055,1.540137529373169,-0.810699999332428
1781033680190296800,12.860296875,-0.7405750155448914,1.5849624872207642,-0.7783874869346619
1781033680209811500,12.8798115234375,-0.6634374856948853,1.6035250425338745,-0.5952374935150146
1781033680229326000,12.899326171875,-0.6093999743461609,1.5934875011444092,-0.43312498927116394
1781033680248837000,12.918837158203125,-0.5864375233650208,1.5595250129699707,-0.4086500108242035
1781033680268352000,12.93835205078125,-0.5761250257492065,1.5104374885559082,-0.3777124881744385
1781033680287864300,12.9578642578125,-0.5609999895095825,1.4594249725341797,-0.33041250705718994
1781033680307376000,12.977376220703125,-0.5384500026702881,1.4096499681472778,-0.2623499929904938
1781033680326890200,12.99689013671875,-0.5092999935150146,1.3611124753952026,-0.1825999915599823
1781033680346402300,13.01640234375,-0.47093749046325684,1.3073500394821167,-0.10546249896287918
1781033680365915600,13.03591552734375,-0.42611250281333923,1.2412124872207642,-0.04097500070929527
1781033680385430000,13.055429931640624,-0.38142499327659607,1.1647624969482422,0.009074999950826168
1781033680404944600,13.074944580078125,-0.34127500653266907,1.0803375244140625,0.05128749832510948
1781033680424458200,13.094458251953125,-0.3114374876022339,0.9887624979019165,0.09638749808073044
1781033680443974100,13.11397412109375,-0.28654998540878296,0.8850874900817871,0.1551000028848648
1781033680463490800,13.13349072265625,-0.23952500522136688,0.7657374739646912,0.23278750479221344
1781033680483001300,13.15300146484375,-0.14258749783039093,0.6375874876976013,0.3265624940395355
1781033680502508300,13.17250830078125,0.006187499966472387,0.5152124762535095,0.4207499921321869
1781033680522010400,13.19201025390625,0.18205000460147858,0.41593748331069946,0.495137482881546
1781033680541515500,13.211515625,0.3525499999523163,0.3507624864578247,0.5324000120162964
1781033680561030400,13.231030517578125,0.3525499999523163,0.3507624864578247,0.5324000120162964
1781033680580544300,13.250544189453125,0.49321249127388,0.31927499175071716,0.5282750129699707
1781033680600053800,13.2700537109375,0.6465250253677368,0.296037495136261,0.4351874887943268
1781033680619564500,13.289564453125,0.6465250253677368,0.296037495136261,0.4351874887943268
1781033680639077000,13.3090771484375,0.6774625182151794,0.20102499425411224,0.27073749899864197
1781033680658593800,13.32859375,0.645425021648407,0.1237500011920929,0.1909874975681305
1781033680678111200,13.348111328125,0.645425021648407,0.1237500011920929,0.1909874975681305
1781033680697623600,13.36762353515625,0.5785999894142151,0.043037500232458115,0.1326874941587448
1781033680717134300,13.38713427734375,0.4965125024318695,-0.028875000774860382,0.09982500225305557
1781033680736647200,13.406647216796875,0.42253750562667847,-0.08139999955892563,0.09088750183582306
1781033680756159500,13.426159423828125,0.358599990606308,-0.10917499661445618,0.10147500038146973
1781033680775669000,13.4456689453125,0.2910875082015991,-0.10862500220537186,0.12622499465942383
1781033680795184000,13.46518408203125,0.2063875049352646,-0.07699999958276749,0.16224999725818634
1781033680814703900,13.484703857421875,-0.04936249926686287,0.07617499679327011,0.27541249990463257
1781033680834222300,13.504222412109375,-0.04936249926686287,0.07617499679327011,0.27541249990463257
1781033680853738800,13.52373876953125,-0.1999250054359436,0.1802625060081482,0.34402498602867126
1781033680873253600,13.543253662109375,-0.3217499852180481,0.2827000021934509,0.39943748712539673
1781033680892768300,13.562768310546875,-0.3961375057697296,0.3788124918937683,0.4311999976634979
1781033680912282600,13.58228271484375,-0.4395875036716461,0.4666749835014343,0.4433000087738037
1781033680931797200,13.60179736328125,-0.4834499955177307,0.5449125170707703,0.44948750734329224
1781033680951311600,13.6213115234375,-0.5340499877929688,0.607200026512146,0.4544374942779541
1781033680970822700,13.64082275390625,-0.5758500099182129,0.6527125239372253,0.45223748683929443
1781033680990334500,13.66033447265625,-0.6032124757766724,0.6901124715805054,0.4384874999523163
1781033681009845800,13.679845703125,-0.6232874989509583,0.7240750193595886,0.41304999589920044
1781033681029354200,13.699354248046875,-0.6430875062942505,0.7534999847412109,0.3796375095844269
1781033681048867000,13.7188671875,-0.6525750160217285,0.7702749967575073,0.340862512588501
1781033681068377600,13.738377685546874,-0.6356624960899353,0.7720624804496765,0.29864999651908875
1781033681087884300,13.75788427734375,-0.5956500172615051,0.7698624730110168,0.2616625130176544
1781033681107390700,13.777390625,-0.5587999820709229,0.7775624990463257,0.24626250565052032
1781033681126897400,13.7968974609375,-0.5556374788284302,0.8104249835014343,0.2686749994754791
1781033681146402600,13.816402587890625,-0.5895999670028687,0.8755999803543091,0.3287625014781952
1781033681165907200,13.8359072265625,-0.6347000002861023,0.9670374989509583,0.40878748893737793
1781033681185412000,13.855412109375,-0.6654999852180481,1.0680999755859375,0.4904625117778778
1781033681204916700,13.874916748046875,-0.6624749898910522,1.141937494277954,0.5582500100135803
1781033681224420000,13.894420166015625,-0.6124249696731567,1.1515624523162842,0.6007375121116638
1781033681243920600,13.913920654296875,-0.5201625227928162,1.094362497329712,0.6148999929428101
1781033681263422500,13.93342236328125,-0.41304999589920044,1.006637454032898,0.6146249771118164
1781033681282926800,13.9529267578125,-0.32491248846054077,0.9344499707221985,0.6199874877929688
1781033681302434300,13.972434326171875,-0.2642749845981598,0.9017249941825867,0.6304374933242798
1781033681321942300,13.9919423828125,-0.2157374918460846,0.927299976348877,0.6351125240325928
1781033681341448200,14.0114482421875,-0.15771250426769257,0.977899968624115,0.6224625110626221
1781033681360961800,14.0309619140625,-0.15771250426769257,0.977899968624115,0.6224625110626221
1781033681380475600,14.0504755859375,0.012374999932944775,0.5989499688148499,0.4339500069618225
1781033681399987700,14.06998779296875,-0.06379999965429306,-0.021037500351667404,0.42253750562667847
1781033681419499300,14.089499267578125,-0.06379999965429306,-0.021037500351667404,0.42253750562667847
1781033681439013600,14.109013671875,-0.6879125237464905,-1.4082750082015991,0.38142499327659607
1781033681458528000,14.128528076171875,-0.6879125237464905,-1.4082750082015991,0.38142499327659607
1781033681478038500,14.14803857421875,-0.46873748302459717,-1.5571874380111694,-0.10202500224113464
1781033681497551400,14.16755126953125,0.35997501015663147,-1.2736624479293823,0.033275000751018524
1781033681517068300,14.187068359375,1.2935999631881714,-0.9308750033378601,0.4465999901294708
1781033681536585700,14.206585693359376,1.8605124950408936,-0.88714998960495,0.6899750232696533
1781033681556099000,14.22609912109375,1.9713374376296997,-1.1424875259399414,0.5560500025749207
1781033681575609300,14.245609375,1.7364875078201294,-1.4658875465393066,0.10175000131130219
1781033681595121200,14.26512109375,1.3007500171661377,-1.655637502670288,-0.49114999175071716
1781033681614634500,14.284634521484374,0.828712522983551,-1.6387250423431396,-1.020662546157837
1781033681634142700,14.304142822265625,0.46158748865127563,-1.4349499940872192,-1.3404874801635742
1781033681653649000,14.32364892578125,0.3049750030040741,-1.1016499996185303,-1.3733500242233276
1781033681673161500,14.343161376953125,0.4086500108242035,-0.7244874835014343,-1.1221375465393066
1781033681692675300,14.36267529296875,0.727649986743927,-0.3669874966144562,-0.6567000150680542
1781033681712181800,14.382181640625,1.0822625160217285,-0.08621250092983246,-0.1498750001192093
1781033681731689200,14.401689208984376,1.2783374786376953,0.03657500073313713,0.16238750517368317
1781033681751198000,14.421197998046875,1.2680250406265259,-0.08566249907016754,0.12993749976158142
1781033681770703000,14.440703125,1.1609125137329102,-0.46502500772476196,-0.19030000269412994
1781033681790211300,14.46021142578125,1.0784125328063965,-0.9762499928474426,-0.5501375198364258
1781033681809724200,14.47972412109375,1.0184625387191772,-1.4403125047683716,-0.8073999881744385
1781033681829238500,14.499238525390625,0.9068124890327454,-1.731124997138977,-1.0014125108718872
1781033681848752400,14.51875244140625,0.7015249729156494,-1.8224250078201294,-1.0124125480651855
1781033681868263000,14.538262939453125,0.40658751130104065,-1.7708624601364136,-0.9613999724388123
1781033681887778800,14.55777880859375,0.05816249921917915,-1.649037480354309,-0.9637374877929688
1781033681907293400,14.57729345703125,-0.2671625018119812,-1.2970374822616577,-0.8577250242233276
1781033681926802700,14.596802734375,-0.49059998989105225,-1.0080125331878662,-0.6198499798774719
1781033681946314500,14.616314453125,-0.5784624814987183,-0.9677249789237976,-0.227012500166893
1781033681965830400,14.635830322265624,-0.5565999746322632,-0.8866000175476074,0.2903999984264374
1781033681985342200,14.65534228515625,-0.4811125099658966,-0.8043749928474426,0.8294000029563904
1781033682004855000,14.67485498046875,-0.3694624900817871,-0.7995625138282776,1.286312460899353
1781033682024370200,14.6943701171875,-0.18782499432563782,-0.938712477684021,1.6190625429153442
1781033682043881500,14.713881591796875,0.08951249718666077,-1.2255375385284424,1.8129374980926514
1781033682063390200,14.73339013671875,0.4567750096321106,-1.6219500303268433,1.8599624633789062
1781033682082899200,14.752899169921875,0.8988375067710876,-2.0722625255584717,1.6494499444961548
1781033682102412000,14.772412109375,1.3821499347686768,-2.4916374683380127,1.38833749294281
1781033682121924000,14.791924072265624,1.8998374938964844,-2.832362413406372,1.2964874505996704
1781033682141432000,14.81143212890625,2.4788498878479004,-2.872375011444092,1.3575375080108643
1781033682160943000,14.830943115234374,2.4788498878479004,-2.872375011444092,1.3575375080108643
1781033682180452600,14.85045263671875,3.68568754196167,-3.0809624195098877,2.3984124660491943
1781033682199958300,14.869958251953125,3.68568754196167,-3.0809624195098877,2.3984124660491943
1781033682219465700,14.8894658203125,3.957249879837036,-3.109149932861328,3.2210750579833984
1781033682238976000,14.90897607421875,3.1821625232696533,-2.687162399291992,4.003037452697754
1781033682258482200,14.928482177734375,3.1821625232696533,-2.687162399291992,4.003037452697754
1781033682277990000,14.947989990234374,2.4639999866485596,-2.227912425994873,3.6339874267578125
1781033682297505800,14.967505859375,1.8129374980926514,-1.6711750030517578,2.916374921798706
1781033682317018400,14.987018310546874,1.2313125133514404,-1.0788249969482422,1.9461749792099
1781033682336523300,15.006523193359374,0.636900007724762,-0.49348750710487366,0.7606499791145325
1781033682356029700,15.02602978515625,0.008387500420212746,0.045649997889995575,-0.5292375087738037
1781033682375540000,15.0455400390625,-0.5575624704360962,0.4926624894142151,-1.682724952697754
1781033682395052000,15.065052001953125,-0.9678624868392944,0.8339374661445618,-2.519274950027466
1781033682414563800,15.084563720703125,-1.2260874509811401,1.0832250118255615,-3.0292625427246094
1781033682434077700,15.10407763671875,-1.400575041770935,1.2482249736785889,-3.3070125579833984
1781033682453593000,15.123593017578125,-1.5542999505996704,1.3400750160217285,-3.447812557220459
1781033682473110300,15.1431103515625,-1.682724952697754,1.3860000371932983,-3.4678874015808105
1781033682492626000,15.1626259765625,-1.733049988746643,1.4114375114440918,-3.355412483215332
1781033682512136400,15.182136474609376,-1.6676000356674194,1.4169374704360962,-3.107637405395508
1781033682531651600,15.201651611328124,-1.5177249908447266,1.4045624732971191,-2.780937433242798
1781033682551171600,15.221171630859375,-1.351349949836731,1.3868249654769897,-2.4498374462127686
1781033682570691300,15.24069140625,-1.2142624855041504,1.379675030708313,-2.1498124599456787
1781033682590208500,15.26020849609375,-1.1318999528884888,1.3952125310897827,-1.892549991607666
1781033682609728300,15.279728271484375,-1.099174976348877,1.4257375001907349,-1.6746125221252441
1781033682629250000,15.29925,-1.0866625308990479,1.4555749893188477,-1.4935250282287598
1781033682648766000,15.318765869140625,-1.0601249933242798,1.4712499380111694,-1.341862440109253
1781033682668278300,15.3382783203125,-0.9990749955177307,1.4763374328613281,-1.19941246509552
1781033682687792000,15.357792236328125,-0.9113500118255615,1.4836249351501465,-1.043624997138977
1781033682707304200,15.37730419921875,-0.8168874979019165,1.485550045967102,-0.8652874827384949
1781033682726817300,15.3968173828125,-0.7385125160217285,1.4693249464035034,-0.6877750158309937
1781033682746326500,15.416326416015625,-0.6763625144958496,1.4266999959945679,-0.5442249774932861
1781033682765835000,15.4358349609375,-0.611050009727478,1.3594624996185303,-0.44756248593330383
1781033682785352400,15.4553525390625,-0.5332249999046326,1.2857625484466553,-0.38499999046325684
1781033682804869400,15.474869384765626,-0.4503124952316284,1.2236125469207764,-0.3330250084400177
1781033682824382700,15.4943828125,-0.38087499141693115,1.1848374605178833,-0.2761000096797943
1781033682843902500,15.51390234375,-0.33701249957084656,1.1716375350952148,-0.2125750035047531
1781033682863420000,15.533419921875,-0.3188624978065491,1.1808500289916992,-0.15070000290870667
1781033682882930200,15.55293017578125,-0.317487508058548,1.2075250148773193,-0.0999625027179718
1781033682902441700,15.572441650390624,-0.3265624940395355,1.2396999597549438,-0.06503749638795853
1781033682921956600,15.59195654296875,-0.3531000018119812,1.27572500705719,-0.04358749836683273
1781033682941472500,15.611472412109375,-0.40700000524520874,1.3209625482559204,-0.028737500309944153
1781033682960988700,15.63098876953125,-0.4725874960422516,1.3700499534606934,-0.01347499992698431
1781033682980501200,15.650501220703125,-0.4725874960422516,1.3700499534606934,-0.01347499992698431
1781033683000014000,15.67001416015625,-0.4791874885559082,1.4128124713897705,0.02213750034570694
1781033683019527200,15.689527099609375,-0.4025999903678894,1.3821499347686768,0.04179999977350235
1781033683039033000,15.709033203125,-0.3161124885082245,1.3182125091552734,0.06132499873638153
1781033683058545200,15.728545166015625,-0.3161124885082245,1.3182125091552734,0.06132499873638153
1781033683078059000,15.74805908203125,-0.23498749732971191,1.2190749645233154,0.0705375000834465
1781033683097568500,15.767568603515626,-0.14423750340938568,1.0766249895095825,0.050187498331069946
1781033683117082000,15.78708203125,-0.040424998849630356,0.8856375217437744,-0.008387500420212746
1781033683136596200,15.80659619140625,0.05609999969601631,0.6650875210762024,-0.08167500048875809
1781033683156108800,15.82610888671875,0.12292499840259552,0.4582875072956085,-0.12553749978542328
1781033683175618300,15.845618408203125,0.1597750037908554,0.303600013256073,-0.10766249895095825
1781033683195127800,15.8651279296875,0.17311249673366547,0.2186249941587448,-0.03519999980926514
1781033683214639900,15.884639892578125,0.1303499937057495,0.23649999499320984,0.15001249313354492
1781033683234153000,15.904153076171875,0.1303499937057495,0.23649999499320984,0.15001249313354492
1781033683253663000,15.9236630859375,0.10917499661445618,0.28558748960494995,0.2232999950647354
1781033683273172700,15.9431728515625,0.13557499647140503,0.317487508058548,0.27857500314712524
1781033683292682500,15.9626826171875,0.23100000619888306,0.32147499918937683,0.3269749879837036
1781033683312191200,15.982191162109375,0.3686375021934509,0.30291250348091125,0.3788124918937683
1781033683331705900,16.001705810546873,0.4914250075817108,0.27101248502731323,0.4357374906539917
1781033683351225600,16.0212255859375,0.5689749717712402,0.22866250574588776,0.477400004863739
1781033683370746000,16.04074609375,0.6158624887466431,0.17434999346733093,0.47574999928474426
1781033683390261200,16.06026123046875,0.6403374671936035,0.11343749612569809,0.4240500032901764
1781033683409771500,16.079771484375,0.6144874691963196,0.05692499876022339,0.33742499351501465
1781033683429284400,16.099284423828124,0.5238749980926514,0.013199999928474426,0.24034999310970306
1781033683448797200,16.118797119140623,0.40328750014305115,-0.0170499999076128,0.1518000066280365
1781033683468307200,16.13830712890625,0.2965874969959259,-0.03726249933242798,0.08744999766349792
1781033683487822800,16.15782275390625,0.22027499973773956,-0.048124998807907104,0.05953750014305115
1781033683507338500,16.17733837890625,0.17627499997615814,-0.04688749834895134,0.06558749824762344
1781033683526854100,16.196854248046876,0.15991249680519104,-0.029424998909235,0.08937499672174454
1781033683546370800,16.216370849609376,0.15070000290870667,0.004674999974668026,0.11508750170469284
1781033683565885200,16.23588525390625,0.11715000122785568,0.05115000158548355,0.13859999179840088
1781033683585395700,16.255395751953124,0.043037500232458115,0.10477499663829803,0.16499999165534973
1781033683604909600,16.27490966796875,-0.05967500060796738,0.16321249306201935,0.19951249659061432
1781033683624427800,16.294427734375,-0.17008750140666962,0.23003749549388885,0.2437874972820282
1781033683643946800,16.31394677734375,-0.2751374840736389,0.3096500039100647,0.2942500114440918
1781033683663463700,16.333463623046875,-0.37578749656677246,0.40892499685287476,0.34595000743865967
1781033683682978300,16.352978271484375,-0.48496249318122864,0.5468375086784363,0.40149998664855957
1781033683702493700,16.37249365234375,-0.6076124906539917,0.7346624732017517,0.4684624969959259
1781033683722004700,16.392004638671875,-0.7272375226020813,0.9524624943733215,0.5516499876976013
1781033683741512400,16.411512451171873,-0.8067125082015991,1.1549999713897705,0.638824999332428
1781033683761025500,16.431025634765625,-0.8129000067710876,1.3048750162124634,0.7038624882698059
1781033683780539400,16.450539306640625,-0.7530875205993652,1.4084124565124512,0.7320500016212463
1781033683800046300,16.47004638671875,-0.6700375080108643,1.4862375259399414,0.7297124862670898
1781033683819551500,16.489551513671874,-0.6700375080108643,1.4862375259399414,0.7297124862670898
1781033683839062500,16.5090625,-0.6155874729156494,1.601599931716919,0.7134875059127808
1781033683858571500,16.528571533203124,-0.6155874729156494,1.601599931716919,0.7134875059127808
1781033683878074600,16.54807470703125,-0.650237500667572,1.625112533569336,0.7015249729156494
1781033683897579000,16.5675791015625,-0.6765000224113464,1.609987497329712,0.6632999777793884
1781033683917082000,16.58708203125,-0.6778749823570251,1.5802874565124512,0.5975750088691711
1781033683936586500,16.60658642578125,-0.6858500242233276,1.5915625095367432,0.521262526512146
1781033683956100000,16.62610009765625,-0.7275124788284302,1.6256624460220337,0.4388999938964844
1781033683975610400,16.6456103515625,-0.7422249913215637,1.5699750185012817,0.3558500111103058
1781033683995120400,16.665120361328125,-0.6223250031471252,1.2799874544143677,0.28558748960494995
1781033684014631700,16.684631591796876,-0.34595000743865967,0.6898375153541565,0.2217874974012375
1781033684034141400,16.704141357421875,0.0019249999895691872,-0.09363749623298645,0.13571250438690186
1781033684053654000,16.723654052734375,0.31322500109672546,-0.8214250206947327,0.018562499433755875
1781033684073171200,16.743171142578124,0.5370749831199646,-1.2575750350952148,-0.08635000139474869
1781033684092688400,16.7626884765625,0.6719624996185303,-1.3499749898910522,-0.13241249322891235
1781033684112206000,16.7822060546875,0.7327374815940857,-1.2295249700546265,-0.12966249883174896
1781033684131728600,16.801728759765624,0.6983624696731567,-1.0646624565124512,-0.1555124968290329
1781033684151250400,16.82125048828125,0.49527499079704285,-0.9858750104904175,-0.320374995470047
1781033684170768600,16.8407685546875,0.11824999749660492,-1.0804749727249146,-0.6718249917030334
1781033684190280200,16.8602802734375,-0.21078750491142273,-1.3402124643325806,-1.0720875263214111
1781033684209792300,16.879792236328125,-0.15138749778270721,-1.643399953842163,-1.2687125205993652
1781033684229303600,16.899303466796876,0.3429250121116638,-1.8415374755859375,-1.1625624895095825
1781033684248811500,16.9188115234375,0.9703375101089478,-1.8528125286102295,-0.8637750148773193
1781033684268316700,16.938316650390625,1.4232624769210815,-1.682724952697754,-0.5288249850273132
1781033684287825200,16.9578251953125,1.5826250314712524,-1.3971375226974487,-0.2554749846458435
1781033684307334700,16.977334716796875,1.4749624729156494,-1.0905125141143799,-0.09542500227689743
1781033684326844000,16.996843994140626,1.190750002861023,-0.8514000177383423,-0.0752125009894371
1781033684346355700,17.016355712890626,0.8203250169754028,-0.705512523651123,-0.17971250414848328
1781033684365868500,17.03586865234375,0.4281750023365021,-0.6175125241279602,-0.35103750228881836
1781033684385379600,17.055379638671877,0.08868750184774399,-0.5467000007629395,-0.5009124875068665
1781033684404893400,17.0748935546875,-0.10023749619722366,-0.48551249504089355,-0.5454624891281128
1781033684424408800,17.094408935546873,-0.1023000031709671,-0.4422000050544739,-0.4526500105857849
1781033684443922200,17.113922119140625,0.018012499436736107,-0.4086500108242035,-0.24695000052452087
1781033684463433200,17.13343310546875,0.17311249673366547,-0.3811500072479248,0.023787500336766243
1781033684482946000,17.152946044921876,0.3343999981880188,-0.3889875113964081,0.32257500290870667
1781033684502458600,17.172458740234376,0.5190625190734863,-0.4749250113964081,0.6113250255584717
1781033684521966600,17.191966552734375,0.7232499718666077,-0.6598625183105469,0.8443874716758728
1781033684541476400,17.211476318359374,0.9017249941825867,-0.9138249754905701,0.984499990940094
1781033684560986600,17.230986572265625,0.991100013256073,-1.1712249517440796,1.0139249563217163
1781033684580495600,17.25049560546875,0.9641500115394592,-1.3850375413894653,0.938712477684021
1781033684600012500,17.270012451171876,0.8509874939918518,-1.5398625135421753,0.7778375148773193
1781033684619532500,17.289532470703126,0.7101874947547913,-1.644225001335144,0.5626500248908997
1781033684639047400,17.30904736328125,0.5798375010490417,-1.7125624418258667,0.3348124921321869
1781033684658560500,17.328560546875,0.5798375010490417,-1.7125624418258667,0.3348124921321869
1781033684678073900,17.348073974609374,0.4618625044822693,-1.7539499998092651,0.1350249946117401
1781033684697584600,17.367584716796873,0.3863750100135803,-1.803862452507019,-0.011137500405311584
1781033684717092900,17.3870927734375,0.46254998445510864,-1.9248625040054321,-0.09088750183582306
1781033684736601000,17.40660107421875,0.8003875017166138,-2.15806245803833,-0.09226249903440475
1781033684756107000,17.42610693359375,1.3828375339508057,-2.471012592315674,0.0019249999895691872
1781033684775612400,17.4456123046875,2.0198750495910645,-2.7482125759124756,0.20996250212192535
1781033684795117300,17.465117431640625,2.4868249893188477,-2.891900062561035,0.549037516117096
1781033684814620000,17.484619873046874,2.1499500274658203,-2.1665875911712646,1.6059999465942383
1781033684834121700,17.504121826171875,2.1499500274658203,-2.1665875911712646,1.6059999465942383
1781033684853628700,17.523628662109374,1.6333625316619873,-1.5589749813079834,2.187074899673462
1781033684873144800,17.543144775390626,1.6482124328613281,-1.6315749883651733,2.630237579345703
1781033684892657400,17.562657470703126,1.4981999397277832,-1.566812515258789,2.812837600708008
1781033684912168400,17.58216845703125,1.2311749458312988,-1.398787498474121,2.6606249809265137
1781033684931683000,17.60168310546875,0.9372000098228455,-1.1622874736785889,2.1788249015808105
1781033684951198000,17.621197998046874,0.685575008392334,-0.8826124668121338,1.4433374404907227
1781033684970712800,17.640712890625,0.4736874997615814,-0.5696625113487244,0.5831375122070312
1781033684990224600,17.660224609375,0.23828749358654022,-0.23141250014305115,-0.27623748779296875
1781033685009731800,17.67973193359375,-0.06929999589920044,0.10711249709129333,-1.0514625310897827
1781033685029235700,17.699235595703126,-0.430649995803833,0.4141499996185303,-1.697849988937378
1781033685048744000,17.718743896484376,-0.7523999810218811,0.6582124829292297,-2.165762424468994
1781033685068254700,17.738254638671876,-0.9327999949455261,0.824999988079071,-2.421375036239624
1781033685087767000,17.75776708984375,-0.9432500004768372,0.9246875047683716,-2.4872374534606934
1781033685107281400,17.777281494140624,-0.8320124745368958,0.9770749807357788,-2.4096875190734863
1781033685126796300,17.79679638671875,-0.6919000148773193,0.7808625102043152,-2.266824960708618
1781033685146309400,17.816309326171876,-0.612975001335144,0.4204750061035156,-2.142937421798706
1781033685165821700,17.83582177734375,-0.6458374857902527,0.17847499251365662,-2.0791375637054443
1781033685185336300,17.85533642578125,-0.7764624953269958,0.02213750034570694,-2.054112434387207
1781033685204848600,17.8748486328125,-0.9365124702453613,0.2330625057220459,-1.6887749433517456
1781033685224352500,17.8943525390625,-1.0599875450134277,0.7119749784469604,-1.3595999479293823
1781033685243859000,17.91385888671875,-1.1184250116348267,1.056825041770935,-0.9880750179290771
1781033685263369000,17.933368896484374,-1.1215875148773193,1.2826000452041626,-0.679937481880188
1781033685282877700,17.952877685546873,-1.1035749912261963,1.431512475013733,-0.8109750151634216
1781033685302392600,17.972392578125,-1.0913374423980713,1.541100025177002,-0.6507874727249146
1781033685321908500,17.991908447265626,-1.0855624675750732,1.6268999576568604,-0.29961249232292175
1781033685341418500,18.01141845703125,-1.0613625049591064,1.6746125221252441,-0.19593749940395355
1781033685360933000,18.03093310546875,-1.0613625049591064,1.6746125221252441,-0.19593749940395355
1781033685380450300,18.0504501953125,-0.9934374690055847,1.6614124774932861,-0.2583625018596649
1781033685399967200,18.06996728515625,-0.7522624731063843,1.5079624652862549,-0.27678748965263367
1781033685419482000,18.089482177734375,-0.7522624731063843,1.5079624652862549,-0.27678748965263367
1781033685438997800,18.108997802734375,-0.4823499917984009,1.3297624588012695,-0.14959999918937683
1781033685458514200,18.12851416015625,-0.4823499917984009,1.3297624588012695,-0.14959999918937683
1781033685478030000,18.148030029296876,-0.3926999866962433,1.2420375347137451,-0.06435000151395798
1781033685497544400,18.16754443359375,-0.34402498602867126,1.1654499769210815,0.010724999941885471
1781033685517059800,18.187059814453125,-0.33316248655319214,1.121037483215332,0.0705375000834465
1781033685536575200,18.2065751953125,-0.36024999618530273,1.1222749948501587,0.11715000122785568
1781033685556087800,18.226087890625,-0.4199250042438507,1.1675125360488892,0.1597750037908554
1781033685575599000,18.24559912109375,-0.47533750534057617,1.2260874509811401,0.20528750121593475
1781033685595105000,18.26510498046875,-0.4844124913215637,1.2637624740600586,0.24928750097751617
1781033685614612000,18.284612060546873,-0.4355999827384949,1.2630749940872192,0.27912500500679016
1781033685634129700,18.304129638671874,-0.3404499888420105,1.221274971961975,0.2829749882221222
1781033685653649400,18.3236494140625,-0.22082500159740448,1.1416624784469604,0.25712499022483826
1781033685673164800,18.343164794921876,-0.10436250269412994,1.0352375507354736,0.20845000445842743
1781033685692680400,18.362680419921876,-0.014024999924004078,0.9176750183105469,0.1494625061750412
1781033685712196000,18.382196044921876,0.047987498342990875,0.7965375185012817,0.08937499672174454
1781033685731713000,18.401713134765625,0.09941250085830688,0.675125002861023,0.03341250121593475
1781033685751229700,18.421229736328126,0.14781250059604645,0.5568749904632568,-0.010587500408291817
1781033685770748000,18.440747802734375,0.17448750138282776,0.44852501153945923,-0.02969999983906746
1781033685790269700,18.460269775390625,0.17311249673366547,0.35667499899864197,-0.01746249943971634
1781033685809787100,18.479787109375,0.16733749210834503,0.2815999984741211,0.01966249942779541
1781033685829298700,18.499298583984373,0.18232500553131104,0.22220000624656677,0.07039999961853027
1781033685848811500,18.5188115234375,0.21656249463558197,0.17861250042915344,0.12622499465942383
1781033685868321800,18.53832177734375,0.2498375028371811,0.15111249685287476,0.18328750133514404
1781033685887830300,18.557830322265627,0.26510000228881836,0.13750000298023224,0.24172499775886536
1781033685907341300,18.57734130859375,0.256850004196167,0.13103750348091125,0.3031874895095825
1781033685926851800,18.596851806640625,0.24488750100135803,0.12072499841451645,0.36643749475479126
1781033685946361000,18.616361083984376,0.2639999985694885,0.09418749809265137,0.420199990272522
1781033685965872000,18.6358720703125,0.3287625014781952,0.047575000673532486,0.45086249709129333
1781033685985380900,18.655380859375,0.4175874888896942,-0.009487500414252281,0.45649999380111694
1781033686004888800,18.674888916015625,0.4992625117301941,-0.06297499686479568,0.4431625008583069
1781033686024403000,18.69440283203125,0.5603125095367432,-0.10243749618530273,0.415800005197525
1781033686043917600,18.71391748046875,0.6028000116348267,-0.1237500011920929,0.37111249566078186
1781033686063425500,18.733425537109376,0.6274124979972839,-0.1284250020980835,0.3041499853134155
1781033686082934000,18.75293408203125,0.6231499910354614,-0.12044999748468399,0.2186249941587448
1781033686102446600,18.772446533203127,0.5732374787330627,-0.10037499666213989,0.12856249511241913
1781033686121965300,18.79196533203125,0.47905001044273376,-0.06599999964237213,0.05348749831318855
1781033686141480400,18.81148046875,0.3535124957561493,-0.012649999931454659,0.010724999941885471
1781033686160994300,18.830994384765624,0.19813749194145203,0.06503749638795853,0.01484999991953373
1781033686180511500,18.850511474609377,0.19813749194145203,0.06503749638795853,0.01484999991953373
1781033686200028200,18.870028076171874,0.010312499478459358,0.17063750326633453,0.07026249915361404
1781033686219543800,18.889543701171874,-0.19923749566078186,0.30621248483657837,0.1676124930381775
1781033686239058000,18.909057861328126,-0.5846499800682068,0.6429499983787537,0.40521249175071716
1781033686258571800,18.92857177734375,-0.7073000073432922,0.7951624989509583,0.4987125098705292
1781033686278086000,18.9480859375,-0.7073000073432922,0.7951624989509583,0.4987125098705292
1781033686297601300,18.967601318359375,-0.7720624804496765,0.903237521648407,0.558525025844574
1781033686317117700,18.98711767578125,-0.8175749778747559,0.9800999760627747,0.5975750088691711
1781033686336632800,19.0066328125,-0.8941624760627747,1.0660375356674194,0.6424000263214111
1781033686356146400,19.026146484375,-1.005674958229065,1.1763124465942383,0.7028999924659729
1781033686375661800,19.045661865234376,-1.1070125102996826,1.2916749715805054,0.767799973487854
1781033686395175700,19.06517578125,-1.1490875482559204,1.3848999738693237,0.8186749815940857
1781033686414683400,19.084683349609374,-1.0377124547958374,1.4981999397277832,0.8623999953269958
1781033686434190600,19.104190673828125,-1.0377124547958374,1.4981999397277832,0.8623999953269958
1781033686453700000,19.1237001953125,-0.9458624720573425,1.5318875312805176,0.8699625134468079
1781033686473208800,19.143208740234375,-0.8588249683380127,1.544124960899353,0.8644624948501587
1781033686492722200,19.16272216796875,-0.7786625027656555,1.5452250242233276,0.8351749777793884
1781033686512237800,19.18223779296875,-0.7027624845504761,1.5406874418258667,0.7797625064849854
1781033686531753000,19.2017529296875,-0.6392375230789185,1.5328500270843506,0.7170624732971191
1781033686551274000,19.22127392578125,-0.5886374711990356,1.5272125005722046,0.6672874689102173
1781033686570795500,19.24079541015625,-0.5347374677658081,1.5302374362945557,0.6297500133514404
1781033686590307800,19.260307861328126,-0.45471251010894775,1.5107125043869019,0.5843750238418579
1781033686609820700,19.279820556640626,-0.3129499852657318,1.3565750122070312,0.5148000121116638
1781033686629329700,19.29932958984375,-0.06861250102519989,0.9087374806404114,0.41263750195503235
1781033686648838100,19.318838134765624,0.26881250739097595,0.11302500218153,0.2531374990940094
1781033686668348200,19.33834814453125,0.5857499837875366,-0.854699969291687,-0.006462499964982271
1781033686687854000,19.35785400390625,0.7107374668121338,-1.6534374952316284,-0.18741250038146973
1781033686707361000,19.377361083984376,0.5574250221252441,-1.979587435722351,-0.1097249984741211
1781033686726867500,19.396867431640626,0.26358750462532043,-1.7804875373840332,-0.22893749177455902
1781033686746371000,19.41637109375,0.10381250083446503,-1.2993749380111694,-0.4787749946117401
1781033686765870300,19.435870361328124,0.19772499799728394,-0.8013499975204468,-0.4142875075340271
1781033686785372200,19.4553720703125,0.4184125065803528,-0.3940750062465668,-0.18507499992847443
1781033686804880000,19.4748798828125,0.561412513256073,-0.11687500029802322,0.02241249941289425
1781033686824392700,19.494392822265624,0.565262496471405,-0.043175000697374344,0.06971249729394913
1781033686843903000,19.513903076171875,0.527037501335144,-0.28283751010894775,-0.09391249716281891
1781033686863406800,19.53340673828125,0.5541250109672546,-0.8234875202178955,-0.42391249537467957
1781033686882912000,19.552912109375,0.40878748893737793,-1.4607999324798584,-0.6886000037193298
1781033686902417400,19.57241748046875,0.37812501192092896,-1.9361374378204346,-0.9058499932289124
1781033686921918500,19.59191845703125,0.6529874801635742,-2.1235499382019043,-1.1108624935150146
1781033686941409300,19.6114091796875,0.8476874828338623,-2.0535624027252197,-1.1519750356674194
1781033686960899600,19.630899658203123,0.939674973487854,-1.808537483215332,-1.0777250528335571
1781033686980397800,19.650397705078124,0.9116249680519104,-1.4708374738693237,-0.9546625018119812
1781033686999902700,19.66990283203125,0.7738500237464905,-1.1101750135421753,-0.8395749926567078
1781033687019410200,19.68941015625,0.5570124983787537,-0.7771499752998352,-0.7585874795913696
1781033687038914600,19.70891455078125,0.5570124983787537,-0.7771499752998352,-0.7585874795913696
1781033687058423300,19.72842333984375,0.29205000400543213,-0.4992625117301941,-0.7016624808311462
1781033687077938200,19.747938232421873,0.045237500220537186,-0.2924624979496002,-0.6220499873161316
1781033687097451800,19.76745166015625,-0.06984999775886536,-0.1751749962568283,-0.4468750059604645
1781033687116959500,19.78695947265625,0.03341250121593475,-0.16692499816417694,-0.12594999372959137
1781033687136464600,19.806464599609374,0.33178749680519104,-0.2727999985218048,0.31913748383522034
1781033687155969000,19.825968994140624,0.7129374742507935,-0.47891250252723694,0.8036875128746033
1781033687175469600,19.845469482421876,1.0764875411987305,-0.7430499792098999,1.2314499616622925
1781033687194966300,19.86496630859375,1.3499749898910522,-0.9770749807357788,1.5483875274658203
1781033687214463700,19.884463623046877,1.4460874795913696,-1.1217249631881714,1.768662452697754
1781033687233965600,19.903965576171874,1.4460874795913696,-1.1217249631881714,1.768662452697754
1781033687253469700,19.9234697265625,1.296625018119812,-1.0714000463485718,1.6686999797821045
1781033687272973600,19.9429736328125,1.10756254196167,-1.039912462234497,1.4405875205993652
1781033687292482300,19.962482421875,0.9600250124931335,-1.1167750358581543,1.0958750247955322
1781033687311990800,19.98199072265625,0.863224983215332,-1.2922250032424927,0.6866750121116638
1781033687331492000,20.0014921875,0.7954375147819519,-1.4991624355316162,0.306487500667572
1781033687350994400,20.020994384765626,0.784850001335144,-1.702525019645691,0.03891250118613243
1781033687370497000,20.0404970703125,0.9391250014305115,-1.956624984741211,-0.11467500030994415
1781033687389998000,20.059998046875,1.3804999589920044,-2.33804988861084,-0.19786250591278076
1781033687409501700,20.079501708984374,2.125337600708008,-2.8289248943328857,-0.20047499239444733
1781033687428999200,20.098999267578126,3.0430123805999756,-3.3243374824523926,-0.06338749825954437
1781033687448491800,20.11849169921875,3.843674898147583,-3.664099931716919,0.24584999680519104
1781033687467990000,20.137989990234374,4.183024883270264,-3.716899871826172,0.6664624810218811
1781033687487495000,20.157494873046875,3.8911125659942627,-3.475724935531616,1.0788249969482422
1781033687506996200,20.176996337890625,3.088249921798706,-3.0381999015808105,1.393012523651123
1781033687526499800,20.196499755859374,2.1219000816345215,-2.5654749870300293,1.6105375289916992
1781033687546005000,20.2160048828125,1.3286625146865845,-1.8445625305175781,1.7751250267028809
1781033687565509400,20.23550927734375,0.8468624949455261,-1.3413125276565552,1.872475028038025
1781033687585019400,20.255019287109373,0.6076124906539917,-1.2819124460220337,1.8192625045776367
1781033687604524800,20.27452490234375,0.4328500032424927,-1.0814374685287476,1.4896750450134277
1781033687624026400,20.2940263671875,0.17159999907016754,-0.6839249730110168,0.8134499788284302
1781033687643530500,20.313530517578126,-0.19731250405311584,-0.14506250619888306,-0.13007499277591705
1781033687663031300,20.33303125,-0.5997750163078308,0.4101625084877014,-1.1662750244140625
1781033687682528000,20.352528076171875,-0.9802374839782715,0.8849499821662903,-2.124375104904175
1781033687702026800,20.37202685546875,-1.314774990081787,1.2386000156402588,-2.875124931335449
1781033687721531000,20.39153076171875,-1.6009124517440796,1.4803249835968018,-3.3614625930786133
1781033687741037800,20.411037841796876,-1.6009124517440796,1.4803249835968018,-3.3614625930786133
1781033687760542500,20.43054248046875,-1.944387435913086,1.6944124698638916,-3.550524950027466
1781033687780044800,20.450044921875,-1.9474124908447266,1.6938624382019043,-3.3218624591827393
1781033687799549000,20.469548828125,-1.8513000011444092,1.6554999351501465,-2.9709625244140625
1781033687819050000,20.489050048828126,-1.7239749431610107,1.6160374879837036,-2.5711123943328857
1781033687838549200,20.50854931640625,-1.7239749431610107,1.6160374879837036,-2.5711123943328857
1781033687858050800,20.52805078125,-1.6334999799728394,1.5978875160217285,-2.1649374961853027
1781033687877550600,20.547550537109377,-1.5938999652862549,1.603387475013733,-1.7597249746322632
1781033687897052700,20.567052734375,-1.5599374771118164,1.6209875345230103,-1.3600125312805176
1781033687916557600,20.5865576171875,-1.4966875314712524,1.644225001335144,-0.992062509059906
1781033687936060000,20.606059814453126,-1.4309624433517456,1.6889125108718872,-0.6997374892234802
1781033687955561000,20.62556103515625,-1.3909499645233154,1.7532625198364258,-0.5069624781608582
1781033687975061200,20.645061279296876,-1.3386999368667603,1.8078500032424927,-0.39352500438690186
1781033687994561000,20.66456103515625,-1.209862470626831,1.8268250226974487,-0.32161250710487366
1781033688014060300,20.684060302734373,-1.0030624866485596,1.8034499883651733,-0.2750000059604645
1781033688033555000,20.703554931640625,-0.7961249947547913,1.7545000314712524,-0.2633124887943268
1781033688053051100,20.723051025390625,-0.6538124680519104,1.692212462425232,-0.2957625091075897
1781033688072555500,20.742555419921874,-0.5654000043869019,1.616724967956543,-0.36313748359680176
1781033688092060700,20.762060791015625,-0.5046250224113464,1.5331250429153442,-0.43821248412132263
1781033688111563000,20.78156298828125,-0.47795000672340393,1.4489749670028687,-0.4881249964237213
1781033688131066600,20.801066650390624,-0.492249995470047,1.3820124864578247,-0.49472498893737793
1781033688150563800,20.820563720703124,-0.5087500214576721,1.3417249917984009,-0.45663750171661377
1781033688170062300,20.840062255859376,-0.47946250438690186,1.3226125240325928,-0.3793624937534332
1781033688189564000,20.85956396484375,-0.40562498569488525,1.3153250217437744,-0.2694999873638153
1781033688209064200,20.879064208984374,-0.3156999945640564,1.304187536239624,-0.13598750531673431
1781033688228566300,20.898566162109375,-0.2217874974012375,1.2722874879837036,0.0034374999813735485
1781033688248067600,20.918067626953125,-0.12278749793767929,1.2086249589920044,0.12581250071525574
1781033688267568000,20.937568115234374,-0.02667500078678131,1.1175999641418457,0.21587499976158142
1781033688287068000,20.95706787109375,0.05362499877810478,1.0153000354766846,0.2732124924659729
1781033688306568000,20.97656787109375,0.12072499841451645,0.9105250239372253,0.30195000767707825
1781033688326070500,20.996070556640625,0.18796250224113464,0.8098750114440918,0.3078624904155731
1781033688345575000,21.015574951171875,0.2525874972343445,0.7184374928474426,0.2971374988555908
1781033688365077500,21.035077392578124,0.2957625091075897,0.636900007724762,0.2747249901294708
1781033688384578800,21.054578857421873,0.31638750433921814,0.5641624927520752,0.24255000054836273
1781033688404086000,21.0740859375,0.33742499351501465,0.4974749982357025,0.201712504029274
1781033688423592700,21.0935927734375,0.3763374984264374,0.4366999864578247,0.16279999911785126
1781033688443094800,21.1130947265625,0.4251500070095062,0.38321250677108765,0.14231249690055847
1781033688462598400,21.132598388671877,0.45883750915527344,0.3381125032901764,0.1498750001192093
1781033688482106400,21.1521064453125,0.4529249966144562,0.3003000020980835,0.1802625060081482
1781033688501617200,21.1716171875,0.40039998292922974,0.26551249623298645,0.21876250207424164
1781033688521125600,21.191125732421874,0.3236750066280365,0.23045000433921814,0.25341248512268066
1781033688540632800,21.2106328125,0.267300009727478,0.1942874938249588,0.2755500078201294
1781033688560141800,21.230141845703123,0.26455000042915344,0.15702499449253082,0.2793999910354614
1781033688579651800,21.24965185546875,0.2993375062942505,0.1214125007390976,0.27114999294281006
1781033688599164700,21.26916455078125,0.322299987077713,0.09308750182390213,0.2634499967098236
1781033688618675500,21.288675537109373,0.29823750257492065,0.07741250097751617,0.2652375102043152
1781033688638178300,21.30817822265625,0.29823750257492065,0.07741250097751617,0.2652375102043152
1781033688657678600,21.3276787109375,0.2326499968767166,0.07507500052452087,0.2751374840736389
1781033688677181400,21.347181396484373,0.15606249868869781,0.07975000143051147,0.2854500114917755
1781033688696690400,21.3666904296875,0.09281250089406967,0.08277499675750732,0.2886124849319458
1781033688716204500,21.38620458984375,0.05142499879002571,0.07975000143051147,0.27953749895095825
1781033688735722000,21.405721923828125,0.025849999859929085,0.07136250287294388,0.2611125111579895
1781033688755239400,21.425239501953126,0.005224999971687794,0.06201250106096268,0.24296249449253082
1781033688774754800,21.4447548828125,-0.014299999922513962,0.05596249923110008,0.23223750293254852
1781033688794266600,21.4642666015625,-0.033137500286102295,0.058024998754262924,0.23058749735355377
1781033688813776400,21.4837763671875,-0.057475000619888306,0.07259999960660934,0.23567499220371246
1781033688833288200,21.5032880859375,-0.057475000619888306,0.07259999960660934,0.23567499220371246
1781033688852799500,21.522799560546876,-0.14877499639987946,0.15372499823570251,0.2593249976634979
1781033688872306200,21.54230615234375,-0.21587499976158142,0.22893749177455902,0.2853125035762787
1781033688891810800,21.561810791015624,-0.3007124960422516,0.32023748755455017,0.32848748564720154
1781033688911320000,21.581320068359375,-0.40246251225471497,0.41401249170303345,0.38499999046325684
1781033688930831600,21.60083154296875,-0.5145249962806702,0.5046250224113464,0.444537490606308
1781033688950344000,21.620343994140626,-0.6272749900817871,0.593037486076355,0.49445000290870667
1781033688969851100,21.63985107421875,-0.731362521648407,0.6747124791145325,0.5264874696731567
1781033688989353700,21.659353759765626,-0.8178499937057495,0.7441499829292297,0.5427125096321106
1781033689008861000,21.67886083984375,-0.8753250241279602,0.8034124970436096,0.5506874918937683
1781033689028366300,21.698366455078126,-0.9029625058174133,0.8606125116348267,0.5583875179290771
1781033689047873000,21.717873046875,-0.9120374917984009,0.9194625020027161,0.5717250108718872
1781033689067385300,21.73738525390625,-0.916575014591217,0.9807875156402588,0.5953750014305115
1781033689086895600,21.7568955078125,-0.9185000061988831,1.0459624528884888,0.631262481212616
1781033689106402600,21.776402587890626,-0.8960874676704407,1.109487533569336,0.6696249842643738
1781033689125906400,21.795906494140624,-0.8339374661445618,1.1704000234603882,0.7004249691963196
1781033689145405000,21.815405029296876,-0.7425000071525574,1.2273249626159668,0.7221499681472778
1781033689164901600,21.834901611328124,-0.6485875248908997,1.2731125354766846,0.7391999959945679
1781033689184396000,21.85439599609375,-0.5720000267028809,1.303362488746643,0.7552874684333801
1781033689203892200,21.873892333984376,-0.5079249739646912,1.3164249658584595,0.7645000219345093
1781033689223395600,21.8933955078125,-0.4358749985694885,1.3305875062942505,0.7590000033378601
1781033689242898200,21.912898193359375,-0.3431999981403351,1.383525013923645,0.7374125123023987
1781033689262396000,21.93239599609375,-0.2563000023365021,1.498887538909912,0.6934124827384949
1781033689281896000,21.95189599609375,-0.2209624946117401,1.5926624536514282,0.599637508392334
1781033689301398500,21.9713984375,-0.23196250200271606,1.4272500276565552,0.4174500107765198
1781033689320900400,21.990900390625,-0.21615000069141388,0.7805874943733215,0.13241249322891235
1781033689340397800,22.010397705078127,-0.08538749814033508,-0.29961249232292175,-0.22550000250339508
1781033689359897300,22.0298974609375,0.18479999899864197,-1.4442999362945557,-0.5864375233650208
1781033689379395800,22.049395751953124,0.5102624893188477,-2.185699939727783,-0.8475499749183655
1781033689398888400,22.068888427734375,0.5102624893188477,-2.185699939727783,-0.8475499749183655
1781033689418381300,22.08838134765625,0.802174985408783,-1.7729250192642212,-0.8146874904632568
1781033689437875000,22.107875,0.802174985408783,-1.7729250192642212,-0.8146874904632568
1781033689457372200,22.1273720703125,0.7739874720573425,-1.0658999681472778,-0.5970249772071838
1781033689476876000,22.1468759765625,0.7875999808311462,-0.5138375163078308,-0.3815625011920929
1781033689496381400,22.16638134765625,0.8984249830245972,-0.38087499141693115,-0.2732124924659729
1781033689515884800,22.185884765625,1.0499500036239624,-0.6569749712944031,-0.31597501039505005
1781033689535388000,22.205387939453125,1.1647624969482422,-1.0976624488830566,-0.4641999900341034
1781033689554887000,22.224886962890626,1.1996874809265137,-1.4328874349594116,-0.6271374821662903
1781033689574381300,22.24438134765625,1.1574749946594238,-1.5541625022888184,-0.7464874982833862
1781033689593881600,22.263881591796874,1.0740125179290771,-1.486512541770935,-0.8003875017166138
1781033689613386000,22.283385986328124,0.9736375212669373,-1.2850749492645264,-0.7793499827384949
1781033689632885800,22.3028857421875,0.8692749738693237,-1.0185999870300293,-0.6964374780654907
1781033689652384000,22.322384033203125,0.7684875130653381,-0.7504749894142151,-0.5791500210762024
1781033689671884800,22.341884765625,0.675125002861023,-0.5315750241279602,-0.46035000681877136
1781033689691386000,22.36138623046875,0.5691124796867371,-0.4057624936103821,-0.38926249742507935
1781033689710884000,22.380884033203124,0.42102500796318054,-0.420199990272522,-0.41964998841285706
1781033689730380300,22.40038037109375,0.2404875010251999,-0.58451247215271,-0.5556374788284302
1781033689749874000,22.4198740234375,0.07933750003576279,-0.8417750000953674,-0.7261375188827515
1781033689769367800,22.439367919921875,-0.02694999985396862,-1.107699990272522,-0.8357250094413757
1781033689788862700,22.45886279296875,-0.11728750169277191,-1.3202749490737915,-0.8442500233650208
1781033689808354800,22.478354736328125,-0.2601499855518341,-1.4528249502182007,-0.766837477684021
1781033689827848000,22.497847900390624,-0.4823499917984009,-1.4966875314712524,-0.6294749975204468
1781033689847343000,22.517343017578124,-0.7293000221252441,-1.4459500312805176,-0.4240500032901764
1781033689866836200,22.536836181640624,-0.8904500007629395,-1.3011624813079834,-0.09350000321865082
1781033689886328600,22.55632861328125,-0.8619874715805054,-1.0844625234603882,0.41359999775886536
1781033689905821200,22.5758212890625,-0.5748875141143799,-0.8335250020027161,1.0848749876022339
1781033689925321500,22.595321533203126,-0.04936249926686287,-0.5828624963760376,1.8390624523162842
1781033689944820000,22.614820068359375,0.585474967956543,-0.3746874928474426,2.535637378692627
1781033689964314600,22.634314697265626,1.1525249481201172,-0.2615250051021576,3.0082249641418457
1781033689983808800,22.653808837890626,1.536424994468689,-0.28971248865127563,3.121799945831299
1781033690003305500,22.673305419921874,1.7562874555587769,-0.4786374866962433,2.837174892425537
1781033690022807600,22.6928076171875,1.9335249662399292,-0.8194999694824219,2.227912425994873
1781033690042307300,22.712307373046876,2.182812452316284,-1.270912528038025,1.4238125085830688
1781033690061807400,22.731807373046873,2.5235373973846436,-1.7488625049591064,0.5612750053405762
1781033690081308700,22.75130859375,2.8934125900268555,-2.1533875465393066,-0.22027499973773956
1781033690100808000,22.770807861328127,3.2172250747680664,-2.399512529373169,-0.743737518787384
1781033690120309200,22.790309326171876,3.4592249393463135,-2.4672999382019043,-0.8492000102996826
1781033690139812600,22.8098125,3.5161499977111816,-2.3687124252319336,-0.5396875143051147
1781033690159316200,22.829316162109375,3.2554500102996826,-2.1334500312805176,-0.007699999958276749
1781033690178820400,22.8488203125,3.2554500102996826,-2.1334500312805176,-0.007699999958276749
1781033690198327000,22.8683271484375,3.2554500102996826,-2.1334500312805176,-0.007699999958276749
1781033690217833500,22.88783349609375,1.651787519454956,-1.3309999704360962,1.1477124691009521
1781033690237336000,22.907336181640623,1.651787519454956,-1.3309999704360962,1.1477124691009521
1781033690256834300,22.926834228515624,1.194737434387207,-1.0736000537872314,1.152250051498413
1781033690276330200,22.946330322265624,0.7561125159263611,-0.7764624953269958,0.9318374991416931
1781033690295830800,22.965830810546876,0.23182499408721924,-0.41813749074935913,0.4054875075817108
1781033690315333000,22.9853330078125,-0.44536250829696655,-0.007699999958276749,-0.4446749985218048
1781033690334834700,23.004834716796875,-1.2170125246047974,0.3998500108718872,-1.4596999883651733
1781033690354333700,23.024333740234376,-1.9199124574661255,0.7316374778747559,-2.3729748725891113
1781033690373835000,23.0438349609375,-2.4836626052856445,0.9685499668121338,-3.0340750217437744
1781033690393335600,23.06333544921875,-2.9323248863220215,1.1367125511169434,-3.4181125164031982
1781033690412834600,23.08283447265625,-3.222174882888794,1.2545499801635742,-3.5046000480651855
1781033690432336000,23.1023359375,-3.2736001014709473,1.3230249881744385,-3.322550058364868
1781033690451839700,23.12183984375,-3.0717499256134033,1.3297624588012695,-2.956387519836426
1781033690471343000,23.141343017578127,-2.7054500579833984,1.2812249660491943,-2.5035998821258545
1781033690490840600,23.160840576171875,-2.296112537384033,1.206974983215332,-2.0458624362945557
1781033690510331400,23.180331298828126,-1.887874960899353,1.1265374422073364,-1.6095750331878662
1781033690529824000,23.199823974609377,-1.484587550163269,1.0461000204086304,-1.2073874473571777
1781033690549318100,23.219318115234376,-1.1064624786376953,0.9611250162124634,-0.865975022315979
1781033690568809700,23.238809814453123,-0.7852625250816345,0.8640499711036682,-0.6124249696731567
1781033690588304100,23.25830419921875,-0.5259374976158142,0.7539125084877014,-0.44728749990463257
1781033690607798500,23.277798583984374,-0.2903999984264374,0.634975016117096,-0.33467498421669006
1781033690627292700,23.297292724609374,-0.05087500065565109,0.5174124836921692,-0.2303124964237213
1781033690646788900,23.316788818359374,0.16101250052452087,0.4129124879837036,-0.11990000307559967
1781033690666284000,23.336283935546874,0.2913624942302704,0.33137500286102295,-0.020212499424815178
1781033690685779000,23.355779052734373,0.3269749879837036,0.2827000021934509,0.04936249926686287
1781033690705269000,23.37526904296875,0.31226250529289246,0.2759625017642975,0.09377499669790268
1781033690724761300,23.39476123046875,0.3059374988079071,0.31556248664855957,0.13241249322891235
1781033690744253000,23.4142529296875,0.3348124921321869,0.3891249895095825,0.172837495803833
1781033690763746800,23.433746826171873,0.3979249894618988,0.46626248955726624,0.20418749749660492
1781033690783248600,23.45324853515625,0.476437509059906,0.517549991607666,0.21188749372959137
1781033690802747100,23.4727470703125,0.5405125021934509,0.5314375162124634,0.19359999895095825
1781033690822243600,23.49224365234375,0.5572875142097473,0.5174124836921692,0.15702499449253082
1781033690841737200,23.5117373046875,0.5161749720573425,0.49348750710487366,0.10477499663829803
1781033690861230800,23.53123095703125,0.4328500032424927,0.4809750020503998,0.02502499893307686
1781033690880728300,23.550728271484374,0.32023748755455017,0.4982999861240387,-0.09817499667406082
1781033690900225300,23.570225341796874,0.1779250055551529,0.549037516117096,-0.2616625130176544
1781033690919718700,23.58971875,0.0030249999836087227,0.6231499910354614,-0.44013750553131104
1781033690939211000,23.6092109375,-0.1915374994277954,0.6983624696731567,-0.598675012588501
1781033690958705000,23.628704833984376,-0.1915374994277954,0.6983624696731567,-0.598675012588501
1781033690978197500,23.648197509765627,-0.1915374994277954,0.6983624696731567,-0.598675012588501
1781033690997692200,23.667692138671875,-0.5571500062942505,0.7734375,-0.7748125195503235
1781033691017190400,23.6871904296875,-0.7647749781608582,0.7405750155448914,-0.7797625064849854
1781033691036685800,23.706685791015627,-0.7647749781608582,0.7405750155448914,-0.7797625064849854
1781033691056179200,23.72617919921875,-0.8263750076293945,0.7039999961853027,-0.7297124862670898
1781033691075675600,23.745675537109374,-0.8855000138282776,0.6598625183105469,-0.6448749899864197
1781033691095170000,23.765170166015626,-0.9245499968528748,0.6023874878883362,-0.5297874808311462
1781033691114661000,23.7846611328125,-0.9010375142097473,0.520437479019165,-0.3918749988079071
1781033691134153700,23.80415380859375,-0.805062472820282,0.4152500033378601,-0.24310000240802765
1781033691153644800,23.823644775390626,-0.6671500205993652,0.30195000767707825,-0.09542500227689743
1781033691173134600,23.843134521484377,-0.5319874882698059,0.19841249287128448,0.04427500069141388
1781033691192626000,23.8626259765625,-0.4361499845981598,0.11591249704360962,0.1732500046491623
1781033691212118000,23.882117919921875,-0.39160001277923584,0.05871250107884407,0.28696250915527344
1781033691231615000,23.901614990234375,-0.37853750586509705,0.02227500081062317,0.382937490940094
1781033691251116800,23.92111669921875,-0.3657499849796295,-0.0010999999940395355,0.4595249891281128
1781033691270620700,23.94062060546875,-0.3405874967575073,-0.016224998980760574,0.5186499953269958
1781033691290122800,23.960122802734375,-0.30841249227523804,-0.026399999856948853,0.5640249848365784
1781033691309624000,23.9796240234375,-0.2703250050544739,-0.03684999793767929,0.593037486076355
1781033691329127700,23.999127685546874,-0.22687499225139618,-0.052799999713897705,0.6061000227928162
1781033691348631800,24.0186318359375,-0.18796250224113464,-0.07438749819993973,0.6065124869346619
1781033691368136000,24.038135986328125,-0.17668749392032623,-0.09473749995231628,0.5982624888420105
1781033691387642600,24.057642578125,-0.2106499969959259,-0.10724999755620956,0.5856124758720398
1781033691407151000,24.077151123046875,-0.2751374840736389,-0.11219999939203262,0.5676000118255615
1781033691426658300,24.096658203125,-0.3359124958515167,-0.11508750170469284,0.5425750017166138
1781033691446164000,24.1161640625,-0.36918750405311584,-0.11948750168085098,0.5095750093460083
1781033691465672700,24.135672607421874,-0.3764750063419342,-0.1251250058412552,0.4725874960422516
1781033691485185000,24.15518505859375,-0.37427499890327454,-0.13021250069141388,0.43821248412132263
1781033691504700400,24.174700439453126,-0.37386250495910645,-0.1321374922990799,0.41084998846054077
1781033691524214500,24.194214599609374,-0.3833499848842621,-0.12925000488758087,0.3926999866962433
1781033691543721200,24.21372119140625,-0.3993000090122223,-0.12113749980926514,0.38321250677108765
1781033691563229700,24.233229736328123,-0.4086500108242035,-0.1083500012755394,0.3778499960899353
1781033691582737400,24.2527373046875,-0.4067249894142151,-0.09267500042915344,0.3726249933242798
1781033691602243000,24.2722431640625,-0.40053749084472656,-0.07548750191926956,0.3647874891757965
1781033691621755400,24.29175537109375,-0.3951750099658966,-0.05692499876022339,0.35199999809265137
1781033691641273600,24.311273681640625,-0.38733750581741333,-0.03519999980926514,0.3306874930858612
1781033691660788200,24.330788330078125,-0.37853750586509705,-0.008937500417232513,0.2975499927997589
1781033691680305700,24.3503056640625,-0.3764750063419342,0.01966249942779541,0.25423750281333923
1781033691699822000,24.369822021484374,-0.3764750063419342,0.01966249942779541,0.25423750281333923
1781033691719331600,24.38933154296875,-0.38362500071525574,0.04661250114440918,0.2046000063419342
1781033691738840800,24.4088408203125,-0.3964124917984009,0.07177499681711197,0.15344999730587006
1781033691758347300,24.42834716796875,-0.3964124917984009,0.07177499681711197,0.15344999730587006
1781033691777854500,24.4478544921875,-0.4384874999523163,0.142037495970726,0.06187500059604645
1781033691797366800,24.46736669921875,-0.46502500772476196,0.19415000081062317,0.029424998909235
1781033691816878600,24.486878662109376,-0.4750624895095825,0.24777500331401825,0.008249999955296516
1781033691836390000,24.506389892578124,-0.4507249891757965,0.2932874858379364,-0.004537499975413084
1781033691855902000,24.52590185546875,-0.3946250081062317,0.3268375098705292,-0.013062499463558197
1781033691875415600,24.54541552734375,-0.32532501220703125,0.34952500462532043,-0.021449999883770943
1781033691894931000,24.564930908203124,-0.2579500079154968,0.3642374873161316,-0.03231250122189522
1781033691914447400,24.584447265625,-0.19511249661445618,0.3722124993801117,-0.047575000673532486
1781033691933963000,24.603962890625,-0.13846249878406525,0.3768875002861023,-0.0681999996304512
1781033691953473000,24.62347314453125,-0.09707500040531158,0.3801875114440918,-0.09308750182390213
1781033691972981200,24.642981201171875,-0.08511249721050262,0.381012499332428,-0.11893749982118607
1781033691992489000,24.662489013671873,-0.1106875017285347,0.3788124918937683,-0.14038750529289246
1781033692011998000,24.681998046875,-0.16362500190734863,0.3755125105381012,-0.15358750522136688
1781033692031507700,24.7015078125,-0.2190375030040741,0.37400001287460327,-0.15771250426769257
1781033692051019500,24.72101953125,-0.2525874972343445,0.3735874891281128,-0.15427500009536743
1781033692070532900,24.740532958984375,-0.25753748416900635,0.370012491941452,-0.14643749594688416
