Time (s),Acc_X,Acc_Y,Acc_Z,Gyro_X,Gyro_Y,Gyro_Z,activity_label
5.051098625,-0.5227130127,9.736502838,-0.4989125061,-0.004473882727,-0.008328847587,0.01451016776,5
5.071142625,-0.4686753845,9.782157898,-0.6569837952,-0.01079593692,-0.04779340327,0.01668484882,5
5.091186625,-0.5147795105,9.760303345,-0.6521937561,-0.005065842532,-0.04211323708,0.01566517167,5
5.111229625,-0.5423222351,9.744735718,-0.6063890076,-0.003623789875,-0.006768886,0.009672108106,5
5.131273625,-0.4837939453,9.754914551,-0.5902226257,0.003279656405,-0.03284043074,0.01533079334,5
5.151317625,-0.476459198,9.754315796,-0.6008505249,0.005991272628,-0.05583880097,0.01689637639,5
5.171361625,-0.4707710266,9.741592255,-0.5766009521,-0.001385417301,-0.01583519205,0.00794735644,5
5.191404625,-0.47271698,9.748178558,-0.5490582275,-0.002511795145,-0.001181739848,0.004554807208,5
5.211448625,-0.4207749939,9.731712799,-0.6107299805,0.006526555866,-0.03198447824,0.005959202535,5
5.231492625,-0.4261637878,9.752070465,-0.6044430542,0.01030057203,-0.01043789461,0.002818140434,5
5.251536625,-0.4451742554,9.777966614,-0.5596861267,0.003948932979,0.009805325419,0.006281581242,5
5.271579583,-0.4541555786,9.793683929,-0.5629792786,0.0001636946108,0.0001575662754,0.01052647643,5
5.291623583,-0.5056484985,9.771230621,-0.5718109131,-0.006024416536,-0.01152073964,0.01158626564,5
5.311667583,-0.5589376831,9.728569336,-0.5944139099,-0.01063897554,-0.01662848704,0.006247408688,5
5.331710583,-0.4993615723,9.783804474,-0.4815486145,-0.0003618472256,-0.003089699894,0.005874177441,5
5.351754583,-0.4053570557,9.78889389,-0.5363346863,-0.003368558595,0.002160765696,0.01128360815,5
5.371798583,-0.4852908325,9.771529999,-0.6616241455,-0.000554953469,-0.01128769387,0.01375880744,5
5.391842583,-0.5361849976,9.726773071,-0.6812333679,-0.001140963752,-0.01618888788,0.01286174636,5
5.411885583,-0.5420228577,9.778864746,-0.5400769043,-0.0004988242872,-0.001851211768,0.008848497644,5
5.431929583,-0.4766088867,9.789941711,-0.4710704041,0.00474154111,-0.01676075533,0.007638331503,5
5.451973583,-0.4189787292,9.754764862,-0.5779481506,0.005287780426,-0.04083916545,0.008238017559,5
5.472017583,-0.4406835938,9.741592255,-0.6965016174,0.006405965425,-0.0237497054,0.008892810903,5
5.492061583,-0.4504133606,9.775122528,-0.5758525085,-0.001182012958,3.677746281e-05,0.01052504033,5
5.512104583,-0.4574487305,9.792935486,-0.5322930908,-0.005156705156,-0.02430207282,0.01621975563,5
5.532148583,-0.4478686523,9.78889389,-0.5215155029,-0.009640630335,-0.03653916717,0.01831489429,5
5.552192583,-0.4879852295,9.762099609,-0.5995033264,-0.0110642314,-0.01516027097,0.01543305442,5
5.572235583,-0.4465214539,9.763596497,-0.5652246094,-0.01061602123,-0.0113775162,0.01309586409,5
5.592279583,-0.3890409851,9.755363617,-0.5971083069,-0.008743401617,-0.0366771929,0.006515615154,5
5.612323583,-0.3685336304,9.745334473,-0.5270539856,0.007696215995,-0.03307823837,0.006349089555,5
5.632367583,-0.3600013733,9.757010193,-0.6041436768,0.0004718343262,0.002625931753,0.002265455667,5
5.652410583,-0.3646417236,9.780361633,-0.6349795532,0.001595295151,0.00159842521,-0.001391012222,5
5.672454583,-0.3656895447,9.762548676,-0.5095404053,0.02299729548,-0.007231951226,0.002638114849,5
5.692498583,-0.3359014893,9.7900914,-0.5867797852,0.01111661643,-0.002516306937,0.008970976807,5
5.712542583,-0.4555027771,9.820927277,-0.6336323547,-0.002994054928,0.01138265617,0.01514756307,5
5.732585583,-0.4320016479,9.792336731,-0.500559082,0.001344742952,0.01130512916,0.0127608953,5
5.752629583,-0.369282074,9.771829376,-0.4876858521,-0.003132245969,-0.00834658742,0.01454827748,5
5.772673583,-0.398770752,9.764195251,-0.6348298645,-0.02978080139,-0.02228336781,0.01098632161,5
5.792717583,-0.4288581848,9.762099609,-0.5510041809,-0.01063298713,-0.02050763182,0.007810347714,5
5.812760583,-0.4327500916,9.759105835,-0.5442681885,0.00153779774,-0.00779109681,0.006553921383,5
5.832804583,-0.339793396,9.789642334,-0.5840853882,-0.01947060041,-0.007451824378,0.00639239978,5
5.852848583,-0.333356781,9.762698364,-0.5310955811,-0.0092216786,-0.000287507195,0.006203419995,5
5.872892583,-0.3861968994,9.761650543,-0.5035528564,0.00307231117,0.03432440013,-0.0008808253333,5
5.892935583,-0.3820056152,9.751322021,-0.6047424316,-0.008664875291,0.02674820833,0.0005207927898,5
5.912979583,-0.4177812195,9.778864746,-0.5529501343,-0.0004527394194,0.006011386402,0.005572381429,5
5.933023583,-0.4686753845,9.757758636,-0.6298901367,-0.001503888983,0.01299366169,0.005986503325,5
5.953067583,-0.4772076416,9.735005951,-0.5080435181,0.002824395197,0.05206587538,-0.005483089946,5
5.973110583,-0.3763174438,9.75850708,-0.5020559692,-0.0118150888,0.01115260459,-0.003348750062,5
5.993154583,-0.3755690002,9.79952179,-0.5444178772,-0.005571891554,-0.03285641223,0.008867833763,5
6.013198583,-0.4647834778,9.78305603,-0.5905220032,-0.003730013268,0.004836546723,0.004893379752,5
6.033242583,-0.4532574463,9.759554901,-0.4520599365,0.001699232031,0.04887227714,-0.004493505694,5
6.053285583,-0.3436853027,9.77138031,-0.4977149963,0.01085721236,0.0004465784878,-0.005477042869,5
6.073329583,-0.360151062,9.762698364,-0.5914201355,0.01883235201,-0.004433221184,-0.01043713279,5
6.093373583,-0.4079017639,9.746531982,-0.5270539856,0.01672363654,0.03737465292,-0.01819619536,5
6.113417583,-0.4667294312,9.776619415,-0.543968811,0.01183340047,0.04663958028,-0.01745136268,5
6.133460583,-0.4090992737,9.789193268,-0.5258564758,0.003495983314,0.02514616773,-0.006554209162,5
6.153504583,-0.4309538269,9.771080933,-0.6268963623,-0.0003672370221,0.01821968704,-0.002262552269,5
6.173548583,-0.4501139832,9.767937469,-0.597557373,0.01091925148,0.03485420346,0.000350114191,5
6.193592583,-0.4517605591,9.747430115,-0.6306385803,0.0002105175517,0.0184459649,0.0004313422833,5
6.213635583,-0.4119433594,9.769733734,-0.5572911072,0.006496654823,-0.01211845316,0.006813979708,5
6.233679583,-0.4192781067,9.768386536,-0.5843847656,-0.002875414444,-0.01364252064,0.007142028771,5
6.253723583,-0.4805007935,9.819430389,-0.5924679565,-0.005352904089,-0.001908041071,0.005024705082,5
6.273767583,-0.4144880676,9.771829376,-0.5911207581,-0.006062739529,0.01145806722,0.001449405798,5
6.293810583,-0.3270698547,9.774224396,-0.5773493958,-0.01747426949,0.02190396376,-0.00233190693,5
6.313854583,-0.3954776001,9.780361633,-0.5846841431,-0.01045748219,-0.01612784714,0.00216974644,5
6.333898583,-0.4950205994,9.746981049,-0.6261479187,0.003103914903,-0.01006562915,-0.003219532082,5
6.353942583,-0.3761677551,9.75266922,-0.503253479,0.005275314674,0.0232735239,-0.01131477579,5
6.373985583,-0.287252655,9.792935486,-0.6047424316,-0.0114185838,0.001728875795,-0.01698176749,5
6.394029583,-0.3947291565,9.785900116,-0.6107299805,-0.008142005652,-0.02753298916,-0.0135631701,5
6.414073583,-0.4429289246,9.742640076,-0.5098397827,0.01195764262,0.004032139666,-0.01221473608,5
6.434117583,-0.3899391174,9.739496613,-0.5528004456,0.01321498491,0.03243331984,-0.01782417856,5
6.454160583,-0.2995271301,9.828561401,-0.6102809143,0.005392457359,0.01992761716,-0.01292843372,5
6.474204583,-0.3399430847,9.809251556,-0.5138813782,0.01382815652,0.001525156666,-0.002307678107,5
6.494248583,-0.5143304443,9.765841827,-0.5846841431,0.0005749500124,0.004930380266,-0.003790170653,5
6.514292583,-0.5653742981,9.760003967,-0.5517526245,-0.007069490384,0.02764870971,-0.00854817871,5
6.534335583,-0.4447251892,9.768386536,-0.44697052,-0.009496628307,-0.01035953872,0.0003991976846,5
6.554379583,-0.3968247986,9.774823151,-0.5740562439,-0.01205102075,-0.0446768105,0.0107893832,5
6.574423583,-0.4905299377,9.777367859,-0.6117778015,-0.0002902352717,0.003888595384,0.001492554322,5
6.594467583,-0.4965174866,9.7409935,-0.5920188904,-0.007537646685,0.03713887185,-0.009699537419,5
6.614510583,-0.369282074,9.784702606,-0.5563929749,-0.008247860707,-0.005144122522,0.0003265989944,5
6.634554583,-0.3999682617,9.782606964,-0.5899232483,0.00230746367,-0.00784474425,0.003397382097,5
6.654598583,-0.5119354248,9.739945679,-0.6261479187,-0.001958439359,0.02108542621,-0.0007447672542,5
6.674642583,-0.5093907166,9.749226379,-0.599203949,-0.001343009761,-0.008273781277,0.001326445723,5
6.694685583,-0.4578977966,9.782906342,-0.5023553467,0.005238235928,-0.03144558892,0.002454306232,5
6.714729583,-0.4393363953,9.769883423,-0.4939727783,-0.00513740303,-0.004955481272,-0.004629652016,5
6.734773583,-0.4483177185,9.764794006,-0.5812413025,-0.01199870743,-0.005359319504,-0.002862670459,5
6.754817583,-0.4640350342,9.783355408,-0.5483097839,-0.006628710311,-0.0240736194,0.001905452926,5
6.774860583,-0.4427792358,9.798773346,-0.5108876038,-0.006914896891,0.002765480662,0.001080141403,5
6.794904583,-0.3803590393,9.770332489,-0.528999939,-0.006490936503,0.003342218697,0.004334439524,5
6.814948583,-0.4242178345,9.738748169,-0.609382782,-0.004700212739,-0.02621290833,0.006942291744,5
6.834992583,-0.4978646851,9.758656769,-0.5469625854,-0.00209767092,0.001625190256,-0.001080989605,5
6.855035583,-0.490380249,9.760602722,-0.5246589661,-0.006218217313,0.01617267728,-0.01175121497,5
6.875079583,-0.406255188,9.772278442,-0.5267546082,0.003063002368,-0.01597857103,-0.006729820743,5
6.895123583,-0.3915856934,9.783505096,-0.5182223511,0.006394756027,-0.01539353281,0.001346534351,5
6.915167583,-0.4722679138,9.780511322,-0.6074368286,-0.004447581246,0.008403630927,-0.001762785017,5
6.935210583,-0.528999939,9.768536224,-0.6045927429,0.006143102422,0.005232218187,-0.005877207033,5
6.955254583,-0.4435276794,9.731862488,-0.4891827393,0.002283443697,0.004875030369,-0.006689475849,5
6.975298583,-0.3685336304,9.782906342,-0.5092410278,-0.001994506922,-0.01858200319,-0.0001336813439,5
6.995342583,-0.4195774841,9.779463501,-0.5415737915,0.004577427171,-0.02842742763,0.0005604738835,5
7.015385583,-0.5099894714,9.747729492,-0.5481600952,0.00424826052,0.01060492545,-0.005418589339,5
7.035429583,-0.4314028931,9.788444824,-0.5049000549,-0.001906214282,0.02242444828,-0.005487400107,5
7.055473583,-0.3908372498,9.788145447,-0.5035528564,0.006219229661,-0.00844697468,0.001686409116,5
7.075517583,-0.4731660461,9.761800232,-0.590072937,0.004278583918,-0.0005171461962,-0.001799935242,5
7.095560583,-0.5804928589,9.755363617,-0.6096821594,0.002375819022,0.01753072627,-0.005338769406,5
7.115604583,-0.5038522339,9.751920776,-0.4599934387,0.01541545428,0.00235816557,-0.007104711607,5
7.135648583,-0.4047583008,9.765841827,-0.5526507568,0.01720358804,-0.01845504344,-0.005025397986,5
7.155692583,-0.4631369019,9.773625641,-0.6072871399,0.01865543053,0.01822422817,-0.009532640688,5
7.175735583,-0.5105882263,9.765841827,-0.5701643372,0.01918587089,0.009860362858,-0.008791477419,5
7.195779583,-0.5025050354,9.740245056,-0.5614823914,0.01000516675,-0.02137277462,-0.006080805324,5
7.215823583,-0.4770579529,9.798024902,-0.4908293152,0.005571040325,-0.02679319493,0.001624568366,5
7.235867583,-0.4282594299,9.79592926,-0.535436554,0.003388476791,-0.02626591921,0.005133811384,5
7.255910583,-0.3902384949,9.766590271,-0.528999939,-0.0009885525797,0.002516357228,0.001900767209,5
7.275954333,-0.3501219177,9.763596497,-0.5272036743,-0.005112787709,-0.0006582937203,0.003966873977,5
7.295998333,-0.4285588074,9.75386673,-0.5846841431,-0.001161391614,-0.0194491297,0.0006301731337,5
7.316042333,-0.4891827393,9.773026886,-0.5126838684,0.0112947179,0.004250090104,-0.004187143408,5
7.336085333,-0.4302053833,9.75970459,-0.5210664368,0.004124196246,0.02609986253,-0.004422802944,5
7.356129333,-0.4156855774,9.790540466,-0.5397775269,0.006859946996,-0.002782829572,-0.0004100603983,5
7.376173333,-0.4448748779,9.745783539,-0.6265969849,0.01036195457,-0.03119961917,0.005280958489,5
7.396217333,-0.4954696655,9.736951904,-0.5572911072,0.00631306041,0.0003056973219,0.003099400783,5
7.416260333,-0.4787045288,9.780511322,-0.4926255798,-0.004101648927,0.00332510029,0.001821191516,5
7.436304333,-0.4429289246,9.786498871,-0.4944218445,0.008398569189,-0.006265800446,-0.001553779468,5
7.456348333,-0.4475692749,9.739047546,-0.5352868652,0.01159532741,0.02136255428,-0.006222858094,5
7.476392333,-0.4098477173,9.738149414,-0.6819818115,0.009436097927,0.007948155515,-0.0005370147992,5
7.496435333,-0.4311035156,9.781858521,-0.6038442993,0.01760269701,-0.01346142683,0.002000796143,5
7.516479333,-0.5234614563,9.770332489,-0.4990621948,0.01455627009,0.02709913626,-0.004422269296,5
7.536523333,-0.4948709106,9.761949921,-0.512384491,0.005514088087,0.024727121,-0.002738992218,5
7.556567333,-0.4617897034,9.769284668,-0.5665718079,0.01106200926,-0.01067558117,0.005920753814,5
7.576610333,-0.4876858521,9.767638092,-0.6240522766,0.008974762633,0.006200012751,0.006137320772,5
7.596654333,-0.5140310669,9.776320038,-0.6047424316,0.00583260227,0.02474070154,0.005970610306,5
7.616698333,-0.4758604431,9.794582062,-0.5246589661,0.008873702027,0.01193320565,0.004388209432,5
7.636742333,-0.4390370178,9.771679688,-0.5417234802,0.002518742811,0.005048297346,0.003652142826,5
7.656785333,-0.4890330505,9.782008209,-0.6517446899,0.01251230296,0.0339191556,0.0006621018983,5
7.676829333,-0.4659809875,9.729018402,-0.6015989685,0.03022649884,0.03939681873,-0.001840921352,5
7.696873333,-0.4532574463,9.707912292,-0.689765625,0.03292644769,-0.007486669347,0.005760833621,5
7.716917333,-0.5138813782,9.749226379,-0.5661227417,0.03316884488,0.02027631365,0.001636286266,5
7.736960333,-0.5062472534,9.769434357,-0.5233117676,0.02195414715,0.02498845011,0.0003958381712,5
7.757004333,-0.4412823486,9.781110077,-0.6256988525,0.005108930171,-0.01583962701,0.005879897624,5
7.777048333,-0.4170327759,9.778565369,-0.6390211487,-0.003336624941,-0.01530880015,0.009424246848,5
7.797092333,-0.4346960449,9.727521515,-0.6701564026,0.003799874336,-0.001493135002,0.01359228417,5
7.817135333,-0.3978726196,9.77257782,-0.5257067871,0.02157175727,0.008427184075,0.01006287616,5
7.837179333,-0.3212319946,9.764045563,-0.5848338318,0.007990561426,0.007457320113,0.00577646587,5
7.857223333,-0.3471281433,9.769284668,-0.6647676086,0.01258060988,-0.006975803059,0.004303898197,5
7.877267333,-0.4833448792,9.752968597,-0.6938072205,0.01703176275,0.01449143887,-0.004412739538,5
7.897310333,-0.5411247253,9.757908325,-0.6551875305,0.0004105449189,0.03029839322,-0.005560824648,5
7.917354333,-0.5093907166,9.793534241,-0.6366261292,-0.001150826924,-0.01765168831,5.87394461e-05,5
7.937398333,-0.4963677979,9.762249298,-0.6005511475,0.004671615083,-0.02955813333,0.004339582287,5
7.957442333,-0.4052073669,9.725126495,-0.5616320801,0.01212766767,-0.01220524125,0.006483160425,5
7.977486333,-0.3629951477,9.745184784,-0.6180647278,0.01566937752,-0.01705244556,0.006826249883,5
7.997529333,-0.3528163147,9.783954163,-0.6243516541,0.01662454195,-0.02928909473,0.004962975625,5
8.017573333,-0.4086502075,9.767488403,-0.6982978821,0.01860328205,-0.008780209348,-0.0006426067557,5
8.037617333,-0.4317022705,9.754465485,-0.5960604858,0.009819203056,0.03100916184,-0.008615416475,5
8.057661333,-0.4189787292,9.779014435,-0.5593867493,0.01393691637,0.002091376111,1.673493534e-05,5
8.077704333,-0.3788621521,9.779014435,-0.6212081909,0.02065975033,-0.008290750906,0.00816132687,5
8.097748333,-0.3839515686,9.750723267,-0.6941065979,0.02129152976,0.007125801407,8.536945097e-05,5
8.117792333,-0.4300556946,9.754615173,-0.6566844177,0.02180438861,0.02054770477,-0.006307522301,5
8.137836333,-0.4343966675,9.772877197,-0.6593788147,0.02853985503,0.001363519579,-0.005976784043,5
8.157879333,-0.4248165894,9.732161865,-0.7247927856,0.02750564925,-0.007834048942,-0.004880651832,5
8.177923333,-0.4426295471,9.75970459,-0.7711962891,0.02766007185,0.01248950977,-0.0008686096407,5
8.197967333,-0.4252656555,9.762848053,-0.6969506836,0.02712168172,0.02714544907,0.00452669384,5
8.218011333,-0.3830534363,9.784103851,-0.6985972595,0.02014520019,0.007699949201,0.008803490549,5
8.238054333,-0.352666626,9.792187042,-0.6313870239,0.01648938097,-0.004187410697,0.006879866123,5
8.258098333,-0.3737727356,9.776170349,-0.6843768311,0.002101688879,0.01878599264,0.001565044397,5
8.278142458,-0.4267625427,9.770931244,-0.7295828247,-0.00140845729,0.03471428528,0.0003074770793,5
8.298186458,-0.4381388855,9.74802887,-0.7694000244,0.01113383938,0.01370161958,0.0006313703489,5
8.318229458,-0.4129911804,9.775122528,-0.719254303,0.0145505378,0.0115396753,-0.0006156000309,5
8.338273458,-0.4231700134,9.774224396,-0.6837780762,0.0131238047,0.002328071743,0.001445366652,5
8.358317458,-0.4372407532,9.741292877,-0.6956034851,0.01910361834,-0.006584259681,7.501104847e-05,5
8.378361458,-0.4406835938,9.740843811,-0.7777825928,0.02156485803,0.007443442475,-0.0005240435712,5
8.398404458,-0.4185296631,9.743987274,-0.716559906,0.01984952949,0.02766279504,-0.009675912559,5
8.418448458,-0.4180805969,9.760453033,-0.7084767151,0.01744449139,0.01759541035,-0.01355297025,5
8.438492458,-0.4189787292,9.764794006,-0.6746470642,0.02912318893,0.01449159998,-0.01310579851,5
8.458536458,-0.4206253052,9.744586029,-0.7539820862,0.02249351703,0.01253444329,-0.01235265657,5
8.478580458,-0.4275109863,9.76673996,-0.7366181946,0.02194727771,0.008341796696,-0.01220985781,5
8.498623458,-0.4170327759,9.778116302,-0.6882687378,0.01863539591,0.005766551942,-0.009707870893,5
8.518667458,-0.4453239441,9.772278442,-0.7089257812,0.01591094211,0.01226613112,-0.005893186666,5
8.538711458,-0.4546046448,9.744885406,-0.7515870667,0.01520023216,0.01448420435,-0.007709278725,5
8.558755458,-0.4451742554,9.753717041,-0.7961943054,0.01183310896,0.01988170668,-0.01063574385,5
8.578798458,-0.4567002869,9.777517548,-0.7586224365,0.01520723104,0.01916022599,-0.01041523833,5
8.598842458,-0.4613406372,9.749825134,-0.7797285461,0.01522485912,0.01592316851,-0.007894420996,5
8.618886458,-0.4923262024,9.754315796,-0.8116122437,0.01292582881,0.006388031878,-0.01171438023,5
8.638930458,-0.4872367859,9.729018402,-0.8560697937,0.02167471871,0.0007442012429,-0.01078168862,5
8.658973458,-0.4626878357,9.768985291,-0.8020321655,0.02871653624,0.01698153839,-0.01269876026,5
8.679017458,-0.4279600525,9.786199493,-0.7929011536,0.02369491756,0.01513081975,-0.01284305379,5
8.699061458,-0.4583468628,9.741143188,-0.8122109985,0.02520348504,-0.021363765,-0.004673404619,5
8.719105458,-0.5373825073,9.723928986,-0.8756790161,0.02274792269,-0.03596113995,-0.004928482696,5
8.739148458,-0.5577401733,9.7609021,-0.8414002991,0.004067522008,-0.0247507859,-0.01253732014,5
8.759192458,-0.4872367859,9.800569611,-0.806073761,-0.02870579436,-0.04288234189,-0.009478067979,5
8.779236458,-0.4679269409,9.773026886,-0.8104147339,-0.06592027843,-0.08925516903,0.001670722966,5
8.799280458,-0.486638031,9.770931244,-0.8122109985,-0.08674987406,-0.1144646332,0.01107687596,5
8.819323458,-0.5035528564,9.749076691,-0.7595205688,-0.09895195812,-0.1278628707,0.01264137682,5
8.839367458,-0.4679269409,9.711953888,-0.8009843445,-0.1125919297,-0.1552421898,0.02119414508,5
8.859411458,-0.4200265503,9.701475677,-0.8208929443,-0.1219009906,-0.1954279393,0.02774386853,5
8.879455458,-0.4537065125,9.714348907,-0.7676037598,-0.1202744395,-0.2154804319,0.03278723359,5
8.899498458,-0.523611145,9.773026886,-0.5803431702,-0.1164200604,-0.1975260824,0.03595735133,5
8.919542458,-0.5442681885,9.799821167,-0.4526586914,-0.1136521176,-0.175063014,0.03488913178,5
8.939586458,-0.4661306763,9.81583786,-0.460891571,-0.1074252427,-0.176152721,0.03696075082,5
8.959630458,-0.4326004028,9.795629883,-0.510737915,-0.1129952371,-0.1763405949,0.03974945098,5
8.979673458,-0.374072113,9.783654785,-0.5047503662,-0.1075603142,-0.1593514383,0.02967711166,5
8.999717458,-0.3863465881,9.780361633,-0.5162763977,-0.08698907495,-0.1215111166,0.01562994719,5
9.019761458,-0.4815486145,9.777367859,-0.5792953491,-0.06690081209,-0.08809922636,0.0006688695867,5
9.039805458,-0.5239105225,9.747430115,-0.5637277222,-0.05074835196,-0.04470131174,-0.01560600474,5
9.059849458,-0.4933740234,9.776469727,-0.4508624268,-0.01398107409,-0.007583179045,-0.02198693343,5
9.079892458,-0.4426295471,9.806257782,-0.4418811035,0.003958384041,0.009885501117,-0.01895460673,5
9.099936458,-0.4083508301,9.741741943,-0.5408253479,0.01786898449,0.008172245696,-0.01887191832,5
9.119980458,-0.4885839844,9.739496613,-0.6165678406,0.03096229024,0.01519520953,-0.02307965979,5
9.140024458,-0.532742157,9.737101593,-0.5974076843,0.03791093081,0.02030470408,-0.02359585837,5
9.160067458,-0.527353363,9.766290894,-0.5110372925,0.0432879068,0.0241809506,-0.0186302606,5
9.180111458,-0.5122348022,9.788744202,-0.4396357727,0.0396476984,0.01840524934,-0.01279956289,5
9.200155458,-0.4604425049,9.776918793,-0.403560791,0.04074718803,0.014665314,-0.00194180198,5
9.220199458,-0.4562512207,9.784702606,-0.5101391602,0.0276779402,0.009534985758,-0.0003277950455,5
9.240242458,-0.4535568237,9.784852295,-0.5840853882,0.006409378722,0.00888887234,-0.003459350904,5
9.260286458,-0.4722679138,9.796677704,-0.5312452698,-0.00428326102,-0.009697124362,0.00434861239,5
9.280330208,-0.460891571,9.780661011,-0.4827461243,-0.005905662198,-0.02291434444,0.0140686417,5
9.300374208,-0.4725672913,9.796977081,-0.444276123,-0.006529752165,-0.01243529655,0.01293826662,5
9.320417208,-0.3930825806,9.809401245,-0.5222639465,-0.009560823441,0.002602184191,0.01380357984,5
9.340461208,-0.385897522,9.789941711,-0.5935157776,-0.001299724681,0.002676236443,0.01917072758,5
9.360505208,-0.4923262024,9.77841568,-0.6542893982,0.002157451585,0.002065366367,0.01190051064,5
9.380549208,-0.4942721558,9.767787781,-0.5872288513,0.004972579423,0.01458640862,0.004087569658,5
9.400592208,-0.4569996643,9.733509064,-0.5239105225,0.01822937652,0.00767328497,-0.002677285811,5
9.420636208,-0.4605921936,9.748178558,-0.6249504089,0.01237355266,0.01632231846,-0.009506112896,5
9.440680208,-0.4444258118,9.754315796,-0.67045578,0.002283141017,0.03702426702,-0.01220679563,5
9.460724208,-0.4447251892,9.7900914,-0.5773493958,0.01091028564,0.01890605874,-0.003094766755,5
9.480768208,-0.4251159668,9.812694397,-0.5513035583,0.02001165412,-0.005634602625,0.007739588618,5
9.500811208,-0.4297563171,9.799821167,-0.5498066711,0.01416107826,0.006554789841,0.004590102937,5
9.520855208,-0.4068539429,9.788145447,-0.5516029358,0.004294777755,0.02044617757,0.00104205613,5
9.540899208,-0.4029620361,9.761650543,-0.5858816528,0.002015163423,0.01303301752,0.00223368872,5
9.560943208,-0.4596940613,9.778715057,-0.6354286194,-0.00924044475,0.02046879753,0.002195393667,5
9.580986208,-0.5132826233,9.787247314,-0.5875282288,-0.01778822951,0.02948596701,0.003146140603,5
9.601030208,-0.4887336731,9.800270233,-0.5310955811,-0.01607367024,0.01485146582,0.006747348234,5
9.621074208,-0.4550537109,9.810748444,-0.5415737915,-0.01439648867,0.001075420761,0.009263688698,5
9.641118208,-0.4631369019,9.756860504,-0.6071374512,-0.01392852329,-0.004017012659,0.006647558883,5
9.661161208,-0.4987628174,9.729766846,-0.620609436,-0.001946845558,-0.002210148145,0.003514457261,5
9.681205208,-0.5394781494,9.737550659,-0.6581813049,-0.002568097319,0.02051343769,-0.001882731682,5
9.701249208,-0.5465135193,9.763297119,-0.595461731,-0.01009373367,0.03073593415,-0.003068717197,5
9.721293208,-0.4376898193,9.815239105,-0.4888833618,-0.01228196546,0.01378537435,-0.0002802012023,5
9.741336208,-0.4245172119,9.805808716,-0.4948709106,-0.01012951136,-0.01979289949,0.007903078571,5
9.761380208,-0.5041516113,9.7409935,-0.6219566345,-0.01168622822,-0.03834109381,0.01083972119,5
9.781424208,-0.5219645691,9.734407196,-0.5575904846,-0.006355799269,-0.02396645583,0.004337211605,5
9.801468208,-0.4891827393,9.77602066,-0.4219725037,0.005850738846,0.003731274046,-0.001439714571,5
9.821511208,-0.4701722717,9.808203735,-0.3025209045,0.0212316718,0.0627021417,-0.01081311051,5
9.841555208,-0.3724255371,9.809700623,-0.4215234375,-0.002437781543,0.08060972393,-0.00704348553,5
9.861599208,-0.270637207,9.711205444,-0.5667214966,-0.01985000819,-0.02170145325,0.006947298534,5
9.881643208,-0.383203125,9.749226379,-0.5993536377,0.01413082052,-0.06912422925,0.007760067005,5
9.901687208,-0.5152285767,9.823172607,-0.4833448792,0.02797704004,0.03542941809,-0.008194583468,5
9.921730208,-0.5038522339,9.788594513,-0.3763174438,0.03136322647,0.1379579008,-0.01320952829,5
9.941774208,-0.3861968994,9.737700348,-0.3213816833,0.02960699797,0.0981586054,-0.002730309498,5
9.961818208,-0.2418969727,9.68366272,-0.5894741821,0.005312247202,-0.02094451152,0.01315121166,5
9.981862208,-0.384250946,9.697583771,-0.6192622375,0.02336793393,-0.001353914849,0.01769951731,5
10.00190521,-0.4980143738,9.867779846,-0.4076023865,0.05760968104,0.09372048825,0.01316058636,5
10.02194921,-0.3743714905,9.735455017,-0.5155279541,0.06023393199,0.08682665229,0.02532465383,5
10.04199321,-0.2516267395,9.680219879,-0.7279362488,0.0128482068,0.01018559374,0.01570662111,5
10.06203721,-0.3441343689,9.807754669,-0.5554948425,-0.02998192981,0.01840979233,-0.004101544619,5
10.08208021,-0.5411247253,9.813442841,-0.2823129272,-0.0146044055,0.04170092195,-0.009828167036,5
10.10212421,-0.4966671753,9.749076691,-0.4746629333,0.009880773723,0.005093421787,0.000429345062,5
10.12216821,-0.4355941772,9.769584045,-0.7003935242,0.01052808482,-0.008657038212,-0.001326744212,5
10.14221221,-0.3847000122,9.774673462,-0.5888754272,0.004852597602,0.04224259406,-0.0123982504,5
10.16225521,-0.3460803223,9.794282684,-0.3823049927,0.02903395891,0.05077733472,-0.007321761921,5
10.18229921,-0.3656895447,9.774972839,-0.4840933228,0.02701637335,0.04413779452,-0.003502599662,5
10.20234321,-0.4113446045,9.793234863,-0.6397695923,0.02348430455,0.06567237526,-0.0120947035,5
10.22238721,-0.4746629333,9.75730957,-0.6060896301,0.04587230459,0.07469750196,-0.01324087381,5
10.24243121,-0.4984634399,9.737850037,-0.5840853882,0.06127578765,0.06528884917,-0.01797602698,5
10.26247446,-0.4993615723,9.777816925,-0.6948550415,0.05447960272,0.05977354944,-0.0218016319,5
10.28251846,-0.4481680298,9.787696381,-0.5153782654,0.04895558581,0.09014195949,-0.02253123373,5
10.30256246,-0.4242178345,9.788145447,-0.6072871399,0.03632419929,0.06445962191,-0.01449418534,5
10.32260646,-0.4334985352,9.744136963,-0.65758255,0.04461702704,0.01665496081,-0.002181486692,5
10.34264946,-0.5481600952,9.708960114,-0.7197033691,0.04274907336,0.009384383447,-0.00409933459,5
10.36269346,-0.5242098999,9.787846069,-0.5951623535,0.03446051851,0.04109251127,-0.01255220827,5
10.38273746,-0.40251297,9.749525757,-0.6349795532,0.01243519969,0.004164514132,-0.005004358478,5
10.40278146,-0.4302053833,9.743987274,-0.7496411133,0.02053480037,-0.02571986988,0.009172635153,5
10.42282446,-0.493074646,9.796528015,-0.6771917725,0.02137972042,0.02829721197,0.0025594451,5
10.44286846,-0.4604425049,9.785600739,-0.6677613831,0.001330122468,0.04373922199,-0.00304743927,5
10.46291246,-0.4143383789,9.765841827,-0.6938072205,0.01409442723,-0.01038060896,0.005443012342,5
10.48295646,-0.4370910645,9.71285202,-0.789458313,0.01748143509,-0.03187684342,0.004751921631,5
10.50300046,-0.4812492371,9.729916534,-0.6792874146,0.007558206096,0.02192989364,-0.01193459425,5
10.52304346,-0.4721182251,9.787247314,-0.5757028198,0.001345099998,0.03319219872,-0.008698692545,5
10.54308746,-0.4207749939,9.785900116,-0.7084767151,0.004456101917,0.005694500171,0.001967264572,5
10.56313146,-0.4150868225,9.768985291,-0.7798782349,0.008585359901,0.01986489818,0.002879053587,5
10.58317546,-0.4444258118,9.760453033,-0.7542814636,-0.0008037774824,0.02137813345,-0.0005774635356,5
10.60321846,-0.417481842,9.751621399,-0.6953041077,0.01509109605,0.004409964662,0.0007213333156,5
10.62326246,-0.4541555786,9.770631866,-0.6780899048,0.01604261622,0.03040562943,-0.006529042497,5
10.64330646,-0.4917274475,9.738897858,-0.7102729797,0.01130084693,0.04212791473,-0.008115860634,5
10.66335046,-0.4773573303,9.738748169,-0.7964936829,0.02048600093,0.02351435646,-0.008747748099,5
10.68339346,-0.4640350342,9.760752411,-0.6746470642,0.02064604312,0.03555547446,-0.01012281887,5
10.70343746,-0.4508624268,9.771829376,-0.7273374939,0.001407466363,0.01441990398,-0.001499481266,5
10.72348146,-0.476459198,9.788744202,-0.7295828247,0.007492256816,-0.02528756298,0.007495345548,5
10.74352546,-0.539178772,9.766141205,-0.7885601807,0.01148323715,0.004982498474,0.006237724796,5
10.76356846,-0.4857398987,9.746981049,-0.6526428223,0.004536313936,0.0423492007,-0.001393510262,5
10.78361246,-0.4146377563,9.770931244,-0.6864724731,-0.002342655091,-0.009701782838,0.003209285438,5
10.80365646,-0.4644841003,9.76314743,-0.7556286621,0.0006030674558,-0.02645706013,0.005268441513,5
10.82370046,-0.5819897461,9.721683655,-0.8352630615,0.0006671980955,0.01155662071,-0.005982748233,5
10.84374446,-0.5366340637,9.75506424,-0.6632707214,0.008728156798,0.01997676305,-0.005852519069,5
10.86378746,-0.4005670166,9.774224396,-0.6755451965,0.009845087305,-0.009285250679,0.007546376903,5
10.88383146,-0.4468208313,9.76673996,-0.7149133301,0.01072801277,-0.01477463078,0.01150188968,5
10.90387546,-0.5571414185,9.73515564,-0.7556286621,0.001416042796,-0.00894057937,0.004711122252,5
10.92391946,-0.5426216125,9.775122528,-0.7454498291,-0.01303270739,-0.02472478524,0.004231165163,5
10.94396246,-0.5008584595,9.795480194,-0.7656578064,-0.01053713821,-0.04077778012,0.009612296708,5
10.96400646,-0.5084925842,9.725874939,-0.7544311523,-0.006664989516,-0.02410312369,0.006630435586,5
10.98405046,-0.4342469788,9.760153656,-0.7153623962,-0.007353134453,-0.01889415085,0.004677881487,5
11.00409446,-0.3826043701,9.765692139,-0.6966513062,0.0001541585661,-0.03661002219,0.00956228096,5
11.02413746,-0.4177812195,9.759854279,-0.7414082336,0.0002740037162,-0.02072298154,0.006295090076,5
11.04418146,-0.4908293152,9.744286652,-0.7518864441,0.009025671519,0.007511968724,-0.003609046806,5
11.06422546,-0.4891827393,9.744586029,-0.6896159363,0.007865864784,0.007296785712,-0.006258359179,5
11.08426946,-0.392334137,9.760453033,-0.7120692444,0.008460609242,-0.01039917581,0.002480004681,5
11.10431346,-0.4312532043,9.765392761,-0.7442523193,0.01037333068,-0.003821035847,0.003263001563,5
11.12435646,-0.4921765137,9.717492371,-0.6890171814,0.005416261964,0.02246723697,-0.0014454138,5
11.14440046,-0.4116439819,9.775421906,-0.7032376099,-0.006119017489,-0.0001644701697,0.003396239365,5
11.16444446,-0.4083508301,9.805209961,-0.7631130981,0.0002555884421,-0.014893719,0.006294264458,5
11.18448846,-0.4992118835,9.737251282,-0.6852749634,0.00565230567,0.00347589422,0.003183079185,5
11.20453146,-0.4790039062,9.74219101,-0.6885681152,-0.003243678482,-0.01036575343,0.001321290853,5
11.22457546,-0.3899391174,9.807155914,-0.6936575317,-0.004486245103,-0.02295808308,0.007389276754,5
11.24461946,-0.3951782227,9.74802887,-0.7714956665,-0.00188443996,-0.02763302252,0.007225491572,5
11.26466346,-0.4677772522,9.743089142,-0.7491920471,0.008726126514,0.01411602087,0.001230982249,5
11.28470646,-0.4216731262,9.760003967,-0.6894662476,0.001467441791,0.02166979387,0.003669027239,5
11.30475046,-0.3924838257,9.774074707,-0.693507843,-0.0004308079369,-0.01680115238,0.009418924339,5
11.32479446,-0.439486084,9.752220154,-0.6706054688,0.002235863591,-0.03150387108,0.006388407201,5
11.34483846,-0.492026825,9.761201477,-0.7372169495,0.004703866318,0.001695377752,-0.001539157005,5
11.36488246,-0.4068539429,9.771979065,-0.7126679993,0.006059466861,-0.003529198002,-0.001193878474,5
11.38492546,-0.3872447205,9.746681671,-0.7635621643,0.007755506784,-0.0211093165,0.002416356001,5
11.40496946,-0.413739624,9.753567352,-0.7084767151,0.01328227483,-0.003020738717,0.000390061643,5
11.42501346,-0.4553530884,9.744885406,-0.7611671448,0.01022699662,0.01419359259,0.001299239928,5
11.44505746,-0.4722679138,9.761351166,-0.7563771057,0.008493214846,0.007518749684,-0.003386299359,5
11.46510046,-0.4631369019,9.755662994,-0.7634124756,-0.00589476712,-0.0005968189798,0.0005411703605,5
11.48514446,-0.4345463562,9.782457275,-0.6653663635,-0.01108497381,-0.003682641312,0.000179966446,5
11.50518846,-0.4171824646,9.762249298,-0.7009922791,-0.006752086803,-0.01004897337,0.003519224003,5
11.52523246,-0.439486084,9.748477936,-0.7936495972,-0.006377770565,0.002712247893,0.0004243846051,5
11.54527546,-0.4058061218,9.765692139,-0.7228468323,-0.008966925554,0.008048763499,0.002250627149,5
11.56531946,-0.3555107117,9.75850708,-0.7328759766,-0.007729431614,-0.01817516237,0.00628630165,5
11.58536346,-0.4113446045,9.769284668,-0.742306366,-0.008100980893,-0.02268455923,0.009283395484,5
11.60540746,-0.4574487305,9.735005951,-0.7228468323,-0.00606594421,-0.009344341233,0.001679379144,5
11.62545146,-0.4418811035,9.769883423,-0.7195536804,0.006133947521,0.01062504202,-0.003946442157,5
11.64549446,-0.4146377563,9.780661011,-0.7171586609,-0.003858272219,0.02068979666,-0.01123926882,5
11.66553846,-0.3603007507,9.746232605,-0.7179071045,-0.004953057971,0.005046784878,-0.00902269315,5
11.68558246,-0.3927832031,9.790690155,-0.6676116943,0.01435356401,0.003305791412,-0.005684633739,5
11.70562646,-0.3977229309,9.771829376,-0.7864645386,0.001800742466,0.004859330133,-0.003051140346,5
11.72566946,-0.4249662781,9.764644318,-0.7548802185,0.003834686242,-0.003630899824,-0.003403823124,5
11.74571346,-0.4794529724,9.764195251,-0.6562353516,0.004341827706,-0.005607186351,-0.003773656441,5
11.76575746,-0.4926255798,9.747579803,-0.7210505676,-0.002549316501,-0.009192585945,-0.01220588945,5
11.78580146,-0.4167333984,9.768985291,-0.7080276489,0.01181016956,-0.001844008453,-0.01340921223,5
11.80584546,-0.3504212952,9.761500854,-0.7409591675,0.01565604098,0.0249449946,-0.0105143562,5
11.82588846,-0.3677851868,9.77377533,-0.8259823608,0.01066440251,0.01658235863,-0.008173251525,5
11.84593246,-0.4484674072,9.751322021,-0.7955955505,0.01302080601,-0.003649813589,-0.005499145947,5
11.86597646,-0.5349874878,9.763746185,-0.7011419678,0.01336570643,-0.007113440428,-0.008614007384,5
11.88602046,-0.5385800171,9.75266922,-0.7120692444,0.01455284469,-0.004923864268,-0.0124692237,5
11.90606346,-0.458795929,9.774224396,-0.6849755859,0.01473942026,0.0206188187,-0.01260278188,5
11.92610746,-0.4258644104,9.76434494,-0.7825726318,-0.0001588356681,0.0113611389,-0.01550322957,5
11.94615146,-0.4153862,9.739047546,-0.7927514648,0.004030225798,-0.01274247654,-0.008048668504,5
11.96619546,-0.490380249,9.757758636,-0.7741900635,0.01514257118,-0.00843388401,-0.006623584311,5
11.98623846,-0.5363346863,9.739646301,-0.7716453552,0.01221650839,0.01775823906,-0.01391335204,5
12.00628246,-0.4656816101,9.767638092,-0.7414082336,-0.001370358979,-0.01113779098,-0.01010806486,5
12.02632646,-0.4135899353,9.774523773,-0.7042854309,0.003606974147,-0.03729660064,0.000353524927,5
12.04637046,-0.4484674072,9.769733734,-0.7472460938,-0.005959012546,-0.01787051,-0.004480991513,5
12.06641446,-0.4984634399,9.750723267,-0.7283853149,0.0005847280845,-0.004124411847,-0.005584155209,5
12.08645746,-0.423918457,9.731712799,-0.6674620056,0.002461472759,-0.001599101815,-0.006659989711,5
12.10650146,-0.3914360046,9.767937469,-0.7518864441,-0.00340488716,-0.009600821882,-0.006095533259,5
12.12654546,-0.4626878357,9.756561127,-0.7783813477,0.004378885031,-0.006397481542,-0.006047169678,5
12.14658946,-0.5014572144,9.729467468,-0.7033872986,0.01164255384,-0.003269892652,-0.01199214533,5
12.16663246,-0.4914280701,9.768835602,-0.7828720093,0.009219748899,0.001930935308,-0.01310129836,5
12.18667646,-0.4396357727,9.773326263,-0.7188052368,0.007037530653,0.01453830861,-0.01149429288,5
12.20672046,-0.4725672913,9.764045563,-0.7197033691,0.004063134082,0.002354540396,-0.007650101557,5
12.22676446,-0.5248086548,9.757758636,-0.7881111145,0.004084200598,-0.004348652903,-0.005059722811,5
12.24680846,-0.5361849976,9.74802887,-0.7746391296,0.006574677303,-0.01370776165,-0.008333949372,5
12.26685496,-0.5180726624,9.768685913,-0.8069718933,0.003862688784,-0.00847665593,-0.01102549676,5
12.28689896,-0.4936734009,9.751022644,-0.7078779602,0.005413968116,0.01327003539,-0.01371779386,5
12.30694296,-0.4769082642,9.715396729,-0.7250921631,0.003715921659,-0.01542269625,-0.00629511103,5
12.32698696,-0.4831951904,9.735005951,-0.7801776123,0.00675840769,-0.03056155518,-0.004062156193,5
12.34702996,-0.5379812622,9.766290894,-0.7092251587,0.007465071045,-0.006195704453,-0.008193837479,5
12.36707396,-0.5113366699,9.769883423,-0.7301815796,0.006698737852,0.006244028453,-0.009423446842,5
12.38711796,-0.4896318054,9.73156311,-0.7685018921,0.005602138583,0.00223531737,-0.01004433446,5
12.40716196,-0.503253479,9.717791748,-0.7786807251,0.001558788237,-0.01137204468,-0.009441981092,5
12.42720496,-0.533789978,9.747729492,-0.7186555481,0.01389274932,-0.002016996499,-0.009292604402,5
12.44724896,-0.5385800171,9.761650543,-0.7295828247,0.01213924587,0.02114238776,-0.009616233408,5
12.46729296,-0.5023553467,9.792785797,-0.8428971863,-0.003767140675,0.02468641475,-0.009117128327,5
12.48733696,-0.5013075256,9.763746185,-0.746048584,-0.005467187613,0.005288391374,-0.003519059159,5
12.50738096,-0.5745053101,9.749825134,-0.8084687805,0.001895550988,0.001554613234,-0.001436731778,5
12.52742396,-0.6065386963,9.758656769,-0.796942749,0.01216006093,0.001571430126,0.002350680064,5
12.54746796,-0.5804928589,9.737999725,-0.7828720093,0.009914646856,-0.01758284867,0.002401015954,5
12.56751196,-0.549357605,9.754615173,-0.7692503357,-0.003741068998,-0.01615260914,0.001177932252,5
12.58755596,-0.5156776428,9.759554901,-0.7117698669,-0.0002328474075,-0.02100768685,-0.0002542883158,5
12.60759896,-0.5713618469,9.756261749,-0.8105644226,0.001268531079,-0.03053723648,-0.001900524134,5
12.62764296,-0.586330719,9.722132721,-0.844094696,0.008597077802,-0.02217709459,-0.003087758785,5
12.64768696,-0.4926255798,9.738299103,-0.7616162109,0.01681630313,-0.008713411167,-0.002437068382,5
12.66773096,-0.3787124634,9.763746185,-0.6953041077,0.009127516299,0.01474853698,0.0001283013262,5
12.68777496,-0.4108955383,9.76314743,-0.7966433716,0.003589893458,0.0003805560991,0.003947406542,5
12.70781796,-0.5909710693,9.746531982,-0.8662486267,0.005282556638,0.0004640961997,-0.0008156597614,5
12.72786196,-0.6283932495,9.750723267,-0.7670050049,0.009846735746,0.01209275518,-0.006520041265,5
12.74790596,-0.4944218445,9.771080933,-0.7219487,0.006696025841,0.002652693773,-0.003127360018,5
12.76794996,-0.4372407532,9.767787781,-0.7692503357,-0.002252207138,-0.002621046733,0.004802627489,5
12.78799296,-0.5050497437,9.763596497,-0.8039781189,-0.0002649957314,-0.00595385721,0.008889488876,5
12.80803696,-0.6050418091,9.728569336,-0.8384065247,0.008263420314,-0.0005981200375,0.004444244318,5
12.82808096,-0.5837860107,9.753717041,-0.8277786255,0.009088407271,0.0009175403975,0.003909750376,5
12.84812496,-0.5007087708,9.770931244,-0.8020321655,-0.003112256993,-0.005283585284,0.007298436482,5
12.86816896,-0.4882846069,9.773625641,-0.7426057434,-0.003607653314,0.001580913551,0.009256229736,5
12.88821196,-0.5270539856,9.715995483,-0.775537262,-0.001996734412,-0.009465059265,0.00718570454,5
12.90825596,-0.5589376831,9.729916534,-0.8881031799,0.001480984502,-0.004667135887,0.006252266467,5
12.92829996,-0.5361849976,9.75730957,-0.7652087402,0.0003450585064,0.004430560861,0.004426749889,5
12.94834396,-0.5093907166,9.751621399,-0.7241940308,-0.005863810889,0.00633342145,0.003913238645,5
12.96838696,-0.4529580688,9.768087158,-0.7092251587,0.0002595982514,0.002635304816,0.008397441357,5
12.98843096,-0.4547543335,9.724078674,-0.8768765259,-0.001899044495,-0.001543286722,0.00656582322,5
13.00847496,-0.4833448792,9.746082916,-0.8138575745,-0.002518459922,0.004736630246,0.002143967431,5
13.02851896,-0.5051994324,9.766590271,-0.7770341492,-0.001317473827,0.01649121195,0.00125470839,5
13.04856296,-0.5132826233,9.751022644,-0.7957452393,-0.009562620893,0.01589732617,0.005329078529,5
13.06860596,-0.5348377991,9.758806458,-0.789458313,-0.01163364947,-0.006306017283,0.01275730319,5
13.08864996,-0.5405259705,9.769584045,-0.7722441101,-0.01302566752,-0.01061331853,0.01347137336,5
13.10869396,-0.5355862427,9.779762878,-0.8246351624,-0.008891010657,-0.009553833865,0.01114300173,5
13.12873796,-0.5292993164,9.727671204,-0.8072712708,-0.002983435756,-0.005719855893,0.0080000991,5
13.14878096,-0.479153595,9.71868988,-0.7873626709,-0.01117857825,-0.01148602925,0.006037909072,5
13.16882496,-0.4586462402,9.782906342,-0.7777825928,-0.007840659469,-0.005424335599,0.008718725294,5
13.18886896,-0.4526586914,9.752369843,-0.7580236816,-0.002987899352,0.0006415331736,0.01094632782,5
13.20891296,-0.4773573303,9.71644455,-0.8422984314,0.001763330773,-0.00522638578,0.0102596581,5
13.22895696,-0.5126838684,9.756860504,-0.7961943054,-0.005356638692,0.0009476840496,0.005660506897,5
13.24899996,-0.4757107544,9.75730957,-0.707428894,-0.004796754569,0.004155125003,0.003772248514,5
13.26904008,-0.4369413757,9.753417664,-0.715512085,0.0004942591768,0.01338400505,0.005937268026,5
13.28908408,-0.4249662781,9.735305328,-0.8170010376,-0.003431391669,0.01182516664,0.008789353073,5
13.30912808,-0.4956193542,9.747879181,-0.8794212341,-0.01511554513,-0.001491019037,0.008727885783,5
13.32917108,-0.5197192383,9.735754395,-0.7592211914,-0.0193390213,-0.02370637842,0.01336034667,5
13.34921508,-0.5599855042,9.762548676,-0.773890686,-0.02494110912,-0.01539817359,0.006381853018,5
13.36925908,-0.5177732849,9.761800232,-0.7348219299,-0.0290894676,0.004834192805,-0.001020773081,5
13.38930308,-0.4129911804,9.779014435,-0.7144642639,-0.02249389328,-0.02060207352,0.004418892786,5
13.40934708,-0.4484674072,9.731862488,-0.8164022827,-0.02406632528,-0.04295134917,0.004417029209,5
13.42939008,-0.4034111023,9.751621399,-0.7527845764,-0.01465524826,-0.02109079063,0.002637238475,5
13.44943408,-0.4149371338,9.797575836,-0.7041357422,0.009006559849,0.002854262246,0.004438466392,5
13.46947808,-0.4047583008,9.726623383,-0.7735913086,-0.002247564727,0.01745909639,0.004325228278,5
13.48952208,-0.4296066284,9.731263733,-0.732127533,-0.002178553026,0.02077145129,0.003659226932,5
13.50956608,-0.4549040222,9.748178558,-0.7297325134,0.005565096624,-0.001113373321,0.005457179155,5
13.52960908,-0.4463717651,9.776918793,-0.726738739,0.007519956678,0.005757926032,0.005243354943,5
13.54965308,-0.4785548401,9.754315796,-0.715512085,-0.004152905196,0.02810570598,0.004639642313,5
13.56969708,-0.4890330505,9.76554245,-0.7195536804,-0.01477974094,0.01387001202,0.005649564788,5
13.58974108,-0.479153595,9.739346924,-0.7426057434,-0.01753540523,-0.01526085287,0.009505132213,5
13.60978408,-0.4987628174,9.753118286,-0.7614665222,-0.01486446895,-0.02140368521,0.01599725336,5
13.62982808,-0.4776567078,9.75386673,-0.7520361328,0.002747523366,0.0247121118,0.01098923013,5
13.64987208,-0.4043092346,9.776320038,-0.7195536804,0.005083748139,0.04459694773,0.008793481626,5
13.66991608,-0.3962260437,9.74443634,-0.8110134888,-0.001592780929,0.001213617623,0.01094911993,5
13.68995908,-0.4691244507,9.753118286,-0.7780819702,0.003047304694,-0.02364757471,0.004963137209,5
13.71000308,-0.5231620789,9.77257782,-0.699944458,0.01682152972,-0.01231062226,-0.001693009632,5
13.73004708,-0.5040019226,9.729916534,-0.8050259399,0.01381471846,0.01017735153,-0.009381288663,5
13.75009108,-0.4632865906,9.749226379,-0.715512085,0.01685649529,0.02227323502,-0.00394330034,5
13.77013508,-0.4218228149,9.751022644,-0.7300318909,-0.001274890732,-0.01304855105,0.001190342824,5
13.79017808,-0.3800596619,9.755363617,-0.6993457031,-0.002597988583,-0.0236893408,-0.001696017338,5
13.81022208,-0.3378474426,9.769883423,-0.6849755859,0.003257506993,-0.02007708326,0.002583120018,5
13.83026608,-0.4236190796,9.773925018,-0.7500901794,-0.001664229436,0.0183949545,-0.00408024434,5
13.85031008,-0.3617976379,9.783505096,-0.7182064819,-0.01110482123,0.009155184962,-0.001452871365,5
13.87035408,-0.3484753418,9.74443634,-0.7812254333,-0.003716830397,-0.03468772769,0.00450792117,5
13.89039708,-0.4767585754,9.763297119,-0.750838623,0.004179441836,-0.001271714456,-0.0007920356002,5
13.91044108,-0.5164260864,9.745035095,-0.7047344971,0.008452245034,0.03248809278,-0.008983471431,5
13.93048508,-0.4610412598,9.753118286,-0.7821235657,-0.006094007753,0.002080542967,-0.007047293242,5
13.95052908,-0.4556524658,9.760153656,-0.7447013855,-0.01082068589,-0.03121224418,-0.002832603408,5
13.97057208,-0.4456233215,9.768536224,-0.6861730957,-0.00194757781,-0.02270625904,-0.001232950483,5
13.99061608,-0.479153595,9.748477936,-0.7801776123,0.007277167402,0.01371878944,-0.00699184835,5
14.01066008,-0.4851411438,9.722881165,-0.7927514648,0.009633305483,0.02954581939,-0.01286702324,5
14.03070408,-0.4182302856,9.747729492,-0.7418572998,0.001141431509,-0.006050914526,-0.006623851135,5
14.05074808,-0.37676651,9.757908325,-0.6819818115,0.0006760535762,-0.01861315407,-0.00264852494,5
14.07079108,-0.4535568237,9.75970459,-0.7054829407,-0.001517616445,-0.002163107973,-0.007998499088,5
14.09083508,-0.5023553467,9.750573578,-0.7696994019,0.004083985463,0.01750552654,-0.01315719727,5
14.11087908,-0.4815486145,9.773326263,-0.7909552002,0.006672311574,0.02162836678,-0.01443738025,5
14.13092308,-0.4158352661,9.73515564,-0.7378157043,-0.004990357906,0.01189074293,-0.0125432061,5
14.15096708,-0.4746629333,9.751322021,-0.7003935242,0.004035428166,-0.00389370136,-0.004667760804,5
14.17101008,-0.535436554,9.777667236,-0.765358429,0.005666396581,0.002935508033,-0.005325932987,5
14.19105408,-0.5408253479,9.755662994,-0.8017327881,0.001043354743,0.01814753562,-0.00778163597,5
14.21109808,-0.4833448792,9.776320038,-0.7225474548,0.0002173418179,0.01025933214,-0.004861451685,5
14.23114208,-0.4472698975,9.738448792,-0.7399113464,-0.007468716241,-0.006131484173,-0.002515316475,5
14.25118508,-0.4840933228,9.806257782,-0.6993457031,-0.002910731593,0.0007106128614,-0.003164670896,5
14.271229,-0.4858895874,9.756710815,-0.7273374939,0.004376197699,0.003088932484,-0.006847396493,5
14.291273,-0.48559021,9.723030853,-0.8379574585,0.01118775271,-0.0009389817715,-0.005408332683,5
14.311317,-0.4878355408,9.723030853,-0.7723937988,0.001386584947,0.004268193152,-0.007888294756,5
14.331361,-0.4849914551,9.77841568,-0.7111711121,-0.002071947092,0.01087673567,-0.01019422058,5
14.351404,-0.4314028931,9.768835602,-0.6948550415,0.002451936714,0.01583742723,-0.006944815628,5
14.371448,-0.4213737488,9.772877197,-0.7441026306,-0.001711116405,0.01787527651,-0.00698582828,5
14.391492,-0.4616400146,9.766590271,-0.7828720093,-0.008555464447,-0.003389564343,-0.0009475911502,5
14.411536,-0.5040019226,9.722581787,-0.7683522034,0.006913379766,-0.006788349245,-0.0004130410962,5
14.43158,-0.532742157,9.738448792,-0.7726931763,0.008642785251,0.01756997406,-0.006886784919,5
14.451623,-0.4921765137,9.788594513,-0.6807843018,-0.003264765022,0.02874056995,-0.007852661423,5
14.471667,-0.4393363953,9.748477936,-0.7066804504,-0.01476139296,0.01485300437,-0.005130296573,5
14.491711,-0.4752616882,9.745184784,-0.7854167175,-0.009745870717,0.002042995766,-0.004304856993,5
14.511755,-0.5598358154,9.767338715,-0.8220904541,0.002731353976,0.01462996192,-0.005913240835,5
14.531798,-0.5297483826,9.738748169,-0.7557783508,0.008245909587,0.03296022117,-0.00859091524,5
14.551842,-0.4674778748,9.732161865,-0.7376660156,-0.005619365722,0.02046844549,-0.00677757524,5
14.571886,-0.4706213379,9.754615173,-0.7282356262,-0.01023381576,0.004788223654,-0.006514581386,5
14.59193,-0.5378315735,9.762848053,-0.7643106079,-0.003882467281,0.01016351581,-0.007296166383,5
14.611974,-0.5897735596,9.73979599,-0.8252339172,0.003933493048,0.01179168187,-0.00934030395,5
14.632017,-0.5378315735,9.741741943,-0.7863148499,0.01064540632,0.01844344661,-0.006723080762,5
14.652061,-0.450712738,9.756261749,-0.6896159363,-0.005949828308,0.01850428246,-0.004242453724,5
14.672105,-0.4671784973,9.777517548,-0.7066804504,-0.005786425434,0.0074996599,-0.0009008243214,5
14.692149,-0.5083428955,9.759105835,-0.7366181946,-0.00130356173,0.007160722278,-0.00118211098,5
14.712192,-0.5710624695,9.737101593,-0.8530760193,-0.002049616305,-0.00208632974,-0.003912114538,5
14.732236,-0.615819397,9.731712799,-0.8134085083,0.006014626473,0.00412890967,-0.002215761691,5
14.75228,-0.5385800171,9.754615173,-0.659229126,7.766764611e-06,0.007617837284,-0.0009673023596,5
14.772324,-0.4668791199,9.787546692,-0.7382647705,-0.01606044173,-0.01107406989,0.001761723077,5
14.792368,-0.5007087708,9.775421906,-0.7110214233,-0.01402281784,-0.01231257617,0.001147089759,5
14.812411,-0.5653742981,9.723180542,-0.816252594,-0.006925038062,-0.005583880469,-0.002602455905,5
14.832455,-0.5405259705,9.729617157,-0.7884104919,0.003959579859,-0.008567269892,-0.003667345736,5
14.852499,-0.4872367859,9.776320038,-0.759969635,0.002694996074,0.00765520148,-0.002394459676,5
14.872543,-0.4885839844,9.752519531,-0.7381150818,-0.00346315885,0.002407117514,-0.002121432219,5
14.892587,-0.5480104065,9.749974823,-0.7866142273,0.001427641255,-0.0144425761,-0.0005893849302,5
14.91263,-0.5855822754,9.751621399,-0.7542814636,-0.001367819495,-0.005497328006,-0.005920222029,5
14.932674,-0.5242098999,9.768236847,-0.7816744995,0.001853552181,0.006242834963,-0.007007216103,5
14.952718,-0.5026547241,9.764644318,-0.7262896729,0.001702678041,0.01016173512,-0.003768600058,5
14.972762,-0.513432312,9.763446808,-0.7387138367,-0.006603280082,-0.01724047028,0.0007924397942,5
14.992806,-0.5165757751,9.751621399,-0.77927948,-0.007676772308,-0.03026947193,0.00402969541,5
15.012849,-0.5525010681,9.759405212,-0.7800279236,0.00233922503,-0.02278635092,0.002500878181,5
15.032893,-0.5522016907,9.75386673,-0.7608677673,-0.002600560896,0.004505156074,-0.0004050247371,4
15.052937,-0.4890330505,9.776170349,-0.7286846924,-0.01779251173,-0.006504339632,0.002002604771,4
15.072981,-0.5101391602,9.772727509,-0.6743476868,-0.003943314776,-0.03344340622,0.003705405397,4
15.093025,-0.5340893555,9.736951904,-0.7409591675,-0.001385738375,-0.01351695135,-0.001454714919,4
15.113068,-0.5664221191,9.732012177,-0.8765771484,-0.002773662563,0.01097311825,-0.009970336221,4
15.133112,-0.5623805237,9.747579803,-0.8493338013,-0.003687520279,-0.0082435105,-0.007980899885,4
15.153156,-0.5420228577,9.777966614,-0.7704478455,-0.001830819761,-0.01338523254,-0.001359580085,4
15.1732,-0.5342390442,9.7701828,-0.7872129822,-0.006668257527,0.006082374137,3.97968106e-05,4
15.193243,-0.5249583435,9.728719025,-0.8548722839,-0.02571495809,-0.01002401952,0.005588204134,4
15.213287,-0.563278656,9.795031128,-0.8622070313,-0.04660399258,-0.03559036553,0.009397589602,4
15.233331,-0.590072937,9.837093658,-0.8641529846,-0.05429401249,-0.04228363186,0.01331051812,4
15.253375,-0.6099815369,9.911488953,-0.9107061768,-0.05962525308,-0.02457553148,0.01893649995,4
15.27341946,-0.5969586182,9.76673996,-1.032253418,-0.07750912011,-0.01569905318,0.02348914742,4
15.29346246,-0.6255491638,9.849667511,-1.275497589,-0.1184755787,-0.06972885132,0.02865596116,4
15.31350646,-0.725690918,9.825567627,-1.377585297,-0.1810208112,-0.1329099387,0.03667229787,4
15.33355046,-0.8369096375,9.798773346,-1.503473511,-0.2538101971,-0.1744316369,0.03574296087,4
15.35359446,-0.9455836487,9.913285217,-1.560504913,-0.3150068223,-0.1757103652,0.02032310329,4
15.37363846,-0.9156459045,9.821226654,-1.464853821,-0.3696877956,-0.1470818669,0.009915550239,4
15.39368146,-0.6981481934,9.593849487,-1.457519073,-0.3981457949,-0.2028912455,0.0110195037,4
15.41372546,-0.6352789307,9.624086609,-1.820813599,-0.4247198701,-0.3101677001,0.009576396085,4
15.43376946,-0.7250921631,9.625882874,-2.076032867,-0.4717945158,-0.3313874006,-0.008529528975,4
15.45381346,-0.8819659424,9.612710266,-2.063159637,-0.5247249007,-0.2835804224,-0.04701748863,4
15.47385746,-0.996328125,9.532626801,-2.051334229,-0.5934836864,-0.2267900854,-0.09479504824,4
15.49390046,-1.105151825,9.381291504,-2.112856293,-0.7126095891,-0.191792503,-0.1505475938,4
15.51394446,-1.233884125,9.385333099,-2.057321777,-0.882548213,-0.184319362,-0.1847081482,4
15.53398846,-1.203347626,9.353000336,-1.954485626,-1.007668734,-0.2788136303,-0.2288409919,4
15.55403246,-1.063987427,9.20974823,-1.946252747,-1.030069709,-0.4837782681,-0.3206586242,4
15.57407646,-1.03674408,9.028924255,-2.0371138,-1.043572307,-0.6704995632,-0.4459700286,4
15.59411946,-1.220112762,9.026678925,-2.087558899,-1.101340413,-0.7191875577,-0.6306027174,4
15.61416346,-1.238674164,8.723259888,-1.824256439,-1.155920267,-0.5600166917,-0.9252154827,4
15.63420746,-1.388213196,8.301287384,-1.323248291,-1.3068223,-0.2360460013,-1.19515276,4
15.65425146,-1.966161346,8.281229095,-0.7420069885,-1.681499124,0.2779880762,-1.267984629,4
15.67429446,-2.649490356,8.196056213,1.086889801,-1.938995004,0.9304428697,-1.107526898,4
15.69433846,-2.825673981,8.40472229,2.464026031,-2.031747341,0.6467957497,-0.7731912732,4
15.71438246,-1.917362823,8.930878143,3.100203094,-2.038287878,-0.3435077965,-0.566346705,4
15.73442646,-1.752256165,9.474248199,3.735182648,-1.87816596,-1.01074028,-0.4243820012,4
15.75447046,-2.568508759,9.371861115,4.199067993,-1.813401818,-0.9694212079,-0.04822171479,4
15.77451346,-2.868634644,8.231682129,3.813469849,-2.188513994,-0.7386923432,0.259898454,4
15.79455746,-1.258732452,6.29156662,4.387975159,-2.48879528,-0.5844730139,0.1904078275,4
15.81460146,0.06421646118,5.158423004,6.867568817,-2.250351191,-0.7408738732,-0.01835478842,4
15.83464546,0.7893086243,5.562732239,5.98500412,-1.891097665,-1.356241107,-0.01632750407,4
15.85468946,-0.2836601257,6.273005219,3.898343353,-1.862583995,-1.040647984,0.3149380982,4
15.87473246,-1.440304871,6.869814148,3.175496521,-2.340511084,-0.2003941685,0.5673750639,4
15.89477646,-0.2131567383,7.485633545,5.5672229,-2.535506964,-0.1887801439,0.4260837436,4
15.91482046,-0.4656816101,7.115153961,5.097649384,-2.555459023,0.01772816665,0.2137078941,4
15.93486446,-2.696492615,5.781128082,4.623435516,-2.514597416,0.09768845141,0.2666144967,4
15.95490846,-2.766397247,5.023553467,6.624923401,-2.211114883,-0.4163644612,0.3778677285,4
15.97495146,-1.406924286,5.02085907,8.07825119,-2.147326469,-0.495090574,0.2786746025,4
15.99499546,-1.711690521,5.065017242,7.584727478,-2.457722902,-0.1673495919,0.06080287695,4
16.01503946,-1.868115234,4.878654785,6.784641266,-2.413713932,-0.3208289742,-0.1974657625,4
16.03508346,-1.415157166,4.802463226,6.60860733,-2.340063572,-0.5989431143,-0.2470261157,4
16.05512746,0.1384620667,4.149221649,7.006180573,-2.345237017,-0.6068499684,-0.2054675668,4
16.07517046,0.6417155457,3.194656677,6.82041687,-2.407227516,-0.5082250237,-0.152102083,4
16.09521446,-0.2353106689,3.307222595,7.519612885,-2.361597061,-0.5752085447,0.0241488684,4
16.11525846,-1.645079041,2.791395264,8.428971863,-2.274322987,-0.7252781987,0.1227199659,4
16.13530246,-1.445693665,1.45437561,8.549171906,-2.213000059,-0.8348457813,0.01189577021,4
16.15534646,0.8364605713,0.6394702148,8.060288544,-2.270076036,-0.8306532502,-0.09488734603,4
16.17538946,1.944456482,1.544787598,7.483388214,-2.443967819,-0.7389215827,0.02889352106,4
16.19543346,0.8640032959,2.584974518,7.336244202,-2.567010164,-0.75244385,0.2672613561,4
16.21547746,-0.7870632935,1.903142395,8.122559052,-2.580822468,-0.8260019422,0.3585561514,4
16.23552146,-1.090931396,0.655486908,8.003556519,-2.555226803,-0.9571359754,0.2689549923,4
16.25556546,-0.1207987976,-0.2414479065,7.133415985,-2.436289787,-1.210592389,0.2331699878,4
16.27560821,0.7421566772,-0.477507019,6.703659668,-2.409983873,-1.385368347,0.2634013295,4
16.29565221,1.528621216,-1.122366028,6.914122009,-2.590627193,-1.159266591,0.4303607345,4
16.31569621,1.506766663,-1.305585022,8.362360382,-2.286974669,-1.194594145,0.3871742785,4
16.33574021,3.739673309,-4.225862274,13.87988663,-2.09376812,0.2903052568,0.1208319142,4
16.35578321,4.734803925,-4.581672363,17.89843002,-1.725394249,-0.1316041797,0.007097493857,4
16.37582721,2.643053741,-3.42712326,15.93077179,-0.8539809585,-1.024588346,-0.2895348668,4
16.39587121,3.537743225,-5.89953186,15.89933716,0.05443964526,-1.697876215,-0.3771087229,4
16.41591521,3.932322693,-4.709656219,16.38118515,0.2295853645,-1.851898193,-0.1331021935,4
16.43595921,3.731590118,-5.088518372,15.73213486,0.08567199111,-1.248741746,0.06607373059,4
16.45600221,4.649631042,-5.795198822,13.3613649,-0.008484164253,-0.7575628161,0.1172095537,4
16.47604621,6.021827545,-7.028035126,12.83236496,0.3423337936,-0.5600483418,0.1059710607,4
16.49609021,6.52792511,-7.983049164,11.93707672,0.7404751778,-0.6359555125,0.07091008127,4
16.51613421,5.295986938,-7.153474274,10.21296204,0.8383744359,-0.5461568832,0.1624880582,4
16.53617821,4.113595734,-5.996230774,8.881480865,0.8007414937,-0.4802921414,0.1754205525,4
16.55622121,3.746259613,-4.910987549,7.778574371,0.5751205087,-0.5341954231,0.06273960322,4
16.57626521,3.511098633,-3.617677002,6.927593994,0.3378556967,-0.2611342371,-0.007220143452,4
16.59630921,3.398682404,-2.721939697,6.531218262,0.3023507595,-0.2536996603,0.06067007408,4
16.61635321,3.724554749,-2.010918274,6.648723907,0.3092247844,-0.5001482964,0.1368579865,4
16.63639721,3.320844269,-1.202748871,6.503226471,0.2773284614,-0.5916632414,0.1922381669,4
16.65644021,2.746788025,-0.9536668396,6.72102356,0.2335840464,-0.5284051895,0.3314269781,4
16.67648421,3.235072632,-1.713786163,6.346352692,-0.03658805043,-0.271784097,0.4233326614,4
16.69652821,3.69162323,-2.788251801,7.193141785,-0.2776897848,0.2622223198,0.503246963,4
16.71657221,4.442012787,-3.802692261,9.122479706,-0.2655069828,0.6025965214,0.4690401554,4
16.73661621,5.218298492,-4.101321259,10.262509,-0.1458272785,0.2495015264,0.2006661296,4
16.75665921,4.477788391,-3.163820801,10.45755341,-0.101475358,-0.2258078307,0.02328678966,4
16.77670321,3.442241821,-2.074236603,10.39213943,-0.09163218737,-0.2995138764,-0.01516634319,4
16.79674721,4.032314758,-2.036365356,9.92002121,-0.01458669733,-0.1138516515,-0.01565072313,4
16.81679121,4.44515625,-1.802850952,9.450597382,0.04900399595,0.1160736904,-0.06070581451,4
16.83683521,4.013004913,-1.146016846,9.289083252,0.04235845432,0.2326423526,-0.08795513958,4
16.85687821,2.923570404,-0.5345384216,9.865235138,0.05867081136,0.09032683074,0.005455975886,4
16.87692221,2.371069336,-0.3817062378,10.01028351,0.1133928373,-0.07873015106,0.06571257114,4
16.89696621,2.400857391,-0.7854167175,9.44850174,0.152342394,-0.1225273907,0.0564079769,4
16.91701021,2.755170593,-1.006057892,8.436007233,0.09955497831,-0.1159946844,-0.01813283563,4
16.93705421,2.616109772,-1.482367401,7.869585114,0.002068977803,-0.04707474634,0.00519623654,4
16.95709721,2.787653046,-1.534758453,8.254135437,-0.09680788964,0.06009198725,0.02264587581,4
16.97714121,3.414699097,-1.976340179,9.016200714,-0.09373185039,0.09635671228,-0.01778338104,4
16.99718521,3.806733856,-2.105371857,9.441915436,0.01757551171,-0.02772806399,-0.04319914803,4
17.01722921,4.088597717,-2.294728088,9.100625153,0.03535211086,-0.07025395334,-0.05637407303,4
17.03727321,3.94085495,-2.485431519,9.165140991,0.03443961963,-0.03804448992,-0.07443925738,4
17.05731621,3.742367706,-2.446961517,9.061706085,0.01297653839,-0.004142184742,-0.091696091,4
17.07736021,3.617377625,-2.211052094,8.883875885,0.01255684718,0.004970655311,-0.09941584617,4
17.09740421,3.535348206,-2.049687653,8.773704987,0.01897623204,-0.007006033324,-0.1069935709,4
17.11744821,3.595972137,-1.882485352,8.682993622,-0.005446717143,0.00090784044,-0.1198731512,4
17.13749121,3.572920074,-1.765877838,8.676706696,-0.03942753747,0.002340954728,-0.1251140982,4
17.15753521,3.51379303,-1.683549042,8.764124908,-0.05952959508,0.02808636054,-0.1056127548,4
17.17757921,3.504662018,-1.665736084,8.952732697,-0.06007432565,0.06947410852,-0.06815522909,4
17.19762321,3.531905365,-1.756597137,9.037007446,-0.04473925009,0.0481631197,-0.04069806635,4
17.21766721,3.552562408,-1.925146637,9.130263519,-0.02486080863,0.02495584823,-0.03184004873,4
17.23771021,3.509901123,-2.031575317,9.112001495,-0.0121383667,0.02309042029,-0.02974770777,4
17.25775421,3.484603729,-2.094145203,9.04943161,-0.01345673017,0.03670415282,-0.01759520359,4
17.27779858,3.491190033,-2.135010223,9.033564606,-0.006590723991,0.04196519032,-0.01198271941,4
17.29784258,3.560046844,-2.126927032,8.984766083,-7.650046609e-05,0.02855777368,-0.01310133841,4
17.31788658,3.593128052,-2.076332245,8.924740906,0.001116249943,0.02354678325,-0.0184468776,4
17.33792958,3.534450073,-2.001787262,8.815318451,-0.01139487512,0.02763254568,-0.01830594242,4
17.35797358,3.460204468,-1.952988739,8.822802887,-0.02449176833,0.03960078955,-0.01983779296,4
17.37801758,3.347039795,-1.915566559,8.944200439,-0.0214325171,0.03647502884,-0.01282804273,4
17.39806158,3.317850494,-1.960323486,9.042845306,-0.01318551041,0.02882249095,-0.01132305432,4
17.41810558,3.353177032,-1.988315277,9.072483673,-0.005089304876,0.01595532522,-0.01563536376,4
17.43814858,3.365601196,-1.977238312,9.076974335,0.005972635932,-0.004838025197,-0.01463096403,4
17.45819258,3.359463959,-2.021246796,8.995992737,0.007553742267,-0.004909813404,-0.01411255356,4
17.47823658,3.433260498,-2.083517303,8.920549622,-0.00261043827,0.009661002085,-0.02092356607,4
17.49828058,3.556304626,-1.989213409,8.88567215,-0.01051340811,0.003689534031,-0.02783875167,4
17.51832458,3.546425171,-1.981279907,8.954079895,-0.004459900782,-0.001068850514,-0.03167022392,4
17.53836758,3.507356415,-2.013462982,9.028624878,-0.005302234553,0.003130723257,-0.03792816773,4
17.55841158,3.491788788,-1.991758118,9.002728729,-0.01120191067,-0.001935108099,-0.04083506018,4
17.57845558,3.452121277,-1.95403656,8.957672424,-0.01078063529,-0.005622704979,-0.04013231024,4
17.59849958,3.439547424,-1.967508545,8.95467865,-0.007962808013,-0.007607986685,-0.03846434504,4
17.61854358,3.465593262,-1.999092865,8.990454254,-0.005676698871,-0.001119982917,-0.03740161285,4
17.63858658,3.511098633,-1.992207184,8.962612152,-0.00494269561,-0.007809658535,-0.0367852971,4
17.65863058,3.50675766,-1.975891113,8.945397949,-0.00249301712,-0.008632019162,-0.03626518697,4
17.67867458,3.490142212,-1.974843292,8.980125732,-0.001950646518,-0.002235013526,-0.03120421991,4
17.69871858,3.463647308,-1.984123993,8.983418884,-0.0006831446663,0.004569119774,-0.02574953809,4
17.71876258,3.480861511,-1.974244537,8.992250519,-0.001870179316,-0.002272969577,-0.02107299864,4
17.73880558,3.509302368,-1.977986755,8.975335693,-0.002328938805,-0.004075108562,-0.01840292104,4
17.75884958,3.527265015,-1.981130219,8.966204681,0.0002950620838,-0.006602067035,-0.02130667493,4
17.77889358,3.52546875,-1.983974304,8.970096588,-0.001523968065,0.002791297156,-0.02598759532,4
17.79893758,3.513643341,-2.001338196,8.96051651,-0.007442577742,0.009744278155,-0.0288041532,4
17.81898158,3.528312836,-1.98562088,8.944948883,-0.007841291837,0.01042139344,-0.03174803779,4
17.83902458,3.51723587,-1.979034576,8.936566315,-0.01109558344,0.01295419782,-0.0369820632,4
17.85906858,3.482657776,-1.97155014,8.965905304,-0.0118638305,0.01552792359,-0.044362396,4
17.87911258,3.488645325,-1.970652008,8.977281647,-0.0116246026,0.009959299117,-0.05149532482,4
17.89915658,3.462599487,-1.969454498,8.988208923,-0.00938162487,0.002505273791,-0.05801530182,4
17.91920058,3.429667969,-1.976190491,8.962612152,-0.007094987202,-0.006965923123,-0.06288393587,4
17.93924358,3.431464233,-1.992207184,8.976533203,-0.00611670455,-0.007107845042,-0.06705604494,4
17.95928758,3.471431122,-1.968706055,8.977730713,-0.005903564394,-0.005259149708,-0.06802577525,4
17.97933158,3.51259552,-1.963766327,8.973539429,-0.002291328274,-0.01072187163,-0.06931455433,4
17.99937558,3.530258789,-1.958377533,8.959319,-0.004534774926,-0.01417998597,-0.0745010674,4
18.01941958,3.543730774,-1.96107193,8.951235809,-0.008073695004,-0.005565690808,-0.0783617273,4
18.03946258,3.525019684,-1.941462708,8.942703552,-0.01032652706,-0.008523026481,-0.08300811052,4
18.05950658,3.522025909,-1.9282901,8.940009155,-0.007062162273,-0.01795375347,-0.08443136513,4
18.07955058,3.534001007,-1.947599945,8.991951141,-0.005832215771,-0.01892785728,-0.08583454788,4
18.09959458,3.563190308,-1.940564575,9.02952301,0.0008138299454,-0.01306991093,-0.0935274139,4
18.11963858,3.555256805,-1.908082123,9.037157135,0.009730343707,-0.01896570995,-0.08802246302,4
18.13968158,3.503763885,-1.915865936,8.938063202,0.01071669161,-0.03218157962,-0.07763525844,4
18.15972558,3.535797272,-1.933229828,8.874894562,-0.003038062714,-0.02720541507,-0.07247752696,4
18.17976958,3.578458557,-1.911375275,8.900641022,-0.008106896654,-0.01660189964,-0.0714956373,4
18.19981358,3.614234161,-1.894011383,8.982071686,-0.002525774064,-0.01825854741,-0.06938106567,4
18.21985758,3.596271515,-1.874701538,8.989855499,0.001181215513,-0.02463522367,-0.06096005812,4
18.23990058,3.589236145,-1.886077881,8.943302307,7.338030264e-05,-0.01997003518,-0.05207945779,4
18.25994458,3.594026184,-1.889820099,8.921747131,-0.003909766674,-0.01668087766,-0.04563751817,4
18.27998783,3.617377625,-1.888173523,8.959169312,-0.0008312801365,-0.01543883979,-0.03797927871,4
18.30003183,3.620072021,-1.876348114,8.985514526,0.002543807495,-0.01560379285,-0.03267535567,4
18.32007583,3.636837158,-1.866468658,8.989256744,0.006239007227,-0.01504223701,-0.02691656165,4
18.34011883,3.637585602,-1.846560059,8.965605927,0.007658344693,-0.01053809002,-0.02117073908,4
18.36016283,3.624712372,-1.86631897,8.909622345,0.005211444572,-0.007821515203,-0.01453669462,4
18.38020683,3.645519104,-1.870659943,8.915909271,-0.0007363480981,-0.0002099708654,-0.01005046163,4
18.40025083,3.651656342,-1.882485352,8.942703552,7.295049727e-05,0.002631172072,-0.0058507137,4
18.42029483,3.65539856,-1.8991008,8.950187988,0.005832632538,-0.003211108036,-0.003940721508,4
18.44033783,3.66348175,-1.87799469,8.948242035,0.008447399363,-0.003520254977,-0.009289332666,4
18.46038183,3.666026459,-1.873953094,8.963809662,0.01444340777,-9.604357183e-05,-0.01334802248,4
18.48042583,3.618275757,-1.892215118,9.011260986,0.01729977503,0.00424842909,-0.01093179081,4
18.50046983,3.617826691,-1.87215683,8.98386795,0.01739878953,-0.005481918342,-0.00895795133,4
18.52051383,3.567980347,-1.855691071,8.878187714,0.01188593823,-0.006379426923,0.0007453635335,4
18.54055683,3.595972137,-1.877845001,8.85408783,0.003457804443,0.001909687184,0.003658684669,4
18.56060083,3.638483734,-1.856439514,8.903634796,8.844071999e-06,0.001511092763,0.0003337603994,4
18.58064483,3.596121826,-1.822011108,8.926686859,-0.004958798178,0.00141381775,0.004790391773,4
18.60068883,3.585044861,-1.829495544,8.92309433,-0.0086364327,0.008652775548,0.007965330034,4
18.62073283,3.595373383,-1.830693054,8.983119507,-0.008531559259,0.01250827964,0.007050973829,4
18.64077583,3.595822449,-1.80315033,9.053622894,-0.002023907378,0.00225983467,0.00268988125,4
18.66081983,3.59567276,-1.829495544,8.990603943,0.004873529077,-0.007573448122,0.005487901159,4
18.68086383,3.594325562,-1.870210876,8.902886353,0.001606323058,-0.002713572234,0.00382047426,4
18.70090783,3.620072021,-1.892215118,8.86456604,-0.005900960881,0.0008581778966,-0.002319742925,4
18.72095183,3.648812256,-1.894909515,8.878187714,-0.01214276627,0.002268021228,-0.005943098105,4
18.74099483,3.673510895,-1.918560333,8.931476898,-0.00950325653,6.719632074e-05,-0.008105186746,4
18.76103883,3.689377899,-1.901645508,8.961115265,-0.00575474184,0.001607476035,-0.01116026286,4
18.78108283,3.673959961,-1.849404144,9.014703827,-0.0003603335936,0.004695272073,-0.01579537988,4
18.80112683,3.620970154,-1.838626556,9.047785034,0.01113800332,-0.001027652528,-0.009913203306,4
18.82117083,3.555107117,-1.82410675,8.941955109,0.009173135273,0.001729934243,-0.001174998004,4
18.84121383,3.58399704,-1.84985321,8.865613861,-0.002923232736,0.007385389414,0.0004341343883,4
18.86125783,3.612288208,-1.85344574,8.913364563,-0.004896372557,0.007126050536,-0.001595962327,4
18.88130183,3.625011749,-1.867067413,8.978928223,0.0009661471704,0.001112925587,-0.001774661243,4
18.90134583,3.601360931,-1.860780487,8.957971802,0.001274556736,-0.001513123512,-0.00161479786,4
18.92138983,3.616629181,-1.863774261,8.908873901,-0.001205986831,0.002138822805,-0.003895077854,4
18.94143383,3.623514862,-1.880240021,8.919501801,-0.00478661852,0.00259087747,-0.003929807805,4
18.96147683,3.62605957,-1.86272644,8.924890594,-0.002515144879,-0.0008044913411,-0.004600419663,4
18.98152083,3.605851593,-1.867516479,8.943901062,-0.004498631693,0.0009946594946,-0.003420845373,4
19.00156483,3.62381424,-1.842668152,8.960366821,-0.001295826863,0.003255613148,-0.004080587998,4
19.02160883,3.636238403,-1.848056946,8.995244293,0.003572523128,-0.0009384597652,-0.005305754021,4
19.04165283,3.613635406,-1.850002899,8.966653748,0.00213398668,-0.0009629386477,-0.003818918252,4
19.06169583,3.615132294,-1.861828308,8.943152618,0.002959312405,0.002460706281,-0.005604192615,4
19.08173983,3.642076263,-1.853296051,8.954379272,0.0006776788505,0.004586418625,-0.004415084608,4
19.10178383,3.636238403,-1.857337646,8.928183746,0.001572994166,0.0009052697569,-0.005349078216,4
19.12182783,3.621568909,-1.853595428,8.931925964,-4.253908992e-05,0.002977255266,-0.007777891587,4
19.14187183,3.604354706,-1.880240021,8.940308533,0.0009565356886,0.001098777167,-0.005983736366,4
19.16191483,3.615132294,-1.862876129,8.949289856,0.002408467233,-0.001916487701,-0.007105676457,4
19.18195883,3.614982605,-1.855541382,8.947942657,0.0004213915672,-0.001015680842,-0.005199540406,4
19.20200283,3.604654083,-1.860930176,8.936865692,0.0003057625145,-9.340699762e-06,-0.003551475937,4
19.22204683,3.601211243,-1.84521286,8.930279388,-0.001979650697,0.0003331061453,-0.0008868440054,4
19.24209083,3.613635406,-1.845961304,8.937913513,-0.002092529088,-0.001337898895,0.0002351691946,4
19.26213383,3.630101166,-1.846260681,8.944050751,-0.0005862691905,0.001373696607,-0.001223128289,4
19.28217833,3.631448364,-1.860780487,8.958570557,0.001436938415,-0.0001462306827,-0.002689774148,4
19.30222233,3.633693695,-1.870510254,8.951684875,0.001101805363,-0.002348094247,-0.004398677032,4
19.32226633,3.62022171,-1.857637024,8.93716507,0.0007310454967,-0.0009673144668,-0.001878695795,4
19.34231033,3.60390564,-1.865720215,8.943152618,0.001053530374,0.002576517873,-0.001894095214,4
19.36235333,3.601360931,-1.851799164,8.943152618,0.001748242183,0.0001592021435,-0.0007134722546,4
19.38239733,3.615731049,-1.841919708,8.960366821,0.0008143347222,-0.0006379866973,0.0008654890116,4
19.40244133,3.621868286,-1.839375,8.942703552,0.0002818026114,0.0003647720441,0.00093156402,4
19.42248533,3.616329803,-1.860032043,8.918154602,-0.002775451168,-0.001813204028,0.001517557772,4
19.44252933,3.619772644,-1.863774261,8.945547638,-0.003879725235,0.002644071123,-0.0005023954436,4
19.46257233,3.636238403,-1.852547607,9.002728729,0.002125905827,0.005173379555,-0.004358093254,4
19.48261633,3.639980621,-1.851948853,9.02248764,0.008906580508,0.002911063842,-0.003431579331,4
19.50266033,3.59447525,-1.853296051,8.955427094,0.01127650402,-0.001921414863,0.002373894211,4
19.52270433,3.589086456,-1.883233795,8.863218842,0.004303191323,0.007441730238,0.002861632733,4
19.54274833,3.614234161,-1.855242004,8.89495285,-0.002745090984,0.00705942791,0.003055000678,4
19.56279133,3.620670776,-1.838476868,9.000782776,0.0045823697,0.0003569107503,0.003948512021,4
19.58283533,3.625909882,-1.829794922,8.995244293,0.008133266121,-0.002706236206,0.006827647332,4
19.60287933,3.60734848,-1.811383209,8.91486145,0.00305836997,-0.005851126276,0.009603680111,4
19.62292333,3.623065796,-1.84985321,8.870254211,-0.003057440277,0.0007438680623,0.007808497641,4
19.64296733,3.616629181,-1.853595428,8.918903046,-0.005824973807,0.005674745888,0.005796697922,4
19.66301033,3.620371399,-1.864822083,8.949888611,-0.005047481507,0.005740166642,0.0035751916,4
19.68305433,3.612737274,-1.853894806,8.950337677,-0.005761173088,0.005083617289,0.000802900875,4
19.70309833,3.619473267,-1.851350098,8.973240051,-0.002986576175,0.0004189973697,-0.003431687597,4
19.72314233,3.609593811,-1.847009125,8.950337677,-0.0002600157168,-0.002305326052,-0.003963187337,4
19.74318633,3.596271515,-1.864373016,8.955726471,0.002324386965,0.000646362314,-0.002884218236,4
19.76322933,3.613635406,-1.85464325,8.971892853,0.001865257975,0.004662408959,-0.003662926843,4
19.78327333,3.614234161,-1.835333405,8.931327209,-0.002338565886,0.0002191565,-0.0008183552418,4
19.80331733,3.620072021,-1.839973755,8.934919739,0.00222059153,-0.001719221473,0.001480368897,4
19.82336133,3.62381424,-1.844763794,8.93596756,0.002071402501,0.0009689624421,0.003212625859,4
19.84340533,3.621119843,-1.873204651,8.971593475,0.003240057267,0.001156670041,0.001156943385,4
19.86344833,3.624113617,-1.84641037,8.930429077,0.0004099954385,0.0016155208,0.007642316632,4
19.88349233,3.617377625,-1.850451965,8.918753357,0.001310283085,0.00108283083,0.007793106139,4
19.90353633,3.618724823,-1.851200409,8.944649506,-0.001675120555,0.00245782081,0.009019225836,4
19.92358033,3.60734848,-1.844913483,8.979377289,-0.0004241981078,0.002837241162,0.006602999289,4
19.94362433,3.61094101,-1.851649475,8.965007172,-9.678024799e-05,-5.71757555e-05,0.007607647683,4
19.96366833,3.609294434,-1.860630798,8.933871918,0.0009253291646,-0.001447495539,0.005925485864,4
19.98371133,3.606749725,-1.865570526,8.954528961,0.002644538879,0.001038507093,0.003767048242,4
20.00375533,3.617826691,-1.867666168,8.950187988,-0.0007534523029,0.001152061857,0.003507417161,4
20.02379933,3.587888947,-1.864073639,8.957822113,0.002535098931,-0.001277821139,0.0004291089717,4
20.04384333,3.600163422,-1.859582977,8.959169312,0.001361415721,0.00334678404,-0.001177219441,4
20.06388733,3.598516846,-1.834285583,8.922345886,-0.003837659024,0.002249284415,-0.005816309247,4
20.08393033,3.618126068,-1.839075623,8.939260712,-0.002918653656,-0.003673330881,-0.005369828083,4
20.10397433,3.607647858,-1.849254456,8.938362579,-0.002406869549,-0.001295441296,-0.003418877721,4
20.12401833,3.613934784,-1.864223328,8.975186005,0.0007810730021,0.00332268863,-0.006182917859,4
20.14406233,3.649411011,-1.847158813,9.019194489,0.007086754777,0.003477858147,-0.00536016468,4
20.16410633,3.618425446,-1.845362549,9.007219391,0.01428446919,-0.004415369127,0.005102486815,4
20.18414933,3.572920074,-1.862576752,8.910370789,0.008942266926,0.002900948282,0.01076173782,4
20.20419333,3.638334045,-1.865720215,8.879983978,0.001481043408,0.007257380523,0.009410306811,4
20.22423733,3.619922333,-1.832938385,8.9394104,0.001554634073,0.00236055837,0.006089802831,4
20.24428133,3.608246613,-1.815724182,8.957672424,0.001316559385,-0.002679324243,0.006807633676,4
20.26432533,3.605252838,-1.844314728,8.940158844,-0.002551241079,0.001056951471,0.003372002393,4
20.28436821,3.61318634,-1.848356323,8.92773468,-0.001935549546,-0.0002735429443,-0.0004627835006,4
20.30441221,3.56528595,-1.855242004,8.934320984,-0.00623628078,0.001610588981,-0.0009334799834,4
20.32445621,3.581003265,-1.864971771,8.978628845,-0.004838729277,0.002078992547,-0.001888038125,4
20.34450021,3.613785095,-1.868115234,8.980574799,-0.001142997062,0.001706045587,-0.003686498152,4
20.36454421,3.618874512,-1.833686829,8.959319,0.001047997386,0.0003043087199,-0.00615700474,4
20.38458721,3.633244629,-1.853595428,8.95812149,0.00065588078,-0.004594924394,-0.004269654863,4
20.40463121,3.60151062,-1.85464325,8.964258728,0.001415998442,0.002156732371,-0.001744848443,4
20.42467521,3.632945251,-1.863025818,8.942404175,-0.0007645736914,0.007827969268,-0.00311615807,4
20.44471921,3.620820465,-1.831291809,8.938961334,-0.0006142163184,0.004641795997,-0.00434828084,4
20.46476321,3.588487701,-1.8194664,8.950337677,-0.001142556081,-0.0006086477078,-0.001323629403,4
20.48480721,3.594624939,-1.849404144,8.969348145,0.001449462958,0.001238603145,7.094116881e-06,4
20.50485021,3.601660309,-1.832788696,8.956175537,0.001144686132,0.002103364794,0.0008426513523,4
20.52489421,3.599115601,-1.855541382,8.925938416,-0.0008948263712,0.0009180961642,0.001375577413,4
20.54493821,3.592978363,-1.843416595,8.939859467,-0.001172860386,0.004216687288,0.003350045066,4
20.56498221,3.618724823,-1.850751343,8.952133942,-0.001449817093,0.003496986348,0.002651873743,4
20.58502621,3.607647858,-1.861079865,8.971743164,0.0005600306904,0.00157698663,0.00114982971,4
20.60506921,3.595972137,-1.855092316,8.960067444,-0.0001652631909,-6.289547309e-05,0.0006029789802,4
20.62511321,3.601660309,-1.840722198,8.950786743,-0.000831180485,-0.0004091649316,0.0008014384657,4
20.64515721,3.628903656,-1.838626556,8.972042542,0.002954721451,0.003482709639,-0.0009300510865,4
20.66520121,3.627556458,-1.826651459,8.944350128,0.002132679336,-0.001113060862,0.0007430287078,4
20.68524521,3.600163422,-1.843416595,8.907526703,-0.004214746412,0.00124509586,0.000937001314,4
20.70528821,3.599414978,-1.846560059,8.966803436,-0.001956680091,0.003206539899,-0.0006980895996,4
20.72533221,3.617527313,-1.869312744,9.003477173,0.005155999213,-0.001625904348,-0.001137396786,4
20.74537621,3.581452332,-1.843117218,8.967102814,0.007176837884,-0.00391337974,0.001618044684,4
20.76542021,3.584296417,-1.853745117,8.928782501,0.0006415871903,-0.003156620078,0.003984470852,4
20.78546421,3.594175873,-1.823507996,8.931476898,0.001088453806,0.001069133403,0.003626699559,4
20.80550721,3.647614746,-1.842069397,8.935518494,0.002650437411,-0.001231978182,0.002158519346,4
20.82555121,3.639681244,-1.848056946,8.901090088,0.0004525822587,-0.00422908878,0.002550133038,4
20.84559521,3.610342255,-1.863774261,8.960366821,-0.001506375149,0.0009935314301,0.0003253007308,4
20.86563921,3.650608521,-1.847009125,9.034911804,0.004551501013,0.004614541307,-0.005083380267,4
20.88568321,3.626808014,-1.825753326,9.031019897,0.01357661188,-0.007326320279,-0.0008389162831,4
20.90572621,3.558400269,-1.874252472,8.911268921,0.007892523892,0.001642650692,0.003130530939,4
20.92577021,3.583398285,-1.848356323,8.868158569,-0.003565531224,0.006286564283,0.0003782976419,4
20.94581421,3.614982605,-1.836830292,8.971294098,-0.0008834262844,-0.001943481155,-0.003712255275,4
20.96585821,3.601809998,-1.817969513,8.984317017,0.003151250537,-0.006509089377,-0.00418747263,4
20.98590221,3.585493927,-1.83697998,8.905730438,0.0006038338179,-0.008039097302,-0.001750673633,4
21.00594521,3.580853577,-1.842368774,8.910969543,-0.005886273459,-0.001634371001,-0.001321037998,4
21.02598921,3.611090698,-1.851948853,8.984167328,-0.003640052397,-0.001045045909,-0.002393614966,4
21.04603321,3.635040894,-1.837878113,8.982820129,0.001819717931,-0.006705027539,-0.000258874381,4
21.06607721,3.61558136,-1.837129669,8.939709778,0.0004122133832,-0.004748704378,0.00175106246,4
21.08612121,3.619323578,-1.839824066,8.944050751,-0.004713485483,-0.001143119298,-0.001547072548,4
21.10616521,3.636238403,-1.823208618,8.981323242,-0.0001233364455,-0.001555689611,-0.0008344915695,4
21.12620821,3.630849609,-1.850302277,8.976233826,0.004701453261,0.002207133919,-0.001196962083,4
21.14625221,3.636986847,-1.842219086,8.922794952,-0.0009722486138,0.00631370768,-0.003892872483,4
21.16629621,3.626957703,-1.839524689,8.95348114,-0.002210884821,0.002606587252,-0.002916024998,4
21.18634021,3.61438385,-1.828148346,8.970695343,0.001513645053,-0.0003060302697,-0.001355911838,4
21.20638421,3.61094101,-1.861079865,8.948541412,0.003194314428,0.001438861247,-0.0004716066178,4
21.22642721,3.5898349,-1.846709747,8.901239777,-0.0006823062431,0.001908259466,0.000708721811,4
21.24647121,3.599564667,-1.846859436,8.927285614,-0.005489069503,0.0001920820214,0.001500259852,4
21.26651521,3.608995056,-1.84521286,8.978928223,0.0006559323519,0.0006368663162,-0.0005147343036,4
21.28655933,3.610491943,-1.858385468,8.96515686,0.0007390707033,-0.0005255322903,0.0008628219366,4
21.30660333,3.603755951,-1.848655701,8.93596756,-0.0001913062297,-0.001065624878,0.0005095915403,4
21.32664633,3.601360931,-1.848805389,8.952882385,-0.001964884344,-0.0003338558599,-0.001575737493,4
21.34669033,3.628604279,-1.848655701,8.962462463,0.002061923034,-0.0009066807106,-0.003461879678,4
21.36673433,3.596421204,-1.839824066,8.941506042,0.0001338892616,-0.003674153704,-0.00205667736,4
21.38677833,3.608096924,-1.848955078,8.957672424,-7.481500506e-05,0.001548236003,-0.002258619992,4
21.40682233,3.627855835,-1.82650177,8.961564331,0.00102348451,-0.001621840522,-0.00473791454,4
21.42686533,3.606001282,-1.828298035,8.929530945,3.150850534e-05,0.001300990349,-0.002652262338,4
21.44690933,3.61318634,-1.837578735,8.937913513,-0.00369119714,0.002763922326,-0.00061313482,4
21.46695333,3.638783112,-1.841620331,8.953930206,-0.003799901344,0.001663431292,-0.0007573247422,4
21.48699733,3.628005524,-1.832189941,8.959468689,-0.001187762013,0.003215490375,0.0005063642748,4
21.50704133,3.603007507,-1.854493561,8.949439545,-0.0003232597373,0.002822799608,0.001900521573,4
21.52708533,3.60151062,-1.851350098,8.951684875,-0.001434815815,0.0007940749638,0.003605925711,4
21.54712833,3.607198792,-1.845961304,8.977281647,0.001273809816,0.001534121344,0.002925140085,4
21.56717233,3.58863739,-1.820214844,8.925339661,0.002644335851,0.002541757189,0.003408210352,4
21.58721633,3.609294434,-1.811383209,8.912167053,-0.004837624263,0.00261734426,0.003500806633,4
21.60726033,3.607198792,-1.846709747,8.939260712,-0.005982541479,0.00259493757,0.001486172201,4
21.62730433,3.628753967,-1.844913483,8.984915771,-0.0008225154597,0.005473109428,0.00220325985,4
21.64734733,3.630849609,-1.842668152,8.985215149,0.003598494921,0.004490114283,-0.003684184281,4
21.66739133,3.626957703,-1.844913483,8.999435577,0.009791791439,-0.002408097964,-0.004151199944,4
21.68743533,3.586392059,-1.864373016,8.942853241,0.008750976063,0.001994095277,0.001771007781,4
21.70747933,3.584296417,-1.885778503,8.857830048,-0.0003344852012,0.01189260185,0.002138333395,4
21.72752333,3.613336029,-1.842069397,8.92069931,-0.00139716221,0.003099596128,0.001888979343,4
21.74756633,3.613635406,-1.822759552,9.006620636,0.004163756501,-0.004991595633,0.002165503334,4
21.76761033,3.598516846,-1.834435272,8.990454254,0.006084392779,-0.009797988459,0.003942037467,4
21.78765433,3.609593811,-1.852996674,8.899293823,0.001740256441,-0.002860568929,0.001074987696,4
21.80769833,3.596121826,-1.825453949,8.907526703,-0.004352165852,-0.001208208036,0.002879161853,4
21.82774233,3.623963928,-1.855092316,8.932524719,-0.006332138088,-0.003745202906,0.0008739938494,4
21.84778533,3.649710388,-1.857936401,8.977581024,-0.0006642362569,6.815558299e-05,-0.002175851259,4
21.86782933,3.606300659,-1.845063171,9.019194489,0.001526456093,0.0007456280291,-0.001622664742,4
21.88787333,3.566483459,-1.817221069,8.998238068,0.002730598673,-0.008047007024,0.002296654508,4
21.90791733,3.572471008,-1.823657684,8.950187988,0.003382945666,-0.002578529529,0.003879958531,4
21.92796133,3.638334045,-1.849404144,8.901389465,0.001688384218,0.004282780457,-0.0006882818416,4
21.94800533,3.644171906,-1.831740875,8.863069153,-0.009097477421,0.00657607615,0.0005572692025,4
21.96804833,3.632496185,-1.880090332,8.932075653,-0.006717497949,0.008062187582,0.001342443866,4
21.98809233,3.666026459,-1.867666168,9.035660248,0.002225102857,0.002938023768,-0.00161330984,4
22.00813633,3.647015991,-1.83473465,9.027127991,0.006958482321,-0.00335780764,-0.004595505074,4
22.02818033,3.572471008,-1.793420563,8.919801178,0.001976565924,-0.006120880134,0.001968136057,4
22.04822433,3.533551941,-1.819167023,8.891360321,-0.002278402215,-0.0002866131254,0.009156745858,4
22.06826733,3.581452332,-1.837279358,8.917106781,-0.003562999889,0.01018863078,0.009012810886,4
22.08831133,3.615132294,-1.878144379,8.944799194,-0.006196385249,0.003748295829,0.007930105552,4
22.10835533,3.610192566,-1.873504028,9.000483398,0.001265247818,-0.00253345212,0.00554566877,4
22.12839933,3.603755951,-1.878144379,9.006470947,0.004971342627,-0.006240444724,0.002115539275,4
22.14844333,3.64836319,-1.84985321,8.966653748,0.002940300386,-0.001509246416,-0.001442014938,4
22.16848633,3.606899414,-1.79252243,8.925040283,0.0005648403894,9.316438809e-05,-0.004747488536,4
22.18853033,3.58743988,-1.813778229,8.919651489,-0.004932790529,0.00209602504,-0.0030587113,4
22.20857433,3.586841125,-1.818867645,8.962013397,-0.002102876082,0.002859148197,-0.002804889809,4
22.22861833,3.614234161,-1.844314728,8.952882385,-0.0002176878043,0.0005313828588,-0.001322813332,4
22.24866233,3.62022171,-1.856439514,8.943302307,-0.0004072252195,-0.002738726791,0.0001957607456,4
22.26870633,3.609294434,-1.869163055,8.943451996,-0.000360282138,0.0005660972092,0.00237461552,4
22.2887495,3.605103149,-1.861229553,8.957073669,0.0003452769015,0.0006765483413,0.002448308282,4
22.3087935,3.610192566,-1.835034027,8.958271179,0.0006158577744,0.0008258935995,0.004780400544,4
22.3288375,3.612437897,-1.817221069,8.964408417,0.001697315718,-0.0008306037635,0.006156326272,4
22.3488815,3.615880737,-1.807491302,8.925189972,-0.004359928891,-0.002278923988,0.007187604439,4
22.3689255,3.617377625,-1.85808609,8.930878143,-0.004922451917,0.0008314861916,0.005070152692,4
22.3889685,3.627406769,-1.864522705,8.997040558,0.001409428078,0.008821491152,0.0006803344004,4
22.4090125,3.645519104,-1.845362549,9.046886902,0.00988193322,0.0049497406,-0.0007298910059,4
22.4290565,3.59567276,-1.853146362,9.009464722,0.01339395531,-0.005872580688,0.0004689390771,4
22.4491005,3.592978363,-1.862576752,8.868308258,0.002780018141,0.003750090953,0.001802535728,4
22.4691445,3.60734848,-1.841919708,8.854985962,-0.007662225049,0.01052239351,-0.0002850070596,4
22.4891875,3.599864044,-1.832938385,8.933273163,-0.004800971597,0.004377343692,-0.0009970415849,4
22.5092315,3.594026184,-1.830243988,9.018895111,0.006492337212,0.001117498614,0.002187417354,4
22.5292755,3.589086456,-1.832639008,8.956923981,0.001708819065,-0.001869491767,0.003928988241,4
22.5493195,3.585942993,-1.839075623,8.906029816,-0.003900544951,-0.001731263008,0.004205287434,4
22.5693635,3.600163422,-1.860930176,8.951086121,-0.002942936262,0.001562373014,0.004724364728,4
22.5894065,3.60151062,-1.855541382,9.000483398,-0.0001752281096,-0.001176328864,0.004450223409,4
22.6094505,3.59103241,-1.836530914,8.944200439,-0.002190680243,-0.006091751158,0.00477503892,4
22.6294945,3.598217468,-1.837129669,8.949589233,0.0008671968244,-0.0002962583676,0.0036243496,4
22.6495385,3.592828674,-1.850302277,8.98042511,0.002775467001,-0.002192788757,0.002445470542,4
22.6695825,3.613785095,-1.862127686,8.961414642,-0.0004943222739,0.001500874292,0.0009447978809,4
22.6896265,3.617976379,-1.838925934,8.949289856,0.001227625995,0.003041768447,-0.002370433649,4
22.7096695,3.631298676,-1.831291809,8.953930206,-0.001246924046,0.004556264728,-0.003048194107,4
22.7297135,3.623365173,-1.830094299,8.935817871,-0.002183299046,0.001371444669,-0.003361799754,4
22.7497575,3.615132294,-1.84401535,8.941955109,-0.001830394845,0.005218835082,-0.002853871556,4
22.7698015,3.597768402,-1.835932159,8.957073669,-0.002805481432,0.007076101378,0.0002830727026,4
22.7898455,3.599414978,-1.842967529,8.975036316,-0.0008185445331,0.006134335883,0.0002858305816,4
22.8098885,3.581302643,-1.848356323,8.970695343,0.001108554658,0.003363771131,0.003190070158,4
22.8299325,3.574267273,-1.84760788,8.96171402,0.0004431740381,0.002957785036,0.004952028394,4
22.8499765,3.570225677,-1.886826324,8.988807678,0.005205040798,-0.007006161846,0.005985166878,4
22.8700205,3.633693695,-1.847158813,8.990154877,0.01803352684,-0.00885559991,0.0008652601391,4
22.8900645,3.703748016,-1.870360565,9.004674683,0.0294304844,-0.0017022104,-0.007302941754,4
22.9101085,3.710484009,-1.829944611,9.02248764,0.03158026934,0.009061207063,-0.02286508493,4
22.9301515,3.658691711,-1.783391418,8.980724487,0.03497734666,0.002876271959,-0.01787285134,4
22.9501955,3.501518555,-1.913770294,8.882828064,0.02832200378,-0.0009967852384,0.004912363365,4
22.9702395,3.544479218,-1.9681073,8.962761841,0.01756440662,0.002806705656,0.006195788737,4
22.9902835,3.635639648,-1.783990173,9.038803711,0.00379161397,-0.002157807816,0.004681091756,4
23.0103275,3.494333496,-1.582209778,8.909472656,0.0004528844729,-0.01617158018,0.01614688151,4
23.0303705,3.485052795,-1.656605072,8.877139893,-0.0005265905056,-0.008747035637,0.02147805691,4
23.0504145,3.492986298,-1.806293793,8.870553589,-0.007467594463,0.001806328306,0.01358003635,4
23.0704585,3.60031311,-1.956730957,8.886270905,-0.01055531576,0.006584562361,0.0007112473249,4
23.0905025,3.709585876,-1.92005722,9.041498108,0.007214650512,0.005498561077,-0.007417033426,4
23.1105465,3.808380432,-1.894759827,9.088949432,0.01387391239,-0.01522591896,-0.01121079735,4
23.1305905,3.704197083,-1.905687103,8.968599701,0.01278956048,-0.01488936227,-0.009270225652,4
23.1506335,3.645369415,-1.802401886,8.919801178,0.003244282678,0.006907048635,-0.00701244548,4
23.1706775,3.558849335,-1.722468109,8.941506042,-0.0004580679815,0.005948274862,0.001888419385,4
23.1907215,3.449277191,-1.725611572,8.92429184,-0.0008029825985,0.00875505805,0.0168028567,4
23.2107655,3.538791046,-1.776056671,8.984466705,0.0008584480966,0.01349797659,0.02195277624,4
23.2308095,3.618275757,-1.793270874,9.047635345,0.007106923964,-0.00403289916,0.01867678389,4
23.2508525,3.619622955,-1.810934143,8.975335693,0.007970558479,-0.009436158463,0.0150038451,4
23.2708965,3.667972412,-1.880838776,8.953181763,0.0142001491,0.002432171023,0.008284340613,4
23.29094071,3.69282074,-1.922003174,9.023834839,0.02750566788,0.003441059962,-0.00177065446,4
23.31098471,3.685036926,-1.846560059,9.000184021,0.02936622873,0.007555690594,-0.00119799329,4
23.33102871,3.607647858,-1.774859161,8.88791748,0.01722795703,0.007230877876,0.006773277652,4
23.35107271,3.561543732,-1.770817566,8.875643005,0.005178997759,0.003158539534,0.01374969818,4
23.37111571,3.532354431,-1.746867371,9.018146667,0.003846272128,0.01240052469,0.02045843005,4
23.39115971,3.481160889,-1.675016785,9.030870209,0.005846962333,-0.002990833018,0.02540949732,4
23.41120371,3.453618164,-1.719923401,8.902736664,0.004855204374,-0.0154334465,0.02982337959,4
23.43124771,3.527414703,-1.800605621,8.848399658,-0.01436883584,0.0002526873723,0.02359866351,4
23.45129171,3.662882996,-1.880240021,8.868457947,-0.02779200487,0.004953573458,0.0108168032,4
23.47133471,3.687132568,-1.903591461,8.985963593,-0.02447161078,-0.0004142154939,0.004812644329,4
23.49137871,3.720213776,-1.95403656,9.08341095,-0.004713417497,-0.005649086554,-0.009891705588,4
23.51142271,3.675606537,-1.877096558,9.011410675,0.007625043392,-0.01270893775,-0.01418385934,4
23.53146671,3.558699646,-1.786983948,8.861871643,-0.007485525217,-0.004255757667,-0.005482530221,4
23.55151071,3.522025909,-1.766177216,8.909772034,-0.0130136041,0.007107387297,0.001377918641,4
23.57155471,3.574267273,-1.728904724,9.018745422,-0.008515866473,-0.003131714649,0.004571232945,4
23.59159771,3.560944977,-1.766177216,8.953780518,-0.004544445779,-0.01177616417,0.01014932524,4
23.61164171,3.541335754,-1.817819824,8.90902359,-0.01325588766,-0.005131008103,0.01526387967,4
23.63168571,3.581452332,-1.842368774,8.949439545,-0.01718422584,-0.002556927036,0.01643049158,4
23.65172971,3.633544006,-1.841919708,9.014853516,-0.009339015,-0.00794918742,0.0132468082,4
23.67177371,3.669918365,-1.84401535,8.970845032,-0.009671742097,-0.004840028472,0.007801675238,4
23.69181671,3.667523346,-1.833986206,8.891360321,-0.0180662293,0.00303483475,-0.002309310017,4
23.71186071,3.667523346,-1.822909241,8.93357254,-0.02238169499,0.007047965191,-0.009990174323,4
23.73190471,3.656745758,-1.829046478,8.958869934,-0.01664903387,0.00815162342,-0.01021176297,4
23.75194871,3.60854599,-1.849404144,8.964707794,-0.01298131701,0.006965868641,-0.005892804824,4
23.77199271,3.571722565,-1.837279358,8.96874939,-0.01239075046,0.01082999445,-0.001463692868,4
23.79203671,3.56872879,-1.838626556,8.947942657,-0.01062299497,0.004496188834,0.004704060499,4
23.81207971,3.547622681,-1.817520447,8.97578476,-0.009308742359,0.008059675805,0.008386081085,4
23.83212371,3.556753693,-1.846560059,8.971443787,-0.006195582449,0.007843379863,0.008886408061,4
23.85216771,3.581003265,-1.838027802,8.938212891,-0.006022801623,0.004809281323,0.008707690984,4
23.87221171,3.588338013,-1.876348114,8.935518494,-0.005973747931,0.004719808232,0.006672630552,4
23.89225571,3.598367157,-1.890269165,8.999285889,-0.004049960524,0.0101798391,-0.0006468358915,4
23.91229871,3.639681244,-1.860930176,9.036857758,0.002393430797,0.007668687496,-0.007222923916,4
23.93234271,3.630999298,-1.8592836,8.988358612,0.005282717757,-0.0004770867527,-0.008197423071,4
23.95238671,3.578308868,-1.869462433,8.891360321,-0.002384165302,0.004684254993,-0.004600142129,4
23.97243071,3.582949219,-1.857786713,8.890611877,-0.008739913814,0.01225971058,-0.004228199832,4
23.99247471,3.596121826,-1.839824066,8.984317017,-0.004291508812,0.006006399635,-0.003918529488,4
24.01251871,3.576662292,-1.826052704,8.987909546,0.001546660671,-0.001622909214,-0.0001087212004,4
24.03256171,3.564986572,-1.837878113,8.944499817,-0.00236501405,-0.002931891009,0.00437262468,4
24.05260571,3.579506378,-1.858984222,8.945397949,-0.005947017577,0.002995763905,0.005955746397,4
24.07264971,3.594774628,-1.843715973,8.988508301,-0.001702864654,0.005373643246,0.006971531548,4
24.09269371,3.598516846,-1.867516479,8.94644577,-0.002067955909,0.002700599842,0.006505916826,4
24.11273771,3.576362915,-1.868564301,8.962612152,-0.004186576232,0.0006089049857,0.003362770192,4
24.13278071,3.601959686,-1.863325195,8.964707794,-0.002716527786,0.003295682836,-0.0004663837608,4
24.15282471,3.58399704,-1.873653717,8.969048767,-0.001598671777,0.001635791734,-0.00291388412,4
24.17286871,3.585493927,-1.862876129,8.932524719,-0.0014502462,0.004017123021,-0.001585040009,4
24.19291271,3.590733032,-1.865570526,8.942703552,-0.004760933109,0.005068035796,-0.002841667738,4
24.21295671,3.590733032,-1.845961304,8.968450012,-0.004195345566,0.002225013915,0.0004775039852,4
24.23300071,3.562591553,-1.864373016,8.973090363,-0.0004763915204,-0.0006555551663,0.0004504416138,4
24.25304371,3.582350464,-1.851799164,8.956025848,-0.0006294997875,0.00222442369,-0.0001165927388,4
24.27308771,3.592529297,-1.853296051,8.954379272,-0.0007619063836,0.0005713263527,0.0007841815241,4
24.29313112,3.602857819,-1.85808609,8.938661957,-0.000261486508,7.133651525e-05,0.00250948756,4
24.31317512,3.584745483,-1.863474884,8.95467865,3.617955372e-05,0.003514223965,0.002307537477,4
24.33321913,3.571572876,-1.860032043,8.973090363,-0.001030381303,0.00374211208,0.001333416672,4
24.35326312,3.59687027,-1.863325195,8.943302307,-0.001279311022,0.001956776017,0.001893294859,4
24.37330612,3.580703888,-1.881138153,8.972042542,0.0004202709533,0.002759912051,0.0006552846171,4
24.39335012,3.577560425,-1.856140137,9.001980286,0.002865139861,0.002942803781,-0.001039624913,4
24.41339412,3.576512604,-1.836381226,8.999734955,0.002861578716,-0.004012925085,-0.0006388563197,4
24.43343813,3.567531281,-1.835632782,8.916208649,-0.0002895768266,-0.005066225305,-0.001717426581,4
24.45348212,3.599414978,-1.89431076,8.85753067,-0.005344037898,0.0001862524077,-0.003242795588,4
24.47352512,3.625610504,-1.921703796,8.943751373,-0.008259642869,0.009884458035,-0.01008263696,4
24.49356912,3.621568909,-1.899849243,9.02248764,-0.003762402572,7.804157212e-05,-0.01119878516,4
24.51361312,3.579656067,-1.819167023,9.015901337,0.003728286829,-0.01059688628,-0.005393031985,4
24.53365713,3.552562408,-1.823208618,9.003028107,0.007054940332,-0.003186821938,-0.004640650004,4
24.55370112,3.546724548,-1.83114212,8.943751373,0.001620835625,-0.001819774043,-0.002667697379,4
24.57374512,3.551514587,-1.836381226,8.886570282,-0.002794378903,-0.001754136756,0.002711106557,4
24.59378812,3.577710114,-1.868115234,8.962163086,-0.001111432677,0.001401322195,0.001340988558,4
24.61383212,3.615731049,-1.898352356,8.981173553,0.001898221788,-0.001655096654,-0.0005308783147,4
24.63387613,3.616180115,-1.896107025,8.968150635,0.002534538275,-0.003115110099,-0.003223941429,4
24.65392012,3.605701904,-1.893861694,8.991352386,0.006481458433,-0.001321031712,-0.006558649242,4
24.67396412,3.598516846,-1.849104767,9.008716278,0.007830099203,-0.001291649882,-0.008990318514,4
24.69400812,3.582350464,-1.834884338,8.969946899,0.01005554758,-0.008970637806,-0.007337945513,4
24.71405112,3.541934509,-1.857487335,8.914113007,0.00765948277,-0.001055029221,-0.0003119991161,4
24.73409513,3.563339996,-1.854493561,8.865464172,-0.0009192235302,0.006600237451,0.002100398298,4
24.75413912,3.60151062,-1.839375,8.958720245,-0.004365127999,-0.002221076284,0.0008854453918,4
24.77418312,3.572920074,-1.849404144,9.005572815,-0.001000739867,-0.006654619239,0.0006258515641,4
24.79422712,3.588936768,-1.863175507,8.948092346,0.0008747967659,-0.004043713212,-0.00254511903,4
24.81427012,3.588338013,-1.855990448,8.933273163,-0.004167736042,0.001475135796,-0.002623939188,4
24.83431413,3.576362915,-1.851499786,8.930429077,-0.005444836803,-0.002379429992,-0.001109234756,4
24.85435812,3.578608246,-1.866618347,8.96874939,-0.003536284203,-0.00336906733,-0.0003215742763,4
24.87440212,3.580554199,-1.850451965,9.013656006,0.0006292420439,7.601920515e-06,4.922132939e-05,4
24.89444612,3.603157196,-1.829794922,8.985813904,0.0002908010501,-0.00400277786,-0.0005447543226,4
24.91449012,3.624263306,-1.850751343,8.937015381,-0.0005872312468,-0.0003575580195,-0.0001827210654,4
24.93453313,3.610192566,-1.853146362,8.944200439,-0.002509413287,0.00407946622,-0.0005343332887,4
24.95457712,3.602408752,-1.861229553,8.971443787,-0.000995934708,0.005281821359,-0.001851310488,4
24.97462113,3.593128052,-1.859732666,8.955726471,-0.001513247844,0.001738162013,-0.002340743784,4
24.99466512,3.559747467,-1.871109009,8.94644577,0.00178577262,0.0003461074084,-0.002187071135,4
25.01470912,3.557502136,-1.870061188,8.937015381,-0.002113691531,-0.002814428415,-0.001675716368,4
25.03475313,3.538491669,-1.825753326,8.943451996,-0.001337403664,-0.007569539361,0.002019998617,4
25.05479612,3.525169373,-1.827399902,8.974437561,0.0003873750102,-0.003959718626,0.008065475151,4
25.07484013,3.499123535,-1.78084671,9.008716278,0.006457204465,-0.00529483892,0.008731885813,4
25.09488412,3.498824158,-1.725312195,9.073082428,0.01204668172,-0.02498499677,0.01441114396,4
25.11492812,3.47861618,-1.552272034,8.897497559,-0.006459055934,-0.02984880283,0.005888561253,4
25.13497213,3.468587036,-1.486708374,8.685388641,-0.031660676,-0.02488153242,0.02497975342,4
25.15501612,3.453917542,-1.683549042,8.624764709,-0.05991068855,0.01824083924,0.04657261446,4
25.17505913,3.464395752,-1.812580719,8.831634521,-0.07105636597,0.02968690544,0.07526557893,4
25.19510312,3.677402802,-2.072889404,9.065148926,-0.0279115364,0.02213741466,0.07966907322,4
25.21514712,3.754642181,-1.964365082,9.574689331,0.07755668461,-0.01685460284,0.081994012,5
25.23519113,3.571722565,-1.84641037,9.379794617,0.1008393914,-0.07912242413,0.09578046203,5
25.25523512,3.921694794,-1.863025818,8.804540863,0.04757577553,-0.05762943253,0.06256982684,5
25.27527912,4.067341919,-1.914369049,8.9301297,0.04704416543,0.008995275944,0.05869491398,5
25.29532233,3.897894287,-1.941762085,9.097781067,0.07857324183,0.01222256105,0.08797457814,5
25.31536633,3.764970703,-1.819616089,9.074878693,0.1022190675,0.02110669389,0.09871900082,5
25.33541033,3.585493927,-1.617236938,9.151818695,0.1457173675,-0.09895080328,0.1219203845,5
25.35545433,3.257376251,-1.542841644,8.657097473,0.08907545358,-0.1202612594,0.1624139845,5
25.37549833,3.212469635,-1.769620056,8.203540649,-0.03283891082,0.02226253226,0.174595207,5
25.39554133,3.560046844,-1.797611847,8.813671875,-0.037009608,0.1377845854,0.1664611548,5
25.41558533,3.818110199,-1.620230713,9.61690155,0.06146589294,0.03251085058,0.1849714816,5
25.43562933,3.631598053,-1.582209778,9.353748779,0.06742396951,-0.06437147409,0.2351745963,5
25.45567333,3.573518829,-1.640738068,8.715775452,0.006148992106,0.03518182784,0.2313671112,5
25.47571733,3.525169373,-1.594035187,8.945397949,-0.02737368271,0.2209088057,0.2041276544,5
25.49576133,3.641776886,-1.585203552,9.268875275,-0.07557505369,0.2457235754,0.2063602209,5
25.51580433,3.663032684,-1.769620056,8.992699585,-0.1124090478,0.1596861929,0.229758203,5
25.53584833,3.74895401,-2.18216217,9.042246552,-0.07722908258,0.2082544714,0.2100231647,5
25.55589233,3.705993347,-2.369871826,8.928632812,-0.09681495279,0.2962361276,0.1588086039,5
25.57593633,3.273392944,-2.448608093,8.833580475,-0.1412703544,0.3320820928,0.1111433655,5
25.59598033,3.154240723,-2.575244751,9.065448303,-0.1445505023,0.2997335494,0.0695515275,5
25.61602433,3.149600372,-2.796185303,9.023834839,-0.1011619493,0.2895233929,0.02010778338,5
25.63606733,3.294798431,-2.943778381,9.001082153,-0.0604650639,0.32203421,-0.05848969147,5
25.65611133,3.209326172,-2.970422974,8.632548523,-0.1244975179,0.3836063743,-0.134171173,5
25.67615533,3.010389862,-2.987487488,8.654403076,-0.1692169756,0.4423858821,-0.2058748305,5
25.69619933,3.388353882,-2.966680756,9.117390289,-0.2196535915,0.4978613257,-0.2988424003,5
25.71624333,3.649411011,-2.83630188,8.866661682,-0.3837732375,0.4840799272,-0.3541247845,5
25.73628733,3.504512329,-2.684816895,8.901688843,-0.4639992118,0.5487356782,-0.3091212511,5
25.75633033,3.360062714,-3.290607147,8.751700745,-0.4899321198,0.6667560339,-0.2592904568,5
25.77637433,3.209326172,-3.735931091,8.98626297,-0.4413623214,0.6981320977,-0.2704164684,5
25.79641833,2.865940247,-3.481609955,9.552385712,-0.3712796569,0.5417761803,-0.3894873857,5
25.81646233,2.757415924,-3.991000671,9.045839081,-0.4801854193,0.6918567419,-0.4427474737,5
25.83650633,2.641407166,-4.330644379,9.299561462,-0.4283407331,0.5735223293,-0.4584577084,5
25.85655033,2.900069275,-4.331542511,9.61929657,-0.2263501883,0.4199889004,-0.4543007314,5
25.87659333,3.660338287,-4.472848663,10.28945297,-0.02256489918,0.3750062883,-0.3531962633,5
25.89663733,3.9654039,-4.284091187,10.67340454,0.02607776038,0.4097283781,-0.1110973731,5
25.91668133,4.39366333,-4.046535187,10.70918015,-0.3617041409,0.7239437699,0.08402515948,5
25.93672533,4.104913788,-4.29891037,9.19223465,-0.6845257878,1.036801815,0.2331370115,5
25.95676933,3.902834015,-4.004322968,9.975256348,-0.4572372437,1.086887836,0.2657958865,5
25.97681333,2.637814636,-4.143832855,10.49108368,-0.02832774259,0.7177023888,0.2862935364,5
25.99685633,1.081800385,-4.255500641,9.836195526,0.2889733911,0.5954893827,0.09563548863,5
26.01690033,-0.2561174011,-3.24929306,10.9858049,0.4900618196,0.5687151551,0.1231618971,5
26.03694433,-0.01930984497,-3.753294983,11.75834839,0.5911613107,0.5287095904,0.2863304317,5
26.05698833,-0.3112028503,-4.281546478,11.02322708,0.9973917007,0.3989631236,0.381837219,5
26.07703233,0.5246589661,-4.1432341,9.448801117,1.333548307,0.2060694247,0.3209960759,5
26.09707633,1.810485077,-3.570525055,8.701105957,1.522292972,0.01617818139,0.2917445898,5
26.11711933,1.877845001,-3.015628967,8.48540451,1.54956913,-0.04403824732,0.3002075255,5
26.13716333,1.352736969,-2.620001678,9.414073334,1.53635788,0.03096506,0.2825761735,5
26.15720733,0.3589535522,-2.063908081,10.09575577,1.735244274,-0.08353229612,0.2581657171,5
26.17725133,0.004041595459,-1.504970398,10.71876022,1.966014743,-0.2387926877,0.2888768613,5
26.19729533,0.5525010681,-1.322350159,11.93543015,2.20213294,-0.4151447117,0.3123474419,5
26.21733833,1.566492462,-2.142195282,10.7536377,2.449170589,-0.5269682407,0.2404075265,5
26.23738233,2.120041351,-2.590962067,11.67452271,2.46838665,-0.4719240069,0.1252375096,5
26.25742633,2.313139801,-1.593436432,11.14058304,2.483417988,-0.2391815633,-0.1042458862,5
26.27747033,2.204016724,0.09445358276,11.25015518,2.525778294,-0.04505040869,-0.2690337896,5
26.29751383,0.7881111145,2.925516357,9.080866241,2.492235899,0.1011081487,-0.268723309,5
26.31755783,-0.4258644104,3.996389465,8.656798096,2.284983158,0.300555557,-0.1674963385,5
26.33760083,-0.05583389282,3.795058136,8.560697937,2.240178347,0.2702812254,-0.04478478432,5
26.35764483,1.081051941,3.464096375,9.091194763,2.233134985,0.3081238568,-0.06552031636,5
26.37768883,1.19346817,3.277584229,8.018226013,2.119162083,0.323237747,-0.2351349592,5
26.39773283,0.8294252014,3.616030426,8.396190033,2.055196047,0.3169741929,-0.4397282302,5
26.41777683,0.483943634,4.081562347,8.673413544,2.091038465,0.2060550451,-0.545456171,5
26.43782083,0.4053570557,4.27076889,7.770191803,1.99988687,0.2652281225,-0.5996652246,5
26.45786383,0.9981243896,5.188360748,8.868158569,1.94184804,0.3645308018,-0.6580358148,5
26.47790783,1.294657745,5.862708435,8.278684387,1.984453321,0.3894464374,-0.7107801437,5
26.49795183,0.9461824036,6.04697525,7.719447327,2.013478041,0.3166876733,-0.7472884655,5
26.51799583,0.07469467163,6.044879608,8.237519989,2.101234913,0.4321739376,-0.7348430157,5
26.53803983,-0.3637435913,5.787415009,7.191046143,2.143320322,0.4239853919,-0.6525892615,5
26.55808383,-0.09505233765,6.092779999,6.646478577,2.129080534,0.4660908878,-0.5877753496,5
26.57812783,0.1689985657,6.784341888,6.725813599,2.202515125,0.473541826,-0.5635135174,5
26.59817083,-0.05957611084,7.219636688,5.802234192,2.195633173,0.6675141454,-0.3794576228,5
26.61821483,-0.6418652344,7.706723785,5.303171997,2.067971945,0.9253281355,-0.1171741486,5
26.63825883,-0.6298901367,8.290210419,4.95529541,1.974640965,1.023043394,0.03096026555,5
26.65830283,-0.6991960144,8.199499054,4.376898193,1.880930185,1.149196982,0.09106630087,5
26.67834683,-0.710123291,8.009544067,4.529431,1.837918639,1.17405355,0.09282527119,5
26.69838983,-0.5519023132,7.415728912,4.239633636,1.901925325,0.9971795082,0.08075486124,5
26.71843383,-0.8014334106,7.050488434,3.930975494,1.965818763,0.7749236226,0.125387907,5
26.73847783,-1.102906494,7.002288666,3.043022003,1.960585475,0.5819544792,0.250959903,5
26.75852183,-1.405876465,7.209607544,2.334844666,1.82871139,0.4118529558,0.3977868855,5
26.77856583,-1.680704956,7.38444397,1.842817841,1.678001165,0.3159259856,0.5365772843,5
26.79860983,-1.298399963,7.635172577,2.060764618,1.597157955,0.3274005949,0.5071040988,5
26.81865383,-0.9665400696,7.994724884,2.112257538,1.617576122,0.2485867441,0.480183512,5
26.83869683,-0.9369017029,8.64572113,1.528621216,1.621297598,0.07288333774,0.4983763993,5
26.85874083,-1.159488831,8.973539429,0.8249345398,1.570288897,-0.05888476223,0.6258308291,5
26.87878483,-1.107696533,8.675209808,0.4763095093,1.507990122,-0.1100769341,0.6901169419,5
26.89882883,-0.9267228699,8.327931976,0.54292099,1.418548584,-0.07106485963,0.6446649432,5
26.91887283,-0.9833052063,8.125403137,0.1540296936,1.296115398,-0.1267057806,0.5576985478,5
26.93891583,-0.9214837646,7.899822235,-0.4939727783,1.180029988,-0.1681018025,0.4502472878,5
26.95895983,-0.9967771912,8.243507538,-0.2809657288,0.9443510771,0.223852843,0.1749685407,5
26.97900383,-1.111139374,9.001082153,0.596509552,0.6349599361,0.7781150341,-0.2078993469,5
26.99904783,-1.139430542,9.538314972,0.3203338623,0.577287674,0.8077695966,-0.3402101696,5
27.01909183,-1.101259918,9.917027435,0.05523513794,0.6259726882,0.5529088378,-0.2979508638,5
27.03913583,-0.5008584595,9.998907166,0.4162843323,0.6739091873,0.2481915057,-0.2438998669,5
27.05917983,-0.157023468,9.75970459,0.26210495,0.670506835,-0.0925450176,-0.1172103733,5
27.07922283,-0.02993774414,9.678872681,0.007035369873,0.6673356891,-0.3332389891,0.005647510756,5
27.09926683,-0.03293151855,9.569599915,-0.4697232056,0.6086617708,-0.4019041955,0.07916554064,5
27.11931083,-0.2203417969,9.360784149,-1.046174469,0.5034637451,-0.235465467,0.04626155645,5
27.13935483,-0.5191204834,9.386829987,-0.4180805969,0.5214410424,0.2369170934,-0.03957848623,5
27.15939883,-1.182391205,9.430239716,0.2183958435,0.5495904088,0.6002898812,-0.07374198735,5
27.17944283,-1.074016571,9.861642609,-0.6192622375,0.4315783381,0.4973164499,-0.1043427065,5
27.19948583,-0.8695417786,9.836794281,-1.44734024,0.3167764544,0.1215807348,-0.05354166776,5
27.21952983,-0.7289840698,9.650731201,-1.079854431,0.3064479232,-0.1550312191,0.002377587138,5
27.23957383,-0.7436535645,9.737550659,-0.6791377258,0.2927101254,-0.09677216411,0.0156417191,5
27.25961783,-0.6033952332,9.731413422,-0.4568499756,0.2049820274,0.07630749792,-0.04557651281,5
27.27966183,-0.1980381775,9.649084625,-0.887504425,0.09956298769,0.01068424247,-0.09667296708,5
27.29970583,0.199385376,9.767189026,-1.107397156,0.1294793338,-0.08523578197,-0.07833987474,5
27.31974883,0.3034190369,9.661957855,-1.070424042,0.213834092,-0.02999239415,-0.05164485797,5
27.33979283,0.0260458374,9.890532532,-1.243464203,0.231299594,0.11469201,-0.04211065173,5
27.35983683,-0.3643423462,9.864786072,-1.081501007,0.2309276164,0.1876541525,-0.04079603031,5
27.37988083,-0.6174659729,9.672286377,-1.132544861,0.1955649406,0.1314199865,-0.04258403555,5
27.39992483,-0.6918612671,9.577982483,-1.412911835,0.1649831235,0.03289784119,-0.04766644165,5
27.41996883,-0.9163943481,9.594897308,-1.150806885,0.2308302075,0.05668506026,-0.05675116181,5
27.44001183,-1.078956299,10.0740509,-0.6378236389,0.2620044947,0.2472605556,-0.1000307798,5
27.46005583,-0.7843688965,9.832004242,-1.432820435,0.08376539499,0.1423361003,-0.08302606642,5
27.48009983,-0.8405021667,9.551188202,-2.074985046,0.03703143075,-0.1230362728,-0.04111463204,5
27.50014383,-0.9901908875,9.76434494,-1.314117279,0.1321917176,-0.1215713471,-0.02465620823,5
27.52018783,-0.9460327148,9.936786346,-1.312021637,0.06022686884,-0.04667303711,-0.03298002109,5
27.54023183,-0.6779402161,9.831704865,-1.431473236,-0.01647616737,-0.02461540513,-0.01847777329,5
27.56027483,-0.5120851135,9.742789764,-1.344803467,0.0003456154373,0.02982674912,-0.02190721035,5
27.58031883,-0.4390370178,9.826016693,-1.570534058,0.01809417643,0.0284197554,-0.02892073058,5
27.60036283,-0.5361849976,9.770931244,-1.737287292,0.01224166155,-0.08153117448,-0.02053239383,5
27.62040683,-0.7479945374,9.700577545,-1.471290436,0.0007081348449,-0.09951988608,-0.01294357143,5
27.64045083,-0.7827223206,9.748927002,-1.304237823,-0.03266741335,-0.0340882428,-0.01434312481,5
27.66049483,-0.7478448486,9.828860779,-1.332528992,-0.03623026609,-0.002510655671,-0.005122544244,5
27.68053783,-0.6816824341,9.684261475,-1.44269989,-0.02671906538,-0.01823917031,-0.0006293691695,5
27.70058183,-0.716559906,9.693691864,-1.568438416,-0.02428068221,-0.04134977236,0.006656610407,5
27.72062583,-0.8906478882,9.742640076,-1.432071991,-0.01476688124,-0.06501040608,0.001479607308,5
27.74066983,-0.9315129089,9.667496338,-1.313219147,-0.03489901498,-0.05375383049,-0.01979951188,5
27.76071383,-0.8180488586,9.762398987,-1.31052475,-0.05860584974,-0.02064148337,-0.02455066331,5
27.78075783,-0.7421566772,9.817634125,-1.15020813,-0.03830427304,-0.01618635841,-0.02217425965,5
27.80080183,-0.6252497864,9.688752136,-1.177301788,-0.02991834283,-0.05445739999,-0.02283556014,5
27.82084483,-0.5786965942,9.691147156,-1.278491364,-0.02960941568,-0.04675793648,-0.0214858707,5
27.84088883,-0.680634613,9.70940918,-1.024020538,-0.005042972974,-0.01218460593,-0.01868998259,5
27.86093283,-0.6836283875,9.707163849,-0.9870474243,-0.02115442604,-0.005311577581,-0.01447893772,5
27.88097683,-0.729433136,9.735904083,-0.9689350891,-0.04977521673,-0.004937298596,-0.006244416349,5
27.90102083,-0.6911128235,9.78545105,-0.7813751221,-0.05006361753,0.005844591185,0.000737916911,5
27.92106483,-0.6542893982,9.802066498,-0.7171586609,-0.06040078402,0.002705772873,0.01352110319,5
27.94110783,-0.63887146,9.749675446,-0.7961943054,-0.08233302087,-0.02489029244,0.008452027105,5
27.96115183,-0.6185137939,9.658664703,-0.8258326721,-0.07965617627,-0.01109316759,-0.005155356601,5
27.98119583,-0.688717804,9.602830811,-0.7746391296,-0.06135758013,0.02249523811,-0.01850305684,5
28.00123983,-0.6783892822,9.590855713,-0.7210505676,-0.04268358275,0.06569443643,-0.0310898833,5
28.02128383,-0.6517446899,9.654473419,-0.6679110718,-0.02748730779,0.0976048559,-0.03783769161,5
28.04132783,-0.6327342224,9.664352875,-0.689765625,-0.02346116863,0.1066612303,-0.0340199545,5
28.06137083,-0.705333252,9.710157623,-0.7450007629,-0.01758574881,0.07185710222,-0.0225584209,5
28.08141483,-0.7891589355,9.792785797,-0.7217990112,0.000290527707,0.04022811353,-0.02008905448,5
28.10145883,-0.9699829102,9.677375793,-0.6888674927,0.00215405738,0.02128761634,-0.02126554027,5
28.12150283,-0.9583071899,9.665550385,-0.7197033691,-0.005413875915,-0.01057361253,-0.03525369987,5
28.14154683,-0.9279203796,9.71644455,-0.7162605286,-0.004716226831,-0.04650879651,-0.04018218443,5
28.16159083,-0.7952961731,9.696086884,-0.689765625,-0.002191097476,-0.07300962508,-0.03698322922,5
28.18163383,-0.7039860535,9.696236572,-0.7553292847,0.008549089544,-0.09606731683,-0.04211282358,5
28.20167783,-0.6848258972,9.698182526,-0.7756869507,0.02550548688,-0.08209583163,-0.03591578454,5
28.22172183,-0.6903643799,9.736502838,-0.7167095947,0.04194255918,-0.06930934638,-0.03264807537,5
28.24176583,-0.6828799438,9.824819183,-0.7438032532,0.03186992556,-0.05281669274,-0.03862176836,5
28.26180983,-0.6170169067,9.807455292,-0.7077282715,0.01227973774,-0.03699028865,-0.02475606091,5
28.28185458,-0.6065386963,9.698781281,-0.6637197876,0.007191299461,-0.08105558902,-0.01203097403,5
28.30189858,-0.6646179199,9.76314743,-0.7170089722,0.01442868914,-0.1358507574,-0.008372914046,5
28.32194158,-0.7521858215,9.738748169,-0.7758366394,0.01238917001,-0.143606782,-0.003255254822,5
28.34198558,-0.762664032,9.655371552,-0.843046875,0.01126027852,-0.1147492677,-0.008929694071,5
28.36202958,-0.7565267944,9.704469452,-0.8514294434,0.004539039917,-0.08771170676,-0.01931158267,5
28.38207358,-0.7617658997,9.689799957,-0.8822653198,-0.002375614597,-0.08168688416,-0.02388604917,5
28.40211758,-0.7030879211,9.671987,-0.9376501465,-0.00198118831,-0.08378076553,-0.02684497833,5
28.42216158,-0.726738739,9.738299103,-0.9578581238,0.004182077944,-0.07569401711,-0.02918555588,5
28.44220458,-0.7444020081,9.72931778,-0.9406439209,0.01817181334,-0.06820377707,-0.02366758697,5
28.46224858,-0.7014413452,9.681118011,-1.009051666,0.02116006985,-0.0765126273,-0.02687864378,5
28.48229258,-0.7514373779,9.678872681,-1.073567505,0.02334976196,-0.05286922306,-0.034123227,5
28.50233658,-0.7780819702,9.708511047,-0.9783654785,0.03091614321,-0.01662035845,-0.0350741595,5
28.52238058,-0.7771838379,9.704170074,-0.8415499878,0.03959993646,-0.01856815629,-0.03199825063,5
28.54242458,-0.77927948,9.76434494,-0.9108558655,0.03203168139,-0.03864273429,-0.0205077026,5
28.56246758,-0.8078700256,9.767189026,-0.9334588623,0.03074739873,-0.04658909142,-0.02093353122,5
28.58251158,-0.895587616,9.709708557,-1.005309448,0.02855927125,-0.0529666096,-0.02056822926,5
28.60255558,-0.9761201477,9.639055481,-1.05186264,0.02273459733,-0.03915736824,-0.02536120266,5
28.62259958,-0.9999206543,9.702224121,-0.9915380859,0.01795197651,-0.02335514128,-0.02763777226,5
28.64264358,-0.9964778137,9.744136963,-0.9611512756,0.01175935566,-0.04250995442,-0.01949605159,5
28.66268758,-0.9789642334,9.732910309,-0.9886940002,0.01270020939,-0.07389250398,-0.008697481826,5
28.68273058,-0.9771679688,9.703721008,-1.032852173,0.01613231376,-0.07844524086,-0.003342469456,5
28.70277458,-1.037791901,9.764943695,-1.057550812,0.01422887668,-0.07501380146,-0.000738780247,5
28.72281858,-1.044827271,9.651779022,-1.075064392,0.01781289466,-0.06772808731,-0.004727369174,5
28.74286258,-1.025367737,9.68366272,-1.103954315,0.01002417877,-0.06556020677,-0.01021088473,5
28.76290658,-1.000968475,9.700427856,-1.052012329,0.005492671393,-0.05233036354,-0.009410927072,5
28.78295058,-0.94543396,9.720186768,-1.059646454,0.001726799179,-0.03713301942,-0.008412787691,5
28.80299458,-0.8575666809,9.701775055,-1.043779449,2.091052011e-06,-0.01086338423,-0.004423868377,5
28.82303758,-0.8288264465,9.727371826,-1.049766998,-0.003945583478,0.01051236317,-0.0003978370223,5
28.84308158,-0.7891589355,9.704170074,-1.040935364,-0.007365584373,0.0160253644,0.004373332951,5
28.86312558,-0.7810757446,9.768685913,-1.05186264,-0.02538636327,0.02985559404,0.005390249193,5
28.88316958,-0.7861651611,9.775571594,-0.9782157898,-0.03101289831,0.05599340796,0.01093513332,5
28.90321358,-0.7686515808,9.710157623,-0.9175918579,-0.02542859688,0.07112897933,0.004379732069,5
28.92325758,-0.7225474548,9.71404953,-0.8646020508,-0.00720459735,0.1025125757,-0.005301502068,5
28.94330158,-0.6354286194,9.753567352,-0.8086184692,-0.01113036275,0.1475295871,0.0006554564461,5
28.96334458,-0.6572831726,9.799671478,-0.9216334534,-0.03304446116,0.1819060445,0.02052652091,5
28.98338858,-0.9690847778,9.582922211,-1.207987976,-0.05195617676,0.08785060793,0.05288304761,5
29.00343258,-1.49419281,9.733059998,-1.330133972,-0.06475171447,-0.008535486646,0.03525149077,5
29.02347658,-1.210832062,9.792935486,-1.178499298,-0.1095356271,0.08779376,0.0007268849295,5
29.04352058,-0.7488926697,9.727820892,-1.124012604,-0.1385238618,0.1481298059,0.004510703962,5
29.06356458,-0.6857240295,9.665101318,-1.154998169,-0.09086200595,0.0429854393,0.01324877329,5
29.08360758,-0.8542735291,9.553583221,-1.130748596,-0.03836685047,-0.03513721377,0.0152172707,5
29.10365158,-0.8325686646,9.58890976,-0.9906399536,-0.02083328925,0.06361037493,-0.003539221827,5
29.12369558,-0.79215271,9.675280151,-0.7598199463,0.002067122608,0.1817884445,-0.01788741909,5
29.14373958,-0.7982899475,9.669442291,-0.6638694763,0.02824488468,0.2021860778,-0.03600940108,5
29.16378358,-0.8433462524,9.610614624,-0.6689588928,0.02697139233,0.1758052856,-0.05219245329,5
29.18382758,-0.9481283569,9.644743652,-0.8445437622,0.01494967844,0.1377267838,-0.06165655702,5
29.20387058,-1.005608826,9.686207428,-0.9319619751,0.01508524548,0.136705339,-0.06459072232,5
29.22391458,-1.041234741,9.684111786,-0.8873547363,0.009432788938,0.1652142406,-0.05308587104,5
29.24395858,-1.076860657,9.730664978,-0.8084687805,0.001608196413,0.1568120867,-0.04419622943,5
29.26400258,-1.048120422,9.753417664,-0.7596702576,-0.01947104186,0.09502221644,-0.03146191686,5
29.28404658,-1.001118164,9.771829376,-0.7137158203,-0.0449468866,0.02341479808,-0.01775161177,5
29.30409058,-0.9744735718,9.771230621,-0.7000941467,-0.06316963583,-0.0363474302,-0.006898083724,5
29.32413458,-0.9846524048,9.767189026,-0.697250061,-0.06471171975,-0.06769573689,-0.0004621732514,5
29.34417758,-1.04722229,9.699080658,-0.6830296326,-0.059369836,-0.0788301751,-0.0003842581064,5
29.36422158,-1.064137115,9.665550385,-0.6599775696,-0.04396802559,-0.07599105686,-0.009826142341,5
29.38426558,-1.044078827,9.67542984,-0.6472540283,-0.02298650704,-0.06716549397,-0.01148222852,5
29.40430958,-0.9671388245,9.70581665,-0.6842271423,-0.0091738021,-0.07308471203,-0.01395648159,5
29.42435358,-0.8925938416,9.704319763,-0.7132667542,0.005485162139,-0.07229156792,-0.01799069345,5
29.44439758,-0.8316705322,9.683063965,-0.6969506836,0.02435009181,-0.05744472519,-0.0250368733,5
29.46444058,-0.8089178467,9.704170074,-0.6432124329,0.04382831603,-0.05953711644,-0.02488033473,5
29.48448458,-0.8108638,9.706415405,-0.6095324707,0.05886286497,-0.06703867018,-0.02593337558,5
29.50452858,-0.8217910767,9.789342957,-0.6219566345,0.05414723977,-0.05694483221,-0.02013853192,5
29.52457258,-0.8390052795,9.735754395,-0.655486908,0.04421339557,-0.04716688022,-0.01114572585,5
29.54461658,-0.8777746582,9.683213654,-0.6524931335,0.03954161331,-0.05794272572,-0.00589287933,5
29.56466058,-0.8870553589,9.71524704,-0.6292913818,0.03381021693,-0.05949983373,-0.007564180531,5
29.58470458,-0.8104147339,9.757010193,-0.660276947,0.02806955576,-0.06855023652,-0.0064167073,5
29.60474758,-0.7629634094,9.733808441,-0.7828720093,0.03420381993,-0.07752898335,-0.002509023063,5
29.62479158,-0.786763916,9.734706573,-0.8665480042,0.03977877647,-0.06579297781,-0.002437904477,5
29.64483558,-0.9177415466,9.680519257,-0.8843609619,0.05013228208,-0.0370650962,-0.006726631895,5
29.66487958,-0.9979747009,9.694589996,-0.8909472656,0.04374168441,-0.029262878,-0.01295824442,5
29.68492358,-1.039288788,9.723928986,-0.9128018188,0.03593518957,-0.05448118225,-0.01001900993,5
29.70496758,-1.059197388,9.720935211,-0.9027726746,0.03373938426,-0.0850662291,-0.0002709459513,5
29.72501058,-1.001417542,9.720635834,-0.9506730652,0.0243226625,-0.09723448008,-0.004092177376,5
29.74505458,-0.9771679688,9.74443634,-1.003213806,0.01279578917,-0.09704812616,-0.007915218361,5
29.76509858,-0.9485774231,9.676926727,-1.069974976,0.01291611791,-0.09873665124,-0.008277850226,5
29.78514258,-0.9618997192,9.663005676,-1.031205597,0.02404343896,-0.0762835145,-0.01336317044,5
29.80518658,-0.9791139221,9.690847778,-0.9737251282,0.02364836633,-0.06642748415,-0.01743641868,5
29.82523058,-0.9818083191,9.67542984,-0.9729766846,0.02259247564,-0.09295415878,-0.01723655686,5
29.84527458,-0.9601034546,9.703122253,-1.071172485,0.02330238558,-0.08862512559,-0.01895129494,5
29.86531758,-0.9719288635,9.729916534,-1.127006378,0.01371852681,-0.04859065264,-0.01762048528,5
29.88536158,-1.023272095,9.720635834,-1.085243225,0.006314065307,-0.03161944449,-0.01198239252,5
