Time (s),Acc_X,Acc_Y,Acc_Z,Gyro_X,Gyro_Y,Gyro_Z,activity_label
4.872806542,-2.280956726,9.497449951,-0.62599823,0.02227435634,0.07714457065,-0.01750127785,1
4.892848542,-2.339634705,9.534872131,-0.6113287354,0.02920716256,0.09486597776,-0.01749937423,1
4.912890542,-2.312391357,9.40748703,-0.5974076843,0.02472126111,0.08139785379,-0.01448828727,1
4.932931542,-2.297272797,9.442514191,-0.6143225098,0.0258506462,0.07191418111,-0.009265491739,1
4.952973542,-2.33080307,9.484127655,-0.6221063232,0.02501735277,0.0657479465,0.001198697253,1
4.973015542,-2.404749298,9.479187927,-0.609382782,0.01823248155,0.05398708582,0.005927288905,1
4.993056542,-2.508483582,9.499246216,-0.5700146484,0.01013652887,0.03839282319,0.002037522383,1
5.013098542,-2.542163544,9.466763763,-0.632434845,0.003923641052,0.01801404916,-0.003431545338,1
5.033140542,-2.465223541,9.390422516,-0.6875202942,0.002235263819,0.02192004211,-0.01160341501,1
5.053181542,-2.352358246,9.427695007,-0.6945556641,0.01247298717,0.01203492191,-0.02192742564,1
5.073223542,-2.284698944,9.386680298,-0.6349795532,0.03461223841,0.01366805844,-0.02888443321,1
5.093265542,-2.303260345,9.370663605,-0.6855743408,0.04477772862,0.007808954455,-0.03022339754,1
5.113306542,-2.361339569,9.457183685,-0.7405101013,0.05107750744,0.01613261364,-0.02251707576,1
5.133348542,-2.409689026,9.438322906,-0.6200106812,0.06271965057,0.03755307943,-0.008808267303,1
5.153390542,-2.478845215,9.408085785,-0.6345304871,0.05469759926,0.01072786655,-0.005286921747,1
5.173431542,-2.586022339,9.471404114,-0.6376739502,0.05036304519,-0.01715670899,-0.004956843797,1
5.193473375,-2.628533936,9.55373291,-0.5674699402,0.04356558621,-0.04161070287,-0.01021909621,1
5.213515375,-2.538870392,9.560618591,-0.7400610352,0.02593845502,-0.04392693564,-0.01516071334,1
5.233556375,-2.684068451,9.657167816,-0.8943901062,0.002765763551,-0.06386544555,-0.00239569624,1
5.253598375,-2.861449585,9.696985016,-0.8821156311,0.00671270024,-0.05743005872,0.01132110041,1
5.273640375,-3.096161499,9.631720734,-0.7349716187,0.001935062231,-0.08394904435,0.007135397755,1
5.293682375,-3.148402863,9.687404938,-0.4064048767,-0.01206577756,-0.1497104317,-0.0190274287,1
5.313723375,-2.964585114,9.704319763,-0.08547225952,0.006130395923,-0.270124644,-0.03531551734,1
5.333765375,-2.99422348,9.810898132,-0.3653901672,-0.005328781903,-0.3671463728,-0.0130963577,1
5.353807375,-3.082390137,9.715995483,-0.6489006042,-0.04335073382,-0.2207846344,-0.001457012491,1
5.373848375,-2.679278412,9.535321198,-0.1314266968,-0.08564026654,0.116578348,-0.01357048191,1
5.393890375,-2.222727814,9.324559479,-0.7584727478,-0.2306204885,0.2970339954,0.01055661216,1
5.413932375,-1.940115509,9.048383789,-1.860032043,-0.2976800203,0.3140173554,0.02015295811,1
5.433973375,-1.550625458,8.32404007,-0.9204359436,-0.2444301099,0.32592085,0.04671899974,1
5.454015375,-1.648970947,8.269703064,-0.2785707092,-0.2268100977,-0.01017270889,0.136912331,1
5.474057375,-3.131488037,8.811127167,-0.1134640503,0.03659549356,0.03692865744,0.1998620927,1
5.494098375,-3.898043976,9.244476013,-0.3691323853,0.06101163104,0.1734364927,0.07310505211,1
5.514140375,-4.321064301,8.976682892,-0.9330097961,0.02840601094,0.2008744478,0.01982574351,1
5.534182375,-3.798800354,9.119485931,-0.1035845947,0.1682924032,0.1759729534,0.03554486483,1
5.554223375,-3.14166687,9.18983963,-0.07993377686,0.2514609993,-0.01595800743,0.07561539114,1
5.574265375,-2.673889618,9.362430725,-0.7747888184,0.2525984943,-0.3402916789,0.1486205012,1
5.594307375,-2.664459229,9.544901276,-0.6827302551,0.2300521731,-0.3946596384,0.2326893657,1
5.614348375,-2.81399826,9.482481079,-0.7095245361,0.1573213786,-0.3279244304,0.2427233756,1
5.634390375,-2.974464569,9.024134216,-1.376238098,0.04346711934,-0.4019414783,0.1712690443,1
5.654432375,-2.509232025,9.050180054,-1.566342773,-0.049508553,-0.5401446223,0.1445860118,1
5.674473375,-1.373244324,9.547595673,-0.9139993286,-0.05660142377,-0.5070482492,0.09906461835,1
5.694515375,-0.5652246094,9.763596497,-1.381477203,-0.09295104444,-0.2891362607,0.1378935874,1
5.714557375,0.2215393066,10.01911514,-2.047142944,-0.2037160397,0.06231591105,0.1400017738,1
5.734598375,0.6616241455,10.59377014,-1.151255951,-0.219559446,0.190836072,0.1348420531,1
5.754640375,0.09205856323,10.88775879,-0.2478845215,-0.05254783481,-0.02214416862,0.23859559,1
5.774682375,-1.520687714,9.761949921,0.4281097412,0.1936313957,-0.4861479998,0.2860819101,1
5.794723375,-2.133663025,8.814420319,1.097368011,0.228886053,-0.5212115049,0.1481700391,1
5.814765375,-2.070195007,8.877888336,1.138233032,0.1319515109,-0.1792241335,-0.06971079111,1
5.834807375,-1.329535217,9.507479095,0.6740483093,0.1880652457,0.2283826321,-0.1168487221,1
5.854848375,-0.09175918579,9.55837326,0.6231541443,0.4456255436,0.403724283,-0.003762240987,1
5.874890375,0.9713301086,9.361382904,-0.1161584473,0.5282124281,0.1491089165,0.06061699614,1
5.894932375,0.5969586182,9.267528076,-0.2752775574,0.4879869223,0.05298778415,0.06682334095,1
5.914973375,-0.6081852722,9.512119446,0.880019989,0.4989871085,0.1270750314,-0.007871989161,1
5.935015375,-1.095422058,9.729018402,0.8776249695,0.4835845232,-0.02661252953,-0.09557942301,1
5.955057375,-1.139729919,9.618997192,0.4032614136,0.4562633634,-0.3203708827,-0.1250862777,1
5.975098375,-1.19346817,9.517957306,-0.02215393066,0.4045390189,-0.4879927635,-0.1450429559,1
5.995140375,-1.111887817,9.368118896,-0.336051178,0.3225597441,-0.3856176436,-0.2217176557,1
6.015182375,-1.035396881,9.387428741,-0.5538482666,0.2444560826,-0.1967979074,-0.2837519944,1
6.035223375,-1.036594391,9.727970581,-0.1384620667,0.2218037695,-0.06252077967,-0.2710429728,1
6.055265375,-0.835562439,10.18541931,0.5065466309,0.283431232,0.003366279881,-0.1973100156,1
6.075307375,-0.2793191528,10.44617706,0.7206015015,0.2694911361,-0.02375986055,-0.1545559019,1
6.095348375,0.3188369751,10.45964905,-0.2092648315,0.1073201299,-0.2039397508,-0.0950056836,1
6.115390375,0.2562670898,10.2665506,-0.5483097839,0.02604417875,-0.2524697781,-0.02819881402,1
6.135432375,0.2965333557,10.38959473,-0.09145980835,-0.09598159045,-0.07338680327,-0.02017102204,1
6.155473375,0.1422042847,10.99059494,0.5471122742,-0.228243947,-0.04649109021,0.02111424506,1
6.175515375,-0.03098556519,11.77870605,1.224753113,-0.2891367376,-0.08652226627,0.1700229496,1
6.195561292,0.4619393921,12.515923,1.594184875,-0.3826111555,0.110806413,0.289483428,1
6.215602292,0.7473957825,13.59817245,0.3245251465,-0.7746419311,0.3989365697,0.2936302125,1
6.235644292,0.5370831299,14.0580162,-1.499132538,-1.327487707,0.702080965,0.2436972111,1
6.255686292,-1.22864502,12.82428177,-2.236349487,-1.623036504,0.9982815385,0.3224099278,1
6.275727292,-2.029030609,10.52326675,-1.524130554,-2.090070009,0.5585327744,0.4118068814,1
6.295769292,-2.130070496,9.297166443,-1.246308289,-2.731250763,-1.192310929,0.4840380847,1
6.315811292,-2.096689911,9.251062317,1.760189667,-2.221861839,-1.927229524,0.228702113,1
6.335852292,-3.580554199,9.411678314,1.538500671,-1.787739396,-2.168672562,0.3244701922,1
6.355894292,-7.086114349,9.672735443,0.9033714294,-1.632281423,-2.325782299,0.7504085898,1
6.375936292,-4.360133057,10.69451065,1.112636261,-1.589325428,-1.308334947,0.5556212068,1
6.395977292,-3.969894562,10.81920135,1.129551086,-1.606975436,0.5236846209,0.5795795321,1
6.416019292,-2.901566162,10.99882782,0.7494914246,-1.869700789,0.9477371573,0.859826386,1
6.436061292,-0.8397537231,10.86740112,0.5857319641,-1.818483114,0.3743504584,1.235225081,1
6.456102292,0.6486012268,10.92503128,1.747615814,-1.586164594,0.518328011,1.267593861,1
6.476144292,0.5460644531,9.33024765,1.797761536,-1.56648016,1.277630448,1.007744074,1
6.496186292,-1.247056732,8.031398621,0.7217990112,-1.68756187,1.602514505,0.8617551327,1
6.516227292,-2.595602417,7.286846924,0.4323010254,-1.748991609,1.631028295,0.7838574052,1
6.536269292,-2.759661255,6.930887146,1.684147797,-1.51464808,1.558873415,0.5401186347,1
6.556311292,-2.751578064,6.568790131,2.940036163,-1.064232469,1.473254442,0.2492576391,1
6.576352292,-3.259621582,6.111640778,5.174439697,-0.4100450873,1.352045894,0.1183398589,1
6.596394292,-2.964136047,5.833070068,4.308789825,0.05650741979,0.8596523404,0.0200860966,1
6.616436292,-1.784139862,5.709277496,4.751269684,0.3809243143,0.692286849,-0.04698394984,1
6.636477292,-0.8170010376,5.985752563,5.083428955,0.5945478082,0.672550559,-0.1339931339,1
6.656519292,-0.1755848694,6.343508606,4.640200653,0.676433742,0.565066874,-0.2993723154,1
6.676561292,-0.7238946533,6.277196503,4.011807404,0.6951889396,0.891156435,-0.3864958584,1
6.696602292,-1.294807434,6.114634552,4.226910095,0.9139011502,1.314715743,-0.2810197473,1
6.716644292,-0.3911366272,7.215146027,5.240751801,1.196677804,1.603843093,-0.2620236874,1
6.736686292,-0.2251318359,8.461604004,5.736221466,1.274199009,1.096127033,-0.1421778947,1
6.756727292,-1.152154083,10.10518616,5.885760498,0.9660741687,0.1566823274,0.1457470357,1
6.776769292,-1.930385742,12.02314774,5.696254578,0.2118502557,-0.403113097,0.4383262694,1
6.796811292,-1.747466125,10.59272232,5.776188354,-0.2331992388,-0.1355297118,0.6729072928,1
6.816852292,-0.2839595032,6.330635376,4.378694458,0.2388372123,0.2626901865,0.6089473963,1
6.836894292,-1.074615326,4.044439545,1.328637085,1.318227649,-0.6767606735,0.3454118669,1
6.856936292,-3.636238403,7.455995178,1.562750244,1.906262517,-0.9872957468,-0.4508337677,1
6.876977292,-6.57238266,14.05621994,2.036814423,0.773686111,-0.9563655257,-0.9445147514,1
6.897019292,-7.396419067,23.61818573,2.846929779,-0.1202258095,-1.762714148,0.1596259922,1
6.917061292,0.2269281006,14.33029999,2.439327393,1.631288767,-0.4413533211,0.5245376825,1
6.937102292,-0.03936813354,5.059029694,-4.417463837,1.539692283,0.7604158521,0.2959189713,1
6.957144292,-0.6677613831,2.353855133,-5.00559082,0.3783743382,-0.07517042011,-0.1825253218,1
6.977186292,-0.9565109253,7.070995789,-1.407373352,0.703537643,-0.5603913069,-0.6092844009,1
6.997227292,-2.13306427,11.10600494,0.04445755005,1.16638577,0.06065401435,-0.601715982,1
7.017269292,-2.21733902,12.09110641,0.04909790039,1.290885687,0.1220557019,-0.3493500352,1
7.037311292,-1.534459076,10.51383636,0.8388555908,1.137747407,-0.4437989593,-0.1808190197,1
7.057352292,-2.304757233,8.745114441,0.7782316589,1.023767829,-1.069510698,-0.05324049667,1
7.077394292,-1.968855743,8.213270416,0.2707868958,1.07661581,-1.00502491,-0.04444971308,1
7.097436292,-1.565744019,8.9102211,-0.05433700562,1.091048837,-0.5495274067,-0.0668104142,1
7.117477292,-0.4766088867,9.291328583,-0.8770262146,0.8452640176,-0.49299559,-0.1382668316,1
7.137519292,0.4932243347,9.719737701,-0.2435435486,0.5702151656,-0.3600908816,-0.1489360034,1
7.157561292,0.7008425903,9.866881714,0.9806108093,0.5755522847,-0.3206765652,-0.07630302012,1
7.177602292,0.09056167603,10.03632935,1.101409607,0.5654986501,-0.3487324715,0.01873305067,1
7.197641125,-0.399818573,9.820927277,0.6273454285,0.4838964343,-0.2554405034,0.005032705143,1
7.217683125,-0.5408253479,9.269174652,0.4701722717,0.4400493503,-0.1586183906,-0.06222415343,1
7.237724125,-0.7990383911,8.988358612,0.1655557251,0.4758715332,-0.07639385015,-0.1074241921,1
7.257766125,-0.7834707642,8.852291565,0.3115022278,0.5659919381,-0.02089975029,-0.1792917848,1
7.277808125,-0.8077203369,9.091943207,0.6478527832,0.7052477598,-0.1732751578,-0.2445843369,1
7.297849125,-0.9530680847,9.468859406,0.1924996948,0.7690281868,-0.3560450971,-0.2496474683,1
7.317891125,-1.068927155,9.493408356,0.1056802368,0.8262286186,-0.2609896064,-0.2786339223,1
7.337933125,-1.019380188,9.445507965,0.2868035889,0.8581990004,-0.2330958247,-0.3566293716,1
7.357974125,-1.037492523,9.788744202,-0.04041595459,0.8504351974,-0.3839259744,-0.4765576124,1
7.378016125,-1.210532684,10.20323227,-0.450712738,0.8802211285,-0.3627345264,-0.6110585928,1
7.398058125,-1.287023621,10.38794815,-0.6590794373,0.8228579164,-0.2198587805,-0.6985484958,1
7.418099125,-0.5387297058,10.04935226,-0.5219645691,0.6281404495,-0.1515996307,-0.6458156705,1
7.438141125,-0.1857637024,10.47297134,-0.4107458496,0.5386992097,-0.1948224455,-0.366897434,1
7.458183125,0.1601669312,11.28608047,0.1618135071,0.4644881189,-0.09334850311,-0.1272034049,1
7.478224125,0.5126838684,11.64832718,0.4382885742,0.1892231107,-0.1415756643,0.003400775604,1
7.498266125,0.2890489197,12.19439163,0.8557704163,-0.05786404014,-0.06868427992,0.0597377345,1
7.518307125,0.2010319519,12.76829819,0.4198768616,-0.3829524815,0.3229106069,0.06478825957,1
7.538349125,0.09505233765,12.86544617,-0.8568182373,-0.9772965908,0.6744922996,0.1366338134,1
7.558391125,-0.1419049072,13.0321994,-2.506687317,-1.634460807,0.9918845296,0.3783039451,1
7.578432125,-0.8096662903,11.46570694,-1.72231842,-2.053763866,0.7923105955,0.6836382151,1
7.598474125,-1.916315002,8.575816498,-1.70944519,-2.429475069,0.1677132547,0.6706087589,1
7.618516125,-3.5301091,7.356452179,-2.029479675,-2.863769054,-0.7650487423,0.4717521667,1
7.638557125,-8.350984039,8.402626648,1.074765015,-2.520144939,-1.211398602,0.819817543,1
7.658599125,-6.61219986,12.17538116,1.826202393,-1.896662474,-1.644015431,0.429551363,1
7.678641125,-3.801195374,13.45013031,-0.3239263916,-1.884602547,-1.8121171,0.1405587792,1
7.698682125,-2.535277863,10.84225342,-0.8437953186,-2.072201729,-0.9899538159,0.278293103,1
7.718724125,-2.261646881,9.733209686,-0.1869612122,-2.025232077,-0.510307014,0.6187035441,1
7.738766125,-1.343755646,9.924811249,0.6849755859,-1.881641388,-0.8770395517,0.7292814255,1
7.758807125,-1.435814209,11.39685013,2.532882843,-1.621814489,-0.2733590901,0.8290744424,1
7.778849125,-1.895208893,10.70124664,2.433639221,-1.595312953,0.5705091953,0.8734650016,1
7.798891125,-1.673519897,9.670340424,1.334325256,-1.572169542,1.376096964,0.7288532257,1
7.818932125,-2.061513062,8.468339996,-0.6785389709,-1.867011547,1.432786584,0.6068497896,1
7.838974125,-2.143841858,7.50374588,-1.122515717,-2.09411478,1.279579759,0.5201376081,1
7.859016125,-1.872007141,6.86607193,2.067051544,-1.639157653,1.346468091,0.4558410347,1
7.879057125,-1.783840485,6.508914642,5.556295624,-0.7170165777,1.543884754,0.3465714157,1
7.899099125,-1.435963898,5.696254578,4.571343842,-0.04823411256,1.138521194,0.2061623037,1
7.919141125,-1.996847534,4.714446259,3.786974945,0.4756631255,0.6918584108,0.122728698,1
7.939182125,-2.380200348,4.100123749,4.178860016,0.9915192127,0.5894213915,0.01232495159,1
7.959224125,-1.852846985,3.634891205,4.058510284,1.354741335,0.4513530433,-0.1606234908,1
7.979265125,-1.109343109,3.829187164,4.593497772,1.682236791,0.4800939858,-0.3954524994,1
7.999307125,-0.5357359314,4.507426758,5.132377167,1.965718746,0.7089822292,-0.6092590094,1
8.019349125,-0.4706213379,5.388793945,4.583768005,1.988832116,0.9193396568,-0.6404444575,1
8.039390125,-0.9650431824,7.720345459,5.330415344,1.463368058,1.737048149,-0.4495470226,1
8.059432125,0.6881190491,12.64615219,7.342531128,0.6412869692,1.708081484,-0.3710919619,1
8.079474125,0.1386117554,17.08337494,6.10670105,-0.2857747674,0.2962602377,0.4245617092,1
8.099515125,1.2952565,15.22962982,6.922953644,-0.5633602142,-0.4301167727,0.9275686145,1
8.119557125,0.4399351501,11.45223495,5.108127594,0.06974539161,-0.6656443477,0.7598544359,1
8.139599125,-4.253105621,11.58680511,2.349364471,1.011179566,-0.3262380362,0.381949842,1
8.159640125,-9.176367645,14.91333755,-0.9939331055,1.051043272,0.1677643508,0.3816174865,1
8.179682125,-6.424340515,13.26077408,-3.235222321,0.4624314904,-0.3502963483,0.7493087053,1
8.199724042,0.1414558411,6.145470428,-0.4739144897,1.528179526,-0.4966572523,0.7196348906,1
8.219765042,1.102008362,2.731669464,-1.717378693,0.9382844567,-1.368896008,0.0280356314,1
8.239807042,-1.06713089,3.892505493,-3.030298462,0.3306590915,-0.6939807534,-0.8283321857,1
8.259849042,-3.76422226,8.171806641,-0.8887019348,0.5027968884,0.3373636603,-0.9085074067,1
8.279890042,-2.331850891,11.61240189,0.5650749207,0.900795877,1.060797572,-0.7377025485,1
8.299932042,0.2204914856,12.62040573,-0.07214996338,1.067171812,0.6708514094,-0.2620615959,1
8.319973042,0.513432312,11.30074997,-0.8241860962,1.204210162,-0.4100959003,0.1243595704,1
8.340015042,-0.3650907898,9.50463501,0.2782713318,1.278450608,-0.6768476963,0.119911842,1
8.360057042,-1.970652008,8.51818634,0.4978646851,1.07976687,-0.4604385793,0.03151513636,1
8.380098042,-2.287393341,8.192463684,0.2718347168,0.8661646247,-0.3234951794,-0.172318548,1
8.400140042,-1.465602264,8.640032959,0.08053253174,0.7781241536,-0.02091925405,-0.3701918423,1
8.420182042,-0.5897735596,9.640103302,-0.5641767883,0.7351651788,0.2348108441,-0.3869673908,1
8.440223042,-0.5556445312,10.16116974,-1.191073151,0.8169321418,-0.1070502996,-0.2365669906,1
8.460265042,-0.8102650452,9.787247314,-1.14317276,0.8036358356,-0.3233958781,-0.09517242014,1
8.480307042,-1.053808594,9.361382904,-0.002844085693,0.735419631,-0.2624208927,-0.1012583226,1
8.500348042,-1.16188385,9.251212006,0.08277786255,0.7181687355,-0.3243993521,-0.1513311416,1
8.520390042,-1.005908203,9.267528076,-0.3236270142,0.7344827056,-0.3358817399,-0.2194018662,1
8.540432042,-0.9053173828,9.283694458,-0.2709365845,0.8096840382,-0.2395656556,-0.3248535991,1
8.560473042,-1.003513184,9.410181427,0.1239422607,0.9100803137,-0.05416795984,-0.465628475,1
8.580515042,-1.012494507,9.432934113,0.1001417542,0.9799382687,-0.04215268791,-0.5727817416,1
8.600557042,-0.9557624817,9.335486755,0.5586383057,1.077723145,-0.1338082254,-0.6090691686,1
8.620598042,-0.7800279236,9.637259216,0.8970845032,1.071438074,-0.1848411113,-0.6247377396,1
8.640640042,-0.6616241455,10.46324158,0.3996688843,0.805467844,-0.1565387696,-0.628133297,1
8.660681042,-0.1778302002,11.38771912,-0.2647993469,0.409426719,-0.1240029186,-0.5681060553,1
8.680723042,0.4819976807,10.80677719,-0.7188052368,0.03252657875,-0.0232075993,-0.4053632021,1
8.700765042,1.325343933,10.01267853,-0.6177653503,-0.1474179029,0.1492464393,-0.1685344875,1
8.720806042,0.5143304443,10.20562729,0.3046165466,-0.3447898626,-0.02945475094,0.1859754771,1
8.740848042,-0.4104464722,12.22986786,-1.03315155,-0.7431685925,-0.06351985037,0.4755315483,1
8.760890042,-1.087488556,13.31735641,-0.7541317749,-1.247877836,0.2698698044,0.7478520274,1
8.780931042,-0.93256073,12.61142441,-2.272723846,-1.944721818,-0.002118402626,0.9992487431,1
8.800973042,-3.367696838,12.75961624,-1.659449158,-2.217986345,-0.4874098003,1.255000949,1
8.821015042,-3.78173584,11.94066925,-0.4363426208,-2.606492519,-0.9833650589,0.9099741578,1
8.841056042,-5.253026276,10.36534515,-0.4878355408,-2.437166691,-1.409073114,0.6721334457,1
8.861098042,-8.163873138,9.676178284,1.027463379,-1.789972782,-1.650497675,0.6499354243,1
8.881140042,-5.005441132,10.88057373,0.2564167786,-1.769491792,-1.553085804,0.3796964288,1
8.901181042,-2.023342438,10.86096451,-0.08831634521,-2.193096161,-1.355188131,0.2712774277,1
8.921223042,-1.314266968,9.857451324,1.206640778,-1.892295361,-1.12140429,0.4197900593,1
8.941264042,-1.246457977,10.29319519,1.759890289,-1.244643688,-0.8135960698,0.5341573358,1
8.961306042,-1.358275452,10.44363235,0.543968811,-1.284909368,0.08812630177,0.6971906424,1
8.981348042,-1.097667389,9.865085449,-1.144070892,-1.916957498,1.097447872,0.6455305815,1
9.001389042,-1.807640991,9.248667297,-0.7782316589,-2.146335363,1.517738819,0.5196250677,1
9.021431042,-2.570454712,8.242010651,0.4831951904,-1.889539599,1.105889082,0.4492484629,1
9.041473042,-2.999013519,7.468569031,1.359772339,-1.503790736,0.9994353652,0.37442258,1
9.061514042,-3.75015152,7.193890228,2.491269379,-1.060724139,1.029977322,0.4541042149,1
9.081556042,-3.519930267,7.28609848,3.88352417,-0.5585733056,1.048525691,0.5586647391,1
9.101598042,-1.635349274,7.258406067,4.766088867,-0.05729865283,0.9791856408,0.4726295471,1
9.121639042,-0.8722361755,6.527625732,4.466711426,0.3261424303,0.8577030301,0.3353883028,1
9.141681042,-0.8708889771,5.748495941,3.704047394,0.5451447368,0.7625874877,0.1520536244,1
9.161723042,-1.201401672,5.673651581,3.061583405,0.6262454987,0.5732664466,-0.08454622328,1
9.181764042,-1.726210327,5.885012054,3.438948669,0.6689834595,0.6019476056,-0.2887187898,1
9.201805875,-1.546134796,5.999823303,5.078040161,0.8368324637,0.858763814,-0.437589556,1
9.221846875,-0.7017407227,7.098239136,5.834117889,0.9688085318,0.9965133071,-0.6079877019,1
9.241888875,-1.277144165,8.101752319,5.533842316,0.8679725528,1.196948767,-0.6001722813,1
9.261930875,-1.788929901,9.114396515,5.717660065,0.5103158355,1.588337421,-0.4040305912,1
9.281971875,-0.4640350342,11.34820129,7.561376038,0.2704660296,1.398937821,0.006165794097,1
9.302013875,1.768572235,12.4960144,6.21432724,0.2518721819,0.2234062552,0.3746570945,1
9.322055875,2.733465729,10.30966095,4.398603058,0.3211423457,-0.6555058956,0.7575873733,1
9.342096875,0.212258606,7.652985535,3.193608856,0.4822918177,-0.6521639228,1.006204963,1
9.362138875,-2.053878937,8.03259613,2.845881958,0.9783357978,-0.5088193417,0.7205038667,1
9.382180875,-7.497159576,9.746531982,1.707948303,1.246851444,-0.4934388697,0.5983484983,1
9.402221875,-9.487720184,12.17208801,2.132615204,0.2872488201,-0.1642777771,0.1940265447,1
9.422263875,-5.946534119,16.51231247,3.78517868,-1.534601688,-0.3474745452,-0.6649694443,1
9.442304875,-3.041225739,11.09852051,7.110513611,1.596673727,-1.037579536,-0.1280170977,1
9.462346875,-2.160457306,3.704795837,-6.239774323,2.060258389,-1.311096311,0.001106644864,1
9.482388875,0.7750881958,3.990701294,-8.755892029,1.248424172,-1.022149682,-0.5058928728,1
9.502429875,0.978664856,8.11342804,-4.475393372,0.5448101759,-1.151839375,-0.6868736148,1
9.522471875,1.341360626,12.16325638,-1.024319916,0.589951694,-0.2813088894,-0.7488296032,1
9.542513875,0.8005352783,13.8245018,3.041824493,0.9603545666,0.5934423208,-0.2664534748,1
9.562554875,-0.7526348877,11.45313309,2.278262329,1.071047664,0.4702261686,0.09629256278,1
9.582596875,-2.29802124,8.733139343,-0.610430603,1.042802453,-0.4872074723,-0.04090047255,1
9.602638875,-3.485501862,7.669002228,0.3477268982,1.054474711,-1.00896883,-0.319670558,1
9.622679875,-3.338058472,7.664511566,1.488055573,1.136875391,-0.5652515292,-0.518008709,1
9.642721875,-1.532363434,8.957672424,-0.1347198486,1.1777637,-0.1262504458,-0.5447948575,1
9.662762875,0.1014889526,9.763596497,-1.712588654,1.115491986,-0.1288893819,-0.3960443139,1
9.682804875,0.4816983032,9.875264282,-1.334474945,0.9950426817,-0.4844444394,-0.2035040557,1
9.702846875,-0.254021759,9.518106995,-0.1010398865,1.02812326,-0.603625834,-0.1285211742,1
9.722887875,-0.9376501465,9.341025238,0.216000824,0.9853693843,-0.4260157943,-0.2245535553,1
9.742929875,-1.167871399,9.252110138,-0.6647676086,0.7937646508,-0.4319012761,-0.3478688896,1
9.762971875,-1.351090393,9.319919128,-0.4525090027,0.7500261068,-0.3328126967,-0.4126591384,1
9.783012875,-1.29645401,9.427844696,0.2194436646,0.7950552106,-0.1402038634,-0.4569960535,1
9.803054875,-0.9889933777,9.232650604,0.3345542908,0.8237777948,-0.3243592381,-0.484922111,1
9.823096875,-0.8026309204,9.055568848,0.3107537842,0.8007943034,-0.6535884142,-0.4813773334,1
9.843137875,-0.8369096375,9.40164917,0.4908293152,0.7238678336,-0.7314431667,-0.4428465962,1
9.863179875,-0.6509962463,10.04216721,0.7673043823,0.7109811306,-0.5592262149,-0.428065002,1
9.883220875,-0.3540138245,10.36878799,1.019978943,0.6963168383,-0.2899220884,-0.4237269759,1
9.903262875,0.1594184875,10.26894562,0.9136999512,0.5129707456,-0.284863323,-0.3789542317,1
9.923304875,0.7385641479,10.22778122,-0.09849517822,0.2264732718,-0.4337082505,-0.2741370797,1
9.943345875,1.182091827,10.67729645,-0.9644444275,0.02767814696,-0.2484470904,-0.1195572317,1
9.963387875,1.526824951,11.14342712,-0.08831634521,-0.03271421418,0.2447487265,-0.02664712258,1
9.983429875,1.782193909,11.84965851,1.129850464,-0.1120056435,0.430326283,0.01398453582,1
10.00347088,1.181493073,12.48867966,1.620230713,-0.3569397628,0.2029144168,0.1442013234,1
10.02351287,0.302820282,12.63163239,0.9526190186,-0.9638128877,0.3147520721,0.2339755595,1
10.04355388,-0.3947291565,12.86829025,-1.916015625,-1.679592967,1.199028015,0.4492478073,1
10.06359588,-1.201551361,13.05989182,-3.384312286,-2.088932514,1.530456901,0.8579847217,1
10.08363788,-2.878514099,11.79636932,-2.779869232,-2.498388052,0.00136795314,1.279351473,1
10.10367888,-2.947071533,11.20599701,-1.250200195,-2.697248459,-0.8445352912,0.9699218869,1
10.12372088,-3.962260437,10.37208115,-0.3597019958,-2.607479811,-1.078312874,0.5640566349,1
10.14376287,-8.414751434,9.964179382,1.108744354,-1.947159648,-1.746734023,0.6863653064,1
10.16380388,-6.388115845,10.86306015,1.262025604,-1.589839935,-2.019441605,0.5039333701,1
10.18384588,-2.788850555,9.707612915,0.8244854736,-1.749194503,-1.082484007,0.4926129878,1
10.20388775,-1.977537689,9.067394257,0.5516029358,-1.550847411,-0.1379705518,0.7666143775,1
10.22392875,-2.091899872,10.65154999,0.03637435913,-1.472895026,-0.5071745515,0.9441228509,1
10.24397075,-1.657054138,12.08152634,1.086740112,-1.219450235,-0.5956831574,1.215661287,1
10.26401175,-1.334175568,11.86088516,1.76453064,-1.396199822,0.2154585421,1.346943378,1
10.28405375,-0.8442443848,9.912087708,2.418370972,-1.414758325,1.637506723,1.103078365,1
10.30409575,-1.625170441,8.055648193,0.4990621948,-1.431592226,2.010867596,0.8746345639,1
10.32413675,-2.2547612,6.975344696,-0.5893244934,-1.476504445,1.675432444,0.6512182951,1
10.34417875,-2.531685333,6.390660553,0.2127076721,-1.335335732,1.610721231,0.3904839158,1
10.36422075,-3.241958313,6.153403931,2.440075836,-0.8928007483,1.686453581,0.2688303888,1
10.38426175,-2.894081726,6.013295288,4.520150299,-0.2275454998,1.417495847,0.2081227899,1
10.40430375,-2.02888092,5.597310333,4.358785858,0.3394295871,0.9279536009,0.2432354689,1
10.42434475,-0.8448431396,5.328768768,4.055217133,0.6800878048,0.7886441946,0.1158946082,1
10.44438675,-0.436791687,5.161716156,4.154011688,0.9696261287,1.020753384,-0.1038598567,1
10.46442875,-0.9394464111,5.354664917,4.799319763,1.362873077,1.163850784,-0.2095462084,1
10.48446975,-0.5035528564,5.301824799,4.132306824,1.5761199,1.029443145,-0.2788601816,1
10.50451175,-0.1203497314,5.816155243,5.232069855,1.638939738,1.181028724,-0.3081112504,1
10.52455375,0.5924679565,7.945477295,6.475983124,1.500421882,1.248524904,-0.2976562381,1
10.54459475,1.373843079,11.52019363,5.926326141,1.001708865,0.9590219855,-0.3039050996,1
10.56463675,0.01002914429,14.02703064,4.124223633,0.2629380822,0.2620209754,-0.05380317196,1
10.58467775,-2.693049774,13.05405396,5.434748383,-0.1941647679,0.5211555958,0.3287127912,1
10.60471975,-1.011446686,11.28548172,6.569388885,-0.1957056671,0.4619942904,0.3680742979,1
10.62476175,-1.206790466,10.96245346,4.029171295,0.2223111391,-0.487941891,0.3174923658,1
10.64480275,-4.172872467,10.69750443,1.521885223,0.9916356802,-0.9595431089,0.2564996183,1
10.66484475,-7.929161224,12.59241394,-1.367705841,0.8899080157,-0.5507337451,0.3865813613,1
10.68488675,-6.614295502,14.57369385,-0.3336561584,-0.21970281,-1.152219653,0.382648319,1
10.70492775,0.6671626282,8.489895172,0.3053649902,0.9378576875,-0.9781733751,0.2185386419,1
10.72496975,-0.09250762939,4.390819244,-3.390449524,1.143086433,-0.3033339381,0.05355713889,1
10.74501175,-0.4269122314,5.516777802,-4.348607025,0.4166477323,-0.8079199791,-0.3697590828,1
10.76505275,-1.439855804,8.69841156,-1.237626343,0.5699363351,-0.9139884114,-0.439658612,1
10.78509475,-1.869612122,10.79405365,0.4002676392,0.8430691361,-0.2628236711,-0.3418026865,1
10.80513575,-1.468895416,11.39685013,1.742077332,1.094693184,-0.05672919005,-0.2359623164,1
10.82517775,-1.374591522,10.51174072,0.5358856201,1.112820625,-0.3127899468,-0.307761848,1
10.84521975,-2.276765442,9.545200653,-0.5983058167,1.299854636,-1.069804907,-0.1954353303,1
10.86526075,-1.405128021,8.898695068,-0.4990621948,1.346127272,-1.011687279,-0.3277456462,1
10.88530275,-0.8499325562,8.448581085,0.2330653381,1.386384964,-0.6353927851,-0.4308740199,1
10.90534475,-0.4311035156,8.63404541,-0.09235794067,1.314714313,-0.3979965746,-0.4475519955,1
10.92538575,0.1124162292,9.218130798,-0.7518864441,1.25652647,-0.4464724958,-0.4385413527,1
10.94542775,-0.4760101318,9.335935822,-0.7876620483,1.179408431,-0.5403331518,-0.351201117,1
10.96546875,-1.070723419,9.234446869,-0.4848417664,1.026491284,-0.6805601716,-0.3855381906,1
10.98551075,-1.349294128,9.266929321,-0.466280365,0.9359434843,-0.700327754,-0.4419723451,1
11.00555275,-1.381177826,9.31737442,-1.100212097,0.7706550956,-0.6137471199,-0.4721938968,1
11.02559375,-1.006506958,9.387279053,-0.5773493958,0.6769765019,-0.4869483411,-0.5233808756,1
11.04563575,-0.6450086975,9.823921051,0.5111869812,0.7631598115,-0.4441368878,-0.5376415253,1
11.06567775,-0.05508544922,10.27283752,0.5278024292,0.8645657897,-0.547749877,-0.5004508495,1
11.08571875,0.3873944092,10.1351239,-0.02080673218,0.9286471009,-0.4703197777,-0.4141691625,1
11.10576075,0.3608995056,10.01911514,0.3281176758,0.9705290794,-0.2608831823,-0.3476577103,1
11.12580175,-0.2287243652,9.669292603,1.162931671,0.8516189456,-0.1911699176,-0.2973743677,1
11.14584375,-0.535436554,10.14724869,0.4629872131,0.4856804013,-0.3347675502,-0.2932915688,1
11.16588575,-0.5128335571,11.18249588,-0.6620732117,0.1106806993,-0.3796381354,-0.2455146015,1
11.18592675,-0.2639012146,11.55566986,-0.9580078125,-0.1309835315,-0.195312053,-0.1115671396,1
11.20596825,0.3791615295,11.4450499,-0.08232879639,-0.1876991391,-0.0261418093,0.09180533141,1
11.22601025,0.6521937561,11.66030228,0.4360432434,-0.3042537868,-0.1478599012,0.3105605841,1
11.24605125,0.3974235535,12.76320877,0.5529501343,-0.5681021214,-0.1837524772,0.4222224057,1
11.26609325,-0.04146377563,13.09940964,-0.8943901062,-1.157775402,0.2488093674,0.4725982547,1
11.28613425,-0.8867559814,13.15718948,-2.778522034,-1.575743556,0.8159381151,0.5935251713,1
11.30617625,-1.998045044,11.90983337,-1.323098602,-1.987626076,0.710254252,0.8573737144,1
11.32621825,-2.255509644,9.869127045,-1.7995578,-2.493651867,-0.137242943,0.8873473406,1
11.34625925,-2.813698883,8.314160614,-1.519041138,-2.876885653,-0.7897999883,0.5218693018,1
11.36630125,-6.51385437,7.908204803,0.9955796814,-2.462532043,-1.359709024,0.6779484153,1
11.38634325,-6.346053314,10.52416489,2.338886261,-1.785831451,-1.65774107,0.5258916616,1
11.40638425,-2.409689026,12.62160324,0.5779481506,-1.686435699,-1.455307364,0.3200051188,1
11.42642625,-1.342408447,10.445728,-0.38963974,-1.801818371,-0.6357259154,0.4996592104,1
11.44646725,-0.5652246094,8.988208923,-0.3068618774,-1.674293041,-0.03243935853,0.7253187299,1
11.46650925,-0.5294490051,9.622889099,-0.2037263489,-1.737906337,-0.8867891431,0.8454950452,1
11.48655125,-0.5607339478,11.0441835,1.337019653,-1.602055788,-0.8105682731,0.8724735975,1
11.50659225,-1.864672394,11.05585922,3.599564667,-1.40411973,0.3392850757,0.9243481755,1
11.52663425,-2.392624512,9.346264343,3.497926025,-1.237162948,1.722263336,0.8662322164,1
11.54667625,-1.934427338,8.657845917,1.000519409,-1.148588777,2.239433289,0.7547132373,1
11.56671725,-1.57727005,7.994575195,-1.376687164,-1.272575974,1.658713579,0.6745214462,1
11.58675925,-1.235530701,7.871680756,-0.9244775391,-1.296485305,1.169444799,0.5989710689,1
11.60680025,-1.500629425,7.724087677,2.298769684,-0.9767335057,1.348513365,0.4997808635,1
11.62684225,-1.769021301,7.099436646,5.505401459,-0.2692368031,1.617459178,0.4222871661,1
11.64688425,-1.379231873,6.477480011,4.589456177,0.3025393486,1.250900507,0.3063724637,1
11.66692525,-1.38656662,5.615722046,3.633544006,0.6744302511,0.9553188086,0.1352685243,1
11.68696725,-1.772314453,5.114713898,3.530558167,0.9459809065,0.7936396003,-0.04952844232,1
11.70700825,-2.040706329,5.409001923,3.053051147,1.047383189,0.518340826,-0.2650561333,1
11.72705025,-2.060315552,5.461542664,3.515589294,1.150156975,0.5494280457,-0.4565756917,1
11.74709225,-1.368304596,6.179300079,4.565805359,1.365592957,0.6681389809,-0.6117167473,1
11.76713325,-1.02387085,7.590265961,4.309837646,1.367910504,0.5652218461,-0.6939986944,1
11.78717525,-1.691482544,9.554331665,4.961582336,0.9614754915,1.184297681,-0.5645393133,1
11.80721725,-0.5719606018,11.64697998,6.416556702,0.5824765563,1.41113627,-0.2211964726,1
11.82725825,0.9252259827,13.18158875,5.244044952,0.3080162406,0.5528962612,0.2533279955,1
11.84730025,2.568658447,12.35964798,4.791386261,0.1867840439,-0.2277566046,0.4738824964,1
11.86734125,2.080673218,10.15937347,5.313949585,0.2753627896,-0.4922045767,0.5956476927,1
11.88738325,0.245489502,10.38645126,4.758454742,0.5163756609,-0.4489471316,0.4360382259,1
11.90742525,-2.922223206,10.75214081,4.117936707,1.190962315,-0.3287658095,0.3182902932,1
11.92746625,-6.112389221,11.53022278,2.656675415,1.54585135,-0.2894108295,0.3141095042,1
11.94750825,-6.359674988,13.3919014,0.8602610779,0.4226140678,-0.5375596285,0.2571369112,1
11.96755025,-2.17752182,11.28413452,2.20326828,0.492118001,-1.000956893,0.046769429,1
11.98759125,-1.501377869,5.888604584,-1.919757843,1.18813777,-1.155871987,0.03754368797,1
12.00763325,-0.8249345398,3.235072632,-3.761378174,0.8722580075,-0.7517113686,-0.5748795867,1
12.02767425,-0.6671626282,5.585035858,-1.504521332,0.3640916049,-0.2745351493,-1.11927855,1
12.04771625,-1.365909576,10.06716522,-1.78788208,0.6794242263,0.2527193427,-0.9239911437,1
12.06775825,-0.01826202393,12.60708344,-2.2547612,0.9738243818,0.8723368049,-0.563626647,1
12.08779925,1.1864328,12.84149597,-1.889820099,0.8857360482,0.3367674947,-0.07697690278,1
12.10784125,-0.3728746033,10.00758911,0.9921368408,0.9471310377,-0.4629303515,0.1924536675,1
12.12788325,-2.590812378,8.51354599,2.276466064,1.052778363,-0.6697490811,0.1369965374,1
12.14792425,-3.335214386,8.30173645,0.2745291138,0.8665847182,-0.4160245657,-0.04046583548,1
12.16796625,-2.730322266,8.675509186,-1.182540894,0.7675158381,-0.5979734659,-0.2417426556,1
12.18800725,-1.594933319,9.096733246,-1.314566345,0.8727653623,-0.5476214886,-0.3855036795,1
12.2080495,-1.088686066,9.458381195,-0.8313711548,0.823353231,-0.3715062439,-0.3891823888,1
12.2280915,-0.7515870667,9.676178284,-0.6930587769,0.7265354991,-0.5739117265,-0.2805275023,1
12.2481325,-0.8463400269,10.03273682,-0.5782475281,0.6436636448,-0.7187941074,-0.1817489415,1
12.2681745,-1.038839722,9.915081482,-0.593815155,0.5887286663,-0.7621890306,-0.1277973056,1
12.2882155,-0.9136999512,9.591304779,-0.412691803,0.5678206086,-0.6503512859,-0.1548048854,1
12.3082575,-0.7548802185,9.639654236,-0.04071533203,0.6620494723,-0.5266113281,-0.2644349635,1
12.3282995,-0.5143304443,9.6812677,0.02155517578,0.8545403481,-0.5818415284,-0.3987720311,1
12.3483405,-0.4550537109,9.526040497,-0.4924758911,0.9888113737,-0.5532623529,-0.5304638147,1
12.3683825,-1.183439026,9.326655121,-0.4282594299,1.038731813,-0.5032423735,-0.6231878996,1
12.3884245,-2.054028625,9.243128815,0.9232800293,1.091236472,-0.4865990579,-0.6701074839,1
12.4084655,-2.039658508,9.268725586,1.880689087,1.00924921,-0.5386124849,-0.6984699965,1
12.4285075,-0.9303153992,9.560019836,0.367635498,0.5674760342,-0.6405441761,-0.6778659225,1
12.4485485,0.8020321655,11.1344458,-0.2573149109,0.4370458722,-0.4897435009,-0.5662760139,1
12.4685905,1.946402435,11.79262711,1.061891785,0.4847645462,-0.05018542334,-0.38465783,1
12.4886325,2.68885849,10.8385112,0.359103241,0.15695104,0.03407448158,-0.1995851398,1
12.5086735,2.372416534,10.50260971,-0.4793032837,-0.05150675774,0.0562347807,0.06328499317,1
12.5287155,0.7228468323,11.4158606,-0.5047503662,-0.2717652917,0.3727644682,0.3664214015,1
12.5487565,-0.6788383484,13.1158754,-0.7949967957,-0.8263952732,0.6654473543,0.5153358579,1
12.5687985,-1.726809082,13.88617355,-3.019221497,-1.511897445,1.000439405,0.7187613249,1
12.5888405,-3.535647583,13.74995682,-2.475252686,-1.796677232,0.7291437387,1.087520242,1
12.6088815,-3.320993958,10.52431458,-1.589843903,-2.759278536,-0.5658177733,1.126547337,1
12.6289235,-3.440146179,7.911797333,-0.07499404907,-2.809521198,-0.941547215,0.7379922867,1
12.6489655,-6.359824677,8.367898865,1.703457642,-2.002991199,-1.069076538,0.8210731745,1
12.6690065,-7.883955231,10.76606186,0.9138496399,-1.473414063,-1.525625467,0.766503334,1
12.6890485,-4.75995163,12.44586868,-0.7565267944,-1.865666389,-1.510046363,0.4094001949,1
12.7090895,-2.546354828,11.08325226,-0.3224295044,-2.225671768,-1.100153685,0.3353189528,1
12.7291315,-1.331181793,9.847571869,0.9614506531,-1.981151462,-0.5838869214,0.4020600319,1
12.7491735,-1.466350708,10.2665506,1.276844788,-1.648638725,-0.8436151743,0.5507092476,1
12.7692145,-1.394649811,10.55215668,1.604812775,-1.401580334,-0.6766163707,0.7830203176,1
12.7892565,-1.258433075,9.644144897,1.269060974,-1.468775511,-0.09718198329,0.7995520234,1
12.8092975,-1.588646393,8.446186066,1.514700165,-1.594964147,1.169800639,0.6665452123,1
12.8293395,-2.391726379,7.991282043,0.7125183105,-1.657016397,1.565522313,0.5415295362,1
12.8493815,-2.745291138,7.602390747,0.05987548828,-1.651592374,1.230762124,0.4656051099,1
12.8694225,-2.53677475,7.193141785,0.6968009949,-1.516375899,1.029047847,0.3652577102,1
12.8894645,-2.470762024,6.659351807,3.428021393,-1.033767939,1.189873815,0.3067497313,1
12.9095065,-1.899849243,6.58061554,5.073998566,-0.3617060781,1.196697593,0.2392784059,1
12.9295475,-1.056353302,6.690487061,4.664450226,0.2039004415,0.8793221116,0.1429881006,1
12.9495895,-0.9014254761,6.399342499,3.919150085,0.5581192374,0.7812458873,0.021481378,1
12.9696305,-1.08120163,5.909111938,3.446732483,0.7828986049,0.8230588436,-0.09275615215,1
12.9896725,-1.016236725,5.490282898,3.238665161,0.9145534635,0.7951503396,-0.2945221961,1
13.0097145,-1.315464478,5.126688995,4.415517883,1.152128816,0.9394575953,-0.5265851617,1
13.0297555,-1.013392639,5.376968536,5.298082581,1.385006905,0.9881836772,-0.6882833838,1
13.0497975,-0.79215271,7.200476532,5.668113098,1.400272846,1.171546221,-0.6576249599,1
13.0698385,-1.272803192,10.32852173,6.376140747,0.9167022705,1.615563869,-0.4834298491,1
13.0898805,-1.142424316,13.31720673,6.319408722,0.2526359558,1.112541795,0.05080514774,1
13.1099225,0.2905458069,13.68813538,6.230942688,-0.1861332059,0.3445553184,0.5493433475,1
13.1299635,2.109114075,10.41204803,5.985153809,-0.2743151784,-0.290002048,0.7055137157,1
13.1500055,0.1440005493,9.031768341,5.004692688,0.1366043091,-0.7904628515,0.6463822722,1
13.1700465,-3.195255432,10.05174728,3.32189209,1.008247137,-0.8749688864,0.3612921834,1
13.190089,-8.557704163,13.43680801,0.4095483398,1.032584667,-0.168914929,0.3478027284,1
13.210131,-9.546098785,17.24952942,-1.816622314,-0.5138905048,-0.7370922565,0.6151974797,1
13.230172,-0.0505947876,9.161997528,1.449884949,1.037289739,-1.046729565,0.7748410106,1
13.250214,0.8518785095,2.551743622,-0.03667373657,0.9298163652,-1.743347883,0.332737416,1
13.270256,-1.465901642,1.550475769,-1.716929626,0.810462296,-1.186840773,-0.5853530169,1
13.290297,-2.042203217,7.133415985,-0.6981481934,1.226346493,-0.6647782326,-0.9289903045,1
13.310339,-1.595382385,11.86807022,-2.354902954,1.330272794,0.2901117206,-0.9251784682,1
13.33038,0.326920166,14.0740329,-3.015030212,0.7938660979,0.4620072246,-0.6218037605,1
13.350422,2.354603577,12.93145889,0.1308279419,0.752869904,0.02765962854,0.01600437798,1
13.370464,1.380279694,10.60155396,2.681972809,1.303849101,-0.2557497919,0.2056889236,1
13.390505,-2.232607269,9.107660522,0.7824229431,1.301503301,-0.4144635499,0.1054636836,1
13.410547,-3.154240723,8.570278015,-0.8352630615,0.8669674397,-0.5561885834,-0.2113110721,1
13.430588,-2.952759705,7.908354492,0.365539856,0.7196413279,-0.4114601016,-0.4756622612,1
13.45063,-1.642384644,8.451125793,0.7000941467,1.063180685,0.1497450769,-0.5929554701,1
13.470672,-0.5715115356,9.31273407,-1.447489929,1.177288055,0.213175863,-0.4832344949,1
13.490713,-0.2230361938,9.683063965,-2.435435486,1.009449959,-0.2752022445,-0.25601089,1
13.510755,-0.353714447,9.609117737,-0.5737568665,0.9697270393,-0.4327092171,-0.1968132108,1
13.530796,-1.268911285,9.208251343,0.4242178345,0.9302628636,-0.5340011716,-0.2590943873,1
13.550838,-1.462159424,9.218430176,-0.1850152588,0.8506305814,-0.5152384043,-0.3612802625,1
13.57088,-1.33971405,9.369316406,-0.6950047302,0.7669895291,-0.4035225511,-0.4508891404,1
13.590921,-1.178948364,9.380992126,-0.4799020386,0.7682293653,-0.2594663203,-0.5232236385,1
13.610963,-1.495090942,9.0389534,-0.02065704346,0.8293378353,-0.2320298105,-0.551908195,1
13.631005,-1.851350098,9.602381744,0.4990621948,0.9265388846,-0.3291959167,-0.6215054393,1
13.651046,-1.733245697,10.58389069,1.203347626,1.031322122,-0.3494867384,-0.7068368196,1
13.671088,-1.486558685,10.64975372,0.2183958435,0.7762246728,-0.3579537868,-0.698764801,1
13.691129,-0.8575666809,10.18781433,-0.3365002441,0.4622648358,-0.3604373336,-0.5992999077,1
13.711171,0.2459385681,9.937085724,0.6283932495,0.3937876225,-0.2890471518,-0.4437111318,1
13.731213,1.691183167,10.65199905,-0.3930825806,0.2366800904,-0.1320747137,-0.3193964958,1
13.751254,1.926344147,11.3242511,-0.3126997375,0.1189414784,0.01844556257,-0.1501975954,1
13.771296,1.085093536,11.24925705,-0.7731422424,-0.1099602804,0.1612004042,0.07991665602,1
13.791337,-0.1734892273,12.23840012,-1.131646729,-0.3900039196,0.2951777279,0.3107646704,1
13.811379,-1.071920929,12.89014481,-1.015787659,-0.8988075852,0.3887819946,0.5045076609,1
13.831421,-1.424437866,12.3036644,-1.103205872,-1.505255461,0.3823194206,0.7012364864,1
13.851462,-1.423839111,11.71898026,-2.140548706,-2.006124973,0.3904671073,0.8264006972,1
13.871504,-2.937641144,9.644593964,-1.723366241,-2.457509041,-0.02041887119,0.8373960853,1
13.891545,-4.249213715,7.773784332,-1.475631409,-2.741718054,-0.8008977175,0.5808331966,1
13.911587,-8.67730545,8.70080658,0.9324110413,-2.488957167,-1.455035686,0.9854829907,1
13.931629,-6.76188858,11.3693074,2.83630188,-2.126342058,-1.776640177,0.716976881,1
13.95167,-2.692900085,12.35590576,1.582509155,-2.120065451,-1.598438501,0.4091839492,1
13.971712,-1.702559509,10.75438614,0.4522096252,-2.055647373,-0.9791224003,0.4721984863,1
13.991754,-1.416354675,9.823172607,0.3921844482,-1.952347755,-0.4205913842,0.6571163535,1
14.011795,-1.251547394,10.86171295,0.5807922363,-1.91550684,-1.118374228,0.7827767134,1
14.031837,-0.8385562134,11.58111694,2.428849182,-1.560348034,-0.7813837528,0.8385667801,1
14.051878,-1.341061249,10.53793625,2.795586548,-1.606534004,0.2201798707,0.9873383045,1
14.07192,-1.194965057,9.558073883,2.167642365,-1.615194321,1.264552593,0.8641050458,1
14.091962,-1.450783081,8.648265839,1.347797241,-1.495840788,1.753668547,0.6979671121,1
14.112003,-1.999392242,7.458240509,0.5251080322,-1.424065948,1.603069067,0.632773459,1
14.132045,-2.254910889,6.857240295,0.7454498291,-1.236105561,1.526612878,0.5867549777,1
14.152086,-2.089504852,6.398893433,2.239193573,-0.8050307631,1.661313057,0.4768502712,1
14.172128,-1.95643158,5.827681274,3.044967957,-0.2665477097,1.565045834,0.3374331892,1
14.19216967,-2.136207733,5.292544098,2.746788025,0.2531117201,1.204649329,0.2361171097,1
14.21221067,-2.695594482,4.722379761,3.026556244,0.7474520802,0.9948860407,0.1999339908,1
14.23225267,-2.137255554,4.195176086,3.964954834,1.152561188,1.023507833,0.0761719346,1
14.25229367,-0.6947053528,4.070036316,5.248385925,1.549646139,1.057244778,-0.1999213099,1
14.27233567,0.1249900818,4.514761505,6.15235611,1.92021656,1.1021806,-0.4871559441,1
14.29237767,-0.1546284485,5.240003357,5.46079422,1.993409991,1.144511104,-0.549697876,1
14.31241867,-0.2894979858,7.749834137,6.339616699,1.665795803,1.744705319,-0.4806646407,1
14.33246067,0.6728507996,12.80542099,6.994953918,0.9972469807,1.699924946,-0.3338205516,1
14.35250167,0.2984793091,17.09175751,5.671555939,-0.05679458752,0.9747393131,0.2790877223,1
14.37254367,1.046773224,15.71821381,5.409750366,-0.7625900507,-0.1475162655,0.8100545406,1
14.39258567,0.6483018494,10.67310516,5.331163788,-0.657512188,-0.9453609586,0.9152896404,1
14.41262667,-2.589016113,9.337582397,5.019362183,0.4577879012,-1.230081201,0.7462695837,1
14.43266867,-7.114854584,10.29603928,4.336781616,1.723842502,-0.1179829389,0.5290457606,1
14.45271067,-10.06536896,14.07238632,-2.293530579,1.034465909,0.09272778779,0.5844026208,1
14.47275167,-4.986580353,17.28021561,-3.507506104,0.2655876577,-1.16243279,0.1815630347,1
14.49279367,-0.576151886,6.669979706,-0.00853225708,1.71965909,-0.6934415698,0.1492527127,1
14.51283467,0.4131408691,1.640887756,-1.582658844,1.301081657,-1.152632952,-0.3585001826,1
14.53287667,-1.394051056,2.900817719,-4.752766571,0.9236853719,-1.059547663,-1.010932326,1
14.55291867,-2.802472229,8.44214447,-4.516707458,0.9072727561,-0.5582379699,-1.233879805,1
14.57295967,-2.558030548,12.49257156,-3.086581421,0.9116539359,0.6943088174,-1.016660213,1
14.59300167,-1.306034088,13.04656952,-0.2902464294,1.120314598,0.8179006577,-0.2777064443,1
14.61304267,0.6713539124,10.38375687,1.267564087,1.223628402,-0.7090027332,0.08657975495,1
14.63308467,-1.280137939,9.338330841,0.8746311951,1.13345933,-1.276076078,0.2554217875,1
14.65312667,-2.405497742,9.100774841,-0.06750961304,0.7750892043,-1.264345884,0.1627548635,1
14.67316767,-1.052162018,8.392447815,-0.3252735901,0.5348411798,-0.9098659754,-0.130658567,1
14.69320967,-0.3212319946,8.541537781,0.339793396,0.569653511,-0.3844047487,-0.336566925,1
14.71325067,0.1305285645,9.586814117,-0.03847000122,0.6959397793,-0.2272795737,-0.3405353129,1
14.73329267,0.543968811,10.5584436,-0.8394543457,0.6756819487,-0.3299977481,-0.235469088,1
14.75333467,0.4772076416,10.35696259,-1.204844513,0.5353373885,-0.2919251919,-0.1519746035,1
14.77337567,-0.4740641785,9.375603333,-0.4547543335,0.5028082728,-0.2293656766,-0.1089191735,1
14.79341767,-1.284329224,8.996292114,0.06571334839,0.5353654623,-0.1318805367,-0.1929905117,1
14.81345867,-1.623972931,9.433981934,0.5046006775,0.6350407004,-0.03811331466,-0.3568903804,1
14.83350067,-1.454225922,9.762698364,0.4547543335,0.8058878183,-0.1121914685,-0.5019204021,1
14.85354267,-1.20170105,9.421258392,-0.2323168945,0.888882339,-0.2937352657,-0.6019945741,1
14.87358367,-1.19227066,8.921148376,0.2128573608,0.8854342699,-0.3382898569,-0.6158314347,1
14.89362567,-1.545985107,8.933123474,0.7144642639,0.8245049119,-0.1985488087,-0.5958878994,1
14.91366667,-1.577120361,10.23556503,0.8942404175,0.7121676207,-0.3041797578,-0.6513718963,1
14.93370867,-0.9292675781,10.85422852,-0.005089416504,0.3674181998,-0.4262523651,-0.6105676293,1
14.95375067,0.05119354248,10.0926123,-0.7767347717,0.1402415037,-0.2304644883,-0.4416840971,1
14.97379167,1.268611908,9.99950592,-0.2537223816,0.1445106119,0.02270489745,-0.315092206,1
14.99383367,1.572030945,10.7256459,0.1517843628,0.08346837014,0.06669782102,-0.1221739128,1
15.01387467,1.370100861,11.56659714,-0.2182461548,-0.2148247063,0.08438565582,0.1352495253,1
15.03391667,-0.1127156067,12.28166016,0.4034111023,-0.6059404016,0.1208336055,0.3875883818,1
15.05395867,-0.9334588623,12.20801331,0.04430786133,-1.220989585,0.2990316451,0.5818692446,1
15.07399967,-1.533261566,11.94456116,-1.755848694,-1.741994262,0.3349587619,0.929726243,1
15.09404167,-2.47585144,11.69413193,-1.948498077,-2.304041386,-0.3145948052,1.225571275,1
15.11408267,-3.496279449,10.55559952,-0.910556488,-2.692413092,-1.018069386,1.137481213,1
15.13412467,-4.095034332,10.45845154,0.4944218445,-2.521474361,-1.161274076,0.7851837873,1
15.15416667,-8.012837219,11.3600267,2.835254059,-1.802046657,-1.614134312,0.9751511812,1
15.17420767,-5.496569824,12.91169998,1.830543365,-1.397047877,-1.989712715,0.6373147368,1
15.19425,-2.968027954,11.24581421,-0.05807922363,-1.779095769,-1.503729701,0.5872838497,1
15.214291,-1.034798126,9.11963562,0.0296383667,-2.026242256,-0.531875968,0.7326706052,1
15.234333,-0.2478845215,9.551337891,0.216000824,-1.948603392,-0.278760016,0.8527975678,1
15.254375,-0.2201921082,11.3362262,2.105671234,-1.606465578,-0.1929985881,0.933594048,1
15.274416,-1.366807709,11.08504852,2.026934967,-1.645540118,0.5163553953,0.9523369074,1
15.294458,-2.106569366,9.616602173,1.769470367,-1.735327363,1.586616874,0.8620560765,1
15.314499,-2.172282715,8.175698547,0.8325686646,-1.770909905,1.982271075,0.7393244505,1
15.334541,-2.409389648,7.200925598,-0.4158352661,-1.869057298,1.553005815,0.6031752229,1
15.354583,-2.544708252,6.785240021,0.7467970276,-1.698372722,1.266558051,0.4526920617,1
15.374624,-2.606080627,6.219716034,3.930825806,-1.050910115,1.388635993,0.2897174954,1
15.394666,-2.174977112,5.711971893,5.057532806,-0.3636513352,1.230506539,0.1616572887,1
15.414707,-1.778751068,5.616171112,4.33513504,0.2158703655,0.9933308959,0.09562613815,1
15.434749,-1.289119263,5.513784027,4.246818695,0.7430166602,0.9119287729,0.04312020168,1
15.454791,-0.8324189758,5.267097015,3.827690277,1.013531089,0.8628636599,-0.04877763987,1
15.474832,-0.3445834351,4.964276733,4.014801178,1.213406801,0.5672709942,-0.2009812444,1
15.494874,-0.7982899475,4.698130188,5.248685303,1.462461591,0.3842341006,-0.3854098916,1
15.514915,-1.505120087,4.952750702,5.906267853,1.69053185,0.7909199595,-0.5159008503,1
15.534957,-1.056802368,6.950196991,6.256838837,1.778580427,1.419977546,-0.4722037613,1
15.554999,-0.4246669006,10.11686188,5.739963684,1.401216626,1.54550004,-0.2757499218,1
15.57504,0.3881428528,13.43785583,4.094285889,0.5132495165,0.5325763226,0.0261025168,1
15.595082,0.3056643677,14.82726654,5.583239594,-0.1784922034,0.08062104136,0.4693577886,1
15.615123,1.297352142,11.57497971,8.151748352,-0.09034163505,-0.04981637746,0.7087781429,1
15.635165,0.9316625977,9.572444,6.374194794,0.5155237317,-0.4666261375,0.6390877962,1
15.655207,-2.231260071,9.011260986,3.440146179,1.284091234,-0.4369216859,0.5755593181,1
15.675248,-4.9249086,10.25532394,2.110012207,1.771753788,0.1665535718,0.3508634567,1
15.69529,-7.460336151,15.23711426,0.3279679871,0.6380044818,-0.2770493925,0.3581719697,1
15.715331,-3.846850433,15.98196533,-0.6574328613,0.599227488,-1.155843735,0.4330524802,1
15.735373,-0.7866142273,6.4869104,-2.207758942,1.491509914,-0.6858212352,0.3388080299,1
15.755415,-0.1002914429,1.876198425,-2.746638336,0.8686946034,-0.689583838,-0.2267201245,1
15.775456,-0.4878355408,3.449726257,-2.51447113,0.5059599876,-0.7019021511,-0.8680401444,1
15.795498,-1.806443481,9.133556671,-2.058519287,0.8327586055,-0.2683067918,-0.9353963137,1
15.81554,-1.718426514,11.89606201,-2.574047241,0.9949498773,0.647167027,-0.7254509926,1
15.835581,0.1194515991,12.66665955,-1.307830353,0.7989426851,0.1900425553,-0.4162500203,1
15.855623,0.9413923645,10.51263885,2.800675964,1.001711488,-0.6692814827,0.09963878244,1
15.875664,-1.279988251,9.862391052,1.814376984,1.17707026,-0.6385040879,0.2343467921,1
15.895706,-2.850073242,9.396559753,-1.9282901,0.910756588,-0.6466574073,0.1258067787,1
15.915748,-2.219734039,8.33915863,-1.743125153,0.7872456908,-0.8075191975,-0.1780039668,1
15.935789,-1.402283936,8.285570068,-0.1420545959,0.8644087911,-0.2629961073,-0.4514944553,1
15.955831,-0.8469387817,9.180858307,-1.033450928,0.8843937516,0.09359607846,-0.5537719727,1
15.975872,-0.734223175,10.03647903,-1.564845886,0.9842602611,0.0454538092,-0.5154368281,1
15.995914,-0.8113128662,9.96567627,-1.560055847,1.028314233,-0.2877191007,-0.4662122428,1
16.015955,-1.941013641,9.258247375,-1.306782532,0.9148486853,-0.5268283486,-0.3893443644,1
16.035997,-2.358196106,9.055419159,-0.536484375,0.8267033696,-0.5797885656,-0.4351420403,1
16.056039,-2.263592834,9.294621735,-0.2818638611,0.8708224893,-0.5971001387,-0.5328373313,1
16.07608,-1.864672394,9.577683105,-0.4245172119,0.9768230319,-0.6116420627,-0.6002641916,1
16.096122,-1.413809967,9.737101593,-0.6536906433,1.018311858,-0.6615893245,-0.6301758289,1
16.116164,-1.138083344,9.579778748,0.0896635437,1.001498103,-0.6707738638,-0.6076545715,1
16.136205,-0.8584648132,9.585766296,1.187181244,0.911608994,-0.6685608625,-0.5616195202,1
16.156247,-0.6117778015,10.02405487,0.9205856323,0.7209942937,-0.7666116953,-0.5055581331,1
16.176288,-0.2157014465,10.95631622,-0.2814147949,0.4832405448,-0.7581703067,-0.4204934835,1
16.19632938,0.5752537537,11.42214752,0.2168989563,0.3639942408,-0.5770552158,-0.3290288746,1
16.21637038,1.637594604,10.80093933,-0.1359173584,0.1226508617,-0.3477525711,-0.1633258164,1
16.23641238,1.942510529,11.2206665,-0.7132667542,-0.028645318,-0.1629839391,0.05191902071,1
16.25645438,1.199755096,12.15891541,-0.9045689392,-0.186586082,-0.06254511327,0.3386788964,1
16.27649538,-0.1582209778,13.44384338,-0.688717804,-0.5764120221,0.122303769,0.5939828753,1
16.29653738,-1.085243225,13.98017807,-2.505340118,-1.274240851,0.3764626384,0.7470188141,1
16.31657838,-2.646795959,13.36106552,-2.202519836,-1.650206327,0.2217650712,0.8827320337,1
16.33662038,-3.386407928,9.850116577,-1.605261841,-2.388397455,-0.3379675448,0.9016448855,1
16.35666238,-3.67410965,6.883136444,-1.205742645,-2.691371679,-1.025925994,0.5765874982,1
16.37670338,-6.636898499,7.318281555,0.9333091736,-2.427613735,-1.667249918,0.7632306814,1
16.39674538,-8.669521637,9.823771362,2.455194397,-2.07668376,-1.856228113,0.8253648877,1
16.41678638,-3.75479187,12.28076202,0.9864486694,-2.111793518,-1.551175117,0.400088191,1
16.43682838,-2.084565125,11.22695343,-0.3007246399,-2.220482826,-1.090584755,0.4317969382,1
16.45687038,-1.022823029,9.50104248,-0.1296304321,-1.95650351,-0.5911309123,0.5538830757,1
16.47691138,-1.37953125,9.803264008,0.2013313293,-1.820555925,-1.317271471,0.7906641364,1
16.49695338,-0.912203064,10.73313034,1.162332916,-1.520917058,-2.046529055,0.8860362768,1
16.51699438,-0.8764274597,10.86380859,3.154390411,-1.19743216,-1.103735566,1.035258889,1
16.53703638,-1.057101746,10.15997223,3.49508194,-1.226385355,0.5172103047,1.131504178,1
16.55707838,-0.6393205261,9.387129364,2.502945099,-1.115144372,1.568092227,1.015738368,1
16.57711938,-0.6147715759,8.718918915,0.5897735596,-1.15180707,1.8302145,0.8955625892,1
16.59716138,-1.016236725,8.048762512,-0.2851570129,-1.1788764,1.534611106,0.8412254453,1
16.61720238,-1.102607117,7.340734863,0.6978488159,-0.992508471,1.396546483,0.6671691537,1
16.63724438,-1.360071716,6.490053864,3.126997375,-0.4873726666,1.497552633,0.4796259701,1
16.65728638,-1.632056122,5.919590149,4.067491608,0.1166066229,1.490409136,0.3112217188,1
16.67732738,-1.758543091,5.445675659,3.241658936,0.523846209,1.285816431,0.1708484888,1
16.69736938,-1.797162781,5.207969971,3.462898865,0.832213819,1.213436246,0.06086231023,1
16.71741038,-1.385069733,5.545817413,3.867058411,1.065129638,1.079606414,-0.103807278,1
16.73745238,-1.159788208,5.801186371,4.02153717,1.228384137,0.9663438797,-0.2452325523,1
16.75749438,-0.7333250427,6.170318756,4.237837372,1.361275434,1.004878163,-0.3974204659,1
16.77753538,-0.5505551147,7.122937775,3.900289307,1.326473117,1.053482294,-0.4629508853,1
16.79757738,-0.7908055115,9.342222748,4.676275635,1.094975233,1.386217952,-0.4249750674,1
16.81761838,-0.4535568237,12.21534805,6.047873383,0.6035503149,1.657127023,-0.2789016664,1
16.83766038,-0.0679586792,13.81626892,5.618266754,-0.006974311545,1.123239636,0.264264971,1
16.85770238,2.333946533,12.52774841,6.269412689,-0.1973671615,0.6663214564,0.467638135,1
16.87774338,2.765948181,9.342073059,4.706213379,-0.1282785535,-0.0401574783,0.5278944373,1
16.89778538,0.6283932495,7.582332458,2.966231689,0.1501825601,-0.6213491559,0.461781323,1
16.91782638,-3.29734314,8.173602905,2.439028015,0.786016047,-0.6890758276,0.2866709828,1
16.93786838,-7.527247009,10.4948259,2.465223541,1.13278842,0.08629201353,0.08598284423,1
16.95791038,-8.335266724,14.5292363,1.905238037,0.1189759001,0.536790669,-0.1215762123,1
16.97795138,-4.166735229,17.03292984,1.832788696,0.3256310225,-1.086382747,-0.00164993084,1
16.99799338,-0.7448510742,8.740623779,-1.207089844,1.347942352,-1.00424099,0.13020055,1
17.01803438,-1.115180969,4.173620911,-5.419929199,0.9485411644,-0.9811735749,-0.1792974174,1
17.03807637,-0.8312214661,4.502636719,-2.184108124,0.6514255404,-0.8698047996,-0.6798065305,1
17.05811838,-1.254990234,8.648565216,-1.080153809,0.9260803461,0.05035761371,-0.673833847,1
17.07815937,-0.866098938,11.79592026,-1.332229614,1.061718583,1.087353468,-0.3947943449,1
17.09820138,0.4180805969,12.49721191,-0.112565918,1.060785413,0.6279397011,-0.07153464854,1
17.11824237,0.04715194702,10.51742889,0.9279203796,1.16637671,-0.5715386271,0.1103418991,1
17.13828438,-2.567910004,8.854387207,1.362167358,1.25329268,-1.194682121,0.1066444069,1
17.15832637,-2.943329315,8.218808899,1.316661987,1.182930708,-1.061303854,-0.07801976055,1
17.17836738,-2.10267746,8.164471893,0.9044192505,1.0552845,-0.9044305682,-0.3416633904,1
17.19840963,-0.9794132996,8.614735565,-1.097966766,0.8544307351,-0.682466805,-0.4198589623,1
17.21845063,-0.02320175171,9.358239441,-1.356030121,0.830194056,-0.2114619613,-0.3496410251,1
17.23849263,0.4132905579,10.12569351,-0.193996582,0.8703168631,-0.2559166551,-0.1884974837,1
17.25853463,-0.1898052979,10.2665506,-0.226179657,0.7661594748,-0.673347652,-0.01609700359,1
17.27857563,-1.105600891,9.859846344,-0.3921844482,0.7285468578,-0.768242538,-0.01317657903,1
17.29861763,-1.657952271,9.526339874,-0.7482939148,0.731677711,-0.5501086712,-0.1484058201,1
17.31865863,-1.513502655,9.177714844,-1.07057373,0.7368935347,-0.3625415266,-0.3099173903,1
17.33870063,-1.209335175,9.346563721,-1.037941589,0.8242794275,-0.3888402581,-0.4164510369,1
17.35874263,-1.061442719,9.456435242,-0.5899232483,0.9033471346,-0.4628058374,-0.4641204178,1
17.37878363,-1.005309448,9.278155975,-0.4439767456,0.8701784611,-0.5885233283,-0.4785143137,1
17.39882563,-1.360670471,9.440717926,-0.2719844055,0.8482322693,-0.55164361,-0.4791296422,1
17.41886663,-1.600322113,9.928403778,0.3321592712,0.8151260614,-0.4064154029,-0.5401044488,1
17.43890863,-1.127006378,10.04710693,-0.07080276489,0.6412410736,-0.3854454756,-0.5997611284,1
17.45894963,-0.480201416,10.346185,-0.5474116516,0.5291126966,-0.38417539,-0.5569624305,1
17.47899163,0.2130070496,10.54871384,-0.3053649902,0.4813497663,-0.3012036085,-0.4363553226,1
17.49903363,0.3278182983,10.61278061,-0.2628533936,0.309709847,-0.2364525795,-0.2664487362,1
17.51907463,0.5303471375,11.02861588,0.04131408691,0.1526516378,-0.2176611573,-0.1266628802,1
17.53911663,0.7057823181,11.49833908,0.3745211792,0.002781579737,-0.1513837576,-0.04256877676,1
17.55915763,0.2740800476,12.47909958,0.1582209778,-0.2797906697,-0.1229428127,0.06272306293,1
17.57919963,-0.8568182373,13.77106293,-1.010698242,-0.7509710193,0.01823989116,0.2266874611,1
17.59924163,-1.030457153,12.82233582,-0.9755213928,-1.418128252,0.2205046415,0.4596376121,1
17.61928263,-0.1932481384,10.8013884,-1.961670685,-1.994001865,0.436432004,0.6921221018,1
17.63932463,-0.5969586182,9.386530609,-1.911674652,-2.268922567,0.3645082414,0.8640186787,1
17.65936563,-2.54845047,8.121211853,-0.5528004456,-2.470113277,-0.2624473274,0.8088595271,1
17.67940763,-4.331542511,9.623038788,0.6875202942,-2.456976414,-0.5522568822,0.6742132902,1
17.69944963,-6.627168732,11.69892197,1.858684845,-2.161843777,-0.8762536645,0.8939656615,1
17.71949063,-3.824546814,12.86829025,0.9002279663,-1.915668845,-1.139711261,0.6685652137,1
17.73953263,-2.203867035,12.05907303,-0.3695814514,-1.679427862,-1.244226933,0.5858058333,1
17.75957363,-1.85105072,9.901160431,-0.703686676,-1.57557106,-1.03839314,0.8011829257,1
17.77961563,-0.8081694031,9.263336792,-1.040037231,-1.790164113,-1.138429284,1.092007756,1
17.79965763,0.3870950317,10.3660936,-0.2966830444,-1.926960707,-0.7548242211,1.122101307,1
17.81969863,-0.6753955078,10.74510544,1.539249115,-1.940024137,0.287984401,1.090232015,1
17.83974063,-1.603764954,9.661508789,2.633473663,-1.839415431,1.814553618,0.9340754747,1
17.85978163,-2.125430145,8.851243744,1.630559235,-1.685608506,2.068589926,0.819732368,1
17.87982363,-2.319576416,8.061186676,0.2082170105,-1.670451522,1.399668694,0.8019759059,1
17.89986563,-2.261048126,7.678282928,1.106349335,-1.468334556,1.194598436,0.8365983367,1
17.91990663,-1.247056732,7.273824005,3.794459381,-0.8142282963,1.171053886,0.6731794477,1
17.93994863,-0.5459147644,6.142027588,3.588188324,-0.3648963869,1.046058297,0.3527929485,1
17.95998963,-1.55855896,5.418132935,3.084785156,-0.05297090113,0.857339859,0.1456739157,1
17.98003163,-1.951940918,5.405858459,3.747307434,0.2490741909,0.8322713375,-0.0701906383,1
18.00007363,-1.491947479,5.399421844,4.499193878,0.5380932689,0.9463192821,-0.2535199523,1
18.02011463,-0.6614744568,5.478906555,4.564158783,0.7634223104,0.8577280045,-0.4507517517,1
18.04015663,-0.5102888489,5.455854492,4.801415405,0.9956935048,0.885411799,-0.6595725417,1
18.06019763,-0.9940827942,5.469775543,5.058580627,1.150339365,1.169891477,-0.8081331849,1
18.08023963,-0.8475375366,6.892417145,4.783003693,1.197821736,1.271360636,-0.884717226,1
18.10028063,-0.9403445435,9.910890198,5.148543549,0.8518134952,1.556615472,-0.7984111309,1
18.12032262,-1.071322174,13.28202988,6.606811066,0.2186181992,1.447866917,-0.3557587862,1
18.14036463,0.660276947,14.45079941,7.118447113,-0.01880014315,0.5695824027,0.2957090437,1
18.16040562,2.398462372,12.12358887,7.145091705,0.2487213016,-0.2515947223,0.6798455119,1
18.18044763,1.257085876,12.1536763,5.547913055,0.8311912417,-0.7738352418,0.6373344064,1
18.200489,-3.48684906,14.69988144,3.550766144,1.366535425,-0.180170089,0.5573133826,1
18.220531,-7.750133514,15.53873703,-2.208657074,0.6791434884,-0.4858330786,1.215072274,1
18.240573,-2.539618835,7.279661865,-6.190676422,0.8793016076,-1.04712379,1.379797101,1
18.260614,-1.525328064,0.9937834167,0.1062789917,0.4724921584,-2.045704365,0.8178629875,1
18.280656,-2.153721313,0.07604187012,6.867868195,0.1949154735,-1.438541293,-0.6461364031,1
18.300697,-3.467988281,6.425837402,5.66092804,1.640176773,0.2372125834,-1.457363367,1
18.320739,-2.950813751,10.56562866,-3.364253998,1.806617141,1.275046587,-1.367234468,1
18.340781,0.4161346436,14.16414551,-9.01200943,0.6280258894,1.276011586,-1.239133,1
18.360822,2.579885101,14.02388718,-4.206851807,0.1896514744,-0.5142670274,-0.3610430658,1
18.380864,2.476001129,10.78552139,4.468208313,1.365546107,-0.317166388,0.1889406145,1
18.400905,-1.00036972,10.39887543,3.724105682,1.840301514,0.06833128631,0.3240715265,1
18.420947,-2.599344635,10.13617172,-1.900148621,1.119504571,-0.3347146511,0.08703745902,1
18.440989,-3.151546326,9.053024139,-1.692081299,0.604036808,-0.5681062341,-0.2734611928,1
18.46103,-2.759511566,8.480614471,1.285077667,0.8111425638,-0.1093245223,-0.538092196,1
18.481072,-2.084565125,8.593928833,0.2287243652,1.126167774,0.2790407836,-0.6183966398,1
18.501113,-1.046473846,8.913514252,-2.39756424,1.100951195,-0.02963618748,-0.4960667193,1
18.521155,-0.3532653809,9.489815826,-2.62329483,0.9080561996,-0.3932143152,-0.3431036472,1
18.541197,-0.9442364502,9.715696106,-0.6873706055,0.8066808581,-0.4501250386,-0.243268773,1
18.561238,-1.322499847,9.513466644,0.5427713013,0.7255297899,-0.5629295707,-0.2566409707,1
18.58128,-1.23672821,9.255702667,0.1196012878,0.6063039899,-0.5851221085,-0.3169609606,1
18.601321,-1.156345367,9.166787567,-0.2757266235,0.6299330592,-0.4628092647,-0.4099322259,1
18.621363,-1.018182678,9.193132782,-0.02230361938,0.7598086596,-0.1859578043,-0.5356816053,1
18.641404,-0.9783654785,9.173972626,-0.463585968,0.7892876863,-0.1310426295,-0.5649875402,1
18.661446,-1.025966492,9.344468079,-0.01137634277,0.8327798247,-0.1321358681,-0.5403764248,1
18.681488,-1.102457428,9.50583252,1.327289886,0.9349325299,-0.08909726143,-0.4921858013,1
18.701529,-1.311422882,10.00040405,1.290316772,0.7911702991,-0.2262104154,-0.4379338026,1
18.721571,-1.025667114,10.80557968,0.4189787292,0.4317319989,-0.5332113504,-0.3838630617,1
18.741612,0.1779798889,10.77594131,-0.1820214844,0.2144811898,-0.4875667095,-0.32147488,1
18.761654,1.224603424,10.67909271,-0.09610015869,0.07198168337,-0.2207908779,-0.2134626806,1
18.781696,1.843266907,11.1690239,-0.3851490784,-0.1062317938,0.05734314397,-0.0456908457,1
18.801737,1.55391861,12.04949295,-0.9589059448,-0.2582815886,0.3542281091,0.2538134456,1
18.821779,0.8976832581,13.52916595,-0.2273771667,-0.5011250973,0.5270813704,0.5606476068,1
18.84182,-0.0296383667,13.6082016,-1.313518524,-1.148829579,0.4491502047,0.7693437338,1
18.861862,-1.527274017,12.88999512,-2.036215668,-1.68465817,0.4966047406,0.9254850149,1
18.881904,-3.300037537,11.17620895,-1.144070892,-2.109548807,0.1386460066,0.9174619913,1
18.901945,-4.270020447,8.899443512,-1.225950623,-2.308541298,-0.384311825,0.6484888792,1
18.921987,-5.075944519,7.412735138,-1.842668152,-2.60344553,-1.149032354,0.4632875621,1
18.942028,-8.928333435,8.531957703,1.090332642,-2.346814871,-1.785539985,0.8903599977,1
18.96207,-5.081033936,11.53201904,2.633323975,-2.019812822,-1.668551564,0.5548902154,1
18.982111,-1.614093475,12.05742645,0.7587721252,-1.980815172,-1.02085793,0.3069136441,1
19.002153,-0.8378077698,10.04231689,-0.5767506409,-2.057660818,-0.07818201184,0.4178071618,1
19.022195,-1.144070892,9.730515289,0.1860630798,-2.092671871,-0.4209181964,0.7331401706,1
19.042236,-0.1796264648,10.84674408,1.482217712,-1.785934687,-0.9509521723,0.8239396811,1
19.062278,-0.9237290955,11.30808472,2.889740753,-1.496141672,-0.1006402001,0.925724864,1
19.082319,-1.553469543,9.851463776,2.277813263,-1.495910168,0.7008581161,0.9893872142,1
19.102361,-1.794019318,9.005572815,1.773661652,-1.344532847,1.127268672,0.9352980256,1
19.122403,-2.103126526,8.158634033,1.159638519,-1.285550475,1.129427552,0.928153038,1
19.142444,-2.135608978,7.669301605,1.247805176,-1.118376613,1.048502803,0.8424423337,1
19.162486,-1.839674377,7.33055603,2.483036499,-0.8309801817,1.093830466,0.6257599592,1
19.182527,-2.075434113,6.536008301,3.428470459,-0.4783760011,1.147204757,0.4714507759,1
19.20256854,-2.010020142,6.026168518,4.014651489,0.003241507569,1.079759121,0.3256345391,1
19.22261054,-1.619482269,5.530100098,3.947441254,0.4545890391,0.8993492723,0.1549801081,1
19.24265154,-1.19930603,5.028044128,3.89055954,0.8066256642,0.7383878231,0.02150292695,1
19.26269354,-0.2552192688,5.126838684,3.935316467,1.0415169,0.5490193963,-0.1732096523,1
19.28273454,0.126486969,5.272336121,4.182751923,1.199659944,0.409275502,-0.4077221155,1
19.30277654,-0.2823129272,5.255121918,4.514911194,1.371992946,0.454559654,-0.682374835,1
19.32281854,-1.231189728,5.417833557,4.607568512,1.55499351,0.8783373237,-0.7824661732,1
19.34285954,-1.669178925,7.357949066,4.666096802,1.482287645,1.713624597,-0.6880860925,1
19.36290154,-1.037791901,10.94523926,6.120921478,1.110033751,2.429273844,-0.467363447,1
19.38294254,0.4454736328,15.46703613,6.582411804,0.3241413534,1.629641652,0.02019242942,1
19.40298454,1.492097168,16.26188324,5.963448944,-0.4039330482,-0.4754112661,0.8766481876,1
19.42302654,2.832709351,10.77429474,5.768703918,-0.5719707012,-1.48061049,1.11044836,1
19.44306754,0.855920105,8.275241547,5.797444153,0.3103386462,-1.080611229,0.7980656028,1
19.46310954,-4.112996979,8.549321594,2.895279236,1.154857874,-0.1092969924,0.4134595692,1
19.48315054,-8.399183807,12.72503815,-0.4080514526,1.220142961,0.3668570518,0.265578568,1
19.50319254,-8.138126678,17.66057465,-0.3245251465,-0.1316730976,0.08276658505,0.07519988716,1
19.52323354,-1.079405365,12.04560104,2.325563965,0.9060164094,-0.7631170154,0.08010649681,1
19.54327554,-0.8786727905,4.939278717,-2.128124542,1.334414959,-1.082304835,0.1909673661,1
19.56331754,-0.5206173706,2.030527496,-4.55517746,0.5725256801,-1.299623847,-0.4005895257,1
19.58335854,-1.284628601,5.342839508,-1.192420349,0.4923526943,-0.5743265152,-0.8095601201,1
19.60340054,-1.16188385,10.29633865,-0.7824229431,0.8989697099,0.3986110389,-0.6880978942,1
19.62344154,-0.5584886169,12.89792862,-2.775528259,0.7776772976,0.6235865355,-0.4256716967,1
19.64348354,1.11158844,12.90825714,-1.495989075,0.512901485,-0.2370186895,-0.1686618626,1
19.66352554,0.01407073975,9.829309845,3.030897217,0.9219285846,-0.6619436145,0.052135095,5
19.68356654,-1.803000641,8.92653717,2.240840149,1.00287056,-0.3710772991,0.05458986387,5
19.70360854,-2.230811005,8.873846741,-1.612895966,0.570456028,-0.4067626894,-0.06016428769,5
19.72364954,-1.526675262,8.668174438,-0.5638774109,0.5388075113,-0.5099931359,-0.2056023926,5
19.74369154,-1.118773499,9.055868225,0.9032217407,0.7195082903,-0.3956494629,-0.2447651178,5
19.76373354,-0.6251000977,9.465266876,-0.2142045593,0.680195868,-0.2397185862,-0.2245367169,5
19.78377454,-0.02035766602,9.697583771,-0.5554948425,0.6294890642,-0.2917378247,-0.174419567,5
19.80381654,-0.008681945801,9.94457016,-0.216000824,0.686199367,-0.4091624618,-0.1123436466,5
19.82385754,-0.6248007202,9.711953888,0.1267863464,0.7638738155,-0.4074965119,-0.1162157431,5
19.84389954,-0.8818162537,9.596394196,-0.04984634399,0.7295658588,-0.3188885152,-0.2042579949,5
19.86394054,-1.099313965,9.641001434,-0.1589694214,0.7119013071,-0.3585641682,-0.3041096926,5
19.88398254,-1.115180969,9.609117737,0.02005828857,0.8338935971,-0.3246012628,-0.397621572,5
19.90402454,-1.019978943,9.48936676,0.2683918762,0.952252984,-0.2990549207,-0.4918916523,5
19.92406554,-0.9083111572,9.134155426,0.6710545349,1.025406361,-0.4127983451,-0.5737515092,5
19.94410754,-0.9023236084,8.963360596,0.2673440552,0.9411193132,-0.3870429099,-0.5898463726,5
19.96414854,-1.113983459,9.485474854,0.1706451416,0.8394193649,-0.3386248946,-0.5962529182,5
19.98419054,-1.365310822,9.931547241,0.5108876038,0.5908626318,-0.4360588491,-0.5925637484,5
20.00423254,-0.2381547546,9.755812683,-0.3875440979,0.277120471,-0.4080561101,-0.5123489499,5
20.02427354,0.496816864,10.05384293,-0.3085084534,0.2036016881,-0.356028527,-0.3299132288,5
20.04431554,0.9458830261,10.14141083,-0.169896698,0.06717175245,-0.3764102161,-0.1701939404,5
20.06435654,0.3239263916,9.746531982,-1.364263,-0.2947397828,-0.2517748773,0.08709552139,5
20.08439854,-0.5694158936,10.46084656,-2.496209106,-0.6470801234,-0.05310637876,0.2929454148,5
20.10444054,-1.634301453,11.84666473,-2.299518127,-1.061023474,0.2165093273,0.6646838784,5
20.12448154,-3.658392334,13.84411102,-2.082170105,-1.232705832,-0.05813357234,1.065413713,5
20.14452354,-3.118614807,13.91386597,-0.6298901367,-1.483357787,-0.6788270473,1.040731072,5
20.16456454,-2.545307007,11.56809402,-1.759141846,-1.667157054,-0.7844227552,0.7344818711,5
20.18460654,-3.285966797,8.929381256,-1.459315338,-1.605507851,-1.062651396,0.3353051543,5
20.20464804,-6.766678619,8.884324951,-0.06676116943,-1.184247732,-1.092885137,0.3643313348,5
20.22469004,-6.28692627,10.78252762,-0.3405418396,-0.7862583995,-0.9530323744,0.1828951985,5
20.24473204,-3.885320435,11.19013,-0.7650590515,-0.5745632648,-0.4962252676,-0.149467811,5
20.26477304,-2.804567871,9.51167038,-0.8797206116,-0.328504473,0.3409641087,-0.3031511903,5
20.28481504,-3.359763336,8.288414154,-1.693727875,-0.01058143098,0.3719687164,-0.2057457566,5
20.30485604,-3.871698761,7.813900909,-1.640738068,0.3424643278,-0.09178109467,-0.1679400206,5
20.32489804,-4.038302307,7.72842865,-1.548829193,0.4380686581,-0.1372437775,-0.1325715929,5
20.34494004,-3.313359833,7.904013519,-1.309177551,0.3085026741,0.2512016892,-0.2257160991,5
20.36498104,-2.889740753,8.022716675,-0.4770579529,0.3185838759,0.7483066916,-0.3016249239,5
20.38502304,-2.606080627,8.114475861,0.3176394653,0.4249479175,0.8281109929,-0.3107948601,5
20.40506404,-2.483485565,8.253237305,0.213306427,0.3418107629,0.5393200517,-0.3028447628,5
20.42510604,-2.917133789,8.662336578,-0.4899311829,-0.05661530048,0.05947403982,-0.3484155238,5
20.44514804,-3.320544891,8.505462799,0.3673361206,-0.385096699,0.03502267972,-0.416932404,5
20.46518904,-3.132835236,8.077951813,1.327439575,-0.3823871911,0.2579776347,-0.5031508207,5
20.48523104,-2.973716125,8.060138855,0.6261479187,0.003031651722,0.3351251781,-0.4923200309,5
20.50527204,-2.698288879,8.645272064,0.01077758789,0.7368175983,0.1775063872,-0.3011075854,5
20.52531404,-2.010618896,10.00160156,-2.311792603,0.6776175499,0.4545050561,-0.172599569,5
20.54535504,-1.885329437,10.9115593,-1.776954803,0.466042757,0.5038391948,-0.07095652819,5
20.56539704,-1.910177765,11.53680908,1.136885834,0.7116674781,0.2174091637,-0.03383960575,5
20.58543904,-2.328857117,10.70034851,0.7180567932,0.741645515,-0.01851247437,0.004722298123,5
20.60548004,-2.708318024,9.613159332,-0.1031355286,0.4296073318,-0.003209884278,-0.08045925945,5
20.62552204,-3.137774963,9.294172668,0.1998344421,0.2202272117,0.1369218826,-0.149425894,5
20.64556304,-2.97790741,9.326505432,0.1320254517,0.2136213779,0.1248688623,-0.1595249623,5
20.66560504,-2.417622528,9.254056091,-0.5257067871,0.2284238189,0.04106094688,-0.1282009035,5
20.68564704,-1.879940643,9.048832855,-1.044827271,0.2537969649,0.006913261488,-0.06219525635,5
20.70568804,-1.677561493,9.098080444,-0.7189549255,0.3300301433,0.03166044131,0.02584312484,5
20.72573004,-1.913470917,9.224567413,-0.5258564758,0.3216268122,0.03215984255,0.1074248031,5
20.74577104,-2.133812714,9.337133331,-0.6953041077,0.2429580986,0.02224858478,0.1177332774,5
20.76581304,-2.293829956,9.461374969,-0.7075785828,0.1803869903,0.03531159088,0.07903923094,5
20.78585504,-2.416125641,9.832602997,-0.495769043,0.1266117096,0.0251759924,0.06075410545,5
20.80589604,-2.458936615,10.06656647,-0.4805007935,0.07556537539,-0.04591178894,0.06180671602,5
20.82593804,-2.401156769,9.818681946,-0.6125262451,0.01453004777,-0.1050276533,0.0594528839,5
20.84597904,-2.207609253,9.545200653,-0.5743556213,0.006642164662,-0.0801397413,0.07485882938,5
20.86602104,-1.981728973,9.452693024,-0.5486091614,0.01302455738,-0.02292274684,0.09296645224,5
20.88606304,-1.696871338,9.532626801,-0.7542814636,0.02513249591,0.001147718169,0.0952578336,5
20.90610404,-1.523681488,9.401349792,-1.067280579,0.03313748911,0.001303394558,0.1279484481,5
20.92614604,-1.859433289,9.359586639,-1.017434235,-0.01595402509,-0.03397166729,0.1618302613,5
20.94618704,-2.155218201,9.577383728,-0.4308041382,-0.04149034247,-0.06628130376,0.1671723425,5
20.96622904,-2.112556915,10.08542725,-0.1001417542,-0.06645102799,-0.1566946805,0.1602590829,5
20.98627004,-1.910926208,10.07524841,-0.6114784241,-0.1127683222,-0.1509804577,0.1667799205,5
21.00631204,-1.656904449,9.532177734,-1.271156616,-0.13959907,-0.00685323216,0.1728538275,5
21.02635404,-1.410965881,9.396110687,-1.029109955,-0.125763014,0.06262376904,0.1615938991,5
21.04639504,-1.331331482,9.424551544,-0.6608757019,-0.07941362262,0.1106197461,0.1549883634,5
21.06643704,-1.348395996,9.627080383,-0.6264472961,-0.0277117528,0.1823055744,0.1392300427,5
21.08647804,-1.503473511,9.810149689,-0.7661068726,0.01222474594,0.1495846808,0.1013559923,5
21.10652004,-1.832938385,9.729916534,-1.011446686,0.03494404256,0.1383987963,0.06286550313,5
21.12656204,-2.121687927,9.535470886,-1.104104004,0.04586133733,0.2147836387,0.009325534105,5
21.14660304,-2.241588593,9.472302246,-0.9104067993,0.03855782002,0.2141868919,-0.02722195722,5
21.16664504,-2.150727539,9.504036255,-0.6671626282,0.03034815565,0.1218070313,-0.0280777663,5
21.18668604,-2.129022675,9.526040497,-0.6242019653,0.01923365332,0.04197992384,-0.0140893776,5
21.20672742,-2.131417694,9.527088318,-0.6459068298,0.03894463927,0.03072683886,-0.008902341127,5
21.22676842,-2.087558899,9.726473694,-0.6249504089,0.06810592115,0.002884944435,-0.01822291315,5
21.24681042,-1.935175781,9.765392761,-0.4080514526,0.09832448512,-0.03794623539,-0.01901960373,5
21.26685242,-1.826651459,9.637857971,-0.6652166748,0.1130467579,-0.03188266605,-0.00792136509,5
21.28689342,-1.910926208,9.546248474,-1.157542877,0.1155848205,-0.06321399659,-0.008890798315,5
21.30693542,-1.966011658,9.326355743,-1.279239807,0.09954746813,-0.05438709259,-0.02435502037,5
21.32697642,-2.032024384,9.071884918,-0.8803193665,0.05947202444,-0.05322069302,-0.02736541443,5
21.34701842,-2.197280731,9.44730423,-0.4816983032,0.0311654117,-0.1024928764,-0.01214269921,5
21.36706042,-2.174827423,10.10952713,-0.1978884888,0.04403081164,-0.09815683961,0.002203886863,5
21.38710142,-1.940714264,10.13901581,-0.2354603577,0.06504309922,-0.08959169686,-0.002688305918,5
21.40714342,-1.589843903,9.694440308,-0.3388952637,0.07620033622,-0.1333045214,0.001976627158,5
21.42718442,-1.336720276,9.585466919,-0.07978408813,0.1094921753,-0.1835043728,0.01338955853,5
21.44722642,-1.164578247,9.651030579,-0.4843927002,0.0973469615,-0.1533258557,0.01912307367,5
21.46726842,-1.277293854,9.726324005,-0.5652246094,0.1037941501,-0.05554583296,0.01386213955,5
21.48730942,-1.362466736,9.700427856,-0.3300636292,0.104746826,-0.01167435292,0.004129574168,5
21.50735142,-1.344504089,9.5923526,-0.3555107117,0.06752762944,-0.05030427128,0.001377585228,5
21.52739242,-1.389560394,9.478289795,-0.5981561279,0.06374133378,-0.08673419803,0.00159042736,5
21.54743442,-1.326391754,9.517957306,-0.6289920044,0.08119915426,-0.04104313999,-0.01046969742,5
21.56747542,-1.195713501,9.601034546,-0.8378077698,0.067218557,-0.01637802646,-0.01766312122,5
21.58751742,-1.180445251,9.645492096,-0.8637039185,0.07019270957,0.01264315285,-0.00926887989,5
21.60755942,-1.368903351,9.592502289,-0.858614502,0.06716316193,0.06013173983,-0.00527764298,5
21.62760042,-1.67561554,9.546398163,-0.725690918,0.0531203188,0.12739788,-0.02527993545,5
21.64764242,-1.869612122,9.564510498,-0.666713562,0.01922572963,0.1366725266,-0.03863799572,5
21.66768342,-1.765428772,9.633666687,-0.7723937988,0.009894947521,0.1387299895,-0.03436655551,5
21.68772542,-1.658101959,9.689350891,-0.763711853,0.03357424587,0.1035575941,-0.00976680126,5
21.70776742,-1.733096008,9.637857971,-0.6491999817,0.04596519843,0.03941679373,0.009078744799,5
21.72780842,-1.841320953,9.63097229,-0.6433621216,0.04378793389,-3.297813237e-05,0.01358934306,5
21.74785042,-1.988614655,9.678423615,-0.7827223206,0.02208630368,-0.006271786988,0.005222706124,5
21.76789142,-1.96107193,9.657766571,-0.8238867188,-0.0005801930092,-0.0003872225061,0.002364916028,5
21.78793342,-1.813927917,9.620643768,-0.7309300232,-0.0006346551236,0.0003511290997,0.01096284389,5
21.80797542,-1.639390869,9.620194702,-0.7979905701,0.001368237427,-0.0146605745,0.02565199882,5
21.82801642,-1.589394836,9.666747894,-0.9406439209,-0.0001032936852,-0.02823060751,0.04159261659,5
21.84805842,-1.785037994,9.669142914,-0.8614585876,0.009612518363,-0.02027472295,0.05172563344,5
21.86809942,-1.956581268,9.483379211,-0.7604187012,-0.01285570767,-0.04015558958,0.05231440812,5
21.88814142,-1.83353714,9.559271393,-0.8400531006,-0.03516440839,-0.0678023994,0.03602470085,5
21.90818242,-1.666484528,9.62633194,-0.8337661743,-0.02579613775,-0.09594969451,0.04444175214,5
21.92822442,-1.592388611,9.643246765,-0.8390052795,-0.01731623523,-0.1056357548,0.05281304568,5
21.94826642,-1.627116394,9.577982483,-0.8280780029,-0.01665131189,-0.06877651811,0.04539493844,5
21.96830742,-1.611099701,9.523196411,-0.9027726746,-0.009384942241,-0.03014701977,0.02959533967,5
21.98834942,-1.593436432,9.534423065,-0.9268725586,0.002327774419,-0.0142411273,0.0152347777,5
22.00839042,-1.592987366,9.502689056,-0.9144483948,0.01389887929,0.01183959655,0.00159135845,5
22.02843242,-1.615141296,9.509425049,-0.8625064087,0.02193243615,0.03544890881,-0.01534483582,5
22.04847442,-1.640139313,9.546098785,-0.8050259399,0.03872685879,0.03878363594,-0.02137254737,5
22.06851542,-1.685644684,9.547146606,-0.7945477295,0.05345167965,0.02083590068,-0.02861762978,5
22.08855742,-1.681303711,9.572743378,-0.8839118958,0.04579076916,-0.005364404526,-0.03740353882,5
22.10859842,-1.660646667,9.62273941,-0.8464897156,0.04390598089,0.003127127187,-0.04404914379,5
22.12864042,-1.606309662,9.662706299,-0.8337661743,0.03212402016,0.01685398258,-0.03811863437,5
22.14868142,-1.578766937,9.674831085,-0.9117539978,0.01848197728,0.03457541391,-0.02351394854,5
22.16872342,-1.587448883,9.618548126,-0.8445437622,0.01194671262,0.06072538346,-0.009720995091,5
22.18876542,-1.618733826,9.655072174,-0.8072712708,-0.006902473979,0.06556903571,0.001295970869,5
22.20880729,-1.701212311,9.665700073,-0.9006770325,-0.01299166121,0.0386043489,0.01505474653,5
22.22884929,-1.793420563,9.611213379,-0.8961863708,-0.01838595793,0.02810202911,0.02189636417,5
22.24889029,-1.802701263,9.583970032,-0.8747808838,-0.03037897497,0.02071275935,0.0143705355,5
22.26893229,-1.794169006,9.588161316,-0.8514294434,-0.02608269453,0.004821923561,0.01136742532,5
22.28897429,-1.689386902,9.541907501,-0.7547305298,-0.01299945265,0.006532205269,0.009259216487,5
22.30901529,-1.630559235,9.555978241,-0.8045768738,-0.007796765305,0.02785785682,0.005436475854,5
22.32905729,-1.650168457,9.611662445,-0.8740324402,0.001290604705,0.03867944703,0.007737445645,5
22.34909829,-1.734892273,9.599986725,-0.8422984314,0.003074196633,0.04513951764,0.005706384312,5
22.36914029,-1.812730408,9.578730927,-0.8455915833,0.005168304779,0.04076677188,0.005602745805,5
22.38918229,-1.844314728,9.555828552,-0.9172924805,0.004916034639,0.03107983246,0.006453137845,5
22.40922329,-1.842817841,9.553283844,-0.8662486267,0.00681945961,0.01739105955,0.003769777715,5
22.42926529,-1.813927917,9.550739136,-0.8508306885,0.004013689235,0.003857326461,-0.001078592148,5
22.44930629,-1.756597137,9.593849487,-0.8229885864,0.01033749525,-0.008551324718,-0.0001823531929,5
22.46934829,-1.750609589,9.572893066,-0.8785231018,0.01670558006,-0.01451911964,0.005394174252,5
22.48938929,-1.809586945,9.588161316,-0.9276210022,0.01923098974,-0.006998824421,0.009346793406,5
22.50943129,-1.814526672,9.571096802,-0.8806187439,0.01805260777,-0.006484362762,0.01163955312,5
22.52947329,-1.752555542,9.575138397,-0.9128018188,0.01503258571,-0.01763602346,0.01092609484,5
22.54951429,-1.7796492,9.599687347,-0.8702902222,0.01812072285,-0.03202791139,0.008438743651,5
22.56955629,-1.824705505,9.566905518,-0.9283694458,0.01928485185,-0.04624880105,0.004819643684,5
22.58959729,-1.781445465,9.506281586,-0.9440867615,0.02715362981,-0.02917892113,0.0002151716035,5
22.60963929,-1.682800598,9.542356567,-0.8717871094,0.03849130869,-0.03033022583,0.002944510663,5
22.62968129,-1.642384644,9.603878632,-0.9134005737,0.0339400284,-0.0406178534,0.007377299014,5
22.64972229,-1.697619781,9.63920517,-0.9099577332,0.03538100049,-0.02847033553,0.006489179097,5
22.66976429,-1.733994141,9.634415131,-0.9719288635,0.0223769825,-0.01585942693,0.006511592306,5
22.68980529,-1.6416362,9.590406647,-0.9050180054,0.02808740549,-0.004029095639,0.01434780937,5
22.70984729,-1.523232422,9.573042755,-0.8857081604,0.02795471437,-0.01279933657,0.0160174761,5
22.72988829,-1.417552185,9.584269409,-0.8614585876,0.03426300734,0.004040263128,0.006180517375,5
22.74993029,-1.323098602,9.505084076,-0.8102650452,0.04580434412,0.03391126171,-0.003171617165,5
22.76997229,-1.380579071,9.654473419,-0.8250842285,0.06071898341,0.03736640513,-0.006207887083,5
22.79001329,-1.520837402,9.689949646,-0.9738748169,0.04746289924,0.02537247166,-0.0245682057,5
22.81005529,-1.559906158,9.596394196,-0.9919871521,0.03899517655,0.05707838759,-0.03570913896,5
22.83009629,-1.586999817,9.596543884,-1.035995636,0.04559475556,0.0590707399,-0.02929189801,5
22.85013829,-1.561702423,9.637408905,-0.9982740784,0.04352860898,0.03974313661,-0.01951263845,5
22.87018029,-1.642234955,9.601932678,-1.024619293,0.04077130184,0.01630717516,-0.01195174828,5
22.89022129,-1.712139587,9.613009644,-1.012494507,0.03553692997,0.01308790408,-0.01087827049,5
22.91026329,-1.764231262,9.596394196,-0.9433383179,0.02442149073,-0.007746086922,-0.002574668033,5
22.93030429,-1.781595154,9.589508514,-0.9574090576,0.008865373209,-0.0243832469,0.002194918692,5
22.95034629,-1.788331146,9.609417114,-0.9955796814,-0.002044136403,-0.0172450915,0.008702710271,5
22.97038829,-1.85808609,9.597891083,-1.085093536,-0.002135082381,-0.0122877406,0.01795648411,5
22.99042929,-1.930385742,9.590406647,-1.099164276,-0.005221952684,0.004142632242,0.02300477214,5
23.01047129,-1.978435822,9.594597931,-1.071471863,-0.01389593352,0.01006398629,0.02106639184,5
23.03051229,-2.003284149,9.586365051,-1.197809143,-0.02275080606,-0.01872962713,0.02646354027,5
23.05055429,-2.013163605,9.567204895,-1.249451752,-0.0266886279,-0.03254560754,0.03308536857,5
23.07059529,-2.015109558,9.480984192,-1.229243774,-0.01935115643,-0.03797095641,0.02867708355,5
23.09063729,-2.0079245,9.475745087,-1.198258209,-0.008955305442,-0.06051027402,0.009052116424,5
23.11067929,-1.904190216,9.479636993,-1.160386963,-0.0003791961353,-0.07687109709,-0.004444207065,5
23.13072029,-1.75390274,9.492061157,-1.170715485,0.01113245729,-0.07092241943,-0.01069953479,5
23.15076229,-1.641486511,9.522747345,-1.180445251,0.01851393469,-0.04076594487,-0.009690545499,5
23.17080329,-1.630559235,9.656569061,-1.172362061,0.01808995754,-0.004993608221,-0.005393892992,5
23.19084529,-1.764830017,9.679770813,-1.075812836,0.006104341242,0.01864079759,0.007232908159,5
23.210887,-1.905836792,9.5923526,-0.9855505371,-0.01521912403,0.01240613125,0.01135810092,5
23.230928,-1.905986481,9.619745636,-0.9327104187,-0.03008129075,-0.0087107094,0.01318209525,5
23.25097,-1.893113251,9.558672638,-0.8824150085,-0.03899556398,-0.03912160546,0.02533188462,5
23.271011,-1.893113251,9.591753845,-1.007554779,-0.05458098277,-0.06427850574,0.02889195643,5
23.291053,-1.870210876,9.583670654,-1.085243225,-0.05507599935,-0.03767817467,0.0313389115,5
23.311094,-1.733545074,9.589807892,-1.128353577,-0.0552357845,-0.02966896072,0.03601986542,5
23.331136,-1.59014328,9.614356842,-1.107247467,-0.0534745045,-0.02283860929,0.03237754852,5
23.351178,-1.735341339,9.547445984,-1.084045715,-0.04270900786,-0.02761652507,0.07173475623,5
23.371219,-2.515369263,9.150770874,-0.220790863,0.1255192757,0.03233961016,0.1012723222,5
23.391261,-1.87679718,9.8299086,0.08202941895,0.007428395562,0.01740165055,-0.02849219739,5
23.411302,-1.838626556,9.287885742,-1.593885498,-0.1335241944,-0.3123320937,-0.03883839771,5
23.431344,-1.318458252,9.688602448,-1.270857239,0.1201379076,-0.2105805874,-0.2046390027,5
23.451386,-0.8113128662,9.842332764,-0.4197271729,0.2227724642,-0.1581409276,-0.1027920395,5
23.471427,0.02694396973,9.157357178,-1.559606781,-0.106502369,-0.07820892334,0.1276811063,5
23.491469,-1.070124664,9.930798798,-3.60151062,-0.0518482402,0.455016315,0.1320248693,5
23.51151,-1.957479401,10.57101746,1.878443756,0.1659006029,0.4734232128,0.0004988859873,5
23.531552,-1.589245148,9.477391663,-1.844763794,-0.1913975477,-0.2209374607,-0.04262830317,5
23.551594,-1.695823517,8.729097748,-1.989961853,-0.1368285865,-0.08840738237,-0.04416814074,5
23.571635,-2.10851532,9.981094208,0.03278182983,0.08439834416,0.2318653315,-0.0486940071,5
23.591677,-2.054477692,9.709708557,-1.498084717,0.01843717135,0.03643681854,-0.04384483397,5
23.611718,-1.665287018,9.138496399,-1.303190002,0.01130010001,-0.00321066333,-0.03301007301,5
23.63176,-1.532363434,9.46945816,-0.666713562,0.04166499898,-0.06102793291,-0.003056480782,5
23.651801,-1.958227844,9.751322021,-1.189276886,-0.01022377238,-0.09264986962,-0.006613752805,5
23.671843,-2.285746765,9.717043304,-0.8571176147,-0.03408888727,-0.01242052764,-0.0446850583,5
23.691885,-1.971400452,9.657766571,-0.7729925537,-0.04495491087,-0.02554066293,-0.04833613336,5
23.711926,-1.490749969,9.539512482,-0.8961863708,0.001305918442,-0.06342041492,-0.00711890962,5
23.731968,-1.49419281,9.48816925,-1.011147308,0.02892782539,-0.03852130845,0.01475798246,5
23.752009,-1.750010834,9.504485321,-0.9171427917,-0.001877823845,0.007857435383,-0.005837618373,5
23.772051,-1.852098541,9.603579254,-0.7295828247,-0.02358344197,-0.003661053255,-0.02163492702,5
23.792093,-1.782942352,9.647887115,-0.8258326721,-0.03357289359,-0.03767582774,-0.01078587025,5
23.812134,-1.798509979,9.635163574,-0.8390052795,-0.02675906941,-0.03244614974,0.006354601122,5
23.832176,-1.821112976,9.579778748,-0.8171507263,-0.0123428423,-0.03017547913,0.01769700088,5
23.852217,-1.70016449,9.541159058,-0.7993377686,-0.006376234815,-0.03323505819,0.0245118998,5
23.872259,-1.738634491,9.552685089,-0.8640032959,-0.0024558648,-0.0514569208,0.02909373306,5
23.8923,-1.836231537,9.605525208,-0.9222322083,-0.007093357854,-0.06102067977,0.03027156182,5
23.912342,-2.130070496,9.604477386,-0.7688012695,-0.005776625127,-0.1246016249,0.02199707553,5
23.932384,-1.997895355,9.473350067,-0.880019989,-0.01930807531,-0.09878199548,0.0132051371,5
23.952425,-1.809736633,9.520801392,-0.8722361755,-0.001894732006,-0.06580568105,0.01606972329,5
23.972467,-1.628912659,9.580377502,-0.9184899902,0.01224711817,-0.0302577652,0.02588831075,5
23.992508,-1.603615265,9.583670654,-0.9473799133,-0.01184796263,-0.002512259409,0.01119511761,5
24.01255,-1.710493011,9.600286102,-0.8765771484,-0.0252683647,0.04371081293,-0.007616252638,5
24.032592,-1.809287567,9.606872406,-0.6354286194,-0.01256961003,0.0375488475,-0.01544675045,5
24.052633,-1.842069397,9.565857697,-0.6725514221,0.001068497193,-0.06670023501,-0.01259658858,5
24.072675,-1.798210602,9.557175751,-1.004111938,0.01763436384,-0.02759208903,0.007367842831,5
24.092716,-1.827100525,9.435329132,-0.9051676941,0.08618811518,-0.05027005076,0.01991861127,5
24.112758,-1.993105316,9.806407471,-1.857337646,-0.004243171774,-0.2221027762,0.01243987679,5
24.1328,-1.24032074,9.792935486,-0.7141648865,-0.04608562589,0.06819396466,0.009894205257,5
24.152841,-1.589993591,9.252110138,-1.664538574,-0.05323155597,-0.02613962069,0.04341568425,5
24.172883,-1.737736359,9.724677429,-0.4543052673,-0.0430723317,-0.04086191952,0.02970453165,5
24.192924,-1.752705231,9.509125671,-0.6589297485,-0.03812091425,-0.2403785884,0.05455604196,5
24.2129665,-1.702858887,9.472751312,-1.031355286,-0.03049881384,-0.1568923742,0.03702037036,5
24.2330075,-1.762434998,9.671837311,-0.74065979,0.03011899441,-0.1859050691,0.02175521664,5
24.2530495,-1.469344482,9.631271667,-0.9240284729,-0.00100450404,-0.1001430899,-0.01550848782,5
24.2730915,-1.318308563,9.492360535,-0.8946894836,-0.009527878836,-0.1195095778,-0.0115010161,5
24.2931325,-1.301543427,9.625882874,-0.6532415771,-0.007015521638,-0.08694067597,-0.007391177118,5
24.3131745,-1.492097168,9.602681122,-0.7298822021,0.0002844003029,-0.02080317773,-0.01696244068,5
24.3332155,-1.636846161,9.531279602,-0.7623646545,0.007894583046,0.0204953216,-0.02863325551,5
24.3532575,-1.677411804,9.542206879,-0.65758255,0.02935213596,0.01422470436,-0.02257806994,5
24.3732995,-1.641037445,9.609417114,-0.7533833313,0.03840827942,0.03270243481,-0.01973288134,5
24.3933405,-1.593137054,9.645492096,-0.9241781616,0.03122340515,0.05087680742,-0.01456293277,5
24.4133825,-1.59837616,9.636061707,-0.8388555908,0.02347201109,0.05310593173,-0.009041933343,5
24.4334235,-1.651066589,9.635762329,-0.86235672,0.007488583215,0.02267284691,0.0003900518641,5
24.4534655,-1.744172974,9.641001434,-0.8373587036,0.003543777391,0.002591441618,0.00508760009,5
24.4735065,-1.789828033,9.638756104,-0.7860154724,0.009250991046,1.038983464e-05,0.008879981935,5
24.4935485,-1.735341339,9.619446259,-0.8620573425,0.004218018148,-0.003147954587,0.0146044502,5
24.5135905,-1.654808807,9.597442017,-0.8758287048,0.002622991567,0.005446245894,0.009478616528,5
24.5336315,-1.58430542,9.544601898,-0.9119036865,-0.007554412354,0.007117769681,0.003751668148,5
24.5536735,-1.616787872,9.588011627,-0.9138496399,-0.002846016549,0.0384657979,-0.00500786677,5
24.5737145,-1.668729858,9.587113495,-0.9205856323,-0.001636469504,0.06247915328,-0.005312488414,5
24.5937565,-1.714085541,9.550888824,-0.9129515076,0.0003242832609,0.066969648,-0.005156072788,5
24.6137985,-1.700463867,9.552834778,-0.8704399109,0.007777933031,0.07172358036,-0.009055914357,5
24.6338395,-1.707648926,9.562714233,-0.8852590942,0.01216043532,0.07298597693,-0.01053263899,5
24.6538815,-1.747017059,9.57364151,-0.9128018188,0.009083552286,0.0683812499,-0.0170623567,5
24.6739225,-1.76333313,9.578730927,-0.8918453979,0.008998924866,0.07280593365,-0.01981211267,5
24.6939645,-1.735491028,9.542805634,-0.8315208435,0.01749301329,0.07511499524,-0.01874040999,5
24.7140065,-1.684297485,9.581425323,-0.856967926,0.02166825347,0.06577860564,-0.01276485529,5
24.7340475,-1.691183167,9.666747894,-0.899329834,0.0213262327,0.07312812656,-0.004594853148,5
24.7540895,-1.716630249,9.622889099,-0.8737330627,0.01713162661,0.08021420985,0.001549146022,5
24.7741305,-1.714235229,9.59699295,-0.8508306885,-0.0008742702194,0.07058824599,0.006134926341,5
24.7941725,-1.746418304,9.63681015,-0.8657995605,-0.006273439154,0.06514713168,0.01175766252,5
24.8142135,-1.788630524,9.592502289,-0.8653504944,-0.006508321501,0.06356827915,0.01779735461,5
24.8342555,-1.804048462,9.556576996,-0.8897497559,-0.004288255237,0.04605453834,0.01455082186,5
24.8542975,-1.839225311,9.551487579,-0.8890013123,0.009235352278,0.0258100871,0.01577628404,5
24.8743385,-1.858834534,9.531878357,-0.8666976929,0.01139317174,0.01001621317,0.0124693457,5
24.8943805,-1.872007141,9.548643494,-0.9981243896,0.001574833062,0.01270614937,0.001585411956,5
24.9144215,-1.789678345,9.580826569,-0.8893006897,0.01365832519,0.02154706791,0.002701674122,1
24.9344635,-1.715582428,9.5631633,-0.9142987061,0.01032371819,0.00660525728,0.006820742972,1
24.9545055,-1.737137604,9.585466919,-0.9750723267,0.01224025898,0.004153633956,0.01136471517,1
24.9745465,-1.778751068,9.609716492,-0.9801617432,0.01766505837,0.01461364515,0.005827955902,1
24.9945885,-1.758992157,9.536818085,-0.9334588623,0.01893344894,0.0001795422286,0.00480863452,1
25.0146295,-1.763931885,9.56900116,-0.9470805359,0.0190658085,-0.02874742635,0.004437834956,1
25.0346715,-1.742825775,9.570498047,-0.9264234924,0.018139828,-0.02524379268,0.008072338998,1
25.0547135,-1.750160522,9.604477386,-0.9228309631,0.01217874326,-0.02508486435,0.01355001703,1
25.0747545,-1.737736359,9.638756104,-0.9183403015,0.009872915223,-0.03696991876,0.01847717166,1
25.0947965,-1.735790405,9.590556335,-0.9466314697,0.009903204627,-0.0457492955,0.01941349916,1
25.1148375,-1.695823517,9.558972015,-0.9485774231,0.00514154043,-0.03469321877,0.01864859462,1
25.1348795,-1.654808807,9.629625092,-0.9515711975,0.008886808529,-0.03914533183,0.02128374949,1
25.1549205,-1.657054138,9.575288086,-0.9503736877,0.01039722096,-0.0272680223,0.01850163378,1
25.1749625,-1.661245422,9.536518707,-0.9900411987,0.0100881625,-0.02397486009,0.01076408383,1
25.1950045,-1.682950287,9.566905518,-0.9915380859,0.01645298302,-0.03166383505,0.01250313036,1
25.21504467,-1.750310211,9.577832794,-0.9713301086,0.02126491629,-0.02977602184,0.01619560085,1
25.23508667,-1.817221069,9.557624817,-1.003064117,0.02005484328,-0.04441842809,0.01774622872,1
25.25512767,-1.844314728,9.561217346,-1.023272095,0.02230567671,-0.05950468406,0.009855148382,1
25.27516967,-1.781146088,9.55957077,-0.982407074,0.02277971804,-0.07633479685,0.002947174944,1
25.29521167,-1.673370209,9.557475128,-0.9812095642,0.03225445002,-0.08933231235,0.00470148772,1
25.31525267,-1.620380402,9.587263184,-0.98989151,0.03911814839,-0.07924104482,0.005902439822,1
25.33529467,-1.611997833,9.570947113,-0.9862989807,0.03961629048,-0.06323153526,0.006662151311,1
25.35533567,-1.630858612,9.595196686,-0.983454895,0.03764728457,-0.08780039847,0.008078331128,1
25.37537767,-1.600920868,9.597292328,-0.9431886292,0.03580624238,-0.09213840216,0.00589737948,1
25.39541967,-1.599723358,9.623637543,-0.9611512756,0.03040562011,-0.08025082946,0.003761700355,1
25.41546067,-1.572779388,9.677076416,-0.9857002258,0.02104267292,-0.06130137295,0.007021633908,1
25.43550267,-1.610351257,9.743987274,-1.101708984,-0.002068506088,-0.07085069269,0.02623083629,1
25.45554367,-1.70719986,9.776769104,-1.062789917,-0.02508839592,-0.09454837441,0.0363025032,1
25.47558567,-1.658251648,9.862989807,-0.8463400269,-0.06463221461,-0.1146847233,0.04919371754,1
25.49562667,-1.806144104,10.04665787,-1.113235016,-0.134165749,-0.1477138847,0.1300274879,1
25.51566867,-1.870510254,9.95744339,-1.189276886,-0.1856856644,-0.07890062779,0.2010644823,1
25.53571067,-1.734592896,9.774523773,-1.127605133,-0.2485302091,-0.06250217557,0.2437326163,1
25.55575167,-1.811083832,9.743687897,-1.547781372,-0.3355455995,-0.1527377516,0.3075310886,1
25.57579367,-2.080074463,9.797875214,-1.441053314,-0.3933933377,-0.134636417,0.3292720616,1
25.59583467,-2.053429871,9.764794006,-0.9342073059,-0.4397509098,-0.06018184498,0.32430619,1
25.61587667,-1.740131378,9.684111786,-1.273851013,-0.5068467259,-0.009426362813,0.3537812531,1
25.63591867,-1.496138763,9.577084351,-1.667682037,-0.5697549582,0.09609164298,0.401473403,1
25.65595967,-1.579365692,9.549691315,-1.484762421,-0.6370890737,0.2456353903,0.434160769,1
25.67600167,-1.437460785,9.311686249,-1.020428009,-0.731746912,0.3542449176,0.423464179,1
25.69604267,-1.163530426,8.843759308,-1.064286804,-0.832234621,0.4975120425,0.354578048,1
25.71608467,-1.07536377,8.446186066,-1.286275177,-0.8409006,0.6616312265,0.1995369345,1
25.73612667,-1.408870239,8.621621246,0.163460083,-0.8834986091,0.8667651415,0.02473116666,1
25.75616767,-1.397194519,9.375004578,1.739682312,-1.021047473,0.8017787933,-0.06660749018,1
25.77620967,-1.146615601,9.740843811,1.180445251,-0.854823947,0.6516234875,-0.04501311854,1
25.79625067,-0.2830613708,10.03797592,0.2713856506,-0.594699204,1.029002786,-0.08224086463,1
25.81629267,0.08397537231,10.48913773,0.214354248,-0.5261602402,1.418406129,-0.05130603164,1
25.83633367,-0.4240681458,10.49452652,1.190324707,-0.4382317066,1.308030605,0.1196514145,1
25.85637567,-0.4180805969,10.42013123,0.882714386,-0.3884946406,1.147869349,0.230544731,1
25.87641767,-1.122665405,9.901759186,0.390687561,-0.3540617526,0.9287996888,0.2678383589,1
25.89645867,-1.299896851,9.49759964,0.8198451233,-0.3379963934,0.8079753518,0.1657276899,1
25.91650067,-0.8084687805,9.133107605,1.330732727,-0.2921327651,0.855625689,0.04901884124,1
25.93654167,-0.3141966248,9.29986084,0.9607022095,-0.2998909354,1.135352135,0.009710581042,1
25.95658367,0.08068222046,9.586365051,0.6001020813,-0.386436224,1.509379983,-0.01837165095,1
25.97662567,0.4165837097,9.911488953,1.104702759,-0.4175011218,1.785269976,-0.01215971634,1
25.99666667,0.8619076538,10.24364822,0.8918453979,-0.4738110006,2.016392708,0.007809574716,1
26.01670867,1.155147858,10.17374359,0.4219725037,-0.5977178812,2.139656544,0.03263258934,1
26.03674967,0.8562194824,9.86852829,0.713865509,-0.6292914748,2.346201181,0.062420398,1
26.05679167,0.3951782227,9.715097351,1.126407623,-0.6185020804,2.505432606,0.09309361875,1
26.07683367,0.2727328491,9.866432648,1.113833771,-0.5811150074,2.507811546,0.07449552417,1
26.09687467,0.3683839417,10.23182281,0.492026825,-0.651176393,2.68027854,0.01131291781,1
26.11691667,0.0556842041,10.39198975,-0.1836680603,-0.7941111922,2.846774578,0.001405870891,1
26.13695767,-0.01182540894,10.32133667,0.2308200073,-0.8658543229,3.04276824,0.01236136071,1
26.15699967,-0.09385482788,10.32837204,0.67045578,-0.83539325,3.210713863,0.02170998603,1
26.17704167,0.2972817993,10.40171951,0.2703378296,-0.793458879,3.258682489,0.001952040358,1
26.19708267,0.6418652344,10.53314621,-0.7179071045,-0.8051534295,3.07084012,0.02041072026,1
26.21712875,-0.3125500488,10.15218842,-0.9440867615,-0.8335737586,2.828406334,0.08786211163,1
26.23716975,-1.139430542,9.938432922,-0.8288264465,-0.8646150827,2.783843756,0.07520250976,1
26.25721175,-1.38072876,9.948162689,-1.116079102,-0.8674775362,2.826806784,-0.003034329973,1
26.27725275,-1.800455933,9.547146606,-0.8906478882,-0.8630635142,2.922902584,-0.09123840183,1
26.29729475,-2.23949295,8.968599701,-0.5167254639,-0.8831270337,2.824042797,-0.2216799855,1
26.31733675,-2.654280396,9.169781342,0.1266366577,-0.8088586926,2.307118893,-0.2517676353,1
26.33737775,-3.185825043,9.664801941,-0.4388873291,-0.6824486256,1.379988194,-0.1693406105,1
26.35741975,-3.967499542,9.554032288,-0.97701828,-0.6103247404,0.9322094321,-0.03209297359,1
26.37746075,-4.446653137,9.552086334,0.5692662048,-0.5125713944,1.121558905,-0.02863689698,1
26.39750275,-3.81915802,9.839638367,2.279010773,-0.5808634162,1.317991257,-0.06214367598,1
26.41754475,-2.321971436,10.22149429,2.687810669,-0.7472494841,1.242839694,0.1649588794,1
26.43758575,-1.176703033,10.31654663,3.636687469,-0.8517531157,1.172985077,0.3706218302,1
26.45762775,-0.4141886902,10.21909927,4.97520401,-0.8290808201,1.321294546,0.5423990488,1
26.47766875,0.3448828125,9.741891632,4.836741943,-0.7602371573,1.475170135,0.6414586902,1
26.49771075,0.2418969727,9.305848389,3.638034668,-0.719913125,1.880172372,0.665931344,1
26.51775275,-0.5019062805,9.477092285,2.627635803,-0.8412072659,2.652541399,0.6055805087,1
26.53779375,-2.071991272,9.755662994,2.021995239,-1.117948174,3.11315465,0.6398901939,1
26.55783575,-2.783910828,9.662855988,1.750310211,-1.357081532,3.010900736,0.6285887957,1
26.57787675,-2.444117432,9.487121429,2.202519836,-1.335621834,2.856770992,0.520689249,1
26.59791875,-2.45833786,9.254056091,2.187850342,-1.138396025,2.533924341,0.6018993258,1
26.61796075,-2.828368378,9.156758423,1.879940643,-0.7199885249,2.098724842,1.057884574,1
26.63800175,-2.669249268,9.05407196,0.6340814209,-0.2886378765,1.837540388,1.536975384,1
26.65804375,-1.267115021,9.058862,-0.05673202515,0.06071252003,1.860510111,1.659242392,1
26.67808475,-1.124910736,8.843908997,-0.4718188477,0.1601519585,1.906497359,1.776959658,1
26.69812675,-0.9054670715,9.131161652,-0.5026547241,-0.195839107,1.916154981,1.684218526,1
26.71816775,-1.486708374,10.0661174,0.7023394775,-0.5459314585,2.280782223,1.426237702,1
26.73820975,-2.71220993,10.45905029,2.214944,-0.611933291,2.785515547,1.297029972,1
26.75825175,-3.039130096,10.03842499,3.00949173,-0.4165614247,2.998448372,1.259438396,1
26.77829275,-1.88263504,9.188941498,1.254241791,-0.2867752016,2.811048269,1.115187168,1
26.79833475,-1.589694214,8.426127777,0.05074447632,-0.2461827695,2.526417494,1.026707411,1
26.81837575,-1.263522491,8.312663727,1.055155792,-0.1147587672,2.585161209,0.958527863,1
26.83841775,-1.139430542,8.487500153,1.980082397,-0.02460037358,2.674359322,0.8738467097,1
26.85845975,-1.248703308,8.464897156,2.273023224,0.02791929804,2.630395889,0.7885917425,1
26.87850075,-0.6319857788,8.181536407,2.287992096,0.114587076,2.494113922,0.6270586848,1
26.89854275,-0.2544708252,8.109087067,1.899549866,0.1146366671,2.409769297,0.4313752353,1
26.91858375,-0.2823129272,8.689579926,2.020049286,0.1008433625,2.256438017,0.3051065803,1
26.93862575,-0.6366261292,9.138646088,1.928888855,0.09089367092,2.069612741,0.3277359903,1
26.95866775,-0.4462220764,9.368567963,2.171833649,0.08561109006,1.917593837,0.4007214606,1
26.97870875,0.1619631958,9.247469788,2.370769958,0.07565797865,1.71387732,0.4250166714,1
26.99875075,0.4468208313,8.66098938,2.029329987,0.08865188062,1.458229899,0.4337275624,1
27.01879175,0.1387614441,8.18587738,1.823807373,0.1200293675,1.321162701,0.458569169,1
27.03883375,-0.6042933655,8.570278015,0.8904981995,0.3686885238,0.8590179682,0.3249282241,1
27.05887575,-3.370091858,11.18728592,-0.1926493835,0.7902390361,0.243018806,0.09325332195,1
27.07891675,-6.233188019,15.13547562,-1.175056458,0.598579824,-0.3562962413,-0.1827649027,1
27.09895875,-5.269042969,17.03352859,0.9979747009,0.3468402922,0.4729447067,-0.3619454503,1
27.11899975,-0.912203064,9.993218994,1.65450943,1.062462091,0.8916871548,-0.3815343976,1
27.13904175,-1.410965881,4.580325165,-3.45286972,0.8625065684,0.4191283286,-0.4446426332,1
27.15908375,-1.119521942,2.706222382,-3.965852966,0.260584563,0.0866189748,-0.7060126662,1
27.17912475,-2.364033966,6.171665955,-1.030157776,0.03141202778,0.2185582072,-0.7780016661,1
27.19916675,-1.597627716,10.51488419,1.379082184,0.1351239085,0.749476552,-0.8873642683,1
27.2192055,-0.2381547546,12.66980301,0.1986369324,-0.005248045549,1.671032906,-1.056302428,1
27.2392475,0.8174501038,13.41450439,-0.8913963318,-0.4075404406,2.167030573,-0.6931338906,1
27.2592885,1.00156723,11.67347488,-0.3498225403,-0.3271074295,1.707032323,0.06701262295,1
27.2793305,0.8988807678,10.28615982,0.8719367981,0.4410205781,1.04579699,0.4142802656,1
27.2993725,-0.1941462708,9.270222473,-0.0773890686,0.8749950528,0.5895260572,0.5250519514,1
27.3194135,-1.551224213,9.471104736,-2.770438843,0.6323128343,0.364310056,0.4676167369,1
27.3394555,-2.125729523,9.551786957,-2.773582306,0.6182415485,0.3111335635,0.2499745786,1
27.3594965,-3.082988892,9.474996643,-1.030906219,0.6034987569,0.523709178,0.009904948995,1
27.3795385,-3.551514587,9.271569672,0.03098556519,0.4022171497,0.8659496903,-0.2288834453,1
27.3995805,-3.416195984,9.530531158,0.1215472412,0.4200673103,0.8048892021,-0.3812536001,1
27.4196215,-2.555785217,9.683513031,-0.5376818848,0.5321997404,0.2642537653,-0.3885019422,1
27.4396635,-1.804647217,9.344617767,-1.099463654,0.567547977,-0.1203928441,-0.3479669392,1
27.4597045,-1.385069733,8.853040009,-1.405128021,0.5385206342,-0.04459474981,-0.3472002149,1
27.4797465,-1.17595459,8.547225952,-1.445843353,0.4991455376,0.2249179482,-0.3809829652,1
27.4997885,-1.513053589,8.59782074,-0.8050259399,0.5053656101,0.3336580694,-0.4355892837,1
27.5198295,-1.746567993,9.059311066,0.4489164734,0.6030325294,0.3142795265,-0.5117176771,1
27.5398715,-1.468596039,9.313482513,0.918639679,0.7332857251,0.1628401279,-0.586858511,1
27.5599125,-1.185684357,9.149273987,0.5492079163,0.800986588,0.04728327692,-0.6425979733,1
27.5799545,-1.210233307,9.387728119,-0.06691085815,0.7270134687,-0.04053615779,-0.6352772117,1
27.5999965,-1.098864899,10.28301636,-0.1555265808,0.4776349366,0.0004385230131,-0.5154748559,1
27.6200375,-0.6677613831,10.73328003,0.8123606873,0.2254749835,-0.08260535449,-0.3542245924,1
27.6400795,0.4032614136,10.68927155,0.7668553162,-0.107846804,-0.3281381726,-0.1766043454,1
27.6601205,1.283131714,10.94987961,0.09879455566,-0.3762669861,-0.4481482804,0.03177811205,1
27.6801625,1.379231873,11.69787415,0.02829116821,-0.7979190946,-0.1312707365,0.2250252068,1
27.7002045,0.7086264038,12.84149597,-0.5111869812,-1.392940044,0.4070635736,0.4282863736,1
27.7202455,0.2212399292,12.71036865,-1.866169281,-2.192467928,0.5801728964,0.765871346,1
27.7402875,-1.240919495,12.16595078,-3.988006897,-2.664648294,0.3680708408,1.237636566,1
27.7603285,-3.235372009,11.8138829,-1.597627716,-2.629658937,0.1367540658,1.417998314,1
27.7803705,-4.902305603,12.13825836,0.3752696228,-2.340890169,-0.5472822189,1.229950786,1
27.8004115,-7.016359406,12.3740181,0.005837860107,-2.057588816,-1.461233377,1.242785573,1
27.8204535,-6.807094574,12.72114624,0.4082011414,-1.794240355,-1.976209641,1.208606839,1
27.8404955,-4.66280365,11.82705551,1.531016235,-1.555157304,-1.491433859,0.9877280593,1
27.8605365,-2.781815186,10.7735463,2.103276215,-1.341649175,-0.5695393682,0.825918138,1
27.8805785,-1.958976288,10.41324554,1.269360352,-1.342969298,0.03467734903,0.8954135776,1
27.9006195,-0.322130127,9.566306763,-0.2523751831,-1.556926012,0.4890991449,1.145034909,1
27.9206615,0.6969506836,9.513466644,-0.2812651062,-1.754060388,0.55354321,1.328950405,1
27.9407035,1.220861206,8.85633316,0.159717865,-1.688610911,0.8306973577,1.010072708,1
27.9607445,-0.1887574768,7.909851379,0.7011419678,-1.652615905,1.72293961,0.8081693649,1
27.9807865,-2.117047577,7.325316925,0.8180488586,-1.458700895,1.930482864,0.8633949161,1
28.0008275,-3.107088776,7.025640106,0.9761201477,-1.095410466,1.59185636,0.8312033415,1
28.0208695,-3.262615356,6.359974365,1.49658783,-0.7800649405,1.403184295,0.688166976,1
28.0409115,-2.775677948,5.946534119,2.714155884,-0.3365564048,1.154886961,0.5134459734,1
28.0609525,-1.774859161,6.028413849,4.053420868,0.2189853936,0.8684341908,0.3546363711,1
28.0809945,-0.9345066833,5.999673615,4.058510284,0.5925178528,0.7543748617,0.207343325,1
28.1010355,-0.3170407104,6.038892059,3.550167389,0.7227500677,0.7400389314,-0.01277462207,1
28.1210775,0.09654922485,6.115832062,3.621868286,0.8289101124,0.7496244311,-0.3210962713,1
28.1411195,-0.5066963196,6.185287628,3.353027344,0.9559774995,0.878986001,-0.5379853249,1
28.1611605,-0.7349716187,6.466403046,3.272644501,1.069787502,1.055122852,-0.6588261724,1
28.1812025,-0.8665480042,7.261399841,4.031865692,1.121185303,1.372789145,-0.6381902695,1
28.2012435,-0.5631289673,8.713829498,5.685327301,1.064513564,1.747181058,-0.5335209966,1
28.22128367,0.5075944519,11.05810455,6.705156555,0.934049964,1.604654193,-0.2698273957,1
28.24132567,0.7834707642,13.45971039,4.727618866,0.4407488108,0.8584681153,0.2518454492,1
28.26136667,2.08037384,14.32266586,4.51655777,0.1309037358,0.213407889,0.6162863374,1
28.28140867,2.146087189,11.49025589,4.24861496,-0.04362699762,0.03434035927,0.7953513861,1
28.30144967,1.287622375,9.810449066,4.781506805,0.06728880107,-0.04236068949,0.6900454164,1
28.32149167,-0.2748284912,9.925260315,3.878584442,0.5376457572,-0.004198245239,0.3102872074,1
28.34153367,-3.678600311,10.90332642,3.171155548,1.084641576,0.3132153153,-0.01359638572,1
28.36157467,-7.203170929,14.36038742,0.3963757324,0.4980756044,-0.1920338273,0.07880904526,1
28.38161667,-7.733069,15.98001938,-0.9692344666,0.06453389674,-0.9040367007,0.5147305131,1
28.40165767,-1.936223602,6.453679504,-0.4926255798,1.014677525,-0.8116530776,0.3703296781,1
28.42169967,-1.030606842,1.540446625,-0.6604266357,0.3762842417,-1.140557766,-0.3226102591,1
28.44174167,-1.26367218,2.738704834,-0.9463320923,0.3799854517,-0.2350552827,-0.9708398581,1
28.46178267,-1.773661652,9.039252777,-3.918401642,0.8065627217,0.4484666288,-0.7574600577,1
28.48182467,0.0687071228,13.0866861,-5.885760498,0.5758874416,0.9928584099,-0.3409729004,1
28.50186567,1.400787048,14.53552322,0.5628295898,0.9287907481,0.2503556013,0.02187372744,1
28.52190767,0.3570075989,10.88925568,4.408632202,1.239173055,-0.1887117326,0.2158526182,1
28.54194967,-2.103575592,8.932973785,1.198707275,1.227129459,-0.1626864076,0.2116018832,1
28.56199067,-3.596271515,8.688382416,-0.9882449341,0.8944042921,-0.5032080412,0.06140502542,1
28.58203267,-3.373534698,7.967930603,-1.009201355,0.6588647366,-1.040124059,-0.1465760022,1
28.60207367,-2.626438293,8.469537506,0.8848100281,0.8792487979,-0.6811435223,-0.3327661455,1
28.62211567,-0.9258247375,9.236093445,0.1487905884,1.105576038,-0.3112598062,-0.427569896,1
28.64215767,0.3784130859,10.08572662,-1.353186035,0.9599480629,-0.2884407043,-0.3353372514,1
28.66219867,0.596509552,10.47850983,-1.362466736,0.7988718748,-0.3461120725,-0.2186485082,1
28.68224067,-0.1586700439,10.20787262,-0.4108955383,0.7371919751,-0.3497908711,-0.1800178587,1
28.70228167,-1.10694809,9.671388245,0.237406311,0.68052876,-0.3363283873,-0.2001284063,1
28.72232367,-1.314865723,9.351503448,0.2155517578,0.6822237372,-0.2578076422,-0.3060627282,1
28.74236467,-1.438358917,9.590256958,-0.2477348328,0.7618136406,-0.2580159605,-0.4360945821,1
28.76240667,-1.24496109,9.741891632,-0.3686833191,0.862220943,-0.2559326291,-0.5675128698,1
28.78244867,-0.7505392456,9.38293808,-0.1463955688,0.9262692332,-0.3343904614,-0.6549360156,1
28.80248967,-0.4698728943,8.980724487,0.209564209,0.9345424771,-0.3523266017,-0.6610020399,1
28.82253167,-0.6494993591,9.31857193,0.5078938293,0.8653697371,-0.2558037639,-0.6368669271,1
28.84257267,-0.9136999512,10.19185593,0.4655319214,0.621285677,-0.3194516599,-0.6052601933,1
28.86261467,-0.3115022278,10.6088887,-0.1788780212,0.2766187787,-0.4454332292,-0.5295670033,1
28.88265667,0.6882687378,10.33256332,-0.5213658142,0.06040227041,-0.4088999331,-0.3390180171,1
28.90269767,1.811832275,10.27972321,-0.2525248718,-0.02772087045,-0.216294378,-0.1337202191,1
28.92273967,2.055226135,11.15315689,0.430355072,-0.1651070118,-0.2663702369,0.0975272581,1
28.94278067,1.654808807,11.54698792,0.703686676,-0.4419051111,-0.3498747051,0.2178142965,1
28.96282267,0.5051994324,12.02958435,1.040336609,-0.924624145,-0.1675506681,0.2052310407,1
28.98286467,-0.5325924683,12.66022293,0.05149291992,-1.521236658,0.1024023518,0.2922773063,1
29.00290567,-1.921554108,12.60693375,-2.097588043,-2.036755323,0.1556998789,0.7579110265,1
29.02294767,-2.530487823,11.33068771,-0.9629475403,-2.298924685,-0.06899641454,0.9959979057,1
29.04298867,-3.434008942,9.846524048,-0.1535806274,-2.557281494,-0.4800979197,0.9750062823,1
29.06303067,-4.837490387,10.00684067,-0.05807922363,-2.384206057,-1.262822628,0.7870523334,1
29.08307267,-6.324498138,12.01476517,0.5111869812,-2.071890831,-2.081090689,0.7942973375,1
29.10311367,-4.118236084,13.3586705,1.261277161,-1.993121505,-1.964295864,0.5065584779,1
29.12315567,-2.119292908,10.32103729,1.795067139,-1.896340847,-0.9362137318,0.5052851439,1
29.14319667,-1.607956238,8.305628357,2.790048065,-1.354658842,-0.07018060982,0.8767383695,1
29.16323867,-0.3698808289,9.31617691,1.431173859,-1.266402483,-0.008033176884,1.1326859,1
29.18328067,0.3528163147,10.76321777,0.1863624573,-1.454764247,0.4639675617,1.049701095,1
29.20332167,-0.119002533,9.978399811,-1.057251434,-1.975386381,0.9666356444,0.7542700171,1
29.223368,-1.564995575,8.349337463,-0.786763916,-2.255307198,1.276270628,0.5948509574,1
29.243409,-2.596949615,7.276219025,1.811532898,-1.87789762,1.614147305,0.5788486004,1
29.263451,-3.502416687,7.182962952,3.170706482,-1.364259839,1.67317915,0.710949719,1
29.283493,-3.20139267,8.092621307,3.464994507,-0.8715543747,1.440935373,0.8761281967,1
29.303534,-1.891466675,8.579858093,3.589984589,-0.3644760549,1.045082092,0.8291471004,1
29.323576,-1.528321838,7.532336426,3.413800964,-0.03101472929,0.7377570868,0.7431305647,1
29.343617,-1.544338531,6.624174957,4.049978027,0.4242035747,0.5728749633,0.5833367109,1
29.363659,-1.463057556,5.686824188,4.442162476,0.8979392052,0.6109717488,0.4418760538,1
29.383701,-0.577199707,5.125491486,3.804338837,1.13013792,0.6688863635,0.2739008963,1
29.403742,0.856967926,5.31454834,3.705095215,1.206139565,0.541020751,-0.03119685873,1
29.423784,0.6683601379,5.417833557,3.5500177,1.245200515,0.3915320039,-0.3381866813,1
29.443825,-0.6917115784,5.262905731,3.63309494,1.476620674,0.3515459299,-0.5724791884,1
29.463867,-0.9970765686,5.876030731,4.007017365,1.688970685,0.5775767565,-0.7137647271,1
29.483909,-1.315913544,7.642357635,6.491850128,1.695310712,1.586916924,-0.5764467716,1
29.50395,0.520916748,11.15076187,7.596702576,1.352407217,1.81327498,-0.3691233397,1
29.523992,1.6907341,14.56980194,5.468727722,0.5128865838,1.03522563,0.1683268994,1
29.544033,4.147126007,15.45012131,4.744833069,-0.2759788036,0.2521932423,0.4772705734,1
29.564075,3.63309494,11.51719986,4.705015869,-0.5350280404,-0.3514057994,0.5844449997,1
29.584117,0.1871109009,10.75288925,5.737418976,0.1913052201,-0.5422383547,0.3818839192,1
29.604158,-4.289030914,11.24222168,5.240751801,1.064106107,0.09227025509,0.1459222138,1
29.6242,-8.406967621,14.10441971,0.05748046875,1.182743073,0.1880851835,0.2488781661,1
29.644241,-9.398954773,15.86700439,-2.702031097,0.4693602324,-0.339722991,0.3883072436,1
29.664283,-3.143463135,8.741970978,-1.109941864,1.118761301,-1.127877831,0.2878343761,1
29.684325,-0.8590635681,3.09601181,-2.421514435,1.620740533,-1.087798953,0.07178540528,1
29.704366,-0.546663208,1.702858887,-2.01600769,1.12959528,-1.052065134,-0.4952703714,1
29.724408,-1.87335434,5.687872009,-2.505340118,0.8085308671,-1.072517395,-1.139540672,1
29.744449,-2.564616852,10.1828746,-2.988684998,0.9739009738,-0.6336790919,-1.370534182,1
29.764491,-1.056952057,12.20397171,-2.471510468,1.218579292,0.6340392828,-1.254655361,1
29.784533,-0.7855664063,11.78619049,-0.7432044983,1.497162104,0.8268079758,-0.4850660264,1
29.804574,1.175056458,9.591903534,-1.437311096,1.354933023,-0.5722985864,-0.1222252622,1
29.824616,-1.607507172,8.978179779,-0.1874102783,1.204878211,-1.306378484,0.1685445309,1
29.844657,-2.614612885,9.814041595,0.7223977661,1.019560218,-0.9580387473,0.07880949229,1
29.864699,-2.115251312,9.885293427,0.8879534912,0.9002825022,-0.7777533531,-0.114663519,1
29.884741,-0.9303153992,9.993518372,0.02275268555,0.699714005,-0.7964385152,-0.2775966227,1
29.904782,-0.4589456177,10.22897873,-1.130898285,0.6058606505,-0.944989264,-0.2398824245,1
29.924824,-0.1248403931,10.33046768,-1.217867432,0.5633534789,-0.7649730444,-0.1262486279,1
29.944865,0.3282673645,10.22987686,-0.6083349609,0.5939131379,-0.5141193867,-0.07316917181,1
29.964907,-0.04805007935,9.83574646,-0.4629872131,0.5968021154,-0.5214716196,0.01316829771,1
29.984949,-0.545615387,9.438472595,-0.9099577332,0.5628948212,-0.6239873767,0.0445528999,1
30.00499,-1.056652679,9.110654297,-0.9991722107,0.5611485839,-0.7375945449,-0.01015110221,1
30.025032,-1.341959381,8.931626587,-0.4336482239,0.5838842988,-0.6868776679,-0.1566956192,1
30.045073,-1.226399689,9.060658264,-0.08547225952,0.6365467906,-0.5475196242,-0.3429792821,1
30.065115,-0.7991880798,9.293573914,-0.3135978699,0.7529998422,-0.5585644841,-0.5095107555,1
30.085156,-0.6429130554,9.624685364,-0.3854484558,0.8766564131,-0.6405236125,-0.6013653874,1
30.105198,-0.6523434448,9.740394745,0.0303868103,0.8282105923,-0.524115622,-0.590839386,1
30.12524,-0.7105723572,9.790989532,-0.4623884583,0.5172500014,-0.3991951346,-0.4545567334,1
30.145281,-0.1990859985,10.33241364,-0.7571255493,0.2680529356,-0.4381624758,-0.2589298487,1
30.165323,0.4364923096,11.32095795,-0.5342390442,0.1703678519,-0.5386294127,-0.10815458,1
30.185364,0.9684860229,11.48052612,-0.674197998,-0.03593838215,-0.483720392,-0.02020915039,1
30.205406,1.027014313,11.0043663,-0.3218307495,-0.164393425,-0.2621679008,0.08946301788,1
30.22544338,0.7150630188,11.15959351,-0.4478686523,-0.2147093266,0.004023220856,0.2100720853,1
30.24548438,-0.04939727783,12.00997513,0.08128097534,-0.4546409845,0.008970615454,0.3186143637,1
30.26552638,-0.7071295166,12.58208542,-1.004561005,-0.9932679534,0.05879696831,0.340159595,1
30.28556738,-1.179247742,12.81051041,-1.107846222,-1.459412575,0.3456504047,0.388004452,1
30.30560938,-1.862876129,11.38277939,-0.554147644,-2.025002956,0.5096291304,0.5823717713,1
30.32565138,-1.96226944,8.782087555,-0.8343649292,-2.306320429,0.4080205262,0.601138711,1
30.34569238,-2.558180237,6.787036285,-1.767225037,-2.343364954,0.003075580578,0.5722573996,1
30.36573438,-4.464466095,7.595804443,-2.005828857,-2.490372896,-1.085324287,0.5716547966,1
30.38577538,-5.862409058,11.37409744,0.6679110718,-2.379899025,-1.678424835,0.6774451137,1
30.40581738,-3.654350739,13.50147354,1.570983124,-2.328757048,-1.317236423,0.3425910473,1
30.42585938,-2.640808411,11.63275955,0.9201365662,-2.136960506,-0.6292594075,0.3574440777,1
30.44590038,-2.809507599,9.407187653,0.6905140686,-1.721833348,-0.1809186488,0.6243427396,1
30.46594238,-1.993404694,9.545200653,0.3266207886,-1.74885273,-0.507720232,0.739264369,1
30.48598338,-1.458267517,9.738149414,0.942739563,-1.613975525,-0.4466878474,0.8422006965,1
30.50602538,-0.8903485107,10.62206131,1.899549866,-1.529516816,0.2539904118,0.888022244,1
30.52606738,-0.9027726746,10.25262955,1.886377258,-1.543535471,1.044312239,0.916610837,1
30.54610838,-0.8158035278,9.659712524,1.747166748,-1.319580078,1.529911757,0.7945187688,1
30.56615038,-0.9380992126,8.443192291,0.5644761658,-1.23795557,1.431983709,0.7587772012,1
30.58619138,-1.513951721,7.425907745,0.5827381897,-1.109477401,1.433077455,0.8340414762,1
30.60623338,-1.375639343,7.570057983,2.614612885,-0.6436054707,1.518141508,0.7426303029,1
30.62627538,-1.797312469,7.249424744,3.612587585,-0.1607860476,1.439603567,0.6685212255,1
30.64631638,-1.753453674,6.500831451,3.531156921,0.3263700902,1.070061684,0.5406552553,1
30.66635838,-1.786085815,5.739364929,3.62141922,0.7241888046,0.7649888992,0.3716949821,1
30.68639938,-1.86392395,5.216352539,4.041595459,0.9965240955,0.6475337744,0.1101357639,1
30.70644138,-1.815574493,5.28760437,4.448599091,1.214237094,0.4897988737,-0.1872071475,1
30.72648338,-0.8878038025,5.303022308,4.591701508,1.440611959,0.4394389391,-0.5185095072,1
30.74652438,0.1965412903,5.488636322,3.357218628,1.501075983,0.4955147505,-0.8719488382,1
30.76656638,-0.3700305176,6.269113312,2.551444244,1.262197733,0.8696156144,-0.9254087806,1
30.78660738,-1.457668762,8.897198181,4.589456177,0.8286870718,1.854359388,-0.8631410003,1
30.80664938,0.005089416504,13.50895798,6.892716522,0.3614877462,2.134873867,-0.8940048218,1
30.82669138,-0.9725276184,15.45236664,6.245163116,-0.01941066794,0.9577447176,0.167720437,1
30.84673238,1.055305481,14.0170015,6.374045105,-0.003456064966,-0.109615393,0.872225523,1
30.86677438,1.848356323,11.70760391,5.130131836,0.2605929375,-0.9305555224,0.9319831729,1
30.88681538,-0.7394622803,11.42933258,3.1943573,0.8336372972,-0.9991246462,0.6356447339,1
30.90685738,-4.808151398,12.54301666,2.157912598,1.302113175,-0.1259965897,0.4402154684,1
30.92689938,-8.126001892,14.35634583,-0.482895813,0.5786758065,0.1438963562,0.6868715882,1
30.94694038,-3.128943329,8.796158295,-2.344724121,0.7365213633,-0.770568192,0.5650777221,1
30.96698238,-2.403252411,4.031266937,-2.748434601,1.298627019,-1.642156363,0.3112369776,1
30.98702338,-2.648442535,2.48408432,-1.893712006,0.8543989658,-1.615087986,-0.3125919998,1
31.00706538,-2.579286346,5.75687851,0.6828799438,-0.0331482552,-0.5721899867,-1.087556124,1
31.02710738,-1.201102295,9.677525482,1.314865723,0.1005187333,0.4729753137,-1.321085691,1
