time,seconds_elapsed,z,y,x
1780563494532712200,1.719712158203125,1.1015125513076782,-0.4796000123023987,-0.7079874873161316
1780563494552231700,1.739231689453125,1.2027125358581543,-0.5882250070571899,-0.6437749862670898
1780563494571752000,1.758751953125,1.3169749975204468,-0.6881874799728394,-0.5769500136375427
1780563494591266600,1.7782666015625,1.5021874904632568,-0.8093249797821045,-0.5384500026702881
1780563494610779100,1.797779052734375,1.717924952507019,-0.937749981880188,-0.5257999897003174
1780563494630298400,1.81729833984375,1.717924952507019,-0.937749981880188,-0.5257999897003174
1780563494649819000,1.83681884765625,1.8269624710083008,-1.012274980545044,-0.4805625081062317
1780563494669339000,1.8563388671875,1.8269624710083008,-1.012274980545044,-0.4805625081062317
1780563494688863000,1.875863037109375,1.624150037765503,-0.8870124816894531,-0.4160749912261963
1780563494708387600,1.8953876953125,1.1548625230789185,-0.5044875144958496,-0.2712875008583069
1780563494727907300,1.9149072265625,1.1548625230789185,-0.5044875144958496,-0.2712875008583069
1780563494747421700,1.934421630859375,1.020662546157837,-0.3396250009536743,-0.2232999950647354
1780563494766929200,1.95392919921875,0.8984249830245972,-0.1893374919891357,-0.179299995303154
1780563494786438100,1.973438232421875,0.7566624879837036,-0.0424874983727932,-0.1231999993324279
1780563494805956400,1.992956298828125,0.6424000263214111,0.0823625028133392,-0.0691625028848648
1780563494825476000,2.01247607421875,0.590149998664856,0.1687124967575073,-0.0449624992907047
1780563494844996400,2.031996337890625,0.5739250183105469,0.2212374955415725,-0.0521125011146068
1780563494864516900,2.051516845703125,0.4794625043869018,0.285037487745285,-0.0332750007510185
1780563494884036000,2.0710361328125,0.1700875014066696,0.4223999977111816,0.0919874981045723
1780563494903555600,2.0905556640625,-0.3232625126838684,0.6274124979972839,0.3294500112533569
1780563494923078100,2.110078125,-0.7767375111579895,0.8058875203132629,0.5905625224113464
1780563494942598100,2.12959814453125,-0.9634624719619752,0.8588249683380127,0.7636749744415283
1780563494962114800,2.14911474609375,-0.8321499824523926,0.7631250023841858,0.7968124747276306
1780563494981630700,2.168630615234375,-0.5113624930381775,0.5785999894142151,0.7141749858856201
1780563495001147000,2.18814697265625,-0.1878249943256378,0.4002625048160553,0.5820375084877014
1780563495020670700,2.207670654296875,-0.0303875003010034,0.3154250085353851,0.4805625081062317
1780563495040200200,2.2272001953125,-0.118937499821186,0.3627249896526336,0.4637874960899353
1780563495059730000,2.24672998046875,-0.3746874928474426,0.5017374753952026,0.5246999859809875
1780563495079260700,2.2662607421875,-0.622737467288971,0.6443250179290771,0.6052749752998352
1780563495098788600,2.28578857421875,-0.7434625029563904,0.7226999998092651,0.6469374895095825
1780563495118314500,2.305314453125,-0.7378249764442444,0.7210500240325928,0.631262481212616
1780563495137839600,2.324839599609375,-0.6665999889373779,0.6573874950408936,0.5763999819755554
1780563495157364500,2.344364501953125,-0.5809375047683716,0.5634750127792358,0.5105375051498413
1780563495176890600,2.363890625,-0.5362499952316284,0.4805625081062317,0.4613125026226043
1780563495196416500,2.38341650390625,-0.5684249997138977,0.4347749948501587,0.4358749985694885
1780563495215937000,2.40293701171875,-0.6311249732971191,0.404387503862381,0.4056249856948852
1780563495235456500,2.42245654296875,-0.6226000189781189,0.3356375098228454,0.3294500112533569
1780563495254977500,2.4419775390625,-0.488812506198883,0.1979999989271164,0.2006125003099441
1780563495274498600,2.46149853515625,-0.3018124997615814,0.0317624993622303,0.0691625028848648
1780563495294020900,2.481020751953125,-0.2028124928474426,-0.0772750005125999,0.0001374999992549
1780563495313546000,2.5005458984375,-0.2849000096321106,-0.0724624991416931,0.0149875003844499
1780563495333076200,2.520076171875,-0.5055875182151794,0.0167750008404254,0.0716374963521957
1780563495352604200,2.539604248046875,-0.7148625254631042,0.0961124971508979,0.0966624990105629
1780563495372128800,2.559128662109375,-0.7803124785423279,0.0862125009298324,0.0423500016331672
1780563495391655000,2.578655029296875,-0.6716874837875366,-0.0237875003367662,-0.0807124972343444
1780563495411183900,2.598183837890625,-0.4721750020980835,-0.1775124967098236,-0.2162874937057495
1780563495430718500,2.617718505859375,-0.2860000133514404,-0.3078624904155731,-0.3133625090122223
1780563495450249200,2.637249267578125,-0.2860000133514404,-0.3078624904155731,-0.3133625090122223
1780563495469774800,2.65677490234375,0.0071499999612569,-0.4687374830245971,-0.4225375056266784
1780563495489300500,2.676300537109375,0.191674992442131,-0.5565999746322632,-0.5044875144958496
1780563495508825300,2.695825439453125,0.3862375020980835,-0.6507874727249146,-0.6066499948501587
1780563495528353300,2.715353271484375,0.5234624743461609,-0.7097749710083008,-0.694100022315979
1780563495547882200,2.73488232421875,0.5234624743461609,-0.7097749710083008,-0.694100022315979
1780563495567410700,2.75441064453125,0.5234624743461609,-0.7097749710083008,-0.694100022315979
1780563495586937900,2.773937744140625,0.550962507724762,-0.6536750197410583,-0.7519875168800354
1780563495606464500,2.793464599609375,0.5663625001907349,-0.6291999816894531,-0.7583125233650208
1780563495625987600,2.812987548828125,0.6591749787330627,-0.6648125052452087,-0.7706875205039978
1780563495645508400,2.83250830078125,0.822112500667572,-0.7431874871253967,-0.7767375111579895
1780563495665030400,2.852030517578125,0.996874988079071,-0.8058875203132629,-0.7543249726295471
1780563495684549600,2.871549560546875,1.1169124841690063,-0.8035500049591064,-0.7004249691963196
1780563495704069000,2.891069091796875,1.1628375053405762,-0.7346624732017517,-0.638824999332428
1780563495723594200,2.91059423828125,1.182087540626526,-0.64638751745224,-0.602524995803833
1780563495743124700,2.930124755859375,1.2339249849319458,-0.5883625149726868,-0.6048625111579895
1780563495762653400,2.9496533203125,1.3360874652862549,-0.5769500136375427,-0.6294749975204468
1780563495782180600,2.9691806640625,1.4832124710083008,-0.6125624775886536,-0.6510624885559082
1780563495801711000,2.988711181640625,1.656599998474121,-0.6879125237464905,-0.656837522983551
1780563495821239800,3.00823974609375,1.791487455368042,-0.7643625140190125,-0.6439124941825867
1780563495840765400,3.027765380859375,1.818300008773804,-0.7935125231742859,-0.6115999817848206
1780563495860288000,3.0472880859375,1.7345625162124634,-0.7684875130653381,-0.5611374974250793
1780563495879813600,3.066813720703125,1.5916999578475952,-0.720912516117096,-0.4916999936103821
1780563495899341000,3.086341064453125,1.4152874946594238,-0.6670125126838684,-0.3975124955177307
1780563495918867500,3.105867431640625,1.1728750467300415,-0.5730999708175659,-0.2756874859333038
1780563495938392600,3.125392578125,0.8036875128746033,-0.3508999943733215,-0.1321374922990799
1780563495957916700,3.144916748046875,0.2681249976158142,0.0741124972701072,0.0182875003665685
1780563495977438700,3.164438720703125,-0.4036999940872192,0.6539499759674072,0.1557874977588653
1780563495996958000,3.1839580078125,-1.054075002670288,1.168062448501587,0.2463999986648559
1780563496016481800,3.203481689453125,-1.3937000036239624,1.2945624589920044,0.2330625057220459
1780563496036010500,3.223010498046875,-1.261562466621399,0.9013124704360962,0.1028499975800514
1780563496055535400,3.242535400390625,-0.8483750224113464,0.2125750035047531,-0.0642125010490417
1780563496075055900,3.262055908203125,-0.4838624894618988,-0.4104374945163727,-0.1821874976158142
1780563496094575600,3.28157568359375,-0.2958999872207641,-0.7821000218391418,-0.2418625056743621
1780563496114096400,3.301096435546875,-0.2033624947071075,-0.9457250237464904,-0.2741749882698059
1780563496133614600,3.320614501953125,-0.1498750001192093,-0.9836750030517578,-0.283112496137619
1780563496153134300,3.34013427734375,-0.1714625060558319,-0.9255124926567078,-0.2499749958515167
1780563496172658000,3.359657958984375,-0.2913624942302704,-0.7966749668121338,-0.1757249981164932
1780563496192184000,3.37918408203125,-0.455949991941452,-0.6510624885559082,-0.0901999995112419
1780563496211710700,3.398710693359375,-0.5587999820709229,-0.5581125020980835,-0.0279124993830919
1780563496231235000,3.418235107421875,-0.5406500101089478,-0.5498625040054321,-0.0001374999992549
1780563496250761700,3.43776171875,-0.4230875074863434,-0.6059625148773193,0.0083875004202127
1780563496270292000,3.4572919921875,-0.4230875074863434,-0.6059625148773193,0.0083875004202127
1780563496289824800,3.47682470703125,-0.258774995803833,-0.6858500242233276,0.0160875003784894
1780563496309353500,3.496353515625,-0.0842875018715858,-0.6646749973297119,0.0413874983787536
1780563496328879900,3.5158798828125,-0.1443749964237213,-0.5017374753952026,0.0488125011324882
1780563496348403500,3.535403564453125,-0.1788875013589859,-0.3422375023365021,0.0591249987483024
1780563496367925000,3.554925048828125,-0.1788875013589859,-0.3422375023365021,0.0591249987483024
1780563496387447600,3.574447509765625,-0.1788875013589859,-0.3422375023365021,0.0591249987483024
1780563496406968300,3.59396826171875,0.1865874975919723,-0.3299999833106994,0.1332374960184097
1780563496426488300,3.61348828125,0.2556124925613403,-0.1920875012874603,0.1782000064849853
1780563496446008300,3.63300830078125,0.0468874983489513,0.1835625022649765,0.2098249942064285
1780563496465530400,3.6525302734375,-0.3066250085830688,0.6591749787330627,0.232924997806549
1780563496485053200,3.67205322265625,-0.5819000005722046,1.040050029754639,0.2567124962806701
1780563496504575500,3.691575439453125,-0.7187125086784363,1.2801250219345093,0.2822875082492828
1780563496524105200,3.711105224609375,-0.8232125043869019,1.4564000368118286,0.3125374913215637
1780563496543632100,3.730632080078125,-1.0300124883651731,1.6604499816894531,0.3654749989509582
1780563496563154400,3.750154541015625,-1.4231250286102295,1.961300015449524,0.4709374904632568
1780563496582679800,3.7696796875,-1.9931999444961548,2.3643124103546143,0.649275004863739
1780563496602203000,3.789202880859375,-2.6507248878479004,2.8051373958587646,0.88714998960495
1780563496621727200,3.808727294921875,-3.2422499656677246,3.1723999977111816,1.1345125436782837
1780563496641253400,3.82825341796875,-3.605799913406372,3.365175008773804,1.3301750421524048
1780563496660782300,3.8477822265625,-3.621337413787842,3.322000026702881,1.4416874647140503
1780563496680315400,3.8673154296875,-3.2520124912261963,3.026787519454956,1.4687750339508057
1780563496699845400,3.886845458984375,-2.6087875366210938,2.542375087738037,1.4236749410629272
1780563496719371500,3.90637158203125,-1.9071249961853027,1.988800048828125,1.3226125240325928
1780563496738892000,3.92589208984375,-1.3172500133514404,1.4654749631881714,1.1767250299453735
1780563496758412800,3.945412841796875,-0.8897625207901001,1.0129624605178833,0.9967374801635742
1780563496777936600,3.9649365234375,-0.6194375157356262,0.6499624848365784,0.8054749965667725
1780563496797462000,3.9844619140625,-0.4867500066757202,0.3909125030040741,0.6309875249862671
1780563496816990500,4.003990478515625,-0.4387624859809875,0.2220624983310699,0.4881249964237213
1780563496836516600,4.0235166015625,-0.3990249931812286,0.0958374962210655,0.36616250872612
1780563496856038100,4.0430380859375,-0.3070375025272369,-0.0466125011444091,0.2367749959230423
1780563496875561200,4.062561279296875,-0.1538625061511993,-0.2300374954938888,0.0783749967813491
1780563496895089400,4.08208935546875,0.0276375003159046,-0.4219875037670135,-0.1080750003457069
1780563496914610700,4.101610595703125,0.1836999952793121,-0.5511000156402588,-0.2942500114440918
1780563496934126600,4.121126708984375,0.2825624942779541,-0.5703499913215637,-0.4409624934196472
1780563496953649700,4.140649658203125,0.344712495803833,-0.5058624744415283,-0.5285499691963196
1780563496973172200,4.160172119140625,0.4377999901771545,-0.4438500106334686,-0.5780500173568726
1780563496992693000,4.17969287109375,0.6584874987602234,-0.488812506198883,-0.6467999815940857
1780563497012216600,4.199216552734375,1.0793750286102295,-0.7006999850273132,-0.7873250246047974
1780563497031740000,4.218739990234375,1.6753000020980835,-1.047337532043457,-0.9945374727249146
1780563497051263500,4.238263427734375,2.3005125522613525,-1.411987543106079,-1.2000999450683594
1780563497070785800,4.257785888671875,2.805550098419189,-1.6872625350952148,-1.3293499946594238
1780563497090307800,4.277307861328125,3.1647000312805176,-1.8691749572753904,-1.360700011253357
1780563497109831400,4.29683154296875,3.1647000312805176,-1.8691749572753904,-1.360700011253357
1780563497129358300,4.3163583984375,3.692975044250488,-2.221587419509888,-1.265412449836731
1780563497148886500,4.335886474609375,3.8714499473571777,-2.409137487411499,-1.20683753490448
1780563497168407000,4.355406982421875,3.904862403869629,-2.512399911880493,-1.1448249816894531
1780563497187926500,4.374926513671875,3.904862403869629,-2.512399911880493,-1.1448249816894531
1780563497207447800,4.39444775390625,3.7321624755859375,-2.45808744430542,-1.0636999607086182
1780563497226967000,4.413967041015625,3.3558249473571777,-2.2323124408721924,-0.952049970626831
1780563497246487600,4.433487548828125,2.8525750637054443,-1.893512487411499,-0.8166124820709229
1780563497266005500,4.453005615234375,2.334199905395508,-1.5268000364303589,-0.6802124977111816
1780563497285522200,4.472522216796875,1.8728874921798704,-1.180437445640564,-0.5637499690055847
1780563497305038300,4.492038330078125,1.4858249425888062,-0.857450008392334,-0.4780874848365783
1780563497324557300,4.511557373046875,1.1529375314712524,-0.5511000156402588,-0.4181374907493591
1780563497344080000,4.531079833984375,0.8481000065803528,-0.2715624868869781,-0.3731749951839447
1780563497363599000,4.55059912109375,0.5428500175476074,-0.0317624993622303,-0.3316499888896942
1780563497383118300,4.570118408203125,0.2162874937057495,0.157987505197525,-0.281187504529953
1780563497402641700,4.5896416015625,-0.0879999995231628,0.2447499930858612,-0.2261874973773956
1780563497422162000,4.609161865234375,-0.2767874896526336,0.1537249982357025,-0.1879625022411346
1780563497441678000,4.628677978515625,-0.3071750104427337,-0.1083500012755394,-0.1806749999523162
1780563497461197800,4.64819775390625,-0.2219250053167343,-0.443574994802475,-0.1979999989271164
1780563497480721400,4.667721435546875,-0.1028499975800514,-0.737137496471405,-0.2216500043869018
1780563497500245800,4.687245849609375,-0.0257124993950128,-0.9201499819755554,-0.231962502002716
1780563497519767600,4.706767578125,-0.0651749968528747,-0.9429749846458436,-0.2123000025749206
1780563497539287600,4.72628759765625,-0.2622124850749969,-0.781962513923645,-0.1572999954223632
1780563497558809300,4.745809326171875,-0.5744749903678894,-0.488812506198883,-0.0808499976992607
1780563497578335700,4.765335693359375,-0.8874250054359436,-0.1797125041484832,-0.0089375004172325
1780563497597862700,4.784862548828125,-1.0555875301361084,0.0115499999374151,0.0340999998152256
1780563497617389600,4.8043896484375,-1.0087000131607056,0.0247499998658895,0.0411125011742115
1780563497636914400,4.82391455078125,-0.8269249796867371,-0.0721874982118606,0.0281875003129243
1780563497656432000,4.84343212890625,-0.6793875098228455,-0.1369500011205673,0.0206249989569187
1780563497675949300,4.86294921875,-0.6652249693870544,-0.0827749967575073,0.0345125012099742
1780563497695471900,4.882471923828125,-0.7495124936103821,0.0613249987363815,0.0657249987125396
1780563497714996000,4.901995849609375,-0.8395749926567078,0.2135374993085861,0.0922624990344047
1780563497734516700,4.921516845703125,-0.8714749813079834,0.3240875005722046,0.0928125008940696
1780563497754036500,4.941036376953125,-0.8450750112533569,0.4094749987125397,0.0643500015139579
1780563497773557500,4.9605576171875,-0.8138625025749207,0.5285499691963196,0.0246124994009733
1780563497793077800,4.980077880859375,-0.8531875014305115,0.7324625253677368,0.0027499999850988
1780563497812594000,4.999593994140625,-0.968137502670288,1.0010000467300415,0.0218624994158744
1780563497832109800,5.01910986328125,-1.0861124992370603,1.2617000341415403,0.0845625028014183
1780563497851628000,5.0386279296875,-1.2722874879837036,1.573412537574768,0.1843875050544738
1780563497871146200,5.058146240234375,-1.902999997138977,2.236987590789795,0.3522749841213226
1780563497890666000,5.077666015625,-3.369437456130981,3.510925054550171,0.6857125163078308
1780563497910187300,5.097187255859375,-3.369437456130981,3.510925054550171,0.6857125163078308
1780563497929707800,5.116707763671875,-5.999537467956543,5.624162673950195,1.6201624870300293
1780563497949229800,5.136229736328125,-5.2828874588012695,5.099462509155273,1.7004624605178833
1780563497968750000,5.15575,-3.9301624298095694,4.023662567138672,1.5057624578475952
1780563497988271000,5.17527099609375,-2.7693874835968018,3.0360000133514404,1.2588125467300415
1780563498007794000,5.1947939453125,-2.7693874835968018,3.0360000133514404,1.2588125467300415
1780563498027314700,5.214314697265625,-2.7693874835968018,3.0360000133514404,1.2588125467300415
1780563498046836200,5.233836181640625,-1.3660625219345093,1.7571125030517578,0.9475125074386596
1780563498066354700,5.253354736328125,-0.6899750232696533,1.1254374980926514,0.7657374739646912
1780563498085870300,5.272870361328125,-0.0387750007212162,0.4701125025749206,0.5396875143051147
1780563498105388500,5.292388427734375,0.3793624937534332,-0.0456499978899955,0.3250499963760376
1780563498124912000,5.311912109375,0.490325003862381,-0.3246375024318695,0.1612875014543533
1780563498144434700,5.3314345703125,0.4159374833106994,-0.4204750061035156,0.0437249988317489
1780563498163958300,5.350958251953125,0.3107500076293945,-0.4427500069141388,-0.0445500016212463
1780563498183485200,5.370485107421875,0.2508000135421753,-0.4749250113964081,-0.1267749965190887
1780563498203010600,5.390010498046875,0.2523125112056732,-0.5572875142097473,-0.23938749730587
1780563498222538000,5.4095380859375,0.3011249899864197,-0.6765000224113464,-0.3958624899387359
1780563498242065400,5.4290654296875,0.369049996137619,-0.783887505531311,-0.5659499764442444
1780563498261588500,5.44858837890625,0.445499986410141,-0.8472750186920166,-0.7031750082969666
1780563498281111000,5.468111083984375,0.5698000192642212,-0.9015874862670898,-0.7910374999046326
1780563498300634000,5.487634033203125,0.8067125082015991,-1.0279500484466553,-0.8534625172615051
1780563498320157200,5.5071572265625,1.1976250410079956,-1.2856249809265137,-0.9219374656677246
1780563498339679000,5.526678955078125,1.7202625274658203,-1.6534374952316284,-1.0025124549865725
1780563498359199200,5.54619921875,2.294600009918213,-2.039949893951416,-1.0759375095367432
1780563498378724400,5.565724365234375,2.8470749855041504,-2.366787433624268,-1.1274999380111694
1780563498398250800,5.585250732421875,3.3247499465942383,-2.6116750240325928,-1.1574749946594238
1780563498417772800,5.604772705078125,3.6623125076293945,-2.775024890899658,-1.1628375053405762
1780563498437295600,5.624295654296875,3.820849895477295,-2.871962547302246,-1.1339625120162964
1780563498456821200,5.6438212890625,3.838449954986572,-2.9306750297546387,-1.0670000314712524
1780563498476342300,5.66334228515625,3.763099908828736,-2.9484124183654785,-0.9689624905586244
1780563498495860000,5.68285986328125,3.596450090408325,-2.878012418746948,-0.8533250093460083
1780563498515378200,5.702378173828125,3.331350088119507,-2.6807000637054443,-0.7331500053405762
1780563498534900000,5.72189990234375,2.984299898147583,-2.367887496948242,-0.613937497138977
1780563498554424000,5.741424072265625,2.576200008392334,-1.980549931526184,-0.4930749833583832
1780563498573947400,5.760947509765625,2.118187427520752,-1.5571874380111694,-0.3689124882221222
1780563498593470500,5.780470458984375,1.6454625129699707,-1.1356124877929688,-0.2508000135421753
1780563498612995600,5.79999560546875,1.2122000455856323,-0.7430499792098999,-0.1555124968290329
1780563498632526800,5.81952685546875,0.8492000102996826,-0.381424993276596,-0.0956999957561492
1780563498652060700,5.839060791015625,0.5583875179290771,-0.0516999997198581,-0.0727375000715255
1780563498671594200,5.85859423828125,0.331787496805191,0.2226125001907348,-0.0787874981760978
1780563498691124000,5.8781240234375,0.1618375033140182,0.4009499847888946,-0.1007874980568885
1780563498710649600,5.897649658203125,0.0358874984085559,0.4564999938011169,-0.1225124970078468
1780563498730178300,5.91717822265625,-0.0720499977469444,0.4039750099182129,-0.1282874941825866
1780563498749706200,5.936706298828125,-0.0720499977469444,0.4039750099182129,-0.1282874941825866
1780563498769233000,5.95623291015625,-0.1821874976158142,0.2884750068187713,-0.1106875017285347
1780563498788760800,5.9757607421875,-0.2895750105381012,0.1538625061511993,-0.080437496304512
1780563498808291000,5.995291015625,-0.4662624895572662,-0.0501874983310699,-0.0489500015974044
1780563498827824400,6.014824462890625,-0.4662624895572662,-0.0501874983310699,-0.0489500015974044
1780563498847351300,6.034351318359375,-0.4662624895572662,-0.0501874983310699,-0.0489500015974044
1780563498866872600,6.05387255859375,-0.6767749786376953,-0.0599500015377998,-0.0390499979257583
1780563498886393900,6.073393798828125,-0.8299499750137329,-0.0133375003933906,-0.002199999988079
1780563498905915600,6.09291552734375,-1.0580625534057615,0.079475000500679,0.0582999996840953
1780563498925438700,6.112438720703125,-1.3866875171661377,0.2571249902248382,0.1236125007271766
1780563498944962000,6.131962158203125,-1.78763747215271,0.5273125171661377,0.1740749925374984
1780563498964482000,6.15148193359375,-2.1605374813079834,0.8244500160217285,0.2046000063419342
1780563498984000300,6.171000244140625,-2.376275062561035,1.041837453842163,0.2157374918460846
1780563499003513900,6.190513916015625,-2.338187456130981,1.0947749614715576,0.2037750035524368
1780563499023031000,6.210031005859375,-2.029087543487549,0.968137502670288,0.166374996304512
1780563499042556200,6.22955615234375,-1.5723124742507937,0.7628499865531921,0.1117874979972839
1780563499062083000,6.2490830078125,-1.1558250188827517,0.6264500021934509,0.0582999996840953
1780563499081611000,6.268611083984375,-0.8986999988555908,0.6399250030517578,0.0266750007867813
1780563499101137700,6.2881376953125,-0.7892500162124634,0.7690374851226807,0.0257124993950128
1780563499120663300,6.307663330078125,-0.7198125123977661,0.9028249979019164,0.0415249988436698
1780563499140192800,6.32719287109375,-0.5890499949455261,0.9459999799728394,0.0481249988079071
1780563499159723800,6.346723876953125,-0.3691875040531158,0.8791750073432922,0.0325874984264373
1780563499179252200,6.366252197265625,-0.1542750000953674,0.794612467288971,0.0160875003784894
1780563499198778600,6.385778564453125,-0.1285624951124191,0.8610249757766724,0.0471624992787838
1780563499218307600,6.4053076171875,-0.403425008058548,1.1750749349594116,0.1667875051498413
1780563499237835500,6.42483544921875,-0.9131374955177308,1.663337469100952,0.3716624975204468
1780563499257363700,6.44436376953125,-1.4738625288009644,2.141562461853028,0.6078875064849854
1780563499276893000,6.463892822265625,-1.926787495613098,2.463587522506714,0.8127624988555908
1780563499296420000,6.483420166015625,-2.3160500526428223,2.700087547302246,0.9846374988555908
1780563499315952400,6.502952392578125,-2.7945499420166016,3.0424625873565674,1.1873124837875366
1780563499335490600,6.522490478515625,-3.304537534713745,3.482187509536743,1.451449990272522
1780563499355025000,6.54202490234375,-3.5191750526428223,3.7144250869750977,1.6799750328063965
1780563499374555400,6.561555419921875,-3.197974920272827,3.413987398147583,1.703074932098389
1780563499394089000,6.5810888671875,-2.4781625270843506,2.599299907684326,1.456125020980835
1780563499413623000,6.600623046875,-1.645324945449829,1.5598000288009644,1.025475025177002
1780563499433156900,6.620156982421875,-0.9517750144004822,0.6582124829292297,0.5819000005722046
1780563499452690000,6.63968994140625,-0.5875374674797058,0.1717374920845031,0.2836624979972839
1780563499472224000,6.65922412109375,-0.5622375011444092,0.1044999957084655,0.1739374995231628
1780563499491754500,6.67875439453125,-0.658762514591217,0.1882375031709671,0.165412500500679
1780563499511286800,6.698286865234375,-0.6058250069618225,0.103812500834465,0.1183874979615211
1780563499530817000,6.717817138671875,-0.3356375098228454,-0.2259124964475631,-0.0307999998331069
1780563499550343200,6.73734326171875,-0.3356375098228454,-0.2259124964475631,-0.0307999998331069
1780563499569871600,6.75687158203125,0.0125124994665384,-0.6364874839782715,-0.2377374917268753
1780563499589400300,6.776400390625,0.2565749883651733,-0.9174000024795532,-0.4189625084400177
1780563499608926500,6.795926513671875,0.408237487077713,-1.0089750289916992,-0.5933125019073486
1780563499628448500,6.815448486328125,0.595924973487854,-1.101099967956543,-0.6556000113487244
1780563499647970300,6.83497021484375,0.955900013446808,-1.3367749452590942,-0.7374125123023987
1780563499667497000,6.8544970703125,0.955900013446808,-1.3367749452590942,-0.7374125123023987
1780563499687022800,6.87402294921875,1.4459500312805176,-1.6755750179290771,-0.8328375220298767
1780563499706546700,6.893546630859375,1.9911375045776367,-2.030050039291382,-0.9240000247955322
1780563499726071300,6.9130712890625,2.5158374309539795,-2.3245749473571777,-0.9957749843597412
1780563499745592800,6.9325927734375,2.9671125411987305,-2.537837505340576,-1.037987470626831
1780563499765116700,6.95211669921875,3.3478500843048096,-2.721400022506714,-1.0506374835968018
1780563499784643000,6.97164306640625,3.666024923324585,-2.926412582397461,-1.0290499925613403
1780563499804165400,6.991165283203125,3.805175065994263,-3.065150022506714,-0.9451749920845032
1780563499823690500,7.0106904296875,3.6572248935699454,-3.018812417984009,-0.7842999696731567
1780563499843219500,7.030219482421875,3.2909250259399414,-2.8039000034332275,-0.5770875215530396
1780563499862743300,7.049743408203125,2.8837873935699463,-2.536324977874756,-0.3782624900341034
1780563499882264800,7.069264892578125,2.5667123794555664,-2.309312582015991,-0.2242625057697296
1780563499901788200,7.0887880859375,2.337774991989136,-2.113374948501587,-0.116187497973442
1780563499921314800,7.108314697265625,2.1238250732421875,-1.8778375387191768,-0.0378125011920928
1780563499940841700,7.127841796875,1.8833374977111816,-1.5581499338150024,0.0189750008285045
1780563499960364500,7.147364501953125,1.623462438583374,-1.1662750244140625,0.0472999997437
1780563499979889700,7.1668896484375,1.3631750345230105,-0.7496500015258789,0.0372624993324279
1780563499999415300,7.186415283203125,1.120074987411499,-0.3662999868392944,-0.0059124999679625
1780563500018940700,7.205940673828125,0.9068124890327454,-0.0633874982595443,-0.0560999996960163
1780563500038464300,7.22546435546875,0.7082625031471252,0.1489125043153762,-0.0803000032901763
1780563500057984500,7.244984619140625,0.4779500067234039,0.2980999946594238,-0.0593999996781349
1780563500077506600,7.264506591796875,0.2004749923944473,0.4012250006198883,-0.0042624999769032
1780563500097036000,7.2840361328125,-0.0671000033617019,0.4305124878883362,0.048675000667572
1780563500116566800,7.30356689453125,-0.254925012588501,0.3555749952793121,0.0662750005722045
1780563500136092700,7.3230927734375,-0.3695999979972839,0.2032250016927719,0.048675000667572
1780563500155615200,7.342615234375,-0.5066875219345093,0.0646250024437904,0.0309375002980232
1780563500175137500,7.362137451171875,-0.7766000032424927,0.0426249988377094,0.0505999997258186
1780563500194663700,7.38166357421875,-1.1911624670028689,0.164450004696846,0.1117874979972839
1780563500214185000,7.40118505859375,-1.6417499780654907,0.3592875003814697,0.1821874976158142
1780563500233700000,7.4207001953125,-2.000624895095825,0.5306124687194824,0.2250874936580658
1780563500253216000,7.440216064453125,-2.2090749740600586,0.6287875175476074,0.2252250015735626
1780563500272732200,7.459732177734375,-2.2783749103546143,0.6593124866485596,0.1924999952316284
1780563500292247000,7.4792470703125,-2.254312515258789,0.6605499982833862,0.1493249982595443
1780563500311761400,7.498761474609375,-2.1972498893737797,0.6833750009536743,0.1120624989271164
1780563500331276000,7.518276123046875,-2.1386749744415283,0.4516874849796295,0.083187498152256
1780563500350796000,7.537796142578125,-2.067312479019165,0.0538999997079372,0.0544499978423118
1780563500370313700,7.557313720703125,-1.928712487220764,0.0805749967694282,0.0193875003606081
1780563500389825500,7.576825439453125,-1.6640249490737915,0.3257375061511993,-0.0211750008165836
1780563500409337300,7.59633740234375,-1.2707749605178833,0.3983374834060669,-0.0636624991893768
1780563500428851200,7.615851318359375,-0.8027250170707703,0.3486999869346618,-0.1039500012993812
1780563500448374500,7.63537451171875,-0.3416875004768371,0.2431000024080276,-0.136537492275238
1780563500467898600,7.654898681640625,-0.3416875004768371,0.2431000024080276,-0.136537492275238
1780563500487416000,7.674416015625,0.0884125009179115,0.1039500012993812,-0.1548250019550323
1780563500506939600,7.693939697265625,0.4806999862194061,-0.0548624992370605,-0.1552374958992004
1780563500526465500,7.713465576171875,0.7414000034332275,-0.14011250436306,-0.1362625062465667
1780563500545988600,7.732988525390625,0.6703125238418579,0.0510125011205673,-0.0859375
1780563500565507800,7.7525078125,0.0361624993383884,0.7634000182151794,0.0351999998092651
1780563500585023200,7.772023193359375,-1.2542749643325806,2.093849897384644,0.2980999946594238
1780563500604543200,7.791543212890625,-2.9515750408172607,3.779875040054321,0.7517125010490417
1780563500624064300,7.811064208984375,-4.363837242126465,5.146349906921387,1.2962124347686768
1780563500643586000,7.8305859375,-4.888537406921387,5.624300003051758,1.708162546157837
1780563500663107300,7.850107421875,-4.604875087738037,5.276975154876709,1.8519874811172483
1780563500682627600,7.869627685546875,-3.9410250186920166,4.514949798583984,1.7551875114440918
1780563500702146600,7.889146484375,-3.157550096511841,3.6382498741149902,1.5113999843597412
1780563500721667600,7.90866748046875,-2.279749870300293,2.720712423324585,1.1977624893188477
1780563500741193200,7.928193115234375,-1.2896125316619873,1.726312518119812,0.8494749665260315
1780563500760714500,7.947714599609375,-0.2857249975204468,0.6748499870300293,0.4860624969005584
1780563500780235000,7.967235107421875,0.5571500062942505,-0.3031874895095825,0.1412124931812286
1780563500799761000,7.986760986328125,1.1184250116348269,-1.0480250120162964,-0.1417624950408935
1780563500819284500,8.006284423828125,1.3257750272750854,-1.4132249355316162,-0.3145999908447265
1780563500838806500,8.025806640625,1.1753499507904053,-1.3554749488830566,-0.358049988746643
1780563500858329600,8.04532958984375,0.8302249908447266,-1.0528374910354614,-0.3183124959468841
1780563500877856500,8.0648564453125,0.5513749718666077,-0.8072624802589417,-0.2877874970436096
1780563500897382400,8.08438232421875,0.5229125022888184,-0.8298124670982361,-0.3517250120639801
1780563500916902000,8.10390185546875,0.7463499903678894,-1.1041250228881836,-0.5263500213623047
1780563500936422700,8.123422607421874,1.1053625345230105,-1.4663000106811523,-0.754462480545044
1780563500955947800,8.14294775390625,1.469599962234497,-1.7604124546051023,-0.9532874822616576
1780563500975475500,8.162475341796876,1.720674991607666,-1.8856749534606931,-1.0599875450134275
1780563500994998800,8.181998779296874,1.881549954414368,-1.889799952507019,-1.0781375169754028
1780563501014517200,8.201517333984375,2.164525032043457,-1.9921000003814695,-1.071125030517578
1780563501034035000,8.221034912109374,2.7069625854492188,-2.3442375659942627,-1.0888625383377075
1780563501053554700,8.2405546875,3.367650032043457,-2.84336256980896,-1.118012547492981
1780563501073075200,8.2600751953125,3.872687578201294,-3.2426624298095703,-1.112512469291687
1780563501092598000,8.279597900390625,4.082924842834473,-3.3864874839782715,-1.0513249635696411
1780563501112124000,8.2991240234375,4.032737255096436,-3.2870750427246094,-0.947237491607666
1780563501131648500,8.3186484375,3.8000874519348153,-3.0336625576019287,-0.8218374848365784
1780563501151171300,8.33817138671875,3.4431374073028564,-2.2133374214172363,-0.6437749862670898
1780563501170697500,8.357697509765625,3.019087553024292,-1.5314749479293823,-0.4791874885559082
1780563501190225700,8.3772255859375,2.5950374603271484,-1.4579124450683594,-0.3793624937534332
1780563501209749800,8.396749755859375,2.222412586212158,-1.3402124643325806,-0.2949374914169311
1780563501229274000,8.416274169921875,2.222412586212158,-1.3402124643325806,-0.2949374914169311
1780563501248797700,8.435797607421875,1.658387541770935,-1.0594375133514404,-0.1953874975442886
1780563501268320500,8.455320556640626,1.3998874425888062,-0.861299991607666,-0.1618375033140182
1780563501287847400,8.474847412109375,1.3998874425888062,-0.861299991607666,-0.1618375033140182
1780563501307371500,8.49437158203125,1.3998874425888062,-0.861299991607666,-0.1618375033140182
1780563501326893300,8.513893310546875,0.8761500120162964,-0.3393499851226806,-0.0955625027418136
1780563501346415400,8.533415283203125,0.6621999740600586,-0.1043625026941299,-0.0813999995589256
1780563501365940500,8.5529404296875,0.4763000011444092,0.0534874983131885,-0.0811249986290931
1780563501385469000,8.572468994140625,0.2858625054359436,0.1021625027060508,-0.0780999958515167
1780563501404995300,8.591995361328125,0.0725999996066093,0.0530750006437301,-0.0555500015616416
1780563501424521200,8.611521240234374,-0.1436875015497207,-0.0544499978423118,-0.0137499999254941
1780563501444043800,8.631043701171874,-0.3278000056743622,-0.1846625059843063,0.0320375002920627
1780563501463569000,8.65056884765625,-0.4756124913692474,-0.3104749917984009,0.066550001502037
1780563501483097600,8.67009765625,-0.6018375158309937,-0.3999874889850616,0.0824999958276748
1780563501502622500,8.68962255859375,-0.7019374966621399,-0.4258374869823456,0.0819500014185905
1780563501522143200,8.709143310546875,-0.7799000144004822,-0.370974987745285,0.0745249986648559
1780563501541670100,8.728670166015625,-0.8879749774932861,-0.2124374955892563,0.0719124972820282
1780563501561196500,8.748196533203124,-1.0778625011444092,0.0452375002205371,0.0780999958515167
1780563501580720000,8.76772021484375,-1.320412516593933,0.3312374949455261,0.0897874981164932
1780563501600247800,8.787247802734376,-1.519374966621399,0.5469750165939331,0.1021625027060508
1780563501619776300,8.8067763671875,-1.613837480545044,0.6571124792098999,0.1131625026464462
1780563501639300400,8.82630029296875,-1.6286875009536743,0.7137625217437744,0.122649997472763
1780563501658818000,8.845818115234374,-1.6256624460220337,0.7976375222206116,0.1303499937057495
1780563501678338600,8.865338623046876,-1.630887508392334,0.9399499893188475,0.1362625062465667
1780563501697864200,8.8848642578125,-1.6047624349594116,1.093537449836731,0.1385999917984008
1780563501717389600,8.9043896484375,-1.476337432861328,1.1704000234603882,0.1337874978780746
1780563501736915700,8.923915771484374,-1.2256749868392944,1.1280499696731567,0.1190750002861023
1780563501756441000,8.943441162109375,-0.9136874675750732,1.0063624382019043,0.1002374961972236
1780563501775965400,8.96296533203125,-0.6286500096321106,0.8817874789237976,0.0891000032424926
1780563501795493400,8.982493408203124,-0.4153875112533569,0.7975000143051147,0.0910250023007392
1780563501815023000,9.002023193359374,-0.2419999986886978,0.7279250025749207,0.0994125008583068
1780563501834550000,9.021550048828123,-0.0516999997198581,0.6283749938011169,0.1020250022411346
1780563501854076000,9.041075927734376,0.1209999993443489,0.5370749831199646,0.113437496125698
1780563501873602300,9.060602294921877,0.06751249730587,0.6553249955177307,0.1847999989986419
1780563501893129500,9.08012939453125,0.1968999952077865,1.234475016593933,0.2446125000715255
1780563501912658400,9.099658447265623,1.2574374675750732,2.3520750999450684,0.0856624990701675
1780563501932188200,9.119188232421877,0.5141124725341797,1.857900023460388,-0.2028124928474426
1780563501951716400,9.13871630859375,-2.116674900054932,0.3524124920368194,-0.370012491941452
1780563501971243000,9.158242919921875,-3.691737413406372,0.8764249682426453,0.1183874979615211
1780563501990770400,9.1777705078125,-4.15098762512207,2.090549945831299,0.9002124667167664
1780563502010296000,9.197296142578123,-4.15098762512207,2.090549945831299,0.9002124667167664
1780563502029818400,9.216818359375,-3.834325075149536,2.461662530899048,1.2072499990463257
1780563502049341000,9.2363408203125,-3.117949962615967,2.272737503051758,1.1772749423980713
1780563502068867600,9.25586767578125,-2.24028754234314,1.7117375135421753,0.9413250088691713
1780563502088392200,9.27539208984375,-0.7034500241279602,0.2655124962329864,0.3187249898910522
1780563502107915300,9.294915283203125,-0.2619374990463257,-0.2623499929904938,0.0892374962568283
1780563502127439600,9.314439697265623,-0.2619374990463257,-0.2623499929904938,0.0892374962568283
1780563502146966800,9.333966796875,-0.0309375002980232,-0.5704874992370605,-0.0576125010848045
1780563502166495500,9.35349560546875,0.0379500016570091,-0.6803500056266785,-0.1399749964475631
1780563502186023200,9.373023193359376,0.0303875003010034,-0.6920375227928162,-0.2019875049591064
1780563502205551900,9.3925517578125,0.1099999994039535,-0.7841625213623047,-0.306487500667572
1780563502225081000,9.4120810546875,0.4250124990940094,-1.0902374982833862,-0.3363249897956848
1780563502244614700,9.43161474609375,0.7628499865531921,-1.563099980354309,-0.2212374955415725
1780563502264150500,9.451150634765623,1.1647624969482422,-1.9905874729156492,-0.3145999908447265
1780563502283679700,9.4706796875,1.6191999912261963,-2.2046749591827397,-0.5670499801635742
1780563502303208400,9.49020849609375,1.8330124616622925,-2.196424961090088,-0.6824125051498413
1780563502322739000,9.509739013671876,1.9255499839782717,-2.085599899291992,-0.7249000072479248
1780563502342265600,9.529265625,2.090412378311157,-2.045175075531006,-0.7621625065803528
1780563502361793500,9.54879345703125,2.433199882507324,-2.1612250804901123,-0.8265125155448914
1780563502381323500,9.568323486328126,2.8715500831604004,-2.3677499294281006,-0.9017249941825868
1780563502400852700,9.587852783203124,3.2432124614715576,-2.5422375202178955,-0.9492999911308287
1780563502420383500,9.607383544921875,3.503499984741211,-2.6562249660491943,-0.9444875121116638
1780563502439912700,9.62691259765625,3.6947624683380127,-2.390850067138672,-0.8090500235557556
1780563502459446000,9.646446044921875,3.787299871444702,-1.867799997329712,-0.6084374785423279
1780563502478976800,9.665976806640623,3.7057623863220215,-1.5101624727249146,-0.4694249927997589
1780563502498501600,9.685501708984376,3.453587532043457,-1.2581249475479126,-0.3716624975204468
1780563502518028800,9.70502880859375,3.1234500408172607,-1.184149980545044,-0.3562625050544739
1780563502537561000,9.72456103515625,2.785199880599976,-1.194324970245361,-0.3980624973773956
1780563502557094700,9.7440947265625,2.4463999271392822,-1.124887466430664,-0.4092000126838684
1780563502576626400,9.76362646484375,2.1103498935699463,-1.0172250270843506,-0.377575010061264
1780563502596157400,9.783157470703124,1.7976750135421753,-0.8963624835014343,-0.3181749880313873
1780563502615687400,9.8026875,1.5152499675750732,-0.7664250135421753,-0.2600125074386596
1780563502635214000,9.822214111328124,1.2535874843597412,-0.6228749752044678,-0.2248124927282333
1780563502654737700,9.841737548828124,1.0036125183105469,-0.4691500067710876,-0.2111999988555908
1780563502674264000,9.86126416015625,0.7412624955177307,-0.2975499927997589,-0.1951124966144561
1780563502693795800,9.8807958984375,0.4204750061035156,-0.079475000500679,-0.1464374959468841
1780563502713327900,9.900327880859376,0.025849999859929,0.1909874975681305,-0.0576125010848045
1780563502732855600,9.91985546875,-0.3746874928474426,0.4464625120162964,0.0409750007092952
1780563502752383000,9.939383056640626,-0.6626124978065491,0.5552250146865845,0.101062498986721
1780563502771916000,9.958916015625,-0.7742624878883362,0.4329875111579895,0.0963874980807304
1780563502791447800,9.97844775390625,-0.7643625140190125,0.1463000029325485,0.0448249988257885
1780563502810973000,9.997972900390623,-0.7627124786376953,-0.1280124932527542,-0.0119624994695186
1780563502830498800,10.017498779296876,-0.852774977684021,-0.2539624869823456,-0.0452375002205371
1780563502850027500,10.037027587890623,-0.9986624717712402,-0.2499749958515167,-0.0493624992668628
1780563502869556200,10.05655615234375,-1.130662441253662,-0.2070749998092651,-0.0305249989032745
1780563502889088500,10.076088623046877,-1.130662441253662,-0.2070749998092651,-0.0305249989032745
1780563502908621800,10.095621826171875,-1.2423125505447388,-0.1674750000238418,-0.0005499999970197
1780563502928154000,10.115154052734376,-1.3615249395370483,-0.1254000067710876,0.0213124994188547
1780563502947684000,10.13468408203125,-1.5349124670028689,-0.0283249989151954,0.0059124999679625
1780563502967211800,10.154211669921876,-1.5349124670028689,-0.0283249989151954,0.0059124999679625
1780563502986740200,10.173740234375,-1.462862491607666,-0.0347874984145164,-0.0067374999634921
1780563503006265900,10.193265869140625,-1.2423125505447388,-0.1214125007390976,-0.0009624999947845
1780563503025790000,10.2127900390625,-0.908050000667572,-0.2788499891757965,0.0246124994009733
1780563503045313800,10.232313720703123,-0.6051374673843384,-0.3729000091552734,0.048675000667572
1780563503064838400,10.25183837890625,-0.5084750056266785,-0.2194499969482422,0.0461999997496604
1780563503084362800,10.27136279296875,-0.6480374932289124,0.2125750035047531,0.0215875003486871
1780563503103882200,10.29088232421875,-0.8938875198364258,0.7642250061035156,0.0065999999642372
1780563503123402500,10.310402587890623,-1.046375036239624,1.1995500326156616,0.0228249989449977
1780563503142928100,10.32992822265625,-0.9840874671936036,1.38833749294281,0.0554125010967254
1780563503162455600,10.34945556640625,-0.7864999771118164,1.4290374517440796,0.0721874982118606
1780563503181981200,10.368981201171875,-0.7284749746322632,1.6018749475479126,0.0710875019431114
1780563503201502500,10.38850244140625,-1.206012487411499,2.2532124519348145,0.1193500012159347
1780563503221019600,10.40801953125,-2.4135375022888184,3.5098249912261963,0.3353624939918518
1780563503240535600,10.42753564453125,-3.883687496185303,4.929924964904785,0.7540500164031982
1780563503260056000,10.44705615234375,-4.842062473297119,5.836187362670898,1.2236125469207764
1780563503279575300,10.4665751953125,-5.046249866485596,5.995824813842773,1.553475022315979
1780563503299092500,10.486092529296876,-4.791599750518799,5.6556501388549805,1.7077499628067017
1780563503318613500,10.505613525390626,-4.289450168609619,5.0703125,1.7531249523162842
1780563503338137900,10.525137939453124,-3.544062376022339,4.336750030517578,1.7373124361038208
1780563503357661200,10.5446611328125,-2.64261245727539,3.540625095367432,1.6757124662399292
1780563503377187600,10.5641875,-1.7795250415802002,2.7427124977111816,1.5314749479293823
1780563503396713000,10.583712890625,-1.1215875148773191,1.9448000192642207,1.228837490081787
1780563503416232200,10.603232177734377,-0.718162477016449,1.1628375053405762,0.7634000182151794
1780563503435751700,10.622751708984374,-0.5454624891281128,0.5134249925613403,0.2693625092506408
1780563503455274500,10.6422744140625,-0.589187502861023,0.170912504196167,-0.0598125010728836
1780563503474799400,10.66179931640625,-0.7786625027656555,0.1583999991416931,-0.1472624987363815
1780563503494324000,10.681323974609375,-0.977899968624115,0.2919124960899353,-0.0951500013470649
1780563503513847800,10.700847900390626,-1.046375036239624,0.3037374913692474,-0.0782374963164329
1780563503533371100,10.72037109375,-0.9176750183105468,0.0284624993801116,-0.206662505865097
1780563503552899300,10.7398994140625,-0.606374979019165,-0.5112249851226807,-0.4657124876976013
1780563503572429800,10.759429931640623,-0.1692624986171722,-1.1521124839782717,-0.7501999735832214
1780563503591954400,10.778954345703124,0.3023625016212463,-1.6933125257492063,-0.9524624943733216
1780563503611474200,10.79847412109375,0.7789375185966492,-2.070199966430664,-1.0394999980926514
1780563503630996200,10.817996337890625,1.2874125242233276,-2.3552374839782715,-1.0440374612808228
1780563503650519800,10.837519775390623,1.8618874549865725,-2.661175012588501,-1.031387448310852
1780563503670039600,10.85703955078125,1.8618874549865725,-2.661175012588501,-1.031387448310852
1780563503689559300,10.876559326171876,3.470499992370605,-3.71978759765625,-1.174525022506714
1780563503709083100,10.896083251953126,4.600337505340576,-4.541900157928467,-1.3473625183105469
1780563503728609300,10.915609375,5.79631233215332,-5.456412315368652,-1.5047999620437622
1780563503748133000,10.935133056640623,5.79631233215332,-5.456412315368652,-1.5047999620437622
1780563503767658000,10.954657958984376,6.450675010681152,-6.057562351226807,-1.366887450218201
1780563503787182300,10.974182373046874,6.450675010681152,-6.057562351226807,-1.366887450218201
1780563503806708200,10.993708251953125,5.640524864196777,-5.437574863433838,-1.0788249969482422
1780563503826236200,11.013236083984374,4.67170000076294,-4.631687641143799,-0.7870500087738037
1780563503845763600,11.032763671875,3.8572874069213863,-3.872687578201294,-0.5665000081062317
1780563503865290200,11.052290283203124,3.2210750579833984,-3.1755623817443848,-0.4261125028133392
1780563503884817000,11.07181689453125,2.7186501026153564,-2.538800001144409,-0.3469125032424927
1780563503904341000,11.091341064453124,2.321000099182129,-1.9948500394821167,-0.3081375062465668
1780563503923866000,11.1108662109375,2.004887580871582,-1.5635124444961548,-0.2905375063419342
1780563503943397000,11.130397216796876,1.747349977493286,-1.2292499542236328,-0.2773374915122986
1780563503962925000,11.149925048828123,1.5166250467300415,-0.9473749995231628,-0.2546499967575073
1780563503982448600,11.16944873046875,1.2826000452041626,-0.675125002861023,-0.2173874974250793
1780563504001971000,11.188970947265624,1.0318000316619873,-0.4017750024795532,-0.1769624948501587
1780563504021494000,11.208493896484375,0.7727500200271606,-0.1486375033855438,-0.1519374996423721
1780563504041015600,11.228015625,0.5330874919891357,0.0474375002086162,-0.1520749926567077
1780563504060539100,11.2475390625,0.3316499888896942,0.1695374995470047,-0.166374996304512
1780563504080062700,11.267062744140626,0.1560624986886978,0.2369125038385391,-0.1707749962806701
1780563504099581400,11.28658154296875,-0.0217249989509582,0.2817375063896179,-0.1495999991893768
1780563504119105000,11.30610498046875,-0.2162874937057495,0.3147374987602234,-0.1104125007987022
1780563504138631000,11.325630859375,-0.4100250005722046,0.2938374876976013,-0.0807124972343444
1780563504158150700,11.345150634765623,-0.5579749941825867,0.1555124968290329,-0.085387498140335
1780563504177672200,11.364672119140623,-0.651199996471405,-0.0743874981999397,-0.1055999994277954
1780563504197195800,11.38419580078125,-0.7556999921798706,-0.2563000023365021,-0.0899249985814094
1780563504216714200,11.40371435546875,-0.9322500228881836,-0.2705999910831451,-0.0189750008285045
1780563504236232400,11.423232421875,-1.1543124914169312,-0.1396999955177307,0.0742499977350235
1780563504255754800,11.442754638671875,-1.3327875137329102,0.02364999987185,0.14011250436306
1780563504275276300,11.4622763671875,-1.4319249391555786,0.1687124967575073,0.1546874940395355
1780563504294793000,11.48179296875,-1.512637495994568,0.3462249934673309,0.1234750002622604
1780563504314304300,11.50130419921875,-1.6854749917984009,0.6604124903678894,0.0607750006020069
1780563504333815800,11.52081591796875,-2.0371999740600586,1.1863499879837036,-0.0129249999299645
1780563504353335000,11.5403349609375,-2.49961256980896,1.8363125324249268,-0.0721874982118606
1780563504372853800,11.559853759765623,-2.853950023651123,2.3715999126434326,-0.0943249985575676
1780563504392367400,11.579367431640623,-2.9024875164031982,2.5815625190734863,-0.0759000033140182
1780563504411880700,11.598880615234377,-2.5866498947143555,2.408174991607666,-0.032999999821186
1780563504431394800,11.618394775390623,-1.9882500171661377,1.9478249549865725,0.0131999999284744
1780563504450909400,11.637909423828123,-1.2969000339508057,1.4041500091552734,0.0463375002145767
1780563504470422300,11.65742236328125,-0.7523999810218811,1.0183249711990356,0.0576125010848045
1780563504489938000,11.67693798828125,-0.7523999810218811,1.0183249711990356,0.0576125010848045
1780563504509462300,11.696462158203126,-0.5086125135421753,1.127774953842163,0.0647625029087066
1780563504528982800,11.715982666015623,-0.246812492609024,1.631850004196167,0.0276375003159046
1780563504548494000,11.735494140625,0.4041124880313873,2.3384625911712646,0.0808499976992607
1780563504568012300,11.75501220703125,0.4041124880313873,2.3384625911712646,0.0808499976992607
1780563504587538000,11.774537841796874,0.4041124880313873,2.3384625911712646,0.0808499976992607
1780563504607061800,11.794061767578125,0.0351999998092651,3.639625072479248,0.1791625022888183
1780563504626583800,11.813583740234376,-0.9499874711036682,3.944050073623657,0.5388625264167786
1780563504646104000,11.83310400390625,-1.6605875492095947,4.134487628936768,0.8618500232696533
1780563504665623300,11.852623291015624,-2.268749952316284,4.377449989318848,1.184975028038025
1780563504685144000,11.87214404296875,-2.699399948120117,4.598549842834473,1.514699935913086
1780563504704665000,11.8916650390625,-2.7006375789642334,4.490749835968018,1.7579374313354492
1780563504724189200,11.911189208984377,-2.2032999992370605,3.8329498767852783,1.7846125364303589
1780563504743713300,11.93071337890625,-1.4643750190734863,2.7758500576019287,1.5721750259399414
1780563504763235000,11.950235107421875,-0.8013499975204468,1.6597625017166138,1.2134374380111694
1780563504782762200,11.96976220703125,-0.4074124991893768,0.7837499976158142,0.8383374810218811
1780563504802285000,11.98928515625,-0.3118500113487243,0.2886124849319458,0.54339998960495
1780563504821799700,12.008799560546874,-0.3958624899387359,0.1077999994158744,0.3517250120639801
1780563504841312300,12.028312255859374,-0.4668124914169311,0.0204875003546476,0.2153249979019165
1780563504860823800,12.04782373046875,-0.3602499961853027,-0.2157374918460846,0.0538999997079372
1780563504880341000,12.067341064453124,-0.0379500016570091,-0.6863999962806702,-0.172837495803833
1780563504899864600,12.086864501953125,0.4204750061035156,-1.287137508392334,-0.4369750022888183
1780563504919381800,12.1063818359375,0.8683124780654907,-1.8121124505996704,-0.6675624847412109
1780563504938892500,12.125892578125,1.1951500177383425,-2.1232750415802,-0.8065750002861023
1780563504958406100,12.14540625,1.389299988746643,-2.22543740272522,-0.8447999954223633
1780563504977923000,12.164923095703124,1.5586999654769895,-2.251562595367432,-0.822112500667572
1780563504997439200,12.184439208984376,1.9251375198364256,-2.432374954223633,-0.8043749928474426
1780563505016947500,12.203947509765625,2.650587558746338,-2.9265499114990234,-0.8294000029563904
1780563505036455400,12.223455322265623,3.666024923324585,-3.6764750480651855,-0.8795874714851379
1780563505055967500,12.242967529296877,4.666337490081787,-4.416774749755859,-0.910937488079071
1780563505075479000,12.26247900390625,5.307087421417236,-4.848937511444092,-0.8958125114440918
1780563505094990800,12.281990966796876,5.445825099945068,-4.854437351226807,-0.8357250094413757
1780563505114503400,12.30150341796875,5.195024967193604,-4.5425872802734375,-0.7482749819755554
1780563505134015200,12.32101513671875,4.757912635803223,-4.103000164031982,-0.6503750085830688
1780563505153526800,12.34052685546875,4.254937648773193,-3.646087408065796,-0.5489000082015991
1780563505173038000,12.3600380859375,3.71896243095398,-3.1865625381469727,-0.4423374831676483
1780563505192546300,12.37954638671875,3.1692373752593994,-2.7124624252319336,-0.3305499851703644
1780563505212054500,12.399054443359375,2.650175094604492,-2.2294249534606934,-0.2209624946117401
1780563505231559200,12.41855908203125,2.198625087738037,-1.7505124807357788,-0.1245749965310096
1780563505251064000,12.43806396484375,1.816100001335144,-1.2845250368118286,-0.0471624992787838
1780563505270581000,12.4575810546875,1.4882999658584597,-0.8478249907493591,0.0160875003784894
1780563505290103800,12.477103759765624,1.2014750242233276,-0.4595249891281128,0.0742499977350235
1780563505309620700,12.496620849609377,0.9611250162124634,-0.1421750038862228,0.1256749927997589
1780563505329134000,12.516134033203125,0.7962625026702881,0.0761749967932701,0.1526249945163726
1780563505348648700,12.535648681640623,0.7184374928474426,0.1886499971151352,0.1372250020503997
1780563505368162600,12.55516259765625,0.7184374928474426,0.1886499971151352,0.1372250020503997
1780563505387680500,12.574680419921876,0.7184374928474426,0.1886499971151352,0.1372250020503997
1780563505407202000,12.5942021484375,0.6290624737739563,0.2400749921798706,0.031624998897314
1780563505426718200,12.61371826171875,0.4944500029087066,0.2395250052213668,0.0072874999605119
1780563505446234400,12.633234375,0.3148750066757202,0.2087250053882599,0.0116875004023313
1780563505465755000,12.6527548828125,0.1468500047922134,0.1289750039577484,0.0188375003635883
1780563505485271300,12.672271240234377,-0.0151249999180436,0.0356125012040138,0.0147124994546175
1780563505504782800,12.691782958984374,-0.2378749996423721,0.0030249999836087,0.0114124994724988
1780563505524296200,12.711296142578124,-0.5703499913215637,0.0842875018715858,0.0262624993920326
1780563505543815000,12.73081494140625,-0.9674500226974488,0.2237125039100647,0.0563750006258487
1780563505563334000,12.750333984375,-1.308174967765808,0.2759625017642975,0.0838750004768371
1780563505582842600,12.769842529296875,-1.5071375370025637,0.1695374995470047,0.0985874980688095
1780563505602354400,12.7893544921875,-1.6236000061035156,0.020075000822544,0.101062498986721
1780563505621875700,12.808875732421876,-1.8281999826431277,0.0519750006496906,0.0864875018596649
1780563505641396000,12.82839599609375,-2.2299749851226807,0.381012499332428,0.0404249988496303
1780563505660918500,12.84791845703125,-2.7647125720977783,0.9180874824523926,-0.0383624993264675
1780563505680441000,12.867441162109374,-3.2367498874664307,1.448699951171875,-0.1282874941825866
1780563505699959600,12.88695947265625,-3.4926373958587646,1.8050999641418457,-0.20762500166893
1780563505719478300,12.906478271484374,-3.504462480545044,1.95208752155304,-0.2697750031948089
1780563505738999000,12.9259990234375,-3.3002750873565674,1.9222500324249268,-0.3111625015735626
1780563505758521300,12.945521240234376,-2.925450086593628,1.7602750062942505,-0.3243624866008758
1780563505778041600,12.96504150390625,-2.4476375579833984,1.5226750373840332,-0.3075875043869018
1780563505797553200,12.98455322265625,-1.9692749977111816,1.2988250255584717,-0.2766500115394592
1780563505817062000,13.004061767578126,-1.5793249607086182,1.1790624856948853,-0.2540999948978424
1780563505836573200,13.0235732421875,-1.3377374410629272,1.2205874919891355,-0.2529999911785126
1780563505856082700,13.043082763671874,-1.2830125093460083,1.434399962425232,-0.2677125036716461
1780563505875590700,13.062590576171877,-1.3824249505996704,1.7540874481201172,-0.2729375064373016
1780563505895104500,13.0821044921875,-1.5148375034332275,2.0554873943328857,-0.2399374991655349
1780563505914621400,13.101621337890624,-1.5699750185012815,2.2558250427246094,-0.1627999991178512
1780563505934129400,13.12112939453125,-1.572450041770935,2.401162385940552,-0.0607750006020069
1780563505953631500,13.140631591796875,-1.63652503490448,2.594899892807007,0.0433125011622905
1780563505973137200,13.16013720703125,-1.8291624784469604,2.872649908065796,0.142037495970726
1780563505992643800,13.179643798828126,-2.1192874908447266,3.1807875633239746,0.2398000061511993
1780563506012148200,13.199148193359376,-2.416837453842163,3.43969988822937,0.3430624902248382
1780563506031656400,13.218656494140625,-2.619374990463257,3.5864124298095703,0.4544374942779541
1780563506051168300,13.238168212890624,-2.631887435913086,3.5667500495910645,0.5627874732017517
1780563506070677800,13.257677734375,-2.41367506980896,3.346750020980835,0.6424000263214111
1780563506090185000,13.27718505859375,-2.0371999740600586,2.955012559890747,0.6671500205993652
1780563506109694500,13.296694580078125,-1.633912444114685,2.460974931716919,0.6219124794006348
1780563506129202700,13.31620263671875,-1.276687502861023,1.9108375310897827,0.5081999897956848
1780563506148713200,13.335713134765625,-0.952187478542328,1.3205499649047852,0.3518624901771545
1780563506168225000,13.35522509765625,-0.952187478542328,1.3205499649047852,0.3518624901771545
1780563506187731200,13.374731201171874,-0.952187478542328,1.3205499649047852,0.3518624901771545
1780563506207240000,13.394239990234375,-0.317487508058548,0.1627999991178512,0.0673749968409538
1780563506226755600,13.413755615234376,-0.0544499978423118,-0.3147374987602234,-0.0453750006854534
1780563506246270000,13.43327001953125,0.147949993610382,-0.7044125199317932,-0.1567499935626983
1780563506265779200,13.452779296875,0.2994749844074249,-1.0073250532150269,-0.2626250088214874
1780563506285284600,13.47228466796875,0.4185499846935272,-1.2275999784469604,-0.3448500037193298
1780563506304791800,13.491791748046875,0.5414749979972839,-1.391224980354309,-0.3891249895095825
1780563506324306200,13.51130615234375,0.7430499792098999,-1.5647499561309814,-0.3926999866962433
1780563506343822000,13.530822021484376,1.1445499658584597,-1.864912509918213,-0.3701499998569488
1780563506363337500,13.55033740234375,1.8638124465942385,-2.408174991607666,-0.3445749878883362
1780563506382861600,13.569861572265625,2.9044125080108643,-2.0697875022888184,-0.3217499852180481
1780563506402386200,13.58938623046875,4.077012538909912,-2.1411499977111816,-0.2934249937534332
1780563506421906000,13.608906005859374,5.043499946594238,-3.377274990081787,-0.243925005197525
1780563506441427200,13.62842724609375,5.526812553405762,-4.032462596893311,-0.1645874977111816
1780563506460945400,13.6479453125,5.5133376121521,-4.136549949645996,-0.0684750005602836
1780563506480464100,13.667464111328124,5.187187671661377,-3.872137546539306,0.0218624994158744
1780563506499981300,13.686981201171877,4.720787525177002,-3.41604995727539,0.0873124971985817
1780563506519494400,13.706494384765625,4.201449871063232,-2.873337507247925,0.1225124970078468
1780563506539006500,13.72600634765625,3.666712522506714,-2.3031249046325684,0.1351625025272369
1780563506558515700,13.745515625,3.1377499103546143,-1.7445999383926392,0.1383250057697296
1780563506578030600,13.765030517578126,2.629549980163574,-1.2226500511169434,0.1417624950408935
1780563506597553400,13.784553466796876,2.165212392807007,-0.7618874907493591,0.1461624950170517
1780563506617071400,13.8040712890625,1.7617875337600708,-0.381974995136261,0.1478125005960464
1780563506636584000,13.823583984375,1.4064874649047852,-0.0866250023245811,0.1519374996423721
1780563506656100600,13.8431005859375,1.0789624452590942,0.1182499974966049,0.1761374920606613
1780563506675612400,13.8626123046875,0.7929624915122986,0.209549993276596,0.2305874973535537
1780563506695119000,13.882119140625,0.5883625149726868,0.172837495803833,0.2983750104904175
1780563506714633000,13.901633056640623,0.4874374866485595,0.0411125011742115,0.3330250084400177
1780563506734148400,13.9211484375,0.4828999936580658,-0.1214125007390976,0.2869625091552734
1780563506753660000,13.940659912109377,0.5438125133514404,-0.2604250013828277,0.1545500010251999
1780563506773173200,13.96017333984375,0.6237000226974487,-0.3517250120639801,-0.0186999998986721
1780563506792688400,13.9796884765625,0.6645374894142151,-0.3877499997615814,-0.1637624949216842
1780563506812204800,13.999204833984376,0.6095374822616577,-0.35708749294281,-0.2326499968767166
1780563506831723300,14.01872314453125,0.4175874888896942,-0.2408999949693679,-0.2191749960184097
1780563506851237400,14.0382373046875,0.0941874980926513,-0.0455125011503696,-0.1500124931335449
1780563506870749700,14.057749755859374,-0.2868250012397766,0.1699499934911728,-0.0683375000953674
1780563506890261500,14.077261474609376,-0.6269999742507935,0.3240875005722046,-0.0065999999642372
1780563506909769700,14.096769775390625,-0.9015874862670898,0.3948999941349029,0.0331375002861022
1780563506929275100,14.116275146484377,-1.153212547302246,0.3966875076293945,0.0653124973177909
1780563506948783000,14.135783203125,-1.3591874837875366,0.2901250123977661,0.0900624990463256
1780563506968295400,14.15529541015625,-1.3591874837875366,0.2901250123977661,0.0900624990463256
1780563506987808500,14.17480859375,-1.3591874837875366,0.2901250123977661,0.0900624990463256
1780563507007324000,14.194323974609375,-1.465749979019165,-0.1776500046253204,0.108762502670288
1780563507026837000,14.2138369140625,-1.7859874963760376,0.0107249999418854,0.1402499973773956
1780563507046345700,14.233345703125,-3.2499499320983887,1.4090999364852903,0.2250874936580658
1780563507065852000,14.252851806640624,-3.2499499320983887,1.4090999364852903,0.2250874936580658
1780563507085359400,14.272359375,-3.5824248790740967,1.803862452507019,0.259737491607666
1780563507104866300,14.2918662109375,-3.3413875102996826,1.7314000129699707,0.2901250123977661
1780563507124372700,14.311372802734375,-2.788224935531616,1.4200999736785889,0.3144625127315521
1780563507143885600,14.330885498046875,-2.233687400817871,1.1251624822616575,0.3201000094413757
1780563507163398100,14.350398193359377,-1.825724959373474,0.9713000059127808,0.2941125035285949
1780563507182908200,14.369908203125,-1.553475022315979,0.9490249752998352,0.2362249940633773
1780563507202416600,14.389416748046877,-1.368399977684021,1.0081499814987185,0.1659625023603439
1780563507221926000,14.40892578125,-1.308174967765808,1.1580250263214111,0.1111000031232833
1780563507241439500,14.428439453125,-1.432474970817566,1.4331624507904053,0.0923999994993209
1780563507260956200,14.4479560546875,-1.645187497138977,1.762887477874756,0.1104125007987022
1780563507280471800,14.467471923828125,-1.7745749950408936,2.0194625854492188,0.1438249945640564
1780563507299985400,14.4869853515625,-1.7720999717712402,2.159987449645996,0.1794375032186508
1780563507319499000,14.5064990234375,-1.7137999534606934,2.236437559127808,0.238425001502037
1780563507339012000,14.52601220703125,-1.61576247215271,2.264625072479248,0.3477374911308288
1780563507358524200,14.545524169921874,-1.373075008392334,2.1643874645233154,0.4877125024795532
1780563507378033400,14.565033447265623,-0.9527375102043152,1.8893874883651731,0.6026625037193298
1780563507397540600,14.58454052734375,-0.4985750019550323,1.5214375257492063,0.6605499982833862
1780563507417045500,14.60404541015625,-0.2019875049591064,1.2046375274658203,0.6803500056266785
1780563507436557300,14.623557373046877,-0.127187505364418,1.0239624977111816,0.7012500166893005
1780563507456071200,14.6430712890625,-0.1779250055551529,0.9503999948501588,0.737137496471405
1780563507475582500,14.66258251953125,-0.15344999730587,0.8399875164031982,0.7463499903678894
1780563507495093000,14.682093017578126,0.1051874980330467,0.5464249849319458,0.6617875099182129
1780563507514603800,14.701603759765623,0.5601750016212463,0.0830499976873397,0.4697000086307525
1780563507534118400,14.721118408203123,1.0309749841690063,-0.3994374871253967,0.228937491774559
1780563507553634300,14.74063427734375,1.34832501411438,-0.7501999735832214,0.0211750008165836
1780563507573151000,14.76015087890625,1.4852750301361084,-0.9385749697685242,-0.1077999994158744
1780563507592664800,14.779664794921874,1.5215749740600586,-1.0267125368118286,-0.1546874940395355
1780563507612179700,14.7991796875,1.536287546157837,-1.081025004386902,-0.1413500010967254
1780563507631697200,14.818697265625,1.5717624425888062,-1.1431750059127808,-0.098312497138977
1780563507651215600,14.838215576171876,1.607100009918213,-1.206287503242493,-0.0445500016212463
1780563507670738700,14.85773876953125,1.5721750259399414,-1.2236125469207764,0.0218624994158744
1780563507690262300,14.87726220703125,1.4124000072479248,-1.152250051498413,0.1062875017523765
1780563507709782500,14.896782470703124,1.135337471961975,-0.990274965763092,0.1991000026464462
1780563507729300200,14.91630029296875,0.7764624953269958,-0.7657374739646912,0.2770625054836273
1780563507748814600,14.935814697265624,0.3766124844551086,-0.517549991607666,0.3137750029563904
1780563507768329700,14.955329833984376,-0.0067374999634921,-0.2849000096321106,0.2923249900341034
1780563507787852500,14.9748525390625,-0.0067374999634921,-0.2849000096321106,0.2923249900341034
1780563507807376400,14.99437646484375,-0.45210000872612,0.0065999999642372,0.1121999993920326
1780563507826898700,15.013898681640624,-0.1387374997138977,-0.1183874979615211,-0.0347874984145164
1780563507885467000,15.072466796875,0.2267374992370605,-0.2990624904632568,-0.0669625028967857
1780563507904988000,15.09198779296875,0.6023874878883362,-0.4794625043869018,-0.0976250022649765
1780563507924504000,15.111504150390624,0.9125875234603882,-0.613937497138977,-0.1421750038862228
1780563507944019500,15.13101953125,1.1360249519348145,-0.6898375153541565,-0.1951124966144561
1780563507963533600,15.150533447265625,1.288237452507019,-0.7176125049591064,-0.2419999986886978
1780563507983049000,15.170049072265623,1.3880624771118164,-0.7141749858856201,-0.27114999294281
1780563508002563800,15.189563720703124,1.4320625066757202,-0.684612512588501,-0.2814624905586242
1780563508022080800,15.209080810546874,1.407312512397766,-0.6250749826431274,-0.2722499966621399
1780563508041601000,15.22860107421875,1.314774990081787,-0.5341874957084656,-0.2343000024557113
1780563508061119500,15.248119384765625,1.161324977874756,-0.4124999940395355,-0.1582625061273574
1780563508080635000,15.267634765625,0.963325023651123,-0.2704625129699707,-0.0453750006854534
1780563508100146200,15.287146240234376,0.757349967956543,-0.1319999992847442,0.0852499976754188
1780563508119658200,15.306658203125,0.594962477684021,-0.0269499998539686,0.2046000063419342
1780563508139177500,15.326177490234375,0.5010499954223633,0.0305249989032745,0.2939749956130981
1780563508158697000,15.345697021484376,0.4574624896049499,0.0514249987900257,0.3553000092506408
1780563508178219000,15.365218994140625,0.4365625083446502,0.0577500015497207,0.4002625048160553
1780563508197743000,15.3847431640625,0.4104374945163727,0.0706750005483627,0.4408249855041504
1780563508217263400,15.404263427734374,0.3603875041007995,0.101062498986721,0.4851000010967254
1780563508236785700,15.42378564453125,0.2868250012397766,0.1442375034093856,0.5314375162124634
1780563508256311300,15.443311279296877,0.2169750034809112,0.1788875013589859,0.5682874917984009
1780563508275836000,15.4628359375,0.210099995136261,0.1732500046491623,0.5769500136375427
1780563508295357700,15.482357666015623,0.3167999982833862,0.107524998486042,0.5444999933242798
1780563508314878000,15.5018779296875,0.5202999711036682,-0.0017874999903142,0.4786374866962433
1780563508334398700,15.521398681640624,0.7097749710083008,-0.101062498986721,0.4133250117301941
1780563508353922600,15.540922607421876,0.734250009059906,-0.133650004863739,0.3959999978542328
1780563508373447000,15.560447021484377,0.5245624780654907,-0.0855249986052513,0.4552625119686126
1780563508392971000,15.579970947265624,0.167337492108345,-0.0010999999940395,0.572825014591217
