time,seconds_elapsed,z,y,x
1780528905622295800,1.2432958984375,-7.3238630294799805,-4.513070106506348,-5.274426460266113
1780528905632397000,1.25339697265625,-6.833051681518555,-3.936067581176758,-5.140350818634033
1780528905642529000,1.263529052734375,-6.651092529296875,-3.2800562381744385,-5.027823448181152
1780528905662762000,1.283761962890625,-6.076483726501465,-2.82515811920166,-4.137180328369141
1780528905682964700,1.30396484375,-5.444414615631104,-3.0837318897247314,-4.041412353515625
1780528905723370000,1.344369873046875,-4.448426723480225,-1.7980455160140991,-4.1874589920043945
1780528905733471200,1.35447119140625,-4.412513732910156,-0.6943184733390808,-3.950432777404785
1780528905743603200,1.364603271484375,-4.01268196105957,0.2011129409074783,-3.622427225112915
1780528905753704400,1.374704345703125,-3.689464807510376,0.2394201755523681,-3.272873640060425
1780528905763805700,1.3848056640625,-3.77565598487854,-0.1221042871475219,-3.1459810733795166
1780528905773907200,1.3949072265625,-3.861847400665283,-0.6967126727104187,-3.2369606494903564
1780528905784008400,1.405008544921875,-3.5266590118408203,-1.0606313943862915,-2.9448680877685547
1780528905875042300,1.496042236328125,-3.756502389907837,-2.52109432220459,-2.4420857429504395
1780528905885174300,1.50617431640625,-4.062960147857666,-1.987187385559082,-2.516305923461914
1780528905895275500,1.516275634765625,-4.242525577545166,-1.5107412338256836,-2.87064790725708
1780528905915478300,1.536478271484375,-4.278438568115234,-0.9385270476341248,-2.80361008644104
1780528905996319200,1.6173193359375,-3.313575267791748,-0.5267243981361389,-1.948880195617676
1780528906006420500,1.62742041015625,-2.58813214302063,-0.5171475410461426,-1.944091796875
1780528906016522000,1.63752197265625,-2.032677173614502,-0.5937620401382446,-1.953668594360352
1780528906026653700,1.64765380859375,-1.6950948238372805,-0.3974374830722809,-1.9967641830444336
1780528906036755000,1.6577548828125,-1.6041151285171509,-0.3519476354122162,-1.8962076902389529
1780528906046887000,1.667886962890625,-1.601720929145813,-0.0670376494526863,-1.723825216293335
1780528906107342000,1.728342041015625,-4.3191399574279785,2.4588451385498047,-1.1492167711257937
1780528906117443600,1.738443603515625,-0.8188169598579407,2.4468741416931152,-2.0015525817871094
1780528906147625500,1.76862548828125,-3.622427225112915,4.37420654296875,-4.932055473327637
1780528906218151400,1.8391513671875,-0.5363011956214905,-7.364564418792725,1.1228805780410769
1780528906298748400,1.91974853515625,-3.567360639572144,-1.1420341730117798,-1.486799240112305
1780528906359295200,1.980295166015625,2.097320795059204,1.0247182846069336,-0.9265560507774352
1780528906379498000,2.000498046875,8.061277389526367,5.154716491699219,-1.4939818382263184
1780528906389568800,2.01056884765625,7.618350028991699,6.596025466918945,-3.0621838569641118
1780528906399639600,2.0206396484375,1.4389152526855469,5.226542472839356,-3.7229835987091056
1780528906419781000,2.040781005859375,-1.1276689767837524,-1.1276689767837524,0.751779317855835
1780528906439953200,2.060953125,1.295263171195984,-4.338293552398682,0.0790086537599563
1780528906450024000,2.07102392578125,1.6304513216018677,-5.363011837005615,-0.5937620401382446
1780528906460095000,2.081094970703125,1.1204863786697388,-5.444414615631104,-0.8690952062606812
1780528906470196200,2.0911962890625,-0.1771709322929382,-4.970362663269043,-0.7829039692878723
1780528906480297500,2.10129736328125,-0.706289529800415,-3.739742994308472,-0.751779317855835
1780528906490398700,2.111398681640625,0.4716577231884002,-1.455674648284912,-0.9169792532920836
1780528906500439000,2.12143896484375,0.9911994934082032,1.2449848651885986,-1.455674648284912
1780528906510509800,2.131509765625,0.6344634294509888,4.000710964202881,-1.580173134803772
1780528906520580600,2.14158056640625,0.2106897532939911,6.555324077606201,-1.000776290893555
1780528906540722200,2.16172216796875,0.0670376494526863,8.56645393371582,0.1675941199064254
1780528906550762500,2.171762451171875,-0.3878606855869293,6.212953567504883,-0.3351882398128509
1780528906560864000,2.181864013671875,-0.7733271718025208,2.8203697204589844,-0.4501099288463592
1780528906570965200,2.19196533203125,-1.1037269830703735,-0.4525041282176971,-0.2633621990680694
1780528906581036000,2.2020361328125,-1.158793568611145,-2.9017724990844727,-0.2944868206977844
1780528906591106800,2.21210693359375,-1.0989385843276978,-4.764461517333984,-0.1891419291496276
1780528906601177600,2.222177490234375,-0.8882488012313843,-5.506663799285889,0.2274491637945175
1780528906611278800,2.23227880859375,-0.4501099288463592,-4.654327869415283,1.2018892765045166
1780528906621349600,2.242349609375,-0.3687070608139038,-3.1914708614349365,2.1811177730560303
1780528906631420400,2.25242041015625,0.0814028605818748,-1.3862427473068235,2.6575639247894287
1780528906641522000,2.26252197265625,0.667982280254364,0.3711012601852417,2.4636335372924805
1780528906651592700,2.2725927734375,0.3878606855869293,2.152387380599976,2.056619167327881
1780528906661663500,2.28266357421875,-0.5434837937355042,3.1938650608062744,1.1516109704971311
1780528906671764700,2.2927646484375,-1.173158884048462,3.4787750244140625,0.8020575642585754
1780528906681835500,2.30283544921875,-1.0989385843276978,3.825934410095215,0.8092401623725891
1780528906691906300,2.31290625,-0.4692635238170624,4.07014274597168,0.8140285611152649
1780528906702007800,2.3230078125,-0.2011129409074783,3.648763418197632,0.7038952708244324
1780528906712047900,2.3330478515625,-0.1891419291496276,2.7269957065582275,0.4812345504760742
1780528906722119000,2.343118896484375,-0.3758896589279175,1.968033790588379,-0.0837970599532127
1780528906742291000,2.363291015625,-1.256955862045288,1.2401964664459229,-0.9433154463768004
1780528906752331300,2.373331298828125,-0.2154781520366668,1.3982137441635132,-0.8403648138046265
1780528906762432500,2.3834326171875,1.278503656387329,0.6488286852836609,-0.8092401623725891
1780528906772503300,2.39350341796875,1.807622313499451,-0.706289529800415,-0.8307880163192749
1780528906792644900,2.413644775390625,0.6727706789970398,-1.680729627609253,-0.2873041927814483
1780528906802715600,2.423715576171875,0.2130839526653289,-1.295263171195984,-0.4740519225597381
1780528906812786400,2.433786376953125,-0.8068459630012512,-0.4644751250743866,-0.1125274822115898
1780528906822857200,2.443857177734375,-2.1140801906585693,0.4979939460754394,0.8403648138046265
1780528906832958700,2.453958740234375,-2.269703149795532,1.3958195447921753,2.070984363555908
1780528906853100300,2.474100341796875,1.3646949529647827,1.7693150043487549,-0.0407014302909374
1780528906863201500,2.484201416015625,1.9752163887023928,1.915361404418945,-0.9816226959228516
1780528906873272300,2.494272216796875,1.280897855758667,1.6041151285171509,-0.3974374830722809
1780528906883373600,2.50437353515625,1.4700398445129397,1.2976573705673218,0.4381389021873474
1780528906893475000,2.51447509765625,-0.1077390760183334,0.1987187415361404,0.5817909836769104
1780528906903576300,2.524576416015625,-1.314416766166687,-0.8451532125473022,0.0526724383234977
1780528906923748400,2.544748291015625,-0.950498104095459,0.9911994934082032,-0.9983820915222168
1780528906933819100,2.554819091796875,-1.09654438495636,1.778891921043396,-1.0247182846069336
1780528906953960700,2.574960693359375,-0.2944868206977844,-0.6799532771110535,-0.5386953949928284
1780528906964062200,2.585062255859375,-0.1532289087772369,-2.3989901542663574,-0.1843535304069519
1780528906974133000,2.595133056640625,0.0430956296622753,-3.6104562282562256,-0.0622492432594299
1780528906994274600,2.615274658203125,-0.241814374923706,-3.265691041946411,0.0861912593245506
1780528907004345300,2.625345458984375,-0.5219359993934631,-2.3104045391082764,0.0957680642604827
1780528907014416100,2.635416015625,-0.1915361285209655,-1.6089035272598269,0.332794040441513
1780528907024487000,2.64548681640625,0.2442085742950439,-1.5634137392044067,0.586579442024231
1780528907034588200,2.655588134765625,1.4413094520568848,-2.33913516998291,0.7948749661445618
1780528907044659000,2.665658935546875,1.869871497154236,-2.937685489654541,1.2090718746185305
1780528907054730000,2.67572998046875,1.594538331031799,-3.043030261993408,1.139639973640442
1780528907064800800,2.68580078125,1.498770236968994,-2.6791117191314697,0.6200982332229614
1780528907074871600,2.69587158203125,1.417367458343506,-1.623268723487854,0.3088520169258117
1780528907084942300,2.7059423828125,1.482010841369629,-1.4053963422775269,0.059855043888092
1780528907095043600,2.716043701171875,0.3567360639572143,-0.7637503147125244,-0.237025961279869
1780528907115215600,2.736215576171875,0.8978256583213806,0.0167594123631715,-0.1939303427934646
1780528907125317000,2.746317138671875,0.8738836050033569,-0.3854664862155914,-0.3974374830722809
1780528907135388000,2.756387939453125,-0.3663128614425659,-0.1340752989053726,-1.3120225667953491
1780528907145489200,2.7664892578125,-1.273715257644653,0.5554547905921936,-2.164358377456665
1780528907155590400,2.77659033203125,-1.6639702320098877,1.1061211824417114,-2.9472622871398926
1780528907165661200,2.7866611328125,-1.460463047027588,1.53707754611969,-3.5649664402008057
1780528907185864000,2.806864013671875,-1.7693150043487549,2.5282769203186035,-3.5482068061828613
1780528907216076300,2.837076171875,-1.9345149993896484,2.482787132263184,-2.60010313987732
1780528907286663400,2.907663330078125,-0.586579442024231,1.802833914756775,-1.889025092124939
1780528907357250600,2.97825048828125,-0.8236053586006165,0.4070142805576324,-0.3232172429561615
1780528907458080800,3.079080810546875,-0.4165911078453064,0.0454898327589035,0.5291185975074768
1780528907478252800,3.099252685546875,-0.2896983921527862,0.1364694982767105,1.0462661981582642
1780528907488354000,3.10935400390625,-0.1244984865188598,0.1053448766469955,1.3718775510787964
1780528907498455600,3.11945556640625,-0.2849099934101105,-0.3519476354122162,1.2641384601593018
1780528907508526300,3.1295263671875,0.3423708379268646,-0.6416460275650024,1.2401964664459229
1780528907518597000,3.13959716796875,0.5339069962501526,-0.42377370595932,1.1899182796478271
1780528907548840000,3.16983984375,0.706289529800415,0.0095768067985773,0.974440097808838
1780528907558941200,3.179941162109375,0.4836287498474121,-0.0742202550172805,1.3527239561080933
1780528907569042700,3.190042724609375,0.8762778043746948,-0.0311246216297149,1.4077905416488647
1780528907579083000,3.2000830078125,0.6751648783683777,0.0335188247263431,1.115697979927063
1780528907589123000,3.210123046875,0.8188169598579407,0.363918662071228,1.2234370708465576
1780528907599224600,3.220224609375,0.4501099288463592,0.5339069962501526,1.316810965538025
1780528907609325800,3.230325927734375,0.5482721924781799,0.1628057211637497,1.58256733417511
1780528907649639400,3.270639404296875,-0.2082955539226532,0.4429273009300232,1.874659895896912
1780528907669842200,3.29084228515625,0.4118026793003082,-0.7134721279144287,1.8818424940109253
1780528907679913000,3.300912841796875,0.059855043888092,-0.751779317855835,2.288856744766236
1780528907690045000,3.311044921875,-0.1723825186491012,-0.2082955539226532,2.564189910888672
1780528907750469600,3.3714697265625,-1.9129672050476076,-0.2825157940387726,2.698265314102173
1780528907760571000,3.38157080078125,-1.656787633895874,-0.4118026793003082,2.5019407272338867
1780528907770672000,3.391672119140625,-1.4844050407409668,-0.8068459630012512,2.288856744766236
1780528907800884700,3.421884765625,-0.9888052940368652,-1.845929503440857,2.494758129119873
1780528907810986000,3.431986083984375,-1.3120225667953491,-1.2713210582733154,2.738966703414917
1780528907821087200,3.442087158203125,-1.4508862495422363,-0.1867477297782898,2.8874073028564453
1780528907831158000,3.452157958984375,-1.357512354850769,0.2825157940387726,2.829946517944336
1780528907861340000,3.48233984375,0.8092401623725891,-0.7110779285430908,3.1004912853240967
1780528907871380200,3.492380126953125,0.3902548849582672,-0.9624691009521484,2.3989901542663574
1780528907881451000,3.502450927734375,0.3854664862155914,-0.7996633648872375,2.0470423698425293
1780528907891552300,3.51255224609375,0.0766144543886184,-0.2346317619085312,1.6855180263519287
1780528907901623300,3.522623291015625,-0.059855043888092,0.1843535304069519,1.0438719987869265
1780528907911694000,3.532694091796875,0.1963245421648025,0.2059013396501541,0.7445967197418213
1780528907982403300,3.6034033203125,0.6392518281936646,0.4955997467041015,0.3902548849582672
1780528908042858500,3.6638583984375,0.5722141861915588,0.3926490843296051,0.1604115068912506
1780528908093304000,3.714303955078125,-0.1221042871475219,-0.1699883192777633,0.4094084799289703
1780528908103405300,3.7244052734375,-0.4572925269603729,-0.241814374923706,0.4668693244457245
1780528908113506800,3.7345068359375,-0.4261679053306579,-0.3280056416988373,0.6655880808830261
1780528908123577600,3.74457763671875,-0.6703764796257019,-0.3878606855869293,0.6200982332229614
1780528908133678800,3.754678955078125,-0.5889736413955688,-0.1891419291496276,0.6751648783683777
1780528908143780000,3.764780029296875,-0.8667010068893433,0.0239420160651206,0.7876923680305481
1780528908153851000,3.774850830078125,-0.8403648138046265,0.0383072271943092,1.113303780555725
1780528908163921700,3.784921630859375,-0.7038952708244324,-0.1244984865188598,1.5418659448623655
1780528908174023200,3.795023193359375,-0.7254431247711182,0.2082955539226532,1.235408067703247
1780528908184094000,3.805093994140625,-0.8978256583213806,0.5770025849342346,0.933738648891449
1780528908194195200,3.8151953125,-0.9026140570640564,0.7350199222564697,0.9720458984375
1780528908204266000,3.825265869140625,-0.6631938815116882,0.4620809257030487,0.7637503147125244
1780528908214367200,3.8353671875,-0.706289529800415,0.1795651316642761,0.4740519225597381
1780528908224438000,3.84543798828125,-0.4572925269603729,0.1412578970193863,0.454898327589035
1780528908234570000,3.855570068359375,-0.5793967843055725,0.1675941199064254,0.4620809257030487
1780528908244671200,3.865671142578125,-0.5171475410461426,0.2035071402788162,0.3998316824436188
1780528908315411000,3.936410888671875,0.4094084799289703,-1.434126853942871,1.3934253454208374
1780528908386059300,4.007059326171875,0.586579442024231,-0.7757213711738586,-0.8954314589500427
1780528908406292500,4.02729248046875,1.273715257644653,-0.7996633648872375,-1.1516109704971311
1780528908416393700,4.037393798828125,1.3838485479354858,-0.48602294921875,-0.871489405632019
1780528908436596200,4.05759619140625,1.5466543436050415,-0.0646434426307678,-0.5051765441894531
1780528908497234700,4.118234619140625,1.9105730056762693,1.41257905960083,-2.1140801906585693
1780528908507305500,4.128305419921875,1.824381709098816,1.4532804489135742,-1.889025092124939
1780528908517437400,4.1384375,1.9512743949890137,1.460463047027588,-1.5538369417190552
1780528908547741400,4.168741455078125,1.3623007535934448,1.158793568611145,-1.86508309841156
1780528908557781500,4.178781494140625,1.1492167711257937,1.1013327836990356,-1.7980455160140991
1780528908567913500,4.18891357421875,0.7493851184844971,0.9864110946655272,-1.759738206863403
1780528908578014700,4.1990146484375,0.8738836050033569,0.9720458984375,-1.745373010635376
1780528908588116200,4.2091162109375,0.6224924325942993,0.8643068075180054,-1.7142484188079834
1780528908598217500,4.219217529296875,0.2082955539226532,1.0821791887283323,-1.501164436340332
1780528908608349200,4.22934912109375,-0.3495534360408783,1.2665326595306396,-1.2689268589019775
1780528908618450700,4.23945068359375,-0.7948749661445618,1.3503297567367554,-1.1468225717544556
1780528908628552000,4.249552001953125,-1.2497732639312744,1.0845733880996704,-1.3072341680526731
1780528908638683600,4.25968359375,-1.58256733417511,0.9289502501487732,-1.3263877630233765
1780528908648785200,4.26978515625,-2.142810583114624,0.8379706144332886,-1.1420341730117798
1780528908668987600,4.289987548828125,-2.1475989818573,0.9433154463768004,-0.9768342971801758
1780528908679089000,4.3000888671875,-2.346317768096924,0.7924807667732239,-0.9026140570640564
1780528908689190400,4.3101904296875,-2.454056739807129,0.6248866319656372,-0.7781155705451965
1780528908709393000,4.330392822265625,-2.583343744277954,0.4596867263317108,-0.4788403511047363
1780528908719494400,4.340494384765625,-2.6192567348480225,0.5027823448181152,-0.2801215946674347
1780528908739697000,4.36069677734375,-2.880224704742432,0.6488286852836609,-0.5291185975074768
1780528908749798100,4.370798095703125,-2.813186883926392,1.0797849893569946,-0.6416460275650024
1780528908759899600,4.380899658203125,-2.3104045391082764,0.811634361743927,0.2154781520366668
1780528908780163300,4.401163330078125,-1.522712230682373,-0.6703764796257019,0.3423708379268646
1780528908800365800,4.42136572265625,-1.0055646896362305,-0.1005564704537391,-1.0031704902648926
1780528908810497800,4.431497802734375,-0.8595184087753296,0.811634361743927,-1.2042834758758545
1780528908820599000,4.44159912109375,-0.5386953949928284,1.3551181554794312,-1.2497732639312744
1780528908830700300,4.4517001953125,-0.1364694982767105,1.33357036113739,-1.113303780555725
1780528908840801500,4.461801513671875,-0.1891419291496276,1.2497732639312744,-1.1228805780410769
1780528908850872300,4.471872314453125,0.4381389021873474,0.7110779285430908,-0.6248866319656372
1780528908860943400,4.481943359375,0.689530074596405,0.1364694982767105,-0.332794040441513
1780528908871044600,4.492044677734375,0.507570743560791,0.0478840321302413,-0.5793967843055725
1780528908881115400,4.502115478515625,0.5985504388809204,0.8690952062606812,-1.1971008777618408
1780528908891186200,4.512186279296875,0.2849099934101105,1.7980455160140991,-1.953668594360352
1780528908901287400,4.522287353515625,0.4429273009300232,2.013523578643799,-2.2673089504241943
1780528908911389000,4.532388916015625,1.1276689767837524,2.1140801906585693,-1.874659895896912
1780528908921459700,4.542459716796875,0.3495534360408783,0.5674257874488831,-1.357512354850769
1780528908931561000,4.55256103515625,0.4357447028160095,0.4022258818149566,-0.9768342971801758
1780528908941631700,4.5626318359375,-0.3902548849582672,0.8882488012313843,-1.6352397203445437
1780528908961803800,4.5828037109375,-0.9433154463768004,2.1763293743133545,-2.274491548538208
1780528908971905300,4.5929052734375,-0.2657563984394073,2.499546527862549,-1.900996208190918
1780528908992077300,4.613077392578125,-0.1867477297782898,0.6967126727104187,-1.3838485479354858
1780528909012188400,4.6331884765625,-1.5203180313110352,-0.2130839526653289,-1.5322890281677246
1780528909022259200,4.64325927734375,-2.121262788772583,0.507570743560791,-1.8411411046981807
1780528909032330000,4.653330078125,-2.698265314102173,1.3024457693099976,-1.7621324062347412
1780528909042400800,4.66340087890625,-3.1699230670928955,1.6424223184585571,-1.261744260787964
1780528909092876800,4.713876708984375,-3.8091750144958496,-0.4955997467041015,0.332794040441513
1780528909163525000,4.784525146484375,-1.764526605606079,-0.608127236366272,-0.1412578970193863
1780528909183697200,4.804697265625,-1.8579005002975464,-0.2130839526653289,0.5315127968788147
1780528909224072000,4.845072021484375,0.5961562395095825,-0.3256114423274994,-0.6751648783683777
1780528909264446700,4.88544677734375,1.5059528350830078,-0.2082955539226532,0.4979939460754394
1780528909274548000,4.8955478515625,1.2186486721038818,-0.1077390760183334,-0.2154781520366668
1780528909284649200,4.905649169921875,0.6224924325942993,1.012747287750244,-0.241814374923706
1780528909294720000,4.915719970703125,0.237025961279869,1.2856862545013428,0.7182605266571045
1780528909304729900,4.925729736328125,0.90979665517807,1.0462661981582642,1.5298948287963867
1780528909314861800,4.93586181640625,0.811634361743927,0.1460463106632232,1.1061211824417114
1780528909324932600,4.9459326171875,0.7206547260284424,-0.545877993106842,-0.2944868206977844
1780528909345074200,4.96607421875,1.7501614093780518,-0.5985504388809204,-1.625662922859192
1780528909355175400,4.976175537109375,1.1061211824417114,-0.4955997467041015,-0.9576807022094728
1780528909365276700,4.986276611328125,0.545877993106842,0.1795651316642761,0.1699883192777633
1780528909385449000,5.006448974609375,0.8331822156906128,1.2066776752471924,0.6200982332229614
1780528909395550200,5.01655029296875,0.5482721924781799,0.8978256583213806,-0.5482721924781799
1780528909405621000,5.02662109375,0.6727706789970398,0.6057330369949341,-0.8547300100326538
1780528909415691800,5.03669189453125,-0.0646434426307678,-0.1005564704537391,-0.4668693244457245
1780528909425732000,5.046732177734375,-0.4309563040733337,-0.3136404156684875,0.3064578175544739
1780528909435833300,5.056833251953125,-0.1221042871475219,-0.3112462162971496,0.4692635238170624
1780528909445934600,5.0669345703125,0.5530605912208557,-1.400607943534851,0.1675941199064254
1780528909466076400,5.087076416015625,1.7956513166427612,-0.071826048195362,-0.1556231081485748
1780528909486248400,5.10724853515625,-0.3806780576705932,0.7996633648872375,1.357512354850769
1780528909496319200,5.1173193359375,0.6584054827690125,0.569819986820221,1.280897855758667
1780528909506390000,5.12739013671875,1.2258312702178955,-0.8906430602073669,0.181959331035614
1780528909526562000,5.14756201171875,1.659181833267212,-2.5761611461639404,0.5602431893348694
1780528909536632800,5.1576328125,0.7661445140838623,-2.9735984802246094,1.900996208190918
1780528909546673200,5.167673095703125,2.482787132263184,-2.10210919380188,3.0190882682800293
1780528909566845400,5.187845458984375,1.134851574897766,1.2713210582733154,2.365471363067627
1780528909576946700,5.19794677734375,0.4381389021873474,1.7334020137786863,2.3965959548950195
1780528909607250700,5.228250732421875,3.576937437057495,-6.00226354598999,2.48757553100586
1780528909617352000,5.23835205078125,3.047818660736084,-6.01423454284668,2.7102363109588623
1780528909627422700,5.248422607421875,2.056619167327881,-2.63362193107605,3.3063924312591557
1780528909637493500,5.258493408203125,0.3519476354122162,0.1939303427934646,4.795586109161377
1780528909647564300,5.268564208984375,-0.1388636976480484,2.650381326675415,6.7492547035217285
1780528909657604600,5.2786044921875,-0.4812345504760742,3.004723072052002,6.418854713439941
1780528909718029300,5.339029296875,-3.9264907836914062,5.975927352905273,5.655104637145996
1780528909768414000,5.3894140625,1.6711528301239014,-0.7852981686592102,3.773261785507202
1780528909859112200,5.4801123046875,6.964732646942139,-3.3303346633911133,2.3319525718688965
1780528909919537000,5.540536865234375,2.583343744277954,2.9688100814819336,2.4803929328918457
1780528909949810400,5.570810546875,4.728548526763916,-5.51624059677124,4.4532151222229
1780528910010265900,5.631265869140625,-0.5841852426528931,-0.5722141861915588,0.8547300100326538
1780528910040508700,5.6615087890625,1.314416766166687,-5.322310447692871,1.498770236968994
1780528910060711400,5.68171142578125,0.4118026793003082,-0.7876923680305481,-0.6272808313369751
1780528910070782200,5.6917822265625,-1.0893617868423462,0.5339069962501526,-1.656787633895874
1780528910080853000,5.70185302734375,-2.671929121017456,1.1755530834197998,-1.7190368175506592
1780528910090923800,5.711923828125,-1.6831238269805908,1.314416766166687,-0.5578489899635315
1780528910100994600,5.72199462890625,-0.9792284965515136,-0.5123591423034668,0.7326257228851318
1780528910111126300,5.732126220703125,0.4716577231884002,-1.7860745191574097,0.4596867263317108
1780528910151440100,5.772440185546875,-1.845929503440857,1.280897855758667,-2.966415882110596
1780528910161541400,5.782541259765625,-2.647987127304077,3.706224203109741,-0.9361328482627868
1780528910171612200,5.792612060546875,-2.561795711517334,4.666299343109131,0.849941611289978
1780528910181713400,5.80271337890625,-1.2880805730819702,4.141968727111816,1.6352397203445437
1780528910191815000,5.81281494140625,0.5650315880775452,1.5155296325683594,0.5530605912208557
1780528910201885700,5.8228857421875,0.3830722570419311,-3.2537200450897217,-1.5155296325683594
1780528910242260500,5.863260498046875,-3.7158010005950928,2.454056739807129,1.3287819623947144
1780528910262402000,5.883402099609375,-2.3726539611816406,3.7876269817352295,1.623268723487854
1780528910272503300,5.89350341796875,-0.2250549644231796,-0.1125274822115898,-2.1499931812286377
1780528910282574000,5.903573974609375,2.636016130447388,-3.0095114707946777,-4.158728122711182
1780528910292675300,5.91367529296875,2.324769735336304,-3.744531393051148,-4.400542736053467
1780528910302746000,5.92374609375,-0.4285621047019958,-3.531447410583496,-2.7533318996429443
1780528910383434800,6.004434814453125,0.1843535304069519,-1.8986018896102903,1.3670891523361206
1780528910393536000,6.014535888671875,-0.1149216815829277,-2.6862943172454834,0.9816226959228516
1780528910403606800,6.024606689453125,0.1221042871475219,-2.322375535964966,-1.1420341730117798
1780528910413677600,6.034677490234375,1.0989385843276978,-0.0814028605818748,-3.3518824577331543
1780528910433819100,6.054819091796875,-0.0957680642604827,3.177105665206909,-3.9863457679748535
1780528910443890000,6.064889892578125,-0.7757213711738586,3.4117374420166016,-2.1164743900299072
1780528910453960700,6.074960693359375,0.0143652101978659,0.4261679053306579,0.5386953949928284
1780528910463970600,6.084970458984375,0.5123591423034668,-1.8602946996688845,2.595314741134644
1780528910474071800,6.09507177734375,0.0335188247263431,-2.269703149795532,0.8164227604866028
1780528910484173300,6.10517333984375,0.3208230137825012,-0.3208230137825012,-0.9289502501487732
1780528910494274600,6.115274658203125,-0.0454898327589035,2.073378562927246,-1.7286136150360107
1780528910504315000,6.12531494140625,-1.09654438495636,3.8498764038085938,-1.4963760375976562
1780528910514416000,6.135416015625,-1.381454348564148,4.685452938079834,-1.1037269830703735
1780528910544689700,6.165689697265625,-0.1795651316642761,-2.0207061767578125,-1.4963760375976562
1780528910554791000,6.175791015625,-0.3854664862155914,-2.056619167327881,-1.5059528350830078
1780528910564861700,6.18586181640625,-0.5937620401382446,-0.4118026793003082,-1.256955862045288
1780528910574902000,6.195902099609375,-1.874659895896912,1.2665326595306396,-1.1300631761550903
1780528910584942300,6.2059423828125,-2.8107926845550537,2.6575639247894287,-0.7876923680305481
1780528910595043600,6.216043701171875,-2.1595699787139893,3.0573954582214355,-0.7565677165985107
1780528910605144800,6.226144775390625,-0.8044517636299133,1.946485996246338,-1.4053963422775269
1780528910615246300,6.236246337890625,-0.3878606855869293,0.2442085742950439,-1.4963760375976562
1780528910705913900,6.326913818359375,-0.0407014302909374,-0.6655880808830261,0.3711012601852417
1780528910756359400,6.377359375,-0.7733271718025208,1.45806884765625,-0.7206547260284424
1780528910786633000,6.407633056640625,0.1939303427934646,-1.939303398132324,-1.192312479019165
1780528910796734200,6.417734130859375,0.5147533416748047,-1.7621324062347412,-0.3184288144111633
1780528910806835500,6.42783544921875,0.9074024558067322,-0.6320692300796509,0.1340752989053726
1780528910816937000,6.43793701171875,0.912190854549408,-0.0885854661464691,-0.1340752989053726
1780528910827038200,6.4480380859375,1.01753568649292,-0.0383072271943092,-0.5482721924781799
1780528910837109000,6.45810888671875,1.1875240802764893,-0.3495534360408783,-0.9457096457481384
1780528910847179800,6.4681796875,1.115697979927063,-0.7086837291717529,-0.8786720037460327
1780528910857311700,6.478311767578125,0.912190854549408,-0.706289529800415,-0.7134721279144287
1780528910867413000,6.4884130859375,0.5793967843055725,-0.5434837937355042,-0.8331822156906128
1780528910877514200,6.49851416015625,0.5530605912208557,-0.2442085742950439,-0.871489405632019
1780528910938061000,6.55906103515625,0.4381389021873474,0.3471592366695404,-0.1484405100345611
1780528910948132000,6.569132080078125,-0.1628057211637497,0.5123591423034668,-0.2944868206977844
1780528910958263800,6.579263916015625,-0.2298433631658554,0.6823474764823914,-0.5674257874488831
1780528910978466600,6.599466552734375,0.035913024097681,0.9026140570640564,-1.968033790588379
1780528910988537300,6.609537353515625,0.5315127968788147,-0.1364694982767105,-1.7884687185287476
1780528911039013400,6.660013427734375,-0.7350199222564697,0.0478840321302413,-1.400607943534851
1780528911049114600,6.670114501953125,-1.3192051649093628,0.6512228846549988,-1.4724340438842771
1780528911079418600,6.700418701171875,-0.9193734526634216,0.2561795711517334,-0.9888052940368652
1780528911089519900,6.710519775390625,-0.7781155705451965,0.2442085742950439,-0.2705447971820831
1780528911129925000,6.750925048828125,-1.278503656387329,1.1899182796478271,-0.4572925269603729
1780528911190533000,6.811533203125,0.48602294921875,-0.2322375625371933,-1.1540051698684692
1780528911200664800,6.821664794921875,0.3136404156684875,0.454898327589035,-0.9840168952941896
1780528911210766300,6.831766357421875,-0.1484405100345611,1.58256733417511,-0.9481038451194764
1780528911220898000,6.84189794921875,-0.6488286852836609,2.231395959854126,-0.9145850539207458
1780528911230999300,6.851999267578125,-0.3615244626998901,1.915361404418945,-1.0295066833496094
1780528911241100800,6.862100830078125,0.3088520169258117,1.1420341730117798,-1.0773907899856567
1780528911251202000,6.8722021484375,0.7829039692878723,0.102950669825077,-0.8523358106613159
1780528911261303300,6.88230322265625,0.8786720037460327,-0.272938996553421,-0.4357447028160095
1780528911271404800,6.89240478515625,0.7709329724311829,-0.5674257874488831,-0.507570743560791
1780528911281506000,6.902506103515625,1.0534487962722778,-0.2394201755523681,-1.3407529592514038
1780528911291637800,6.9126376953125,1.0295066833496094,0.6416460275650024,-2.056619167327881
1780528911301769700,6.922769775390625,0.6057330369949341,1.012747287750244,-1.845929503440857
1780528911311901400,6.9329013671875,0.2298433631658554,1.3694833517074585,-0.7948749661445618
1780528911322003000,6.9430029296875,0.1125274822115898,1.6280571222305298,0.3495534360408783
1780528911332104200,6.953104248046875,0.0622492432594299,0.7110779285430908,0.4955997467041015
1780528911342236000,6.96323583984375,0.5291185975074768,-0.2681505978107452,0.1125274822115898
1780528911372570400,6.9935703125,-0.8786720037460327,0.1436520963907241,-1.953668594360352
1780528911382672000,7.003671875,-1.072602391242981,0.7924807667732239,-1.9345149993896484
1780528911392773000,7.013773193359375,-1.3192051649093628,0.8451532125473022,-1.4437036514282229
1780528911402904800,7.02390478515625,-1.4628572463989258,0.3663128614425659,-1.0845733880996704
1780528911413006300,7.03400634765625,-1.766920804977417,0.1149216815829277,-1.0534487962722778
1780528911443279600,7.064279541015625,-2.4157495498657227,0.2130839526653289,-2.056619167327881
1780528911453411600,7.07441162109375,-2.834734916687012,0.3064578175544739,-1.7357962131500244
1780528911463452000,7.084451904296875,-2.956839084625244,0.2896983921527862,-1.1492167711257937
1780528911473583600,7.09458349609375,-3.066972494125366,0.090979665517807,-1.1851298809051514
1780528911483715600,7.104715576171875,-2.602497339248657,0.3423708379268646,-1.5514427423477173
1780528911493847300,7.114847412109375,-2.7964274883270264,0.7948749661445618,-1.6927006244659424
1780528911503887600,7.1248876953125,-3.1747114658355717,0.9481038451194764,-1.158793568611145
1780528911514019300,7.135019287109375,-3.270479440689087,0.7206547260284424,-0.1484405100345611
1780528911534283000,7.155282958984375,-3.1196448802948,0.9457096457481384,-0.667982280254364
1780528911554485800,7.17548583984375,-2.736572504043579,0.7541735172271729,-0.9864110946655272
1780528911564617500,7.185617431640625,-2.4612393379211426,1.1635819673538208,-0.1604115068912506
1780528911584820200,7.2058203125,-2.22660756111145,1.2114660739898682,0.1604115068912506
1780528911594952000,7.215951904296875,-2.1739351749420166,0.7398083209991455,-0.1580173075199127
1780528911615185200,7.23618505859375,-2.276885747909546,-0.8355764150619507,-0.1149216815829277
1780528911625286400,7.246286376953125,-1.4269442558288574,-0.5674257874488831,-0.2561795711517334
1780528911645489200,7.2664892578125,-2.0470423698425293,0.5339069962501526,-0.5937620401382446
1780528911655620900,7.276620849609375,-1.5658079385757446,0.7326257228851318,0.2801215946674347
1780528911665752800,7.2867529296875,-1.194706678390503,0.2537853717803955,0.7996633648872375
1780528911675854000,7.29685400390625,-1.01753568649292,-0.7876923680305481,0.5386953949928284
1780528911685955600,7.30695556640625,-0.3615244626998901,-1.4317326545715332,-0.1771709322929382
1780528911696087300,7.31708740234375,-0.8403648138046265,-0.5123591423034668,-0.5650315880775452
1780528911706188500,7.3271884765625,-1.6519991159439087,0.3854664862155914,-0.4740519225597381
1780528911716290000,7.3372900390625,-1.259350061416626,1.0845733880996704,0.1675941199064254
1780528911726360800,7.34736083984375,-1.072602391242981,0.2130839526653289,0.2298433631658554
1780528911736492500,7.357492431640625,-0.629675030708313,-0.5003881454467773,-0.1292868852615356
1780528911746593800,7.36759375,-0.6200982332229614,-0.5602431893348694,-0.3399766385555267
1780528911756725800,7.377725830078125,0.332794040441513,0.0574608407914638,0.2681505978107452
1780528911766857500,7.387857421875,-0.3974374830722809,0.4501099288463592,1.0103530883789062
1780528911787090700,7.408090576171875,-0.5530605912208557,0.871489405632019,0.727837324142456
1780528911807293400,7.42829345703125,-0.4644751250743866,0.0742202550172805,-0.181959331035614
1780528911878124500,7.49912451171875,1.039083480834961,-0.3471592366695404,-0.3902548849582672
1780528911888195300,7.5091953125,1.0534487962722778,-0.6991068720817566,-0.9648633003234864
1780528911938732500,7.559732666015625,0.8882488012313843,0.1556231081485748,-0.5626373887062073
1780528911948833800,7.569833740234375,1.8938134908676147,-0.706289529800415,-0.5674257874488831
1780528911958935300,7.579935302734375,1.1994950771331787,-1.1994950771331787,0.0694318488240242
1780528911969036500,7.59003662109375,1.09654438495636,-0.0407014302909374,1.522712230682373
1780528911979137800,7.6001376953125,0.304063618183136,0.5363011956214905,1.5682021379470823
1780528911989239000,7.610239013671875,0.4788403511047363,0.3806780576705932,0.6488286852836609
1780528911999340500,7.620340576171875,0.2777273952960968,-0.3758896589279175,0.2442085742950439
1780528912039776300,7.6607763671875,-0.0407014302909374,-0.9313444495201112,0.1292868852615356
1780528912049877500,7.67087744140625,-0.1125274822115898,-0.5530605912208557,-0.5722141861915588
1780528912059979000,7.68097900390625,0.4764461517333984,-0.332794040441513,-0.1340752989053726
1780528912070080300,7.691080322265625,0.5195417404174805,0.0622492432594299,0.7350199222564697
1780528912080212000,7.7012119140625,0.1987187415361404,-0.5099649429321289,1.1420341730117798
1780528912090313500,7.7113134765625,0.4213795065879822,-1.400607943534851,0.5626373887062073
1780528912110546400,7.73154638671875,-0.102950669825077,-1.3192051649093628,0.3112462162971496
1780528912120678400,7.741678466796875,-0.5985504388809204,-0.9002198576927185,0.6967126727104187
1780528912130718700,7.75171875,-0.5410895943641663,-1.273715257644653,1.4532804489135742
1780528912140789500,7.76178955078125,0.0766144543886184,-0.8595184087753296,2.6408045291900635
1780528912191143400,7.812143310546875,-1.37906014919281,-0.871489405632019,3.045424461364746
1780528912251690200,7.872690185546875,-0.1795651316642761,-2.31758713722229,5.60722017288208
1780528912261761000,7.882760986328125,0.9528923034667968,-3.1220390796661377,5.595249176025391
1780528912271801300,7.89280126953125,0.5937620401382446,-3.3231520652771,5.123591423034668
1780528912281872100,7.9028720703125,0.237025961279869,-2.5019407272338867,4.580107688903809
1780528912291943000,7.91294287109375,-0.9648633003234864,-0.6607996821403503,4.73573112487793
1780528912301983200,7.922983154296875,-1.9249382019042969,0.706289529800415,5.233725070953369
1780528912372509400,7.993509521484375,1.8171991109848025,-2.5258827209472656,3.584120035171509
1780528912392620500,8.01362060546875,1.2066776752471924,0.0167594123631715,4.697423934936523
1780528912402691300,8.02369140625,0.5650315880775452,0.7493851184844971,5.03021764755249
1780528912412762000,8.03376220703125,0.5793967843055725,0.706289529800415,5.13316822052002
1780528912422802400,8.043802490234375,0.7110779285430908,0.0383072271943092,5.094861030578613
1780528912513622800,8.134622802734375,1.6855180263519287,-2.47560453414917,3.5960910320281982
1780528912533764400,8.154764404296875,-0.4213795065879822,0.1340752989053726,2.894589900970459
1780528912543804700,8.1648046875,-0.454898327589035,1.158793568611145,3.998316764831543
1780528912553906000,8.174906005859375,0.8379706144332886,-1.1013327836990356,2.7102363109588623
1780528912574017000,8.19501708984375,1.6903064250946045,-4.129997730255127,-0.2346317619085312
1780528912594189000,8.21518896484375,1.01753568649292,-1.2976573705673218,0.5195417404174805
1780528912604290300,8.225290283203124,0.0742202550172805,-0.3399766385555267,1.259350061416626
1780528912614391800,8.235391845703125,-0.9911994934082032,0.569819986820221,1.3455413579940796
1780528912624493000,8.2454931640625,-2.2002713680267334,0.2681505978107452,0.5985504388809204
1780528912695019300,8.316019287109375,-3.7277719974517822,-0.0383072271943092,-0.4740519225597381
1780528912725292500,8.34629248046875,-0.1005564704537391,4.529829502105713,-1.4915876388549805
1780528912735363300,8.35636328125,-1.1755530834197998,2.7078421115875244,-1.5083470344543457
1780528912745434000,8.36643408203125,-0.237025961279869,-1.0079588890075684,-0.4118026793003082
1780528912755535600,8.37653564453125,1.7166426181793213,-3.706224203109741,0.6129156351089478
1780528912765606400,8.3866064453125,1.235408067703247,-3.162740468978882,-0.0814028605818748
1780528912775707600,8.396707763671875,-1.4508862495422363,-0.1316810995340347,-1.6112977266311646
1780528912785778400,8.4067783203125,-3.2297780513763428,1.7573440074920654,-2.1475989818573
1780528912795849200,8.41684912109375,-4.197035789489746,3.663128614425659,-2.920926094055176
1780528912805950500,8.426950439453124,-3.569754838943481,4.153939723968506,-3.622427225112915
1780528912816052000,8.437052001953125,-1.0055646896362305,2.252943754196167,-3.098097085952759
1780528912826122800,8.447122802734375,0.4405331015586853,0.2226607650518417,-1.036689281463623
1780528912836193500,8.457193603515625,1.953668594360352,-1.8842366933822632,1.4772224426269531
1780528912866436400,8.487436279296874,-2.08056116104126,1.1252747774124146,-1.8100165128707888
1780528912876537900,8.497537841796875,-4.683058738708496,4.474762916564941,-2.829946517944336
1780528912886608600,8.507608642578125,-4.8051629066467285,5.918466567993164,-2.8395233154296875
1780528912896710000,8.5177099609375,-2.2002713680267334,5.315127849578857,-2.118868589401245
1780528912906811100,8.52781103515625,0.3399766385555267,3.050212860107422,-1.460463047027588
1780528912916912400,8.537912353515624,2.736572504043579,-0.8355764150619507,-0.8667010068893433
1780528912926983200,8.547983154296874,2.3750481605529785,-3.361459255218506,0.1747767180204391
1780528912937054200,8.55805419921875,1.845929503440857,-2.8395233154296875,1.8339585065841677
1780528912947125000,8.568125,-0.2777273952960968,-0.5913678407669067,3.114856481552124
1780528912957226200,8.578226318359375,-3.1004912853240967,2.547430515289306,1.2545616626739502
1780528912967327500,8.588327392578124,-4.209006786346436,4.728548526763916,-1.965639591217041
1780528912977428700,8.5984287109375,-2.0015525817871094,4.726154327392578,-4.299986362457275
1780528912987469000,8.608468994140624,0.4764461517333984,1.920149803161621,-5.212177276611328
1780528913017773000,8.63877294921875,1.213860273361206,-3.114856481552124,2.0901381969451904
1780528913027874300,8.648874267578124,-0.4932055473327636,-1.5729905366897583,3.1220390796661377
1780528913037945000,8.658945068359374,-1.9057846069335935,1.455674648284912,1.0103530883789062
1780528913048016100,8.66901611328125,-1.8052281141281128,3.8810009956359854,-1.292868971824646
1780528913118603300,8.739603271484375,-0.1795651316642761,-0.4764461517333984,0.3615244626998901
1780528913128674000,8.749674072265625,-1.436521053314209,0.9265560507774352,-1.5897499322891235
1780528913138775300,8.759775390625,-1.867477297782898,1.4317326545715332,-2.604891538619995
1780528913148876500,8.76987646484375,-0.8140285611152649,1.4317326545715332,-2.31758713722229
1780528913158977800,8.779977783203124,0.3806780576705932,1.0869675874710083,-1.278503656387329
1780528913169079300,8.790079345703125,0.569819986820221,-0.0023942016996443,-0.7565677165985107
1780528913179180500,8.8001806640625,0.4453215301036834,-1.0223240852355957,-0.8762778043746948
1780528913189251300,8.810251220703124,0.332794040441513,-1.0031704902648926,-0.9624691009521484
1780528913199322000,8.820322021484374,-0.4668693244457245,-0.6057330369949341,-0.5434837937355042
1780528913209423400,8.83042333984375,-1.1755530834197998,0.1005564704537391,0.1053448766469955
1780528913219524900,8.84052490234375,-1.2425906658172607,0.7422025203704834,1.0534487962722778
1780528913229595600,8.850595703125,-0.4381389021873474,0.7422025203704834,1.0031704902648926
1780528913259808000,8.88080810546875,1.173158884048462,-0.6727706789970398,-1.5298948287963867
1780528913269878800,8.890878662109374,0.6919242739677429,-0.5530605912208557,-0.7661445140838623
1780528913279949600,8.900949462890624,-0.3232172429561615,-0.5195417404174805,0.2920926213264465
1780528913289990000,8.910989990234375,-0.2466027736663818,-0.5027823448181152,0.9576807022094728
1780528913300060700,8.921060791015625,0.1292868852615356,-0.2059013396501541,-0.5099649429321289
1780528913310131500,8.93113134765625,-0.059855043888092,-0.4046200811862945,-1.0414776802062988
1780528913320232700,8.941232666015624,-0.102950669825077,-0.3663128614425659,-0.7948749661445618
1780528913330334200,8.951334228515625,0.332794040441513,-0.0790086537599563,-0.181959331035614
1780528913340374500,8.96137451171875,0.5099649429321289,-0.2394201755523681,0.237025961279869
1780528913370587000,8.9915869140625,0.0550666376948356,-0.3303998410701751,0.1125274822115898
1780528913431164200,9.0521640625,-0.3423708379268646,0.3663128614425659,0.272938996553421
1780528913441265400,9.062265380859374,-0.5506663918495178,0.4501099288463592,0.0
1780528913451367000,9.072366943359375,-0.3519476354122162,0.569819986820221,-0.5817909836769104
1780528913501720800,9.122720947265623,-0.1532289087772369,0.5961562395095825,-0.0622492432594299
1780528913511822000,9.132822021484374,-0.3351882398128509,0.3854664862155914,-0.3591302633285522
1780528913521923600,9.142923583984375,-0.1915361285209655,0.3423708379268646,-0.8331822156906128
1780528913531994400,9.152994384765623,-0.4118026793003082,0.5003881454467773,-1.403002142906189
1780528913542065200,9.163065185546875,-0.3591302633285522,0.6607996821403503,-1.5203180313110352
1780528913562267600,9.183267578125,-0.0287304203957319,1.1779472827911377,-0.6751648783683777
1780528913572369200,9.193369140625,0.1244984865188598,0.8355764150619507,-0.42377370595932
1780528913582440000,9.20343994140625,0.2705447971820831,0.545877993106842,-0.5027823448181152
1780528913592541200,9.213541259765623,0.4165911078453064,0.4165911078453064,-1.036689281463623
1780528913602642400,9.223642333984374,-0.0526724383234977,0.2298433631658554,-1.8124107122421265
1780528913612743700,9.23374365234375,-0.0694318488240242,0.2561795711517334,-2.0661959648132324
1780528913622814500,9.243814453125,0.1125274822115898,0.181959331035614,-1.8938134908676147
1780528913632916000,9.253916015625,0.2753331959247589,0.0933738648891449,-1.45806884765625
1780528913673260000,9.294260009765624,0.7422025203704834,-0.5937620401382446,-1.158793568611145
1780528913683361500,9.304361572265623,0.8212111592292786,-0.6153098344802856,-1.479616641998291
1780528913693462800,9.314462890625,0.7350199222564697,-0.6847416758537292,-1.5873557329177856
1780528913703503000,9.324503173828123,0.6105214357376099,-0.2681505978107452,-1.4508862495422363
1780528913733776400,9.3547763671875,1.501164436340332,-0.2609679996967315,-0.9481038451194764
1780528913743878000,9.3648779296875,1.7405846118927002,-0.4453215301036834,-0.6655880808830261
1780528913753948700,9.37494873046875,1.3503297567367554,-0.4596867263317108,-0.2944868206977844
1780528913764050000,9.3850498046875,1.0606313943862915,-0.4189853072166443,-0.3998316824436188
1780528913784222000,9.405221923828124,0.4740519225597381,-0.2681505978107452,-1.3527239561080933
1780528913794292700,9.415292724609374,0.6248866319656372,0.0047884033992886,-1.194706678390503
1780528913804394200,9.425394287109375,0.5410895943641663,0.6943184733390808,-0.7254431247711182
1780528913824535800,9.445535888671875,-0.102950669825077,0.7230489253997803,-0.3280056416988373
1780528913834637000,9.455636962890624,-0.2585737705230713,0.7038952708244324,-0.586579442024231
1780528913844707800,9.465707763671874,0.0383072271943092,0.2442085742950439,-1.0295066833496094
1780528913874951000,9.495950927734375,-0.1843535304069519,-0.454898327589035,-1.0342950820922852
1780528913884991000,9.505990966796874,-0.569819986820221,0.1963245421648025,-0.7254431247711182
1780528913895092500,9.516092529296875,-0.7206547260284424,0.6224924325942993,-0.9313444495201112
1780528913905163300,9.526163330078123,-0.4764461517333984,0.9624691009521484,-1.486799240112305
1780528913915234000,9.536234130859375,-0.3399766385555267,1.1252747774124146,-1.6735470294952393
1780528913925304800,9.546304931640623,-0.3591302633285522,0.8140285611152649,-1.338358759880066
1780528913935375600,9.556375732421875,-0.9313444495201112,0.3495534360408783,-1.048660397529602
1780528913945446400,9.5664462890625,-1.3120225667953491,0.2466027736663818,-1.0606313943862915
1780528913955517200,9.57651708984375,-1.2497732639312744,0.5099649429321289,-1.3670891523361206
1780528913965649200,9.586649169921875,-1.7836803197860718,0.6105214357376099,-1.874659895896912
1780528913975750400,9.59675048828125,-1.874659895896912,0.9050082564353944,-2.319981336593628
1780528913985821200,9.6068212890625,-1.5179238319396973,1.2545616626739502,-2.655169725418091
1780528913995892000,9.61689208984375,-1.4844050407409668,1.3766659498214722,-2.5043349266052246
1780528914005962800,9.626962646484374,-1.436521053314209,1.1779472827911377,-1.6974890232086182
1780528914016064000,9.63706396484375,-1.3024457693099976,1.039083480834961,-1.0055646896362305
1780528914026165500,9.64716552734375,-1.7190368175506592,1.0247182846069336,-0.9648633003234864
1780528914046337500,9.667337646484375,-2.2649147510528564,1.5610195398330688,-2.7748796939849854
1780528914056438800,9.677438720703124,-2.0638017654418945,1.5634137392044067,-2.681505918502808
1780528914066540300,9.687540283203123,-1.3072341680526731,1.2066776752471924,-1.7357962131500244
1780528914086681900,9.707681884765623,-1.0271124839782717,0.4979939460754394,-1.3742717504501345
1780528914106854000,9.72785400390625,-1.5921441316604614,0.6057330369949341,-2.2361843585968018
1780528914116955100,9.737955078125,-1.6903064250946045,1.0199298858642578,-1.759738206863403
1780528914127056600,9.748056640625,-2.2218191623687744,1.01753568649292,-1.4939818382263184
1780528914147259100,9.768259033203124,-0.7182605266571045,0.1604115068912506,-2.183511972427368
1780528914157269000,9.77826904296875,-0.2106897532939911,-0.1268926858901977,-1.9560627937316892
1780528914177502200,9.798502197265623,-1.4508862495422363,0.0071826050989329,-0.1173158809542656
1780528914197704700,9.81870458984375,-1.4221558570861816,0.0430956296622753,-0.8044517636299133
1780528914207806000,9.828805908203124,-0.4285621047019958,-0.3687070608139038,-1.1899182796478271
1780528914217876700,9.838876708984374,-0.0766144543886184,-0.7110779285430908,-1.09654438495636
1780528914227978200,9.848978271484375,-0.2968810200691223,-0.7422025203704834,-0.7972691655158997
1780528914248150300,9.869150390625,0.3687070608139038,-0.4501099288463592,0.8044517636299133
1780528914268353000,9.88935302734375,-0.8259995579719543,-0.5722141861915588,0.0
1780528914298656800,9.91965673828125,-0.8571242094039917,0.3088520169258117,0.090979665517807
1780528914308758300,9.92975830078125,-0.706289529800415,0.727837324142456,0.7805097699165344
1780528914318798600,9.939798583984375,-0.3830722570419311,1.1276689767837524,0.8188169598579407
1780528914339001000,9.9600009765625,-0.4070142805576324,0.5410895943641663,0.059855043888092
1780528914349102300,9.970102294921874,-1.01753568649292,0.304063618183136,-0.2489969730377197
1780528914369274600,9.990274658203123,-1.2761094570159912,-0.1436520963907241,0.3303998410701751
1780528914379375900,10.0003759765625,-0.5219359993934631,0.7182605266571045,0.5913678407669067
1780528914389507600,10.010507568359374,-0.1412578970193863,0.1915361285209655,0.3758896589279175
1780528914399609000,10.020609130859375,0.3160346150398254,0.0047884033992886,-0.0407014302909374
1780528914409710300,10.03071044921875,-0.4644751250743866,-0.0861912593245506,-0.4501099288463592
1780528914419842000,10.040842041015624,-1.3455413579940796,-0.0023942016996443,-0.1412578970193863
1780528914429943600,10.050943603515623,-0.8978256583213806,-0.237025961279869,0.4979939460754394
1780528914440014300,10.061014404296875,-1.1875240802764893,-0.8858546018600464,0.0287304203957319
1780528914450146000,10.07114599609375,-1.5418659448623655,-0.0454898327589035,-1.2330138683319092
1780528914460247600,10.08124755859375,-0.7805097699165344,0.9864110946655272,-1.8818424940109253
1780528914470348800,10.091348876953123,0.0742202550172805,1.05105459690094,-1.5418659448623655
1780528914490551300,10.11155126953125,0.241814374923706,-0.6033388376235962,-0.4429273009300232
1780528914500622000,10.1216220703125,0.4453215301036834,-0.6344634294509888,-0.9816226959228516
1780528914510754000,10.131754150390623,-0.0550666376948356,-0.0023942016996443,-1.1563993692398071
1780528914581341200,10.202341064453124,1.9800047874450684,-0.1005564704537391,1.070208191871643
1780528914652111400,10.273111328125,0.3687070608139038,-1.158793568611145,2.568978309631348
1780528914662182100,10.28318212890625,0.5386953949928284,-0.7565677165985107,3.4763808250427246
1780528914672314000,10.293314208984375,0.8810662031173706,-1.314416766166687,3.864241600036621
1780528914682445800,10.30344580078125,0.6344634294509888,-1.4413094520568848,3.679888010025024
1780528914692547300,10.31354736328125,0.071826048195362,-1.1037269830703735,3.485957622528076
1780528914702618000,10.3236181640625,-0.7445967197418213,-0.3160346150398254,3.845088005065918
1780528914712749800,10.333749755859374,-1.1420341730117798,0.3280056416988373,4.32871675491333
1780528914722881800,10.3438818359375,-1.702277421951294,-0.5339069962501526,4.247313976287842
1780528914743114800,10.36411474609375,-0.545877993106842,-2.5546131134033203,4.7405195236206055
1780528914763317500,10.3843173828125,-0.2059013396501541,-1.558625340461731,3.785232782363892
1780528914773449500,10.394449462890623,-0.5386953949928284,-1.81959331035614,3.110068082809448
1780528914783581200,10.404581298828123,-0.3375824391841888,-1.680729627609253,2.880224704742432
1780528914793682400,10.414682373046874,0.8451532125473022,-1.702277421951294,3.2321722507476807
1780528914803722800,10.42472265625,0.9002198576927185,-2.006340980529785,4.558559894561768
1780528914813885200,10.43488525390625,0.7541735172271729,-1.6855180263519287,6.064512729644775
1780528914823986400,10.444986328125,0.0311246216297149,-1.498770236968994,6.727706909179688
1780528914854321000,10.47532080078125,0.3399766385555267,-0.2753331959247589,4.472368717193604
1780528914864422100,10.485422119140624,0.0646434426307678,-0.4453215301036834,4.517858505249023
1780528914945354800,10.566354736328124,2.231395959854126,-0.9026140570640564,2.58813214302063
1780528914975689200,10.596689208984374,2.4468741416931152,-0.1532289087772369,3.734954595565796
1780528914985821200,10.6068212890625,1.939303398132324,-0.0023942016996443,4.752490520477295
1780528914995922400,10.61692236328125,1.4652514457702637,-0.0861912593245506,5.489904403686523
1780528915006054400,10.627054443359375,1.1061211824417114,-0.0646434426307678,5.820304393768311
1780528915016155600,10.63715576171875,1.5610195398330688,-0.3447650372982025,5.238513469696045
1780528915026287400,10.647287353515624,2.085349798202514,-0.3782838582992553,3.952826976776123
1780528915036388900,10.657388916015623,1.5897499322891235,-0.6775590777397156,2.913743495941162
1780528915056591400,10.67759130859375,1.4245500564575195,0.0023942016996443,3.509899616241455
1780528915066692900,10.68769287109375,0.2849099934101105,-0.2346317619085312,4.5825018882751465
1780528915107098000,10.72809814453125,-0.1651999205350875,-1.280897855758667,-0.7637503147125244
1780528915117199400,10.738199462890623,-0.1723825186491012,-1.173158884048462,-1.0103530883789062
1780528915137402000,10.758402099609375,0.2585737705230713,-1.273715257644653,1.139639973640442
1780528915147533800,10.768533935546875,-0.2106897532939911,-1.4245500564575195,1.900996208190918
1780528915167736600,10.788736572265623,0.1963245421648025,-1.4844050407409668,0.3519476354122162
1780528915238537200,10.859537109375,2.671929121017456,-0.6607996821403503,-1.2090718746185305
1780528915248669200,10.869669189453123,-1.5682021379470823,1.9369091987609863,-0.0335188247263431
1780528915258770400,10.8797705078125,-1.8507179021835327,4.043806552886963,0.6560112833976746
1780528915278973000,10.899972900390624,-2.669534921646118,2.6192567348480225,-0.332794040441513
1780528915289074400,10.910074462890623,-2.5330653190612797,2.4205379486083984,-0.3830722570419311
1780528915299145200,10.920145263671875,1.0438719987869265,-0.2896983921527862,-0.8140285611152649
1780528915309216000,10.930216064453123,4.074931144714356,-3.3925838470458984,-1.4963760375976562
1780528915319286800,10.940286865234375,3.1675288677215576,-4.0964789390563965,-2.655169725418091
1780528915329357600,10.950357666015623,2.1499931812286377,-3.6727054119110103,-2.602497339248657
1780528915339428400,10.960428466796875,-0.706289529800415,-1.556231141090393,-1.0797849893569946
1780528915349529600,10.970529541015624,-6.701370716094971,2.626439332962036,0.1867477297782898
1780528915359600400,10.980600341796874,-7.714118003845215,6.435614109039307,1.094150185585022
1780528915369640700,10.990640625,-5.011064052581787,6.165069580078125,0.48602294921875
1780528915399883800,11.0208837890625,0.3878606855869293,-6.828263282775879,0.4285621047019958
1780528915409954600,11.03095458984375,-1.9249382019042969,-4.685452938079834,0.0814028605818748
1780528915420025300,11.041025390625,-3.5482068061828613,-0.1628057211637497,-1.6112977266311646
1780528915430126600,11.051126708984375,-4.244919776916504,3.375824451446533,-2.681505918502808
1780528915440197400,11.061197265625,-4.285621166229248,4.7189717292785645,-3.667917013168335
1780528915450237700,11.07123779296875,-1.941697597503662,4.0964789390563965,-3.541024208068848
1780528915460247600,11.08124755859375,0.9241618514060974,1.5873557329177856,-0.8307880163192749
1780528915470348800,11.091348876953123,1.6855180263519287,-1.3479355573654177,4.043806552886963
1780528915480450000,11.101449951171874,1.0342950820922852,-4.199429988861084,6.888118267059326
1780528915510601500,11.1316015625,-2.217030763626098,2.7724854946136475,-4.426878929138184
1780528915520672300,11.14167236328125,-2.956839084625244,3.9408559799194336,-4.273650169372559
1780528915530743000,11.151742919921874,-1.3096283674240112,3.181894063949585,-2.765302896499634
1780528915540783400,11.161783447265623,0.8619126081466675,1.134851574897766,-0.3064578175544739
1780528915550884600,11.171884521484374,2.2361843585968018,-1.0773907899856567,1.829170107841492
1780528915561016600,11.1820166015625,2.492363929748535,-2.779668092727661,2.7317841053009038
1780528915571087400,11.19208740234375,1.338358759880066,-2.9472622871398926,0.9840168952941896
1780528915581158100,11.202158203125,-0.727837324142456,-1.5466543436050415,-1.8483237028121948
1780528915591229000,11.21222900390625,-2.315192937850952,0.4908113479614258,-3.409343242645264
1780528915631573200,11.2525732421875,1.659181833267212,0.1675941199064254,0.9864110946655272
1780528915641674500,11.262674560546875,1.8052281141281128,-1.0989385843276978,1.7501614093780518
1780528915651714800,11.27271484375,0.42377370595932,-1.599326729774475,0.4022258818149566
1780528915661816000,11.282816162109375,-0.9313444495201112,-1.192312479019165,-1.2665326595306396
1780528915671886800,11.292886962890623,-1.0869675874710083,-0.4094084799289703,-1.3694833517074585
1780528915681988000,11.302988037109374,-0.3854664862155914,0.9576807022094728,-0.7110779285430908
1780528915702129700,11.323129638671874,-0.2082955539226532,1.2210428714752195,-0.8044517636299133
1780528915712200400,11.333200439453124,0.1173158809542656,0.3734954595565796,-0.950498104095459
1780528915732403200,11.3534033203125,0.5626373887062073,-0.7757213711738586,-1.5514427423477173
1780528915742504400,11.36350439453125,-1.1109095811843872,-1.2761094570159912,-1.6950948238372805
1780528915752606000,11.37360595703125,-0.6775590777397156,-1.0247182846069336,-0.9816226959228516
1780528915762707200,11.383707275390623,0.181959331035614,-0.150834709405899,-0.5506663918495178
1780528915772778000,11.393778076171875,-0.5171475410461426,0.2466027736663818,-1.0534487962722778
1780528915792980500,11.41398046875,0.4022258818149566,0.4022258818149566,-0.6488286852836609
1780528915813152800,11.43415283203125,0.933738648891449,0.0790086537599563,-0.2226607650518417
1780528915823223600,11.4442236328125,-0.4070142805576324,0.0023942016996443,-0.4189853072166443
1780528915833263900,11.454263916015623,-1.0414776802062988,-0.1292868852615356,-0.4094084799289703
1780528915843334700,11.464334716796875,-0.5722141861915588,-0.0023942016996443,-0.586579442024231
1780528915853405400,11.474405517578123,0.0215478148311376,0.2082955539226532,-1.113303780555725
1780528915873577500,11.494577392578124,-0.0167594123631715,0.1580173075199127,-1.0247182846069336
1780528915893719000,11.514718994140624,0.4716577231884002,0.1221042871475219,-0.727837324142456
1780528915913891300,11.534891357421875,-0.768538773059845,0.2178723514080047,-0.5123591423034668
1780528915954235400,11.5752353515625,-0.2825157940387726,0.0550666376948356,-0.9959878921508788
1780528915964306200,11.58530615234375,-0.3830722570419311,0.090979665517807,-1.256955862045288
1780528915984448000,11.605447998046875,-0.1125274822115898,-0.1077390760183334,-1.168370485305786
1780528916004650500,11.625650390625,0.6248866319656372,-0.3902548849582672,-1.2832920551300049
1780528916055126500,11.67612646484375,0.2561795711517334,-0.181959331035614,-1.235408067703247
1780528916125713700,11.746713623046874,0.933738648891449,-0.5841852426528931,-1.1563993692398071
1780528916155987200,11.7769873046875,1.5131354331970217,-0.0167594123631715,-1.4484920501708984
1780528916186260700,11.8072607421875,1.0055646896362305,0.1628057211637497,-1.577778935432434
1780528916196331500,11.81733154296875,0.8236053586006165,-0.1843535304069519,-1.1803414821624756
1780528916206402300,11.82740234375,0.5817909836769104,-0.150834709405899,-0.6751648783683777
1780528916226543900,11.8475439453125,-0.0790086537599563,0.3447650372982025,-1.2761094570159912
1780528916236584200,11.857584228515623,-0.6751648783683777,0.5961562395095825,-1.2880805730819702
1780528916246655000,11.867655029296875,-0.5530605912208557,0.8451532125473022,-0.9385270476341248
1780528916337292000,11.9582919921875,-1.4700398445129397,0.1125274822115898,-0.9816226959228516
1780528916387737600,12.008737548828124,-1.3838485479354858,0.3136404156684875,-0.646434485912323
1780528916397839000,12.018839111328123,-0.8762778043746948,0.1221042871475219,-0.3184288144111633
1780528916407940400,12.0289404296875,-0.5817909836769104,-0.1795651316642761,-0.4884171485900879
1780528916417980700,12.038980712890623,-0.5386953949928284,-0.4094084799289703,-1.0438719987869265
1780528916428051500,12.049051513671875,-0.646434485912323,-0.0861912593245506,-1.2832920551300049
1780528916438152700,12.059152587890624,-1.0989385843276978,0.4405331015586853,-1.213860273361206
1780528916448223500,12.069223388671874,-0.9672574996948242,1.0223240852355957,-1.0797849893569946
1780528916458294300,12.079294189453124,-1.1228805780410769,1.4724340438842771,-1.2114660739898682
1780528916468365000,12.089364990234374,-1.0103530883789062,1.3886369466781616,-1.381454348564148
1780528916478435800,12.099435791015624,-1.3766659498214722,1.2258312702178955,-1.4532804489135742
1780528916488506600,12.109506591796874,-1.213860273361206,0.974440097808838,-1.1061211824417114
1780528916498577400,12.119577392578124,-0.5386953949928284,0.7733271718025208,-0.6967126727104187
1780528916508648400,12.1296484375,0.0,0.7158663272857666,-0.5746083855628967
1780528916518719200,12.13971923828125,0.2657563984394073,0.395043283700943,-0.6991068720817566
1780528916528790000,12.1497900390625,0.2035071402788162,0.4213795065879822,-0.8403648138046265
1780528916538799600,12.159799560546874,-0.1484405100345611,0.7493851184844971,-1.2330138683319092
1780528916548901000,12.169901123046875,-0.4357447028160095,0.7182605266571045,-1.3623007535934448
1780528916569073200,12.1900732421875,-0.1987187415361404,0.5650315880775452,-1.173158884048462
1780528916579113500,12.200113525390623,-0.2537853717803955,0.7326257228851318,-0.993593692779541
1780528916599285500,12.220285400390624,-0.5099649429321289,1.292868971824646,-0.9409212470054626
1780528916629528600,12.250528564453123,-0.751779317855835,-0.0981622710824012,-1.5155296325683594
1780528916720226800,12.341226806640623,-2.5546131134033203,0.4381389021873474,-0.5219359993934631
1780528916740368400,12.361368408203123,-2.3271639347076416,-0.2920926213264465,-0.2082955539226532
1780528916760540400,12.38154052734375,-2.695871114730835,0.4908113479614258,0.1915361285209655
1780528916770611200,12.391611083984374,-2.4636335372924805,0.3711012601852417,0.7589619159698486
1780528916780682000,12.401681884765624,-2.808398485183716,-0.1316810995340347,0.5123591423034668
1780528916790752800,12.411752685546874,-2.875436305999756,0.0311246216297149,-0.5602431893348694
1780528916800823600,12.421823486328124,-3.4763808250427246,0.1915361285209655,-1.0773907899856567
1780528916810863900,12.43186376953125,-3.0406360626220703,0.0023942016996443,-0.7158663272857666
1780528916820934700,12.4419345703125,-2.1811177730560303,0.3902548849582672,-0.4429273009300232
1780528916861248500,12.48224853515625,-1.4628572463989258,-0.4165911078453064,1.3072341680526731
1780528916871288800,12.492288818359375,-1.4101848602294922,-0.3926490843296051,0.7182605266571045
1780528916881390000,12.50239013671875,-1.292868971824646,-0.5386953949928284,-0.8690952062606812
1780528916891460900,12.5124609375,-1.0869675874710083,0.0071826050989329,-1.939303398132324
1780528916921734100,12.542734130859374,-0.8259995579719543,0.0837970599532127,0.1077390760183334
1780528916931805200,12.55280517578125,-0.2130839526653289,0.059855043888092,0.2609679996967315
1780528916992321500,12.613321533203123,0.4094084799289703,0.993593692779541,0.3998316824436188
1780528917002422800,12.6234228515625,1.015141487121582,0.4429273009300232,-0.4620809257030487
1780528917012493600,12.63349365234375,1.9177556037902832,-0.4118026793003082,-0.8140285611152649
1780528917022594800,12.6435947265625,1.6376339197158811,-0.9816226959228516,-0.1771709322929382
1780528917032635100,12.65363525390625,1.0295066833496094,-0.706289529800415,0.6416460275650024
1780528917042736400,12.663736328125,0.9217676520347596,-0.8236053586006165,1.012747287750244
1780528917052838000,12.673837890625,0.6224924325942993,-0.2968810200691223,0.5195417404174805
1780528917062908700,12.68390869140625,0.6488286852836609,-0.9145850539207458,0.1795651316642761
1780528917072979500,12.6939794921875,-0.0957680642604827,-0.727837324142456,0.8858546018600464
1780528917083080700,12.704080810546875,-1.0199298858642578,0.6033388376235962,1.8770540952682493
1780528917093182000,12.714181884765624,-0.9217676520347596,1.1563993692398071,2.3965959548950195
1780528917123455500,12.74445556640625,0.7110779285430908,-0.6560112833976746,0.7948749661445618
1780528917133556700,12.754556640625,0.524330198764801,-0.7015010714530945,0.9888052940368652
1780528917143627500,12.76462744140625,-0.8212111592292786,-0.237025961279869,1.50355863571167
1780528917204174300,12.82517431640625,0.3495534360408783,0.1125274822115898,4.017470359802246
1780528917254711600,12.875711669921875,-0.1843535304069519,0.1268926858901977,5.56173038482666
1780528917355541800,12.976541748046875,-0.3782838582992553,0.0694318488240242,4.175487995147705
1780528917395947000,13.016947021484375,-0.3854664862155914,-2.2649147510528564,5.853823184967041
1780528917406048300,13.02704833984375,-0.0383072271943092,-2.169146776199341,5.537788391113281
1780528917416180000,13.037179931640624,0.569819986820221,-0.7924807667732239,4.618414878845215
1780528917426220300,13.04722021484375,0.3663128614425659,0.4764461517333984,3.84269380569458
1780528917436352300,13.057352294921875,-0.5482721924781799,0.6129156351089478,3.914519786834717
1780528917446453500,13.06745361328125,-0.6440402865409851,0.3399766385555267,4.948814868927002
1780528917456585200,13.077585205078124,-0.8643068075180054,0.3734954595565796,5.789179801940918
1780528917466656300,13.08765625,-1.1803414821624756,0.4620809257030487,5.640739440917969
1780528917517223700,13.1382236328125,-0.7445967197418213,1.072602391242981,3.8546648025512695
1780528917527355600,13.148355712890623,0.4094084799289703,0.5267243981361389,4.527435302734375
1780528917557659600,13.17865966796875,-1.7262194156646729,1.261744260787964,3.77565598487854
1780528917608227000,13.22922705078125,1.9512743949890137,-2.1356279850006104,2.959233283996582
1780528917648632600,13.269632568359375,-0.768538773059845,2.056619167327881,-0.2896983921527862
1780528917668804600,13.2898046875,0.6703764796257019,3.1507694721221924,0.2011129409074783
1780528917678905900,13.29990576171875,0.1364694982767105,-0.2082955539226532,0.6224924325942993
1780528917689007000,13.310007080078124,2.032677173614502,-2.7078421115875244,1.5179238319396973
1780528917739452700,13.36045263671875,-6.023811340332031,4.888959884643555,-1.1635819673538208
1780528917749584600,13.370584716796875,-4.254496574401856,5.322310447692871,-2.255337953567505
1780528917759686000,13.380685791015624,-1.7621324062347412,2.121262788772583,-3.2393548488616943
1780528917769817900,13.39081787109375,0.706289529800415,-0.9050082564353944,-2.695871114730835
1780528917779888600,13.400888671875,3.9671921730041504,-5.154716491699219,-0.4620809257030487
1780528917790020400,13.411020263671874,3.725377798080444,-5.702988624572754,1.759738206863403
1780528917810253600,13.431253662109375,-4.307168960571289,1.944091796875,0.5171475410461426
1780528917870800400,13.49180029296875,3.0190882682800293,-4.896142482757568,0.4285621047019958
1780528917891033600,13.51203369140625,-2.671929121017456,0.768538773059845,1.8267759084701536
1780528917901134800,13.522134765625,-5.183446884155273,5.224148273468018,-0.629675030708313
1780528917911236000,13.532236083984374,-4.220977783203125,6.900089263916016,-2.5306711196899414
1780528917921368000,13.5423681640625,-1.3766659498214722,5.600037574768066,-2.853888511657715
1780528917931469300,13.55246923828125,1.8171991109848025,2.4396915435791016,-0.9888052940368652
1780528917941440300,13.562440185546874,3.0813376903533936,-1.316810965538025,1.7046716213226318
1780528917951541500,13.57254150390625,2.60010313987732,-3.533841609954834,2.2625205516815186
1780528917961642800,13.582642822265624,0.8451532125473022,-3.011905670166016,-0.4788403511047363
1780528917971713500,13.592713623046874,-1.4460978507995603,-1.1971008777618408,-3.620033025741577
1780528918022250800,13.643250732421874,1.0869675874710083,0.6871358752250671,-0.8020575642585754
1780528918052493600,13.67349365234375,-0.5626373887062073,-1.5897499322891235,0.7757213711738586
1780528918062595000,13.683594970703124,-1.3934253454208374,0.8643068075180054,0.4979939460754394
1780528918072665900,13.693665771484374,-2.31758713722229,2.612074136734009,-0.8188169598579407
1780528918082706000,13.703705810546875,-1.213860273361206,3.3710360527038574,-1.6136919260025024
1780528918123019800,13.744019775390624,0.2537853717803955,-1.134851574897766,1.0534487962722778
1780528918133090600,13.754090576171874,0.7445967197418213,-0.0981622710824012,0.6200982332229614
1780528918143161300,13.764161376953124,0.2226607650518417,0.7445967197418213,-0.608127236366272
1780528918153232100,13.774232177734374,-0.706289529800415,1.0582371950149536,-1.335964560508728
1780528918173343200,13.79434326171875,-0.0502782352268695,0.0646434426307678,-2.616862535476685
1780528918203555600,13.8245556640625,-0.0790086537599563,-0.2130839526653289,0.3447650372982025
1780528918213626400,13.83462646484375,-0.0885854661464691,-0.1053448766469955,0.0191536135971546
1780528918223727900,13.844727783203124,-0.5770025849342346,0.1987187415361404,-1.3024457693099976
1780528918233798700,13.854798583984374,-0.3519476354122162,0.4884171485900879,-2.1332337856292725
1780528918243900000,13.86489990234375,-0.2633621990680694,0.4596867263317108,-1.8938134908676147
1780528918253970700,13.874970703125,-0.363918662071228,0.6033388376235962,-0.8331822156906128
1780528918264072000,13.885072021484374,-1.0247182846069336,0.4189853072166443,0.3136404156684875
1780528918284213500,13.905213623046874,-0.2322375625371933,0.3088520169258117,0.3232172429561615
1780528918294284300,13.9152841796875,-0.0574608407914638,0.1867477297782898,-0.9576807022094728
1780528918304324600,13.92532470703125,0.2801215946674347,-0.0263362191617488,-1.8171991109848025
1780528918314395400,13.9353955078125,0.0454898327589035,0.1532289087772369,-1.9057846069335935
1780528918324435700,13.945435791015624,-0.6703764796257019,0.6344634294509888,-1.429338455200195
1780528918334537200,13.955537109375,-0.7613561153411865,0.9002198576927185,-0.6631938815116882
1780528918395053600,14.016053466796874,-1.0271124839782717,0.5674257874488831,-0.1340752989053726
1780528918415225600,14.0362255859375,-0.730231523513794,1.2234370708465576,-1.173158884048462
1780528918425326800,14.046326904296874,-0.102950669825077,0.6057330369949341,-1.525106430053711
1780528918435428000,14.056427978515623,0.2394201755523681,0.0167594123631715,-0.8379706144332886
1780528918445529600,14.066529541015624,0.608127236366272,-0.545877993106842,0.1604115068912506
1780528918455600400,14.076600341796874,0.5650315880775452,-0.7350199222564697,0.8762778043746948
1780528918465701600,14.08670166015625,0.4094084799289703,-0.5961562395095825,0.3926490843296051
1780528918516055600,14.1370556640625,1.2042834758758545,0.4405331015586853,-1.0773907899856567
1780528918526157000,14.147156982421874,1.5466543436050415,0.2944868206977844,-0.0071826050989329
1780528918536227800,14.157227783203124,1.678335428237915,-0.0023942016996443,0.272938996553421
1780528918546298600,14.167298583984374,1.8315643072128296,-0.3208230137825012,-0.3615244626998901
1780528918556399900,14.17739990234375,1.4484920501708984,-0.4501099288463592,-1.048660397529602
1780528918566501000,14.187501220703124,1.194706678390503,0.0287304203957319,-1.213860273361206
1780528918576572000,14.197572021484374,1.3623007535934448,0.4022258818149566,-1.314416766166687
1780528918586642700,14.207642578125,1.0079588890075684,0.5578489899635315,-1.5083470344543457
1780528918596744200,14.217744140625,1.3311761617660522,0.3902548849582672,-1.6280571222305298
1780528918606815000,14.22781494140625,1.742978811264038,0.0670376494526863,-1.4772224426269531
1780528918637057800,14.258057861328124,1.2832920551300049,-0.4668693244457245,-1.3311761617660522
1780528918707431400,14.328431396484374,-0.1077390760183334,-0.730231523513794,-1.81959331035614
1780528918717502200,14.338502197265624,-0.5506663918495178,-0.7733271718025208,-1.6184803247451782
1780528918727603500,14.348603515625,-1.3670891523361206,-0.6536170840263367,-1.000776290893555
1780528918747745000,14.3687451171875,-2.363077163696289,0.6607996821403503,-0.5841852426528931
1780528918757846500,14.378846435546874,-2.28406834602356,1.0319008827209473,-0.7086837291717529
1780528918767917300,14.388917236328124,-2.3702597618103027,0.7422025203704834,-0.8978256583213806
1780528918777957600,14.39895751953125,-1.922544002532959,0.3663128614425659,-0.7996633648872375
1780528918788059000,14.409058837890624,-1.4963760375976562,0.0981622710824012,-0.6512228846549988
1780528918818301700,14.4393017578125,-2.341529369354248,0.7733271718025208,-0.3567360639572143
1780528918828403000,14.44940283203125,-1.723825216293335,1.2761094570159912,-0.2178723514080047
1780528918838474000,14.459473876953124,-1.2018892765045166,1.0462661981582642,-0.5195417404174805
1780528918848544800,14.469544677734374,-1.1540051698684692,0.4022258818149566,-0.7757213711738586
1780528918909030400,14.530030517578124,-1.0845733880996704,1.1899182796478271,-1.216254472732544
1780528918969455400,14.590455322265624,-0.871489405632019,0.3854664862155914,-1.1276689767837524
1780528918979526100,14.600526123046874,-1.4389152526855469,0.3064578175544739,-1.113303780555725
1780528918989597000,14.610596923828124,-1.6112977266311646,0.0814028605818748,-1.2258312702178955
1780528918999698200,14.6206982421875,-1.3886369466781616,-0.2322375625371933,-1.659181833267212
1780528919009799400,14.63079931640625,-1.1899182796478271,-0.7374141216278076,-1.9919757843017576
1780528919019839700,14.64083984375,-1.6136919260025024,-0.6727706789970398,-1.9704279899597168
1780528919029910500,14.65091064453125,-2.583343744277954,0.1532289087772369,-1.5658079385757446
1780528919050052400,14.67105224609375,-2.96162748336792,1.8507179021835327,-0.689530074596405
1780528919060092400,14.681092529296874,-2.6216509342193604,1.7142484188079834,-0.5267243981361389
1780528919070163200,14.6911630859375,-2.0207061767578125,1.0247182846069336,-0.7110779285430908
1780528919080234200,14.701234130859374,-1.2210428714752195,0.7110779285430908,-0.9409212470054626
1780528919090305000,14.711304931640624,-0.9864110946655272,0.8523358106613159,-1.0295066833496094
1780528919100406300,14.72140625,-1.9704279899597168,0.6991068720817566,-1.4484920501708984
1780528919110477000,14.73147705078125,-2.3750481605529785,0.4668693244457245,-1.620874524116516
1780528919191135000,14.812135009765624,-1.4437036514282229,-0.768538773059845,-0.790086567401886
1780528919221439000,14.84243896484375,-1.8411411046981807,0.6512228846549988,-1.403002142906189
1780528919241611000,14.862611083984374,-1.8507179021835327,0.6129156351089478,-0.5339069962501526
1780528919251681800,14.872681884765624,-2.032677173614502,-0.2920926213264465,1.45806884765625
1780528919261722000,14.88272216796875,-0.9265560507774352,-1.1803414821624756,1.922544002532959
1780528919271793000,14.89279296875,-0.5650315880775452,-1.3718775510787964,0.6392518281936646
1780528919291965200,14.912965087890624,-1.3551181554794312,0.3567360639572143,-1.4221558570861816
1780528919302036000,14.923035888671874,-1.6950948238372805,0.993593692779541,-0.1340752989053726
1780528919312137200,14.93313720703125,-1.577778935432434,0.7661445140838623,1.4724340438842771
1780528919322177500,14.943177490234374,-0.304063618183136,0.3926490843296051,1.745373010635376
1780528919332248300,14.953248291015624,0.0143652101978659,-0.7038952708244324,0.4285621047019958
1780528919342349600,14.963349609375,0.5770025849342346,-0.6703764796257019,-0.7422025203704834
1780528919352450800,14.973450927734374,0.4764461517333984,-1.2114660739898682,-0.8523358106613159
1780528919362552300,14.98355224609375,-0.5817909836769104,-1.1324573755264282,-0.035913024097681
1780528919382724400,15.003724365234374,-0.8810662031173706,1.0582371950149536,1.2665326595306396
1780528919392795100,15.013795166015624,-0.7493851184844971,1.2856862545013428,0.2609679996967315
1780528919423068700,15.044068603515624,-0.3926490843296051,0.2011129409074783,-0.3519476354122162
1780528919433139500,15.054139404296874,-1.2832920551300049,-0.5937620401382446,1.1204863786697388
1780528919453311500,15.0743115234375,-0.7326257228851318,0.0095768067985773,0.272938996553421
1780528919513827800,15.134827880859374,1.3048399686813354,-0.9481038451194764,0.7661445140838623
1780528919523898600,15.144898681640624,2.580949544906616,-0.811634361743927,0.629675030708313
1780528919533999900,15.154999755859375,0.8068459630012512,-0.5099649429321289,1.2449848651885986
1780528919544071000,15.16507080078125,-0.1723825186491012,-0.4333505034446716,1.4748282432556152
1780528919554172200,15.175172119140624,-0.6009446382522583,0.4740519225597381,1.482010841369629
1780528919564212500,15.18521240234375,-0.2920926213264465,0.9361328482627868,1.0223240852355957
1780528919574283300,15.195283203125,1.3623007535934448,0.5770025849342346,0.667982280254364
1780528919584384500,15.205384521484374,2.832340717315674,-1.2042834758758545,1.0821791887283323
1780528919594485800,15.21548583984375,3.2369606494903564,-2.075772762298584,2.0039467811584477
1780528919604556500,15.225556640625,3.423708438873291,-1.9632453918457031,2.999934673309326
1780528919624728800,15.245728759765624,1.3120225667953491,0.181959331035614,3.5936968326568604
1780528919634830000,15.255830078125,-0.1532289087772369,0.8140285611152649,3.88818359375
1780528919644931300,15.265931396484374,-0.6943184733390808,1.09654438495636,4.28322696685791
1780528919655032600,15.276032470703123,-0.4788403511047363,1.1204863786697388,3.713406801223755
1780528919665103600,15.286103515625,0.507570743560791,1.0271124839782717,2.80361008644104
1780528919735812600,15.3568125,-2.279279947280884,1.3407529592514038,4.38617753982544
1780528919755954400,15.376954345703124,-2.291250944137573,0.4620809257030487,4.553771495819092
1780528919776126500,15.39712646484375,-1.9991583824157717,-1.0749965906143188,4.9368438720703125
1780528919786197200,15.407197265625,-1.9584569931030276,-1.173158884048462,5.233725070953369
1780528919796268000,15.41726806640625,-1.8555063009262085,-0.6847416758537292,5.286397457122803
1780528919806369300,15.427369384765624,-1.5275006294250488,0.3160346150398254,4.881777286529541
1780528919816440000,15.437440185546874,-1.216254472732544,0.7015010714530945,4.333505153656006
1780528919836612400,15.4576123046875,-0.4932055473327636,0.4644751250743866,3.313575267791748
1780528919846683100,15.46768310546875,-0.727837324142456,0.4477157294750213,2.9089550971984863
1780528919856692700,15.477692626953123,-1.3646949529647827,0.993593692779541,3.313575267791748
1780528919866794200,15.487794189453124,-1.1779472827911377,1.1755530834197998,4.486733913421631
1780528919876895500,15.4978955078125,-0.7254431247711182,0.9145850539207458,5.214571475982666
1780528919886966300,15.50796630859375,0.0143652101978659,0.5027823448181152,4.869806289672852
1780528919897006600,15.518006591796874,0.6919242739677429,0.0646434426307678,3.646369218826294
1780528919907107800,15.52810791015625,2.097320795059204,-1.168370485305786,2.477998733520508
1780528919917209000,15.538208984375,2.722207307815552,-1.702277421951294,2.9544448852539062
1780528919927280000,15.548280029296874,1.8962076902389529,-1.9991583824157717,3.694253206253052
1780528919937320200,15.5583203125,0.7158663272857666,-1.4844050407409668,4.474762916564941
1780528919947421700,15.568421630859374,0.7661445140838623,-0.2082955539226532,5.279214859008789
1780528919957523000,15.57852294921875,0.5506663918495178,1.1516109704971311,5.157110691070557
1780528919977695000,15.598695068359374,0.6655880808830261,0.5602431893348694,3.627215623855591
1780528919987796500,15.60879638671875,2.616862535476685,-1.0462661981582642,3.404554843902588
1780528919997897700,15.618897705078124,4.101267337799072,-2.006340980529785,3.785232782363892
1780528920007999000,15.6289990234375,3.0190882682800293,-1.7286136150360107,4.383783340454102
1780528920028171000,15.6491708984375,0.1651999205350875,1.237802267074585,5.298368453979492
1780528920068545800,15.6895458984375,1.821987509727478,-1.5729905366897583,1.7573440074920654
1780528920098788900,15.719788818359374,3.2321722507476807,-0.42377370595932,2.5282769203186035
1780528920108920600,15.729920654296874,4.003105163574219,-0.4836287498474121,-0.3495534360408783
1780528920118991400,15.739991455078124,4.039018154144287,-0.4644751250743866,-2.185906171798706
1780528920129092900,15.7500927734375,3.1316158771514893,-1.5729905366897583,-1.81959331035614
1780528920159427300,15.78042724609375,2.5330653190612797,-3.837905406951904,1.889025092124939
1780528920169528600,15.790528564453124,2.937685489654541,-5.377377033233643,-0.4525041282176971
1780528920179629800,15.8006298828125,1.6855180263519287,-1.6352397203445437,-1.3838485479354858
1780528920199802000,15.820802001953124,1.400607943534851,2.561795711517334,-1.9345149993896484
1780528920209903400,15.8309033203125,0.5913678407669067,1.3120225667953491,-2.28406834602356
1780528920220004600,15.841004638671874,-0.7805097699165344,-0.4836287498474121,-3.450044631958008
1780528920230105900,15.85110595703125,-1.5897499322891235,-1.6328455209732056,-4.228160381317139
1780528920300784600,15.92178466796875,-4.965574264526367,1.3742717504501345,-2.1092917919158936
1780528920321017900,15.942017822265624,-4.513070106506348,1.4748282432556152,-0.1340752989053726
1780528920411990800,16.03299072265625,0.2298433631658554,2.849100112915039,-1.5753847360610962
1780528920422092000,16.043092041015626,0.7015010714530945,0.6775590777397156,-4.235342979431152
1780528920432223700,16.0532236328125,0.6177040338516235,-1.7166426181793213,-4.592078685760498
1780528920442325200,16.0633251953125,0.3591302633285522,-2.853888511657715,-2.3032219409942627
1780528920462558200,16.08355810546875,0.8690952062606812,-1.137245774269104,0.5267243981361389
1780528920482761000,16.103760986328126,-0.3854664862155914,0.8834604024887085,-4.144362926483154
1780528920533267500,16.154267333984375,1.2306196689605713,-0.102950669825077,-1.45806884765625
1780528920543399400,16.1643994140625,0.6033388376235962,1.036689281463623,-2.9472622871398926
1780528920553531100,16.17453125,-0.0526724383234977,1.5442601442337036,-3.2800562381744385
1780528920563632600,16.184632568359376,1.0654197931289673,1.6639702320098877,-2.1475989818573
1780528920583835100,16.204835205078126,2.7533318996429443,-0.1771709322929382,1.335964560508728
1780528920593936400,16.214936279296875,2.612074136734009,-0.6057330369949341,1.781286120414734
1780528920604068400,16.225068359375,0.7589619159698486,-0.6775590777397156,0.7661445140838623
1780528920614169600,16.235169677734376,-0.5937620401382446,-0.4309563040733337,-1.048660397529602
1780528920624271000,16.24527099609375,-0.7757213711738586,0.1675941199064254,-2.2625205516815186
1780528920634372400,16.255372314453126,-0.608127236366272,0.1484405100345611,-2.324769735336304
1780528920644473600,16.2654736328125,0.8188169598579407,0.0335188247263431,-1.3527239561080933
1780528920654574800,16.275574951171876,1.594538331031799,-0.7206547260284424,-0.0861912593245506
1780528920664676400,16.28567626953125,1.280897855758667,-1.429338455200195,0.3878606855869293
1780528920715182800,16.336182861328126,0.0574608407914638,0.3543418645858764,-0.6919242739677429
1780528920725284000,16.3462841796875,0.4070142805576324,-0.0742202550172805,-0.5434837937355042
1780528920735416000,16.356416015625,0.7924807667732239,-0.4908113479614258,-0.2394201755523681
1780528920745517300,16.366517333984376,0.3758896589279175,-0.5578489899635315,-0.5770025849342346
1780528920785892000,16.40689208984375,-0.8068459630012512,-0.3495534360408783,-0.3543418645858764
1780528920816135000,16.437135009765626,-1.1875240802764893,0.2466027736663818,-1.295263171195984
1780528920826267000,16.447266845703126,-1.577778935432434,0.871489405632019,-1.5275006294250488
1780528920836307200,16.45730712890625,-2.2361843585968018,0.7613561153411865,-1.4963760375976562
1780528920846378000,16.4673779296875,-1.6376339197158811,0.3663128614425659,-0.8930372595787048
1780528920856418300,16.477418212890626,-0.1987187415361404,-0.3495534360408783,-0.9959878921508788
1780528920866489000,16.487489013671876,-0.0454898327589035,-0.6703764796257019,-2.269703149795532
1780528920886600200,16.50760009765625,-1.0223240852355957,0.9552865028381348,-2.3989901542663574
1780528920896640300,16.51764013671875,-1.5921441316604614,2.085349798202514,-1.3886369466781616
1780528920906741800,16.52774169921875,-1.3503297567367554,2.097320795059204,-0.5171475410461426
1780528920916812500,16.5378125,-0.5817909836769104,1.623268723487854,-0.3519476354122162
1780528920926883300,16.54788330078125,0.3495534360408783,0.8475474119186401,-0.8690952062606812
1780528920936923600,16.557923583984376,0.9864110946655272,0.4429273009300232,-1.8267759084701536
1780528920947025000,16.56802490234375,1.158793568611145,0.3112462162971496,-2.1284453868865967
1780528920957095700,16.578095703125,1.314416766166687,0.5386953949928284,-1.6687586307525637
1780528920967197000,16.588197021484376,1.3096283674240112,1.1180921792984009,-0.849941611289978
1780528920977237200,16.5982373046875,1.314416766166687,1.381454348564148,-0.9576807022094728
1780528920997409500,16.618409423828126,1.482010841369629,0.9720458984375,-2.030282974243164
1780528921007480300,16.628480224609376,2.2601263523101807,0.6224924325942993,-2.0159177780151367
1780528921017551000,16.638551025390626,2.63362193107605,0.3687070608139038,-1.824381709098816
1780528921027652400,16.64865234375,2.9879636764526367,0.0694318488240242,-1.3551181554794312
1780528921037753600,16.658753662109376,3.026270866394043,-0.0646434426307678,-0.6991068720817566
1780528921047794000,16.6687939453125,2.964021682739258,-0.0550666376948356,-0.1867477297782898
1780528921067935500,16.688935546875,1.953668594360352,-0.3375824391841888,-1.108515381813049
1780528921078036700,16.69903662109375,1.8626888990402224,-0.3232172429561615,-1.5418659448623655
1780528921098209000,16.719208984375,1.2689268589019775,-0.7541735172271729,-1.05105459690094
1780528921148654600,16.769654541015626,-1.2641384601593018,-0.42377370595932,0.2825157940387726
1780528921239291600,16.860291748046876,-3.1004912853240967,0.8355764150619507,-0.9361328482627868
1780528921249362400,16.870362548828126,-2.7940332889556885,1.2641384601593018,-1.41257905960083
1780528921259402800,16.88040283203125,-2.5019407272338867,1.5131354331970217,-1.2306196689605713
1780528921269504300,16.890504150390626,-2.468421936035156,1.1755530834197998,-0.6631938815116882
1780528921279575000,16.900574951171876,-2.698265314102173,0.9169792532920836,-0.569819986820221
1780528921289676300,16.91067626953125,-2.22660756111145,0.8020575642585754,-0.9600749015808104
1780528921299747000,16.9207470703125,-1.8483237028121948,0.8379706144332886,-1.558625340461731
1780528921309787400,16.930787353515626,-1.7405846118927002,1.000776290893555,-1.7836803197860718
1780528921329959400,16.95095947265625,-0.5434837937355042,1.3048399686813354,-1.0606313943862915
1780528921340030200,16.9610302734375,-0.3663128614425659,1.3934253454208374,-0.6847416758537292
1780528921360171800,16.981171875,-0.0023942016996443,1.1180921792984009,-0.912190854549408
1780528921370242600,16.99124267578125,-0.3423708379268646,0.9959878921508788,-1.3982137441635132
1780528921380283000,17.001282958984376,0.1939303427934646,0.9720458984375,-1.4891934394836426
1780528921390353700,17.011353759765626,0.9481038451194764,0.5770025849342346,-1.5322890281677246
1780528921400455200,17.021455078125,1.0773907899856567,1.2186486721038818,-0.8595184087753296
1780528921410526000,17.03152587890625,0.5626373887062073,2.049436569213867,-0.8355764150619507
1780528921420596700,17.0415966796875,-0.304063618183136,1.86508309841156,-0.7182605266571045
1780528921501224200,17.12222412109375,-1.4700398445129397,0.7829039692878723,-0.7781155705451965
1780528921511325400,17.132325439453126,-1.4269442558288574,0.5315127968788147,-0.5793967843055725
1780528921531467000,17.152467041015626,-1.886630892753601,0.0,-0.9600749015808104
1780528921581821000,17.202821044921876,-1.9632453918457031,1.2713210582733154,-0.5817909836769104
1780528921591861200,17.212861328125,-2.030282974243164,1.5298948287963867,-0.9959878921508788
1780528921601932000,17.22293212890625,-2.647987127304077,1.1228805780410769,-1.5275006294250488
1780528921612002800,17.2330029296875,-2.3798365592956543,0.5482721924781799,-1.403002142906189
1780528921622073600,17.243073486328125,-2.166752576828003,0.5817909836769104,-1.4460978507995603
1780528921642246000,17.263245849609376,-1.6711528301239014,0.7589619159698486,-1.0031704902648926
1780528921652347100,17.27334716796875,-1.5418659448623655,1.1252747774124146,-0.667982280254364
1780528921662418000,17.28341796875,-1.86508309841156,1.7381904125213623,-0.454898327589035
1780528921672488700,17.29348876953125,-2.207453966140747,1.6136919260025024,-0.7110779285430908
1780528921682559500,17.3035595703125,-2.451662540435791,1.3096283674240112,-1.2234370708465576
1780528921692630300,17.31363037109375,-2.406172752380371,1.0055646896362305,-1.647210717201233
1780528921702701000,17.323701171875,-2.185906171798706,0.4261679053306579,-1.280897855758667
1780528921712802600,17.333802490234376,-1.7525556087493896,0.0526724383234977,-0.4525041282176971
1780528921722903800,17.34390380859375,-1.3048399686813354,0.0646434426307678,0.0383072271943092
1780528921732974600,17.353974609375,-1.1899182796478271,0.0814028605818748,-0.4836287498474121
1780528921753116200,17.3741162109375,-1.7357962131500244,-0.0095768067985773,-0.9888052940368652
1780528921763187000,17.38418701171875,-1.723825216293335,0.1699883192777633,0.2059013396501541
1780528921773257700,17.3942578125,-1.6927006244659424,0.2705447971820831,1.1779472827911377
1780528921783328500,17.40432861328125,-1.6831238269805908,0.48602294921875,0.8188169598579407
1780528921803500800,17.424500732421876,-0.3232172429561615,-0.4884171485900879,0.0550666376948356
1780528921823672800,17.4446728515625,-0.3375824391841888,-0.1101332753896713,1.05105459690094
1780528921833774000,17.454774169921876,-0.9241618514060974,-0.3782838582992553,1.1228805780410769
1780528921853946400,17.4749462890625,0.4955997467041015,-0.2609679996967315,-0.1939303427934646
1780528921874057500,17.495057373046876,0.1771709322929382,0.1340752989053726,-0.2106897532939911
1780528921884128300,17.505128173828126,-0.0071826050989329,0.3471592366695404,0.9241618514060974
1780528921904330800,17.525330810546876,-1.4676456451416016,-0.6416460275650024,0.6248866319656372
1780528921914432000,17.535431884765625,-0.912190854549408,-0.0502782352268695,-0.667982280254364
1780528921934543000,17.555543212890626,-0.1221042871475219,0.7852981686592102,0.2825157940387726
1780528921944644600,17.56564453125,-0.9241618514060974,0.6272808313369751,1.338358759880066
1780528921954715400,17.57571533203125,-0.6943184733390808,-0.4141969084739685,1.6687586307525637
1780528921974826500,17.595826416015626,0.2777273952960968,0.0239420160651206,-0.0167594123631715
1780528921984927700,17.605927734375,-0.7182605266571045,0.7589619159698486,-0.1891419291496276
1780528922005130200,17.626130126953125,-1.1013327836990356,1.5969325304031372,2.0159177780151367
1780528922015170600,17.636170654296876,-0.5339069962501526,1.702277421951294,2.3319525718688965
1780528922025272000,17.64627197265625,0.3878606855869293,1.1324573755264282,1.5873557329177856
1780528922035342800,17.6563427734375,0.5363011956214905,1.01753568649292,0.7613561153411865
1780528922045413600,17.66641357421875,0.2394201755523681,0.2825157940387726,0.9050082564353944
1780528922055454000,17.676453857421876,-0.2849099934101105,0.0790086537599563,1.8148049116134644
1780528922065524700,17.686524658203126,-1.335964560508728,0.1867477297782898,2.846705913543701
1780528922075626000,17.6966259765625,-0.5961562395095825,0.6392518281936646,3.181894063949585
1780528922085727200,17.706727294921876,0.2513911724090576,1.292868971824646,2.63362193107605
1780528922126010400,17.74701025390625,1.9249382019042969,-0.5889736413955688,3.790021181106568
1780528922166324200,17.78732421875,2.324769735336304,-1.359906554222107,3.3446998596191406
1780528922176364500,17.797364501953126,1.5610195398330688,-2.042253971099853,2.8562827110290527
1780528922186465800,17.8074658203125,1.3072341680526731,-1.273715257644653,3.3446998596191406
1780528922196536600,17.81753662109375,2.2361843585968018,-0.4812345504760742,5.03021764755249
1780528922206577000,17.827576904296876,2.6384103298187256,-0.4955997467041015,4.987122058868408
1780528922216678100,17.83767822265625,2.8107926845550537,-0.4908113479614258,4.527435302734375
1780528922226749000,17.8477490234375,1.702277421951294,-0.8978256583213806,4.326322555541992
1780528922236819700,17.85781982421875,1.4915876388549805,-1.170764684677124,4.934449672698975
1780528922246890500,17.867890380859375,1.2258312702178955,-0.7015010714530945,5.439626216888428
1780528922256961500,17.87796142578125,0.5195417404174805,-0.2011129409074783,4.807557106018066
1780528922267032300,17.8880322265625,-0.0430956296622753,-0.2250549644231796,3.904942989349365
1780528922277103000,17.89810302734375,0.1628057211637497,-0.1675941199064254,3.485957622528076
1780528922287204400,17.908204345703126,0.6943184733390808,-0.6057330369949341,3.4332852363586426
1780528922297244700,17.91824462890625,1.4484920501708984,-1.6328455209732056,4.082113742828369
1780528922307346000,17.928345947265626,1.482010841369629,-2.2361843585968018,4.60165548324585
1780528922377841700,17.998841552734376,1.0678139925003052,-0.608127236366272,4.338293552398682
1780528922387881700,18.0088818359375,0.6607996821403503,-0.7876923680305481,4.843470096588135
1780528922397983200,18.01898315429688,0.9241618514060974,-0.7565677165985107,5.2049946784973145
1780528922408084500,18.02908447265625,0.7422025203704834,-0.1604115068912506,5.147533416748047
1780528922418155300,18.0391552734375,0.1436520963907241,0.646434485912323,4.8722004890441895
1780528922428226000,18.04922607421875,0.1244984865188598,1.213860273361206,4.4532151222229
1780528922438296800,18.059296875,1.7693150043487549,1.0031704902648926,3.904942989349365
1780528922448367600,18.06936767578125,3.426102638244629,1.1228805780410769,2.9544448852539062
1780528922458408000,18.079407958984376,3.864241600036621,0.5889736413955688,2.3032219409942627
1780528922468509200,18.08950927734375,2.583343744277954,-0.2657563984394073,2.456450939178467
1780528922478610700,18.09961059570313,1.2258312702178955,-1.094150185585022,3.485957622528076
1780528922488681500,18.109681396484376,0.9026140570640564,-1.594538331031799,4.0533833503723145
1780528922498752300,18.119752197265623,2.6192567348480225,-1.216254472732544,3.6367924213409424
1780528922508823000,18.12982299804688,4.039018154144287,-0.1268926858901977,2.3319525718688965
1780528922518893800,18.13989379882813,3.840299606323242,1.1827356815338137,1.534683346748352
1780528922528964600,18.149964599609376,1.9057846069335935,0.933738648891449,2.152387380599976
1780528922539005000,18.1600048828125,0.5722141861915588,-0.9552865028381348,3.44765043258667
1780528922549075700,18.17007568359375,0.8212111592292786,-2.353500366210937,3.536235809326172
1780528922559177000,18.18017700195313,2.935291290283203,-2.4396915435791016,1.9369091987609863
1780528922579318500,18.200318603515623,2.655169725418091,-1.98958158493042,-0.5123591423034668
1780528922670078000,18.291077880859376,-2.75812029838562,2.602497339248657,-1.2545616626739502
1780528922680179200,18.30117919921875,-4.747702121734619,5.837063789367676,-1.6974890232086182
1780528922730624800,18.351624755859376,1.723825216293335,-1.1492167711257937,0.6751648783683777
1780528922791232800,18.412232666015623,3.1076738834381104,-2.583343744277954,-1.1444283723831177
1780528922811435300,18.432435302734376,-0.5746083855628967,-1.6112977266311646,0.706289529800415
1780528922851810000,18.47281005859375,-0.2489969730377197,3.584120035171509,-1.9057846069335935
1780528922882144500,18.50314453125,-0.9433154463768004,-3.603273630142212,-3.2393548488616943
1780528922952853800,18.573853759765623,0.3423708379268646,-0.545877993106842,-0.2202665507793426
1780528922983188200,18.60418823242188,-0.9624691009521484,-0.2106897532939911,2.252943754196167
1780528922993320000,18.61431982421875,-0.2035071402788162,-0.035913024097681,-1.4628572463989258
1780528923023593500,18.644593505859376,-0.9481038451194764,0.5482721924781799,-3.442862033843994
1780528923074069500,18.69506958007813,-0.3495534360408783,-0.3567360639572143,-0.1939303427934646
1780528923124576300,18.745576171875,-0.3543418645858764,0.8762778043746948,-1.2761094570159912
1780528923134616300,18.7556162109375,-0.4405331015586853,0.3088520169258117,0.0095768067985773
1780528923144748300,18.765748291015623,0.0335188247263431,0.0814028605818748,0.0263362191617488
1780528923154849500,18.775849609375,0.2849099934101105,-0.0646434426307678,-0.6991068720817566
1780528923164981500,18.7859814453125,0.0790086537599563,-0.1053448766469955,-1.4700398445129397
1780528923185184000,18.80618408203125,0.2873041927814483,0.8547300100326538,-1.3096283674240112
1780528923195285500,18.816285400390623,-0.2681505978107452,0.608127236366272,-0.9481038451194764
1780528923205386800,18.82638671875,-0.0407014302909374,-0.0646434426307678,-0.4357447028160095
1780528923215457500,18.83645751953125,-0.0814028605818748,-0.0646434426307678,-0.2442085742950439
1780528923225589200,18.84658935546875,0.0119710080325603,0.2801215946674347,-0.9816226959228516
1780528923286227700,18.90722778320313,0.3256114423274994,0.4812345504760742,-1.6687586307525637
1780528923296329200,18.9173291015625,0.8427590131759644,0.667982280254364,-1.1276689767837524
1780528923306430500,18.92743041992188,0.4453215301036834,0.689530074596405,-0.5913678407669067
1780528923316531700,18.93753173828125,0.4716577231884002,0.8810662031173706,-0.2825157940387726
1780528923326633000,18.947633056640623,0.7326257228851318,0.9217676520347596,-0.4620809257030487
1780528923336703700,18.95770385742188,1.1994950771331787,0.8259995579719543,-0.9457096457481384
1780528923346835700,18.967835693359376,1.01753568649292,0.3998316824436188,-1.53707754611969
1780528923377139700,18.9981396484375,1.0582371950149536,0.2130839526653289,-1.1300631761550903
1780528923417606000,19.03860595703125,2.2816741466522217,0.1244984865188598,-0.9050082564353944
1780528923498294500,19.11929443359375,1.0342950820922852,0.0670376494526863,-0.9768342971801758
1780528923538608000,19.15960815429688,0.5817909836769104,0.0311246216297149,-0.9289502501487732
1780528923548709400,19.16970947265625,0.5722141861915588,-0.0837970599532127,-0.6655880808830261
1780528923558780200,19.1797802734375,0.8307880163192749,-0.0191536135971546,-0.454898327589035
1780528923578891300,19.19989135742188,-0.0526724383234977,-0.2537853717803955,-0.2753331959247589
1780528923649448000,19.27044799804688,-1.886630892753601,0.1532289087772369,-0.9672574996948242
1780528923679721500,19.30072143554688,-2.039859771728516,0.5770025849342346,-1.3455413579940796
1780528923689792300,19.31079223632813,-2.454056739807129,0.933738648891449,-1.9823989868164065
1780528923699893500,19.3208935546875,-3.090914487838745,1.1851298809051514,-2.1045033931732178
1780528923709964300,19.33096435546875,-2.96162748336792,1.7381904125213623,-1.3646949529647827
1780528923720035000,19.34103515625,-2.5737667083740234,2.006340980529785,-0.6057330369949341
1780528923730105900,19.35110595703125,-2.3726539611816406,1.86508309841156,-0.2561795711517334
1780528923750278100,19.37127807617188,-1.6328455209732056,0.6224924325942993,-0.237025961279869
1780528923760379400,19.38137939453125,-1.0869675874710083,0.4979939460754394,-0.454898327589035
1780528923770450200,19.3914501953125,-0.9145850539207458,0.6009446382522583,-0.6919242739677429
1780528923780551400,19.40155151367188,-0.5674257874488831,0.9959878921508788,-0.7110779285430908
1780528923790622200,19.41162231445313,-0.912190854549408,1.1635819673538208,-1.1204863786697388
1780528923800662500,19.42166259765625,-0.5889736413955688,1.0797849893569946,-1.0606313943862915
1780528923820773600,19.441773681640623,-0.9217676520347596,0.6057330369949341,-0.6129156351089478
1780528923830844400,19.45184448242188,-0.828393816947937,0.4501099288463592,-0.3543418645858764
1780528923851016700,19.4720166015625,-0.7422025203704834,0.1747767180204391,-0.6224924325942993
1780528923861087500,19.48208740234375,-1.5442601442337036,0.5746083855628967,-0.8667010068893433
1780528923881259500,19.502259521484376,-2.568978309631348,1.6376339197158811,0.0047884033992886
1780528923891330300,19.512330322265623,-2.4229321479797363,1.0103530883789062,0.8140285611152649
1780528923901401000,19.52240112304688,-2.80361008644104,-0.3136404156684875,0.9002198576927185
1780528923911471900,19.53247192382813,-2.784456491470337,-1.620874524116516,0.2154781520366668
1780528923931644000,19.552643798828125,-2.482787132263184,-1.0462661981582642,-1.5538369417190552
1780528923941684200,19.56268432617188,-2.2146365642547607,0.2657563984394073,-1.3287819623947144
1780528923951755000,19.57275512695313,-1.7118542194366455,0.7637503147125244,-0.5937620401382446
1780528923961856500,19.5828564453125,-1.5610195398330688,0.9888052940368652,-0.181959331035614
1780528923971957800,19.59295776367188,-1.498770236968994,0.6105214357376099,-0.1556231081485748
1780528923982059000,19.60305908203125,-2.5522189140319824,0.4405331015586853,-0.5267243981361389
1780528923992160500,19.613160400390623,-2.2146365642547607,1.290474772453308,-0.3471592366695404
1780528924002231300,19.62323120117188,-2.0231003761291504,1.2210428714752195,-0.6392518281936646
1780528924012271400,19.63327124023437,-2.300827741622925,0.6392518281936646,-0.8259995579719543
1780528924022372900,19.643372802734376,-1.3694833517074585,0.4501099288463592,-0.7924807667732239
1780528924032443600,19.653443603515623,-0.8427590131759644,0.4788403511047363,-0.8834604024887085
1780528924042514400,19.66351440429688,-1.072602391242981,0.6727706789970398,-0.6057330369949341
1780528924052615700,19.67361572265625,-1.4460978507995603,0.8762778043746948,-0.071826048195362
1780528924062656000,19.683656005859376,-1.922544002532959,1.33357036113739,-0.0790086537599563
1780528924102969600,19.723969482421875,-0.993593692779541,1.9800047874450684,-2.3295583724975586
1780528924193637400,19.81463745117188,-0.8858546018600464,1.3910311460494995,-0.6703764796257019
1780528924233951200,19.854951171875,-1.486799240112305,0.9409212470054626,-0.4165911078453064
1780528924284244200,19.905244140625,-0.8786720037460327,-0.5291185975074768,0.7733271718025208
1780528924294284300,19.9152841796875,-0.7996633648872375,-0.454898327589035,-0.1340752989053726
1780528924354770200,19.97577026367188,-1.170764684677124,0.5985504388809204,-0.950498104095459
1780528924364841000,19.98584106445313,-1.8962076902389529,0.2011129409074783,-0.1316810995340347
1780528924374911700,19.995911865234376,-1.7741034030914309,0.3208230137825012,1.0989385843276978
1780528924384982500,20.005982421875,-2.1811177730560303,1.3838485479354858,1.7046716213226318
1780528924395053600,20.01605346679688,-1.889025092124939,1.259350061416626,2.3798365592956543
1780528924415225600,20.0362255859375,-0.8164227604866028,-0.0981622710824012,1.0223240852355957
1780528924425326800,20.04632690429688,-0.8259995579719543,0.5386953949928284,-0.2657563984394073
1780528924435428000,20.056427978515625,-0.1915361285209655,0.7110779285430908,-0.5147533416748047
1780528924445499100,20.0664990234375,-0.8020575642585754,1.237802267074585,2.1954829692840576
1780528924455539200,20.076539306640623,0.5410895943641663,0.395043283700943,3.246537446975708
1780528924465610000,20.08660986328125,1.33357036113739,0.332794040441513,2.3558945655822754
1780528924475680800,20.0966806640625,0.8379706144332886,-0.0622492432594299,1.3646949529647827
1780528924485782300,20.1067822265625,0.7158663272857666,-0.6344634294509888,1.7956513166427612
1780528924495883500,20.11688354492188,1.4101848602294922,0.272938996553421,2.7078421115875244
1780528924505954300,20.12695434570313,1.0295066833496094,0.3711012601852417,2.9161376953125
1780528924516055600,20.1370556640625,0.2609679996967315,0.7876923680305481,2.47560453414917
1780528924526096000,20.147095947265623,0.9648633003234864,0.3160346150398254,1.6950948238372805
1780528924536136200,20.15713623046875,1.984793186187744,-1.3311761617660522,2.032677173614502
1780528924546237400,20.16723754882813,2.2361843585968018,-2.63362193107605,2.8419175148010254
1780528924616824600,20.237824462890625,2.9041666984558105,-1.381454348564148,5.492298603057861
1780528924626895600,20.2478955078125,2.58813214302063,-1.843535304069519,5.722142219543457
1780528924636966400,20.25796630859375,2.4229321479797363,-1.1109095811843872,6.074089527130127
1780528924647098000,20.26809814453125,1.580173134803772,-0.6943184733390808,5.6910176277160645
1780528924657169000,20.2781689453125,1.216254472732544,-0.9792284965515136,5.125985622406006
1780528924697543700,20.31854370117188,-0.912190854549408,1.5155296325683594,6.011840343475342
1780528924778201600,20.39920166015625,0.3567360639572143,-0.5602431893348694,4.606443881988525
1780528924788272400,20.4092724609375,-0.0430956296622753,0.7445967197418213,5.705382823944092
1780528924798343200,20.41934326171875,-0.1125274822115898,1.6424223184585571,6.294356346130371
1780528924808444700,20.42944458007813,0.2657563984394073,1.8148049116134644,5.983109951019287
1780528924818546000,20.4395458984375,0.5817909836769104,1.2497732639312744,5.001487255096436
1780528924828616700,20.44961669921875,0.5147533416748047,0.5434837937355042,4.043806552886963
1780528924848758300,20.46975830078125,1.601720929145813,-1.0438719987869265,4.046200752258301
1780528924868869400,20.489869384765623,1.7860745191574097,0.1340752989053726,3.8091750144958496
1780528924889041400,20.51004150390625,2.33913516998291,0.0502782352268695,3.4380736351013184
1780528924899143000,20.520142822265623,2.568978309631348,0.2801215946674347,3.450044631958008
1780528924909213700,20.53021362304688,2.3319525718688965,0.3447650372982025,2.8778305053710938
1780528924919284500,20.54028442382813,2.1356279850006104,0.0047884033992886,2.1595699787139893
1780528924959537200,20.580537109375,2.7700912952423096,-0.5003881454467773,0.2873041927814483
1780528924969638400,20.590638427734376,2.5522189140319824,-1.1803414821624756,1.2976573705673218
1780528924979709200,20.600709228515623,3.363853454589844,-0.9361328482627868,1.012747287750244
1780528924989810400,20.610810546875,2.6671407222747803,0.5817909836769104,-0.332794040441513
1780528925020023000,20.64102294921875,2.183511972427368,-1.1420341730117798,0.950498104095459
1780528925030124300,20.65112426757813,3.734954595565796,-2.7461493015289307,1.1994950771331787
1780528925040195000,20.661195068359376,4.24970817565918,-2.846705913543701,0.1005564704537391
1780528925050265900,20.671265869140623,3.3303346633911133,-1.7070658206939695,-0.7733271718025208
1780528925070377000,20.691376953125,-1.5490485429763794,1.968033790588379,-0.9074024558067322
1780528925080447700,20.70144775390625,-3.189076662063598,2.032677173614502,-1.335964560508728
1780528925090518500,20.7115185546875,-2.039859771728516,0.8571242094039917,-2.0159177780151367
1780528925100558800,20.721558837890623,0.4333505034446716,-0.667982280254364,-1.8387469053268437
1780528925110629600,20.73162963867188,3.136404275894165,-2.494758129119873,-0.7326257228851318
1780528925120700400,20.74170043945313,3.1459810733795166,-3.5003228187561035,0.3351882398128509
1780528925130801700,20.7518017578125,1.7884687185287476,-2.63362193107605,0.4596867263317108
1780528925140872400,20.76187255859375,-3.3925838470458984,0.569819986820221,-0.0071826050989329
1780528925191226600,20.8122265625,3.533841609954834,-2.042253971099853,-1.6280571222305298
1780528925201327900,20.822327880859376,3.6367924213409424,-5.530605792999268,-1.37906014919281
1780528925211398700,20.832398681640623,0.7015010714530945,-5.281609058380127,-0.241814374923706
1780528925221500000,20.8425,-4.20421838760376,1.6352397203445437,1.599326729774475
1780528925241672200,20.862672119140623,-1.0031704902648926,6.332663536071777,-1.6041151285171509
1780528925251712500,20.87271240234375,1.9704279899597168,1.8794482946395876,-3.924096584320069
1780528925271884500,20.892884521484376,4.381389141082764,-4.469974517822266,0.3663128614425659
1780528925281955300,20.902955322265623,2.279279947280884,-5.07570743560791,2.96162748336792
1780528925302127400,20.92312744140625,-1.9273324012756348,0.507570743560791,-3.6511576175689697
1780528925312228900,20.933228759765623,-1.5969325304031372,2.6599581241607666,-4.924872875213623
1780528925322330000,20.943330078125,-0.1651999205350875,4.182670593261719,-3.569754838943481
1780528925332401000,20.95340087890625,0.586579442024231,3.126827478408813,-1.0247182846069336
1780528925342471700,20.9634716796875,1.824381709098816,0.9481038451194764,0.9816226959228516
1780528925352573000,20.97357299804688,2.8634653091430664,-1.8962076902389529,0.8020575642585754
1780528925392947700,21.01394775390625,-0.5003881454467773,2.360682964324951,-0.0263362191617488
1780528925433261600,21.054261474609376,0.8930372595787048,-0.9385270476341248,-1.3910311460494995
1780528925483676400,21.10467651367188,-0.1412578970193863,2.1595699787139893,-0.8427590131759644
1780528925513950000,21.13494995117188,-0.9361328482627868,0.8571242094039917,-2.1356279850006104
1780528925524051200,21.14505126953125,-1.7764976024627686,0.6488286852836609,-0.1244984865188598
1780528925544254000,21.16525390625,-0.1364694982767105,0.0454898327589035,0.4572925269603729
1780528925554355200,21.175355224609376,1.4772224426269531,-1.7908629179000854,-2.782062292098999
1780528925574588400,21.19558837890625,1.2545616626739502,-1.98958158493042,-2.516305923461914
1780528925584720100,21.20572021484375,-0.2154781520366668,0.0622492432594299,0.8068459630012512
1780528925594821600,21.21582153320313,-1.192312479019165,2.612074136734009,2.3582887649536133
1780528925604923000,21.2259228515625,-1.321599364280701,3.44765043258667,0.4788403511047363
1780528925614993700,21.23599365234375,-0.6584054827690125,2.7126305103302,-1.3718775510787964
1780528925625125400,21.24612548828125,-0.3088520169258117,1.5442601442337036,-1.647210717201233
1780528925635227000,21.256226806640623,0.4165911078453064,0.4094084799289703,-1.012747287750244
1780528925645358600,21.26635864257813,0.7565677165985107,-1.0438719987869265,-0.8044517636299133
1780528925655459800,21.2764599609375,1.6280571222305298,-1.6041151285171509,-1.7381904125213623
1780528925695865300,21.316865234375,-0.6153098344802856,2.0925323963165283,-0.2011129409074783
1780528925705966600,21.326966552734376,0.071826048195362,1.6112977266311646,-1.273715257644653
1780528925716067800,21.33706787109375,0.6584054827690125,0.8044517636299133,-2.248155355453491
1780528925726199800,21.34719970703125,1.0558429956436155,0.2801215946674347,-2.319981336593628
1780528925736301000,21.357301025390623,1.0869675874710083,0.2873041927814483,-1.9632453918457031
1780528925756534300,21.3775341796875,0.7709329724311829,1.134851574897766,-1.0342950820922852
1780528925766635500,21.38763549804688,-0.2274491637945175,0.8643068075180054,-1.4772224426269531
1780528925776736800,21.39773681640625,-0.0981622710824012,0.6177040338516235,-1.3862427473068235
1780528925786838000,21.407838134765623,0.4477157294750213,0.4118026793003082,-0.730231523513794
1780528925796970000,21.41796997070313,0.7110779285430908,-0.0454898327589035,-0.1891419291496276
1780528925807040800,21.428040771484376,1.05105459690094,-0.6751648783683777,-0.8140285611152649
1780528925817172500,21.43817236328125,1.4077905416488647,-0.1173158809542656,-1.455674648284912
1780528925827304400,21.448304443359376,1.316810965538025,0.237025961279869,-1.479616641998291
1780528925837405700,21.45840576171875,0.8834604024887085,0.2250549644231796,-1.1228805780410769
1780528925847507000,21.4685068359375,1.0630255937576294,0.1412578970193863,-0.8140285611152649
1780528925857608400,21.4786083984375,0.950498104095459,-0.102950669825077,-0.871489405632019
1780528925867709700,21.48870971679688,1.1516109704971311,-0.4596867263317108,-0.6943184733390808
1780528925877811000,21.49881103515625,1.8986018896102903,-0.6584054827690125,-0.6584054827690125
1780528925887912400,21.508912353515623,2.27209734916687,-0.7972691655158997,-1.0342950820922852
1780528925898013700,21.519013671875,2.60010313987732,-0.8451532125473022,-1.3287819623947144
1780528925908115000,21.529114990234376,2.106897592544556,-0.7733271718025208,-1.357512354850769
1780528925918216200,21.53921630859375,1.53707754611969,-0.2059013396501541,-0.9911994934082032
1780528925928348200,21.54934814453125,1.2114660739898682,0.0933738648891449,-0.7565677165985107
1780528925948581400,21.56958129882813,1.3718775510787964,0.2035071402788162,-0.7254431247711182
1780528926009219800,21.6302197265625,0.3447650372982025,0.5147533416748047,-0.7254431247711182
1780528926029422300,21.65042236328125,-0.0071826050989329,0.071826048195362,-1.0534487962722778
1780528926039523600,21.660523681640623,0.0550666376948356,0.2585737705230713,-1.0199298858642578
1780528926049655600,21.67065551757813,-0.4955997467041015,0.6655880808830261,-1.1037269830703735
1780528926059756800,21.6807568359375,-1.0247182846069336,0.9959878921508788,-0.8738836050033569
1780528926069858000,21.69085815429688,-1.0414776802062988,1.5897499322891235,-1.0319008827209473
1780528926079959600,21.70095947265625,-1.2856862545013428,1.759738206863403,-1.534683346748352
1780528926090060800,21.711060791015623,-1.1300631761550903,1.400607943534851,-1.2713210582733154
1780528926100162000,21.721162109375,-1.0893617868423462,0.9552865028381348,-0.8451532125473022
1780528926181064200,21.802064208984376,-1.3694833517074585,0.2920926213264465,-0.8259995579719543
1780528926241611000,21.862611083984376,-0.9648633003234864,1.278503656387329,-1.1228805780410769
1780528926282016300,21.90301635742188,-1.599326729774475,2.051830768585205,-1.778891921043396
1780528926302188500,21.9231884765625,-1.498770236968994,1.5514427423477173,-1.3670891523361206
1780528926382816000,22.00381591796875,-1.6711528301239014,1.115697979927063,-1.5059528350830078
1780528926433170000,22.054169921875,-2.779668092727661,1.5538369417190552,-0.7733271718025208
1780528926453372700,22.07437255859375,-2.5043349266052246,1.7310078144073486,-1.108515381813049
1780528926503818000,22.12481787109375,-3.043030261993408,1.1109095811843872,-2.468421936035156
1780528926544162300,22.165162353515623,-2.3080103397369385,0.7493851184844971,-1.8267759084701536
1780528926554233000,22.17523315429688,-1.400607943534851,0.1388636976480484,-1.5514427423477173
1780528926564304000,22.18530395507813,-1.6950948238372805,-0.2250549644231796,-1.5155296325683594
1780528926574374700,22.195374755859376,-1.4197616577148438,0.3399766385555267,-0.9576807022094728
1780528926644931300,22.265931396484376,-0.7134721279144287,-0.5410895943641663,0.3878606855869293
1780528926655032600,22.276032470703125,-0.993593692779541,-0.706289529800415,0.332794040441513
1780528926665164500,22.28616455078125,-1.6543933153152466,0.1364694982767105,0.6248866319656372
1780528926675235300,22.2962353515625,-1.8124107122421265,1.2449848651885986,0.9169792532920836
1780528926695346400,22.31634643554688,-1.1971008777618408,1.8339585065841677,0.0814028605818748
1780528926705417200,22.32641723632813,-0.5506663918495178,0.6368576288223267,0.2082955539226532
1780528926715488000,22.336488037109376,0.2130839526653289,-0.5099649429321289,1.070208191871643
1780528926725558800,22.346558837890623,0.8738836050033569,-0.912190854549408,1.4891934394836426
1780528926735629600,22.35662963867188,0.4429273009300232,0.1867477297782898,0.871489405632019
1780528926786044700,22.407044677734376,-0.7876923680305481,-1.0654197931289673,1.4844050407409668
1780528926796115500,22.417115478515623,-0.2154781520366668,-0.9050082564353944,2.03507137298584
1780528926806216700,22.427216796875,-0.454898327589035,-0.3543418645858764,2.073378562927246
1780528926816318200,22.437318115234376,-0.181959331035614,0.6440402865409851,1.5610195398330688
1780528926826358300,22.447358154296875,-0.6512228846549988,0.8834604024887085,1.0845733880996704
1780528926836398600,22.457398681640623,-1.558625340461731,1.0534487962722778,1.039083480834961
1780528926846500000,22.4675,-1.9919757843017576,0.7972691655158997,1.139639973640442
1780528926896823600,22.51782348632813,-0.150834709405899,-0.3088520169258117,1.6136919260025024
1780528926906833200,22.52783325195313,-0.8212111592292786,-0.5315127968788147,1.4269442558288574
1780528926916934700,22.5379345703125,-1.7621324062347412,-1.2066776752471924,2.48757553100586
1780528926957217800,22.5782177734375,0.828393816947937,-0.0047884033992886,3.026270866394043
1780528926967288600,22.58828857421875,0.0766144543886184,-0.3303998410701751,2.595314741134644
1780528926977359400,22.598359375,-0.6655880808830261,-0.2825157940387726,3.49314022064209
1780528926987430100,22.60843017578125,-1.381454348564148,-0.8619126081466675,4.927267074584961
1780528926997501000,22.6185009765625,-0.4405331015586853,-1.498770236968994,5.973533153533936
1780528927037784000,22.6587841796875,1.5729905366897583,-1.3527239561080933,3.531447410583496
1780528927047854800,22.668854736328125,0.6416460275650024,-0.9457096457481384,4.220977783203125
1780528927057926000,22.67892578125,0.5793967843055725,-0.1915361285209655,5.2480902671813965
1780528927067966000,22.68896606445313,0.7805097699165344,0.6560112833976746,6.275202751159668
1780528927078067500,22.6990673828125,0.2873041927814483,-0.272938996553421,7.062894821166992
1780528927088138200,22.70913818359375,0.689530074596405,-1.6711528301239014,7.709329605102539
1780528927098178600,22.71917846679688,1.0869675874710083,-2.1092917919158936,7.108384609222412
1780528927168765700,22.789765625,0.5219359993934631,-0.811634361743927,5.260061264038086
1780528927259494400,22.880494384765623,0.9026140570640564,-0.1891419291496276,4.015076160430908
1780528927269534700,22.89053466796875,0.9840168952941896,-0.6344634294509888,3.428496837615967
1780528927279636000,22.90063598632813,1.7764976024627686,-1.4508862495422363,3.588908433914185
1780528927289706800,22.910706787109376,1.9512743949890137,-1.237802267074585,4.2951979637146
1780528927299777500,22.920777587890623,0.569819986820221,-0.7972691655158997,4.663905143737793
1780528927309848300,22.93084838867188,-1.115697979927063,0.8092401623725891,5.020640850067139
1780528927319919000,22.94091918945313,-1.1492167711257937,2.4420857429504395,4.503493309020996
1780528927329990000,22.950989990234376,0.4716577231884002,2.0039467811584477,3.1435868740081787
1780528927340060700,22.961060791015623,2.2242133617401123,-0.0550666376948356,1.7717092037200928
1780528927350131500,22.97113134765625,2.628833532333374,-2.6408045291900635,0.9959878921508788
1780528927360202500,22.98120239257813,2.693476915359497,-3.4739866256713867,0.8930372595787048
