time,seconds_elapsed,z,y,x
1780528905622295800,1.2432958984375,-2.9626965522766118,-2.869844913482666,-1.3267992734909058
1780528905632397000,1.25339697265625,-3.10197377204895,-2.6670377254486084,-1.7922786474227903
1780528905642529000,1.263529052734375,-3.220481634140014,-2.492330312728882,-2.2235496044158936
1780528905662762000,1.283761962890625,-3.393967390060425,-2.020742177963257,-2.7171285152435303
1780528905677898800,1.298898681640625,-3.441614866256714,-1.7165313959121704,-2.6059510707855225
1780528905723370000,1.344369873046875,-3.3157765865325928,-0.7953465580940247,-0.2419026345014572
1780528905733471200,1.35447119140625,-3.2278120517730717,-0.7305948138237,-0.0733038261532783
1780528905743603200,1.364603271484375,-3.1398472785949707,-0.6768386960029602,-0.0598647929728031
1780528905753704400,1.374704345703125,-3.016452550888061,-0.6450737118721008,-0.0818559452891349
1780528905763805700,1.3848056640625,-2.872288465499878,-0.6120869517326355,-0.0048869219608604
1780528905773907200,1.3949072265625,-2.719572067260742,-0.5607742667198181,0.2052507251501083
1780528905784008400,1.405008544921875,-2.634050846099853,-0.4923573732376098,0.4459316432476043
1780528905794109700,1.415109619140625,-2.6108381748199463,-0.4214970171451568,0.5619960427284241
1780528905875042300,1.496042236328125,-2.484999895095825,-0.2138028293848037,0.8393288254737854
1780528905885174300,1.50617431640625,-2.4678955078125,-0.1038470938801765,1.1997393369674685
1780528905895275500,1.516275634765625,-2.445904493331909,-0.0073303831741213,1.481959104537964
1780528905915478300,1.536478271484375,-2.403143882751465,0.1197295859456062,1.891238808631897
1780528905996319200,1.6173193359375,-2.180788993835449,0.4764748811721802,2.649933338165283
1780528906006420500,1.62742041015625,-2.057394027709961,0.4911356568336487,2.7036895751953125
1780528906016522000,1.63752197265625,-1.930334210395813,0.4984660446643829,2.8185322284698486
1780528906026653700,1.64765380859375,-1.8216001987457275,0.50335294008255,2.948035717010498
1780528906036755000,1.6577548828125,-1.7324138879776,0.4911356568336487,3.0360002517700195
1780528906046887000,1.667886962890625,-1.6493362188339231,0.4630358517169952,3.054326295852661
1780528906107342000,1.728342041015625,-0.6389650702476501,0.5302310585975647,0.3335324227809906
1780528906117443600,1.738443603515625,-0.3274237811565399,0.4251621961593628,0.1563815027475357
1780528906127514400,1.748514404296875,0.1612684279680252,0.1930334120988845,1.274264931678772
1780528906147625500,1.76862548828125,1.3231340646743774,0.3029891550540924,1.890017032623291
1780528906218151400,1.8391513671875,0.1343903541564941,-0.0977384373545646,-0.6878342628479004
1780528906298748400,1.91974853515625,-0.452040284872055,0.051312681287527,0.3176499307155609
1780528906359295200,1.980295166015625,-0.7281513810157776,0.2015855312347412,-0.3335324227809906
1780528906379498000,2.000498046875,-0.3628539443016052,0.0109955742955207,-0.3274237811565399
1780528906389568800,2.01056884765625,-0.0439822971820831,-0.2761110961437225,-0.0928515195846557
1780528906399639600,2.0206396484375,0.2871066629886627,-0.6499606370925903,-0.2382374405860901
1780528906419781000,2.040781005859375,0.051312681287527,-0.8454375267028809,-1.8448129892349243
1780528906450024000,2.07102392578125,0.171042263507843,-0.2150245606899261,-0.5412266254425049
1780528906460095000,2.081094970703125,0.2040289938449859,-0.2761110961437225,0.0207694191485643
1780528906470196200,2.0911962890625,0.171042263507843,-0.3103195428848266,0.2993239760398865
1780528906480297500,2.10129736328125,0.1087340116500854,-0.2736676335334778,0.3885102868080139
1780528906490398700,2.111398681640625,0.0745255574584007,-0.2125810980796814,0.5290092825889587
1780528906500439000,2.12143896484375,0.1258382350206375,-0.2174680233001709,0.7819074988365173
1780528906510509800,2.131509765625,0.2748893499374389,-0.2651155292987823,0.9431759119033812
1780528906520580600,2.14158056640625,0.4312708675861358,-0.2700024247169494,0.8943067193031311
1780528906540722200,2.16172216796875,0.6695083379745483,-0.2370157092809677,0.1795943826436996
1780528906550762500,2.171762451171875,0.8710938692092896,-0.2577851414680481,-0.2956587672233581
1780528906560864000,2.181864013671875,0.93095862865448,-0.3090978264808655,-0.6817256212234497
1780528906570965200,2.19196533203125,0.8210029006004333,-0.3371976017951965,-0.7916813492774963
1780528906581036000,2.2020361328125,0.7086036801338196,-0.3029891550540924,-0.6377432942390442
1780528906591106800,2.21210693359375,0.608421802520752,-0.2700024247169494,-0.2932153046131134
1780528906601177600,2.222177490234375,0.432492583990097,-0.2626720666885376,0.167377084493637
1780528906611278800,2.23227880859375,0.2174680233001709,-0.2700024247169494,0.7709119319915771
1780528906621349600,2.242349609375,0.0647517144680023,-0.2382374405860901,1.431868076324463
1780528906631420400,2.25242041015625,-0.0073303831741213,-0.1795943826436996,1.958433985710144
1780528906641522000,2.26252197265625,-0.0537561401724815,-0.1417207419872284,2.261423110961914
1780528906661663500,2.28266357421875,-0.0403171069920063,-0.1441642045974731,2.014633655548096
1780528906671764700,2.2927646484375,-0.0623082555830478,-0.1637118905782699,1.470963478088379
1780528906681835500,2.30283544921875,-0.140499010682106,-0.1942551434040069,0.8258898258209229
1780528906691906300,2.31290625,-0.1893682330846786,-0.2419026345014572,0.2443460971117019
1780528906712047900,2.3330478515625,-0.2064724564552307,-0.3689626157283783,-0.4740314185619354
1780528906722119000,2.343118896484375,-0.2223549485206604,-0.4007275998592376,-0.5400048494338989
1780528906732189700,2.353189697265625,-0.2956587672233581,-0.3799581825733185,-0.5803219676017761
1780528906752331300,2.373331298828125,-0.4691445231437683,-0.3384193480014801,-0.9456194043159484
1780528906762432500,2.3834326171875,-0.4178318381309509,-0.3591887652873993,-1.0384708642959597
1780528906772503300,2.39350341796875,-0.3359758853912353,-0.4080579876899719,-1.036027431488037
1780528906782574000,2.403573974609375,-0.280998021364212,-0.4373795092105865,-0.90408056974411
1780528906802715600,2.423715576171875,-0.2174680233001709,-0.3286454975605011,-0.2076941877603531
1780528906812786400,2.433786376953125,-0.1698205322027206,-0.3005456924438476,0.1918116807937622
1780528906822857200,2.443857177734375,-0.1392772793769836,-0.2907718420028686,0.4373795092105865
1780528906832958700,2.453958740234375,-0.1197295859456062,-0.2174680233001709,0.5265658497810364
1780528906853100300,2.474100341796875,0.0574213340878486,-0.1136209368705749,0.1930334120988845
1780528906863201500,2.484201416015625,0.0879645943641662,-0.1991420686244964,0.261450320482254
1780528906873272300,2.494272216796875,0.0830776765942573,-0.3286454975605011,0.4337143301963806
1780528906883373600,2.50437353515625,0.1588249653577804,-0.3836233615875244,0.5009095072746277
1780528906893475000,2.51447509765625,0.3139847218990326,-0.4056145250797272,0.4948008358478546
1780528906903576300,2.524576416015625,0.4459316432476043,-0.4031710624694824,0.4605923891067505
1780528906923748400,2.544748291015625,0.3555235862731933,-0.3640756905078888,0.5937610268592834
1780528906933819100,2.554819091796875,0.3775147199630737,-0.3567453026771545,0.5436700582504272
1780528906953960700,2.574960693359375,0.5558874011039734,-0.4166100919246673,-0.0097738439217209
1780528906964062200,2.585062255859375,0.5827654600143433,-0.4178318381309509,-0.0464257597923278
1780528906974133000,2.595133056640625,0.5913175344467163,-0.3787364661693573,0.1771509200334549
1780528906994274600,2.615274658203125,0.5729916095733643,-0.1905899494886398,0.598647952079773
1780528907004345300,2.625345458984375,0.5497786998748779,-0.0806342139840126,0.6218608021736145
1780528907014416100,2.635416015625,0.5387831330299377,0.0158824957907199,0.4996877610683441
1780528907024487000,2.64548681640625,0.4996877610683441,0.0745255574584007,0.3103195428848266
1780528907034588200,2.655588134765625,0.4593706727027893,0.1026253625750541,0.1331686228513717
1780528907044659000,2.665658935546875,0.4105014503002167,0.1209513172507286,0.1356120854616165
1780528907054730000,2.67572998046875,0.3543018400669098,0.1539380401372909,0.2431243658065796
1780528907064800800,2.68580078125,0.294437050819397,0.1942551434040069,0.342084527015686
1780528907074871600,2.69587158203125,0.2590068578720093,0.1783726513385772,0.4386012554168701
1780528907084942300,2.7059423828125,0.2700024247169494,0.1429424732923507,0.4495968222618103
1780528907095043600,2.716043701171875,0.2724458873271942,0.1514945775270462,0.3909537494182586
1780528907115215600,2.736215576171875,0.2993239760398865,0.147829383611679,0.394618958234787
1780528907125317000,2.746317138671875,0.3262020349502563,0.0879645943641662,0.3860668241977691
1780528907135388000,2.756387939453125,0.3323107063770294,0.0879645943641662,0.4447098970413208
1780528907145489200,2.7664892578125,0.3152064681053161,0.1514945775270462,0.5717698931694031
1780528907155590400,2.77659033203125,0.3262020349502563,0.2235766798257827,0.6719517707824707
1780528907165661200,2.7866611328125,0.342084527015686,0.2785545587539673,0.7110471725463867
1780528907175762700,2.7967626953125,0.3176499307155609,0.2883284091949463,0.6939429044723511
1780528907195934700,2.816934814453125,0.2296853363513946,0.3115412890911102,0.5106833577156067
1780528907266461000,2.8874609375,0.2419026345014572,0.2296853363513946,0.4092797040939331
1780528907327007700,2.9480078125,0.051312681287527,-0.1148426681756973,-0.180816113948822
1780528907417736400,3.038736328125,-0.2260201424360275,0.0684169083833694,-0.2455678284168243
1780528907468151600,3.089151611328125,-0.2113593816757202,0.1869247704744339,-0.3738495409488678
1780528907478252800,3.099252685546875,-0.2174680233001709,0.1820378452539444,-0.4789183437824249
1780528907488354000,3.10935400390625,-0.1942551434040069,0.2089159190654754,-0.4984660446643829
1780528907498455600,3.11945556640625,-0.1820378452539444,0.2394591718912124,-0.4605923891067505
1780528907508526300,3.1295263671875,-0.1795943826436996,0.2577851414680481,-0.4092797040939331
1780528907518597000,3.13959716796875,-0.1734857261180877,0.2761110961437225,-0.3384193480014801
1780528907548840000,3.16983984375,-0.1123992055654525,0.2748893499374389,-0.3591887652873993
1780528907558941200,3.179941162109375,-0.1282816976308822,0.2528982162475586,-0.3897320330142975
1780528907569042700,3.190042724609375,-0.1356120854616165,0.2223549485206604,-0.4105014503002167
1780528907579083000,3.2000830078125,-0.1185078546404838,0.1820378452539444,-0.4508185386657715
1780528907589123000,3.210123046875,-0.0928515195846557,0.1258382350206375,-0.4410447180271148
1780528907599224600,3.220224609375,-0.0500909499824047,0.0794124826788902,-0.4117231667041778
1780528907609325800,3.230325927734375,0.0097738439217209,0.0268780700862407,-0.3995058834552765
1780528907649639400,3.270639404296875,0.1563815027475357,-0.0476474873721599,-0.4581489264965057
1780528907669842200,3.29084228515625,0.2394591718912124,0.0122173046693205,-0.4166100919246673
1780528907679913000,3.300912841796875,0.1832595765590667,0.0452040284872055,-0.3103195428848266
1780528907700115700,3.32111572265625,0.0818559452891349,0.0733038261532783,-0.2052507251501083
1780528907750469600,3.3714697265625,-0.0158824957907199,0.2431243658065796,-0.0781907513737678
1780528907760571000,3.38157080078125,0.0122173046693205,0.2981022298336029,-0.1417207419872284
1780528907770672000,3.391672119140625,0.0610865242779254,0.3457497358322143,-0.1991420686244964
1780528907780773600,3.401773681640625,0.1295034289360046,0.4007275998592376,-0.2089159190654754
1780528907810986000,3.431986083984375,0.2907718420028686,0.5534439086914062,0.0940732508897781
1780528907821087200,3.442087158203125,0.3335324227809906,0.5656611919403076,0.140499010682106
1780528907831158000,3.452157958984375,0.3811798989772796,0.5314527750015259,0.1087340116500854
1780528907841259500,3.462259521484375,0.4373795092105865,0.475253164768219,0.0610865242779254
1780528907861340000,3.48233984375,0.4984660446643829,0.342084527015686,-0.0207694191485643
1780528907871380200,3.492380126953125,0.4838052690029144,0.2700024247169494,-0.0415388382971286
1780528907881451000,3.502450927734375,0.4459316432476043,0.2260201424360275,-0.0390953756868839
1780528907891552300,3.51255224609375,0.3970624208450317,0.1991420686244964,-0.0207694191485643
1780528907901623300,3.522623291015625,0.3701843321323395,0.1771509200334549,-0.0354301854968071
1780528907911694000,3.532694091796875,0.351858377456665,0.1233947798609733,-0.0354301854968071
1780528907921764900,3.542764892578125,0.3225368559360504,0.0916297882795333,0.0745255574584007
1780528908002545000,3.623544921875,0.058643065392971,-0.1698205322027206,-0.1246165111660957
1780528908052959700,3.673959716796875,0.0293215326964855,-0.3579670190811157,-0.2125810980796814
1780528908103405300,3.7244052734375,-0.140499010682106,-0.3262020349502563,-0.0427605658769607
1780528908113506800,3.7345068359375,-0.1747074574232101,-0.2602286040782928,0.0378736443817615
1780528908123577600,3.74457763671875,-0.2150245606899261,-0.2162462919950485,0.1563815027475357
1780528908133678800,3.754678955078125,-0.2577851414680481,-0.2260201424360275,0.2247984111309051
1780528908143780000,3.764780029296875,-0.2675589919090271,-0.2382374405860901,0.2663372457027435
1780528908153851000,3.774850830078125,-0.2382374405860901,-0.1966986060142517,0.3677408695220947
1780528908163921700,3.784921630859375,-0.2296853363513946,-0.1747074574232101,0.4532620012760162
1780528908174023200,3.795023193359375,-0.2089159190654754,-0.157603234052658,0.5375614166259766
1780528908184094000,3.805093994140625,-0.1685988008975982,-0.157603234052658,0.5583308339118958
1780528908204266000,3.825265869140625,-0.0855211317539215,-0.1795943826436996,0.4862487316131592
1780528908214367200,3.8353671875,-0.0378736443817615,-0.2150245606899261,0.4361577928066253
1780528908224438000,3.84543798828125,-0.0073303831741213,-0.2528982162475586,0.3860668241977691
1780528908234570000,3.855570068359375,0.0256563406437635,-0.2761110961437225,0.3543018400669098
1780528908244671200,3.865671142578125,0.0549778714776039,-0.2932153046131134,0.3127630054950714
1780528908305309700,3.926309814453125,0.1368338167667389,-0.3408628106117248,0.1185078546404838
1780528908386059300,4.007059326171875,0.2003637999296188,-0.3933972120285034,0.1466076523065567
1780528908396160500,4.017160400390625,0.2052507251501083,-0.3689626157283783,0.1527163088321685
1780528908416393700,4.037393798828125,0.1844813078641891,-0.3225368559360504,0.2370157092809677
1780528908436596200,4.05759619140625,0.0965167060494422,-0.2467895597219467,0.3139847218990326
1780528908497234700,4.118234619140625,-0.0427605658769607,-0.0965167060494422,0.4043927788734436
1780528908507305500,4.128305419921875,-0.0476474873721599,-0.1185078546404838,0.3408628106117248
1780528908517437400,4.1384375,-0.0610865242779254,-0.1221730485558509,0.3066543638706207
1780528908547741400,4.168741455078125,-0.0354301854968071,-0.1392772793769836,0.3494149148464203
1780528908557781500,4.178781494140625,-0.0268780700862407,-0.1624901592731475,0.3726277947425842
1780528908567913500,4.18891357421875,-0.0232128798961639,-0.1734857261180877,0.4166100919246673
1780528908578014700,4.1990146484375,-0.0036651915870606,-0.1783726513385772,0.4459316432476043
1780528908588116200,4.2091162109375,0.0219911485910415,-0.1857030391693115,0.455705463886261
1780528908598217500,4.219217529296875,0.0268780700862407,-0.1966986060142517,0.4508185386657715
1780528908608349200,4.22934912109375,0.0378736443817615,-0.1954768747091293,0.3836233615875244
1780528908618450700,4.23945068359375,0.0476474873721599,-0.1844813078641891,0.2981022298336029
1780528908628552000,4.249552001953125,0.0598647929728031,-0.1527163088321685,0.2577851414680481
1780528908638683600,4.25968359375,0.0757472887635231,-0.1258382350206375,0.2651155292987823
1780528908648785200,4.26978515625,0.0842994004487991,-0.0647517144680023,0.2773328125476837
1780528908668987600,4.289987548828125,0.0623082555830478,0.1050688251852989,0.2541199326515198
1780528908679089000,4.3000888671875,0.0452040284872055,0.1661553531885147,0.2333505302667617
1780528908689190400,4.3101904296875,0.0207694191485643,0.2174680233001709,0.1966986060142517
1780528908709393000,4.330392822265625,-0.0549778714776039,0.3176499307155609,0.1661553531885147
1780528908719494400,4.340494384765625,-0.0952949747443199,0.3335324227809906,0.157603234052658
1780528908739697000,4.36069677734375,-0.2321287989616394,0.3738495409488678,-0.0219911485910415
1780528908749798100,4.370798095703125,-0.4031710624694824,0.3982841372489929,-0.3494149148464203
1780528908759899600,4.380899658203125,-0.4300491213798523,0.4080579876899719,-0.485027015209198
1780528908780163300,4.401163330078125,-0.5265658497810364,0.5424483418464661,-0.3555235862731933
1780528908800365800,4.42136572265625,-0.6939429044723511,0.6279694437980652,-0.0855211317539215
1780528908810497800,4.431497802734375,-0.788016140460968,0.6377432942390442,-0.1588249653577804
1780528908820599000,4.44159912109375,-0.8820894360542297,0.5949827432632446,-0.2822197377681732
1780528908830700300,4.4517001953125,-0.8820894360542297,0.5949827432632446,-0.2822197377681732
1780528908840801500,4.461801513671875,-0.9199630618095398,0.5119050741195679,-0.3970624208450317
1780528908850872300,4.471872314453125,-0.912632703781128,0.4508185386657715,-0.3995058834552765
1780528908860943400,4.481943359375,-0.8979719281196594,0.4703662395477295,-0.2907718420028686
1780528908871044600,4.492044677734375,-0.9346238374710084,0.5119050741195679,-0.1062905490398407
1780528908881115400,4.502115478515625,-0.9847147464752196,0.513126790523529,0.0427605658769607
1780528908891186200,4.512186279296875,-0.9834930300712584,0.4410447180271148,0.0806342139840126
1780528908901287400,4.522287353515625,-0.9370672702789308,0.3604104816913605,-0.0415388382971286
1780528908911389000,4.532388916015625,-0.8796459436416626,0.1881465017795562,-0.2052507251501083
1780528908921459700,4.542459716796875,-0.8222246170043945,0.1466076523065567,-0.2040289938449859
1780528908931561000,4.55256103515625,-0.8038986921310425,0.1624901592731475,-0.0537561401724815
1780528908941631700,4.5626318359375,-0.8393288254737854,0.2223549485206604,0.2015855312347412
1780528908951733000,4.57273291015625,-0.856433093547821,0.271224170923233,0.3506366610527038
1780528908971905300,4.5929052734375,-0.8637634515762329,0.1869247704744339,0.0476474873721599
1780528908992077300,4.613077392578125,-0.8381071090698242,0.0500909499824047,-0.2296853363513946
1780528909012188400,4.6331884765625,-0.817337691783905,0.0207694191485643,-0.0610865242779254
1780528909022259200,4.64325927734375,-0.8503243923187256,0.0317649915814399,0.0781907513737678
1780528909032330000,4.653330078125,-0.8503243923187256,0.0061086523346602,0.0952949747443199
1780528909042400800,4.66340087890625,-0.789237916469574,-0.0085521135479211,-0.0891863256692886
1780528909102978000,4.72397802734375,-0.6426302194595337,0.1380555480718612,-0.1099557429552078
1780528909163525000,4.784525146484375,-0.4141666293144226,0.1502728462219238,-0.6585127115249634
1780528909193798400,4.81479833984375,-0.3897320330142975,0.2235766798257827,-0.5253441333770752
1780528909234173200,4.855173095703125,-0.3249803185462951,0.1942551434040069,-0.4789183437824249
1780528909274548000,4.8955478515625,-0.0977384373545646,0.2162462919950485,-0.4935791194438934
1780528909284649200,4.905649169921875,-0.0720821022987365,0.2333505302667617,-0.3225368559360504
1780528909294720000,4.915719970703125,0.0171042270958423,0.2284636050462722,-0.3164281845092773
1780528909304729900,4.925729736328125,0.0965167060494422,0.2565633952617645,-0.5241223573684692
1780528909314861800,4.93586181640625,0.1062905490398407,0.294437050819397,-0.6670648455619812
1780528909324932600,4.9459326171875,0.1062905490398407,0.3433062732219696,-0.6243042945861816
1780528909345074200,4.96607421875,0.2602286040782928,0.3836233615875244,-0.2663372457027435
1780528909365276700,4.986276611328125,0.3286454975605011,0.3078760802745819,-0.1014036312699318
1780528909385449000,5.006448974609375,0.4202753007411957,0.4214970171451568,-0.2455678284168243
1780528909395550200,5.01655029296875,0.5461135506629944,0.4117231667041778,-0.3726277947425842
1780528909405621000,5.02662109375,0.6963863968849182,0.384845107793808,-0.4630358517169952
1780528909415691800,5.03669189453125,0.8258898258209229,0.4007275998592376,-0.4874704778194427
1780528909425732000,5.046732177734375,0.9456194043159484,0.5119050741195679,-0.5277875661849976
1780528909435833300,5.056833251953125,1.0604621171951294,0.5925393104553223,-0.4153883755207062
1780528909445934600,5.0669345703125,1.1753047704696655,0.6548475623130798,-0.1869247704744339
1780528909466076400,5.087076416015625,1.2131783962249756,0.8014551997184753,0.2419026345014572
1780528909486248400,5.10724853515625,1.3854423761367798,0.6133087277412415,0.2577851414680481
1780528909496319200,5.1173193359375,1.5748106241226196,0.6352998614311218,-0.1136209368705749
1780528909506390000,5.12739013671875,1.7214182615280151,0.6597344875335693,-0.2956587672233581
1780528909516491300,5.1374912109375,1.7837265729904177,0.720820963382721,-0.2687807083129883
1780528909536632800,5.1576328125,1.6713273525238037,0.6157521605491638,0.3689626157283783
1780528909546673200,5.167673095703125,1.6016886234283447,0.7330383062362671,0.5461135506629944
1780528909566845400,5.187845458984375,1.6786576509475708,0.8637634515762329,0.3860668241977691
1780528909576946700,5.19794677734375,1.9132299423217771,0.8503243923187256,-0.1062905490398407
1780528909597180000,5.218179931640625,2.246762275695801,0.7318165898323059,-0.3213151097297668
1780528909617352000,5.23835205078125,1.8154915571212769,1.0250319242477417,1.1252137422561646
1780528909627422700,5.248422607421875,1.508837103843689,1.0506882667541504,1.4795156717300415
1780528909637493500,5.258493408203125,1.340238332748413,1.0897835493087769,1.1410962343215942
1780528909647564300,5.268564208984375,1.1740829944610596,1.0934487581253052,0.2394591718912124
1780528909657604600,5.2786044921875,1.1203268766403198,0.9004153609275818,-0.7147123217582703
1780528909687786500,5.308786376953125,0.261450320482254,0.7953465580940247,1.3145819902420044
1780528909748242000,5.369241943359375,0.1038470938801765,0.3054326176643371,-1.1618657112121582
1780528909808727600,5.4297275390625,-0.7379252314567566,0.1453859210014343,-1.1985175609588623
1780528909879253800,5.500253662109375,-1.5650367736816406,-1.0396926403045654,0.7782423496246338
1780528909939739600,5.56073974609375,-1.1484266519546509,-1.7763961553573608,-1.0323622226715088
1780528910000195000,5.621195068359375,-1.2705997228622437,-1.0604621171951294,-0.2064724564552307
1780528910030407400,5.651407470703125,-1.3927727937698364,-0.7513642311096191,-0.8894197940826416
1780528910060711400,5.68171142578125,-1.585806131362915,0.0378736443817615,1.0067058801651
1780528910070782200,5.6917822265625,-1.2620476484298706,0.1319468915462494,0.7525860071182251
1780528910080853000,5.70185302734375,-0.9138544201850892,0.1062905490398407,-0.0378736443817615
1780528910090923800,5.711923828125,-0.7819074988365173,-0.1417207419872284,-0.6133087277412415
1780528910100994600,5.72199462890625,-0.769690215587616,-0.2981022298336029,-0.9847147464752196
1780528910111126300,5.732126220703125,-0.8393288254737854,-0.2003637999296188,-0.9859365224838256
1780528910151440100,5.772440185546875,-0.2382374405860901,-0.157603234052658,0.7684684991836548
1780528910161541400,5.782541259765625,-0.3054326176643371,-0.1734857261180877,0.6914994716644287
1780528910171612200,5.792612060546875,-0.3469714522361755,-0.157603234052658,0.167377084493637
1780528910181713400,5.80271337890625,-0.3017674386501312,-0.2040289938449859,-0.6035348773002625
1780528910191815000,5.81281494140625,-0.067195177078247,-0.361632227897644,-0.9468411207199096
1780528910201885700,5.8228857421875,0.2773328125476837,-0.3824016451835632,-1.016479730606079
1780528910212017400,5.833017333984375,0.251676470041275,-0.3457497358322143,-0.5619960427284241
1780528910242260500,5.863260498046875,0.1368338167667389,-0.3139847218990326,1.1081095933914185
1780528910262402000,5.883402099609375,0.3982841372489929,0.2138028293848037,-0.0244346093386411
1780528910272503300,5.89350341796875,0.817337691783905,0.3933972120285034,-0.5656611919403076
1780528910282574000,5.903573974609375,0.950506329536438,0.351858377456665,-0.5974262356758118
1780528910292675300,5.91367529296875,0.6682865619659424,0.0073303831741213,0.0024434609804302
1780528910302746000,5.92374609375,0.3469714522361755,-0.3384193480014801,0.7037167549133301
1780528910383434800,6.004434814453125,0.5583308339118958,-0.7220427393913269,-0.0085521135479211
1780528910393536000,6.014535888671875,0.7342600226402283,-0.2871066629886627,0.4251621961593628
1780528910403606800,6.024606689453125,0.7024950385093689,0.0610865242779254,0.8747590184211731
1780528910413677600,6.034677490234375,0.5216789245605469,0.261450320482254,1.281595230102539
1780528910433819100,6.054819091796875,0.2480112910270691,-0.0452040284872055,1.156978726387024
1780528910443890000,6.064889892578125,0.2174680233001709,-0.5473352670669556,-0.3579670190811157
1780528910453960700,6.074960693359375,0.3897320330142975,-0.5363397002220154,-0.6255260109901428
1780528910463970600,6.084970458984375,0.626747727394104,-0.3152064681053161,-0.3029891550540924
1780528910474071800,6.09507177734375,0.7257078886032104,0.0195476878434419,0.3775147199630737
1780528910484173300,6.10517333984375,0.607200026512146,0.2040289938449859,1.1887437105178833
1780528910494274600,6.115274658203125,0.4544837474822998,0.1441642045974731,1.6969836950302124
1780528910504315000,6.12531494140625,0.384845107793808,-0.0488692186772823,1.585806131362915
1780528910514416000,6.135416015625,0.4642575979232788,-0.2101376503705978,1.0067058801651
1780528910544689700,6.165689697265625,0.940732479095459,-0.3103195428848266,-0.0305432621389627
1780528910554791000,6.175791015625,0.7244861721992493,-0.1869247704744339,0.4789183437824249
1780528910564861700,6.18586181640625,0.4080579876899719,-0.0733038261532783,1.0836749076843262
1780528910574902000,6.195902099609375,0.2345722615718841,-0.1185078546404838,1.292590856552124
1780528910584942300,6.2059423828125,0.2235766798257827,-0.1832595765590667,1.0726794004440308
1780528910595043600,6.216043701171875,0.2907718420028686,-0.1282816976308822,0.7061602473258972
1780528910605144800,6.226144775390625,0.4361577928066253,-0.0769690200686454,0.3775147199630737
1780528910615246300,6.236246337890625,0.5326744914054871,-0.1869247704744339,0.2125810980796814
1780528910705913900,6.326913818359375,0.3799581825733185,-0.2858849465847015,0.4153883755207062
1780528910766461000,6.3874609375,0.2590068578720093,-0.1637118905782699,0.1893682330846786
1780528910786633000,6.407633056640625,0.2858849465847015,-0.2174680233001709,-0.0366519130766391
1780528910796734200,6.417734130859375,0.1930334120988845,-0.2431243658065796,0.0439822971820831
1780528910806835500,6.42783544921875,0.1453859210014343,-0.1918116807937622,0.251676470041275
1780528910816937000,6.43793701171875,0.1954768747091293,-0.1624901592731475,0.280998021364212
1780528910827038200,6.4480380859375,0.2528982162475586,-0.1893682330846786,0.1258382350206375
1780528910837109000,6.45810888671875,0.2785545587539673,-0.2357939779758453,0.0403171069920063
1780528910847179800,6.4681796875,0.2700024247169494,-0.271224170923233,0.0635299831628799
1780528910857311700,6.478311767578125,0.2321287989616394,-0.2785545587539673,0.098960168659687
1780528910867413000,6.4884130859375,0.2003637999296188,-0.2736676335334778,0.0745255574584007
1780528910877514200,6.49851416015625,0.1881465017795562,-0.2785545587539673,0.0073303831741213
1780528910927959800,6.548959716796875,0.1942551434040069,-0.2528982162475586,0.0061086523346602
1780528910948132000,6.569132080078125,0.1918116807937622,-0.1881465017795562,0.1319468915462494
1780528910958263800,6.579263916015625,0.1429424732923507,-0.1698205322027206,0.107512280344963
1780528910968365000,6.589364990234375,0.1087340116500854,-0.147829383611679,0.0977384373545646
1780528910988537300,6.609537353515625,0.140499010682106,-0.1954768747091293,-0.1001818999648094
1780528911039013400,6.660013427734375,-0.0757472887635231,-0.1380555480718612,0.1698205322027206
1780528911049114600,6.670114501953125,-0.107512280344963,-0.1246165111660957,0.090408056974411
1780528911079418600,6.700418701171875,0.0036651915870606,-0.1637118905782699,-0.2015855312347412
1780528911089519900,6.710519775390625,0.0354301854968071,-0.0830776765942573,-0.2064724564552307
1780528911099621000,6.72062109375,0.0561996027827262,-0.0452040284872055,-0.2040289938449859
1780528911160229000,6.78122900390625,0.1246165111660957,0.2101376503705978,-0.2455678284168243
1780528911190533000,6.811533203125,-0.0378736443817615,0.3396410644054413,0.1685988008975982
1780528911200664800,6.821664794921875,-0.1624901592731475,0.3408628106117248,0.2577851414680481
1780528911210766300,6.831766357421875,-0.2663372457027435,0.3176499307155609,0.2076941877603531
1780528911220898000,6.84189794921875,-0.2748893499374389,0.2834414839744568,-0.0232128798961639
1780528911230999300,6.851999267578125,-0.2370157092809677,0.2504547536373138,-0.3103195428848266
1780528911241100800,6.862100830078125,-0.2113593816757202,0.221133217215538,-0.4410447180271148
1780528911261303300,6.88230322265625,-0.2602286040782928,0.2003637999296188,-0.2186897546052932
1780528911271404800,6.89240478515625,-0.3213151097297668,0.2577851414680481,-0.0085521135479211
1780528911281506000,6.902506103515625,-0.3799581825733185,0.3237585723400116,0.0794124826788902
1780528911291637800,6.9126376953125,-0.4789183437824249,0.2675589919090271,0.1209513172507286
1780528911301769700,6.922769775390625,-0.5436700582504272,0.1881465017795562,0.0708603709936142
1780528911311901400,6.9329013671875,-0.5742133259773254,0.1221730485558509,-0.1123992055654525
1780528911322003000,6.9430029296875,-0.6010913848876953,0.0684169083833694,-0.1783726513385772
1780528911332104200,6.953104248046875,-0.5412266254425049,0.0891863256692886,-0.1905899494886398
1780528911342236000,6.96323583984375,-0.4715879559516907,0.117286130785942,-0.1820378452539444
1780528911372570400,6.9935703125,-0.8100073337554932,0.0525344125926494,0.0781907513737678
1780528911382672000,7.003671875,-0.8356636762619019,0.0097738439217209,0.0525344125926494
1780528911392773000,7.013773193359375,-0.8161159753799438,-0.0965167060494422,-0.0879645943641662
1780528911402904800,7.02390478515625,-0.8087855577468872,-0.1893682330846786,-0.1942551434040069
1780528911413006300,7.03400634765625,-0.788016140460968,-0.1857030391693115,-0.1380555480718612
1780528911443279600,7.064279541015625,-0.8759807348251343,-0.0500909499824047,-0.1062905490398407
1780528911453411600,7.07441162109375,-0.912632703781128,-0.0610865242779254,-0.2015855312347412
1780528911463452000,7.084451904296875,-0.9395107626914978,-0.0476474873721599,-0.2431243658065796
1780528911473583600,7.09458349609375,-0.9492846131324768,0.0378736443817615,-0.2199114859104156
1780528911483715600,7.104715576171875,-0.9590584635734558,0.0928515195846557,-0.1539380401372909
1780528911493847300,7.114847412109375,-0.9492846131324768,0.1111774742603302,-0.0256563406437635
1780528911503887600,7.1248876953125,-0.8979719281196594,0.1062905490398407,-0.0232128798961639
1780528911514019300,7.135019287109375,-0.8894197940826416,0.098960168659687,-0.1197295859456062
1780528911534283000,7.155282958984375,-0.8222246170043945,0.2883284091949463,-0.1197295859456062
1780528911544353800,7.165353759765625,-0.7195992469787598,0.3066543638706207,-0.1954768747091293
1780528911564617500,7.185617431640625,-0.7171558141708374,0.2345722615718841,-0.2907718420028686
1780528911574749400,7.19574951171875,-0.6768386960029602,0.2406809031963348,-0.3494149148464203
1780528911594952000,7.215951904296875,-0.5351179838180542,0.2174680233001709,-0.4459316432476043
1780528911605084000,7.226083984375,-0.4642575979232788,0.1783726513385772,-0.4679227769374847
1780528911625286400,7.246286376953125,-0.5021312236785889,0.2247984111309051,-0.3958406746387481
1780528911635388000,7.256387939453125,-0.5510004758834839,0.2321287989616394,-0.3103195428848266
1780528911655620900,7.276620849609375,-0.5485569834709167,0.0965167060494422,-0.5619960427284241
1780528911665752800,7.2867529296875,-0.5595525503158569,0.0122173046693205,-0.7257078886032104
1780528911675854000,7.29685400390625,-0.4679227769374847,-0.0268780700862407,-0.5314527750015259
1780528911685955600,7.30695556640625,-0.4923573732376098,0.0146607663482427,-0.2541199326515198
1780528911696087300,7.31708740234375,-0.5424483418464661,0.0207694191485643,-0.1747074574232101
1780528911706188500,7.3271884765625,-0.5668829679489136,-0.0244346093386411,-0.2919935882091522
1780528911716290000,7.3372900390625,-0.5400048494338989,-0.1014036312699318,-0.4972442984580993
1780528911726360800,7.34736083984375,-0.4801400899887085,-0.117286130785942,-0.656069278717041
1780528911736492500,7.357492431640625,-0.4386012554168701,-0.1062905490398407,-0.6499606370925903
1780528911746593800,7.36759375,-0.3995058834552765,-0.1197295859456062,-0.5229006409645081
1780528911756725800,7.377725830078125,-0.3567453026771545,-0.1295034289360046,-0.4019493460655212
1780528911766857500,7.387857421875,-0.3078760802745819,-0.157603234052658,-0.3225368559360504
1780528911787090700,7.408090576171875,-0.1698205322027206,0.0085521135479211,-0.4569272100925445
1780528911807293400,7.42829345703125,-0.1661553531885147,-0.0427605658769607,-0.3591887652873993
1780528911867962400,7.48896240234375,0.1038470938801765,-0.0073303831741213,-0.4764748811721802
1780528911888195300,7.5091953125,0.2357939779758453,-0.0085521135479211,-0.4178318381309509
1780528911938732500,7.559732666015625,0.4263839423656463,-0.0097738439217209,-0.3457497358322143
1780528911948833800,7.569833740234375,0.4838052690029144,-0.0769690200686454,-0.3029891550540924
1780528911958935300,7.579935302734375,0.4948008358478546,-0.107512280344963,-0.2272418737411499
1780528911969036500,7.59003662109375,0.4776966273784637,-0.0452040284872055,-0.0476474873721599
1780528911979137800,7.6001376953125,0.5925393104553223,0.0610865242779254,-0.0452040284872055
1780528911989239000,7.610239013671875,0.8161159753799438,0.0806342139840126,-0.2150245606899261
1780528911999340500,7.620340576171875,0.9480628371238708,0.0048869219608604,-0.3225368559360504
1780528912009441800,7.63044189453125,0.9419541954994202,0.0195476878434419,-0.1649336218833923
1780528912049877500,7.67087744140625,1.2950342893600464,0.3982841372489929,0.1649336218833923
1780528912059979000,7.68097900390625,1.330464482307434,0.4019493460655212,0.0928515195846557
1780528912070080300,7.691080322265625,1.3658946752548218,0.3885102868080139,-0.0403171069920063
1780528912080212000,7.7012119140625,1.4831807613372805,0.4153883755207062,-0.140499010682106
1780528912090313500,7.7113134765625,1.6615535020828247,0.485027015209198,-0.304210901260376
1780528912100414700,7.721414794921875,1.7275269031524658,0.4960225820541382,-0.4092797040939331
1780528912120678400,7.741678466796875,1.8093829154968264,0.4838052690029144,-0.3628539443016052
1780528912130718700,7.75171875,1.9132299423217771,0.4899139404296875,-0.3958406746387481
1780528912140789500,7.76178955078125,1.8949040174484253,0.4984660446643829,-0.3054326176643371
1780528912160900600,7.781900634765625,1.8680258989334104,0.5167919993400574,0.0415388382971286
1780528912241619500,7.862619384765625,1.408655285835266,0.5436700582504272,-0.626747727394104
1780528912261761000,7.882760986328125,1.1105530261993408,0.4813618063926697,-0.5180137157440186
1780528912271801300,7.89280126953125,0.8600982427597046,0.4544837474822998,-0.0940732508897781
1780528912281872100,7.9028720703125,0.6352998614311218,0.4569272100925445,0.2553416788578033
1780528912291943000,7.91294287109375,0.3982841372489929,0.4080579876899719,0.5119050741195679
1780528912301983200,7.922983154296875,0.2626720666885376,0.3506366610527038,0.4031710624694824
1780528912372509400,7.993509521484375,-0.608421802520752,0.171042263507843,0.1551597714424133
1780528912392620500,8.01362060546875,-0.9847147464752196,-0.0476474873721599,0.5338962078094482
1780528912402691300,8.02369140625,-1.0482447147369385,-0.1148426681756973,0.375071257352829
1780528912412762000,8.03376220703125,-1.119105100631714,-0.1771509200334549,0.0794124826788902
1780528912422802400,8.043802490234375,-1.224173903465271,-0.3115412890911102,-0.1734857261180877
1780528912503521300,8.124521240234374,-1.5919147729873655,-0.807563841342926,-0.5607742667198181
1780528912533764400,8.154764404296875,-1.528384804725647,-0.6511823534965515,0.1661553531885147
1780528912543804700,8.1648046875,-1.431868076324463,-0.5241223573684692,-0.0378736443817615
1780528912553906000,8.174906005859375,-1.348790407180786,-0.4178318381309509,-0.3323107063770294
1780528912563976700,8.184976806640625,-1.3182471990585327,-0.4056145250797272,-0.4679227769374847
1780528912594189000,8.21518896484375,-1.5357152223587036,-0.3152064681053161,0.6120869517326355
1780528912604290300,8.225290283203124,-1.4868459701538086,-0.2541199326515198,0.7257078886032104
1780528912614391800,8.235391845703125,-1.470963478088379,-0.2700024247169494,0.6426302194595337
1780528912624493000,8.2454931640625,-1.3463469743728638,-0.2748893499374389,0.504574716091156
1780528912684948500,8.305948486328125,-0.7110471725463867,-0.3933972120285034,0.4434881806373596
1780528912725292500,8.34629248046875,-0.4764748811721802,0.0940732508897781,0.3872885704040527
1780528912735363300,8.35636328125,-0.1001818999648094,-0.0280998013913631,0.0036651915870606
1780528912745434000,8.36643408203125,0.2736676335334778,-0.1331686228513717,-0.5693264007568359
1780528912755535600,8.37653564453125,0.1258382350206375,-0.221133217215538,-0.5949827432632446
1780528912765606400,8.3866064453125,-0.3543018400669098,-0.1539380401372909,0.0574213340878486
1780528912775707600,8.396707763671875,-0.5229006409645081,-0.0867428630590438,0.9529497623443604
1780528912785778400,8.4067783203125,-0.2443460971117019,0.0061086523346602,1.1056660413742063
1780528912795849200,8.41684912109375,0.0183259565383195,0.1832595765590667,0.5705481171607971
1780528912805950500,8.426950439453124,0.2174680233001709,0.1795943826436996,0.0500909499824047
1780528912816052000,8.437052001953125,0.4019493460655212,0.0317649915814399,-0.5949827432632446
1780528912826122800,8.447122802734375,0.3897320330142975,-0.2357939779758453,-0.90408056974411
1780528912836193500,8.457193603515625,0.3103195428848266,-0.3298672437667846,-0.7379252314567566
1780528912866436400,8.487436279296874,0.0952949747443199,0.3225368559360504,1.3439035415649414
1780528912876537900,8.497537841796875,0.1417207419872284,0.461814135313034,1.6395623683929443
1780528912886608600,8.507608642578125,0.2687807083129883,0.5082398653030396,1.1349875926971436
1780528912896710000,8.5177099609375,0.3897320330142975,0.3213151097297668,0.0452040284872055
1780528912906811100,8.52781103515625,0.4801400899887085,-0.0696386396884918,-0.8515461683273315
1780528912916912400,8.537912353515624,0.6450737118721008,-0.2333505302667617,-1.2217304706573486
1780528912926983200,8.547983154296874,0.7024950385093689,-0.2443460971117019,-0.9566149711608888
1780528912947125000,8.568125,0.351858377456665,-0.0232128798961639,0.7806857824325562
1780528912957226200,8.578226318359375,0.2382374405860901,0.3213151097297668,1.0787880420684814
1780528912967327500,8.588327392578124,0.3115412890911102,0.5619960427284241,0.9004153609275818
1780528912977428700,8.5984287109375,0.5412266254425049,0.4581489264965057,0.384845107793808
1780528912987469000,8.608468994140624,0.7831292152404785,0.0830776765942573,-0.4276056587696075
1780528913017773000,8.63877294921875,0.2846632003784179,-0.6243042945861816,-0.294437050819397
1780528913027874300,8.648874267578124,0.1001818999648094,-0.1588249653577804,0.6035348773002625
1780528913037945000,8.658945068359374,0.1246165111660957,0.3188716471195221,1.1166616678237915
1780528913048016100,8.66901611328125,0.2663372457027435,0.4838052690029144,1.1740829944610596
1780528913108532500,8.729532470703125,0.455705463886261,-0.0171042270958423,0.2455678284168243
1780528913118603300,8.739603271484375,0.4703662395477295,0.1343903541564941,0.6939429044723511
1780528913128674000,8.749674072265625,0.5082398653030396,0.1502728462219238,0.8442157506942749
1780528913138775300,8.759775390625,0.5913175344467163,0.1319468915462494,0.6352998614311218
1780528913148876500,8.76987646484375,0.5558874011039734,0.0342084541916847,0.2431243658065796
1780528913158977800,8.779977783203124,0.3775147199630737,-0.1600466966629028,0.0097738439217209
1780528913169079300,8.790079345703125,0.3164281845092773,-0.2370157092809677,-0.1062905490398407
1780528913179180500,8.8001806640625,0.3286454975605011,-0.1820378452539444,-0.1148426681756973
1780528913189251300,8.810251220703124,0.2406809031963348,-0.1185078546404838,0.1014036312699318
1780528913199322000,8.820322021484374,0.1563815027475357,-0.1612684279680252,0.3359758853912353
1780528913209423400,8.83042333984375,0.1881465017795562,-0.1820378452539444,0.3933972120285034
1780528913219524900,8.84052490234375,0.2687807083129883,-0.1514945775270462,0.2834414839744568
1780528913229595600,8.850595703125,0.3359758853912353,-0.1160643994808197,0.1429424732923507
1780528913239666400,8.86066650390625,0.4105014503002167,-0.0952949747443199,0.0427605658769607
1780528913269878800,8.890878662109374,0.3933972120285034,-0.3384193480014801,0.1319468915462494
1780528913279949600,8.900949462890624,0.3738495409488678,-0.4007275998592376,0.1563815027475357
1780528913289990000,8.910989990234375,0.375071257352829,-0.2504547536373138,0.2956587672233581
1780528913300060700,8.921060791015625,0.3921754956245422,-0.2455678284168243,0.3543018400669098
1780528913310131500,8.93113134765625,0.4105014503002167,-0.3127630054950714,0.2981022298336029
1780528913320232700,8.941232666015624,0.3665191531181335,-0.4043927788734436,0.2101376503705978
1780528913330334200,8.951334228515625,0.3139847218990326,-0.4349360466003418,0.1490511149168014
1780528913340374500,8.96137451171875,0.294437050819397,-0.4337143301963806,0.0891863256692886
1780528913350445300,8.9714453125,0.304210901260376,-0.4373795092105865,0.0219911485910415
1780528913370587000,8.9915869140625,0.2113593816757202,-0.3543018400669098,0.1392772793769836
1780528913431164200,9.0521640625,0.197920337319374,-0.4239404797554016,0.2797762751579284
1780528913441265400,9.062265380859374,0.1795943826436996,-0.4043927788734436,0.2223549485206604
1780528913451367000,9.072366943359375,0.1930334120988845,-0.3738495409488678,0.2076941877603531
1780528913501720800,9.122720947265623,0.2553416788578033,-0.3408628106117248,0.1869247704744339
1780528913511822000,9.132822021484374,0.2687807083129883,-0.2651155292987823,0.2370157092809677
1780528913521923600,9.142923583984375,0.2748893499374389,-0.1966986060142517,0.2858849465847015
1780528913531994400,9.152994384765623,0.261450320482254,-0.1722639948129654,0.3249803185462951
1780528913542065200,9.163065185546875,0.2406809031963348,-0.1612684279680252,0.3237585723400116
1780528913562267600,9.183267578125,0.2125810980796814,-0.1783726513385772,0.2406809031963348
1780528913572369200,9.193369140625,0.2260201424360275,-0.180816113948822,0.197920337319374
1780528913582440000,9.20343994140625,0.2247984111309051,-0.1698205322027206,0.1734857261180877
1780528913592541200,9.213541259765623,0.2089159190654754,-0.1160643994808197,0.1857030391693115
1780528913602642400,9.223642333984374,0.2235766798257827,-0.0818559452891349,0.1966986060142517
1780528913612743700,9.23374365234375,0.2467895597219467,-0.0745255574584007,0.1380555480718612
1780528913622814500,9.243814453125,0.2467895597219467,-0.1062905490398407,0.0317649915814399
1780528913632916000,9.253916015625,0.2321287989616394,-0.1209513172507286,-0.0561996027827262
1780528913653088000,9.274087890625,0.171042263507843,-0.0598647929728031,-0.051312681287527
1780528913683361500,9.304361572265623,0.107512280344963,0.0855211317539215,0.0684169083833694
1780528913693462800,9.314462890625,0.1148426681756973,0.1026253625750541,0.1148426681756973
1780528913703503000,9.324503173828123,0.1001818999648094,0.0977384373545646,0.1356120854616165
1780528913733776400,9.3547763671875,0.0708603709936142,0.0452040284872055,-0.1624901592731475
1780528913743878000,9.3648779296875,0.0745255574584007,0.0195476878434419,-0.1527163088321685
1780528913753948700,9.37494873046875,0.0794124826788902,0.0280998013913631,-0.1026253625750541
1780528913764050000,9.3850498046875,0.090408056974411,0.0818559452891349,-0.058643065392971
1780528913774120700,9.39512060546875,0.130725160241127,0.1429424732923507,-0.0085521135479211
1780528913794292700,9.415292724609374,0.1563815027475357,0.1148426681756973,0.0378736443817615
1780528913804394200,9.425394287109375,0.1343903541564941,0.0561996027827262,0.0293215326964855
1780528913814465000,9.435465087890623,0.1612684279680252,0.0488692186772823,-0.0036651915870606
1780528913834637000,9.455636962890624,0.107512280344963,0.067195177078247,-0.2345722615718841
1780528913844707800,9.465707763671874,0.1136209368705749,0.1295034289360046,-0.2700024247169494
1780528913874951000,9.495950927734375,-0.130725160241127,0.3347541689872741,0.2651155292987823
1780528913884991000,9.505990966796874,-0.1893682330846786,0.3762930035591125,0.3469714522361755
1780528913895092500,9.516092529296875,-0.2284636050462722,0.4202753007411957,0.2919935882091522
1780528913905163300,9.526163330078123,-0.3127630054950714,0.4300491213798523,0.2345722615718841
1780528913915234000,9.536234130859375,-0.375071257352829,0.3762930035591125,0.2003637999296188
1780528913925304800,9.546304931640623,-0.3885102868080139,0.2785545587539673,0.130725160241127
1780528913935375600,9.556375732421875,-0.4227187633514404,0.2443460971117019,0.0525344125926494
1780528913945446400,9.5664462890625,-0.5424483418464661,0.2932153046131134,0.0452040284872055
1780528913955517200,9.57651708984375,-0.6902777552604675,0.361632227897644,0.1368338167667389
1780528913965649200,9.586649169921875,-0.7953465580940247,0.3909537494182586,0.1783726513385772
1780528913975750400,9.59675048828125,-0.8918632864952087,0.4019493460655212,0.1539380401372909
1780528913985821200,9.6068212890625,-0.9810495972633362,0.4202753007411957,0.1160643994808197
1780528913995892000,9.61689208984375,-1.0335839986801147,0.4043927788734436,0.0561996027827262
1780528914005962800,9.626962646484374,-1.0641272068023682,0.3262020349502563,-0.0134390350431203
1780528914016064000,9.63706396484375,-1.0519099235534668,0.2846632003784179,-0.0427605658769607
1780528914026165500,9.64716552734375,-0.9089674949645996,0.342084527015686,0.1050688251852989
1780528914036236300,9.657236328125,-0.8613200187683105,0.361632227897644,0.0928515195846557
1780528914056438800,9.677438720703124,-0.8246681094169617,0.2822197377681732,-0.147829383611679
1780528914066540300,9.687540283203123,-0.7770205736160278,0.2125810980796814,-0.2553416788578033
1780528914076611000,9.697611083984375,-0.7367035150527954,0.1759291887283325,-0.3139847218990326
1780528914096752600,9.717752685546875,-0.7415903806686401,0.2565633952617645,-0.098960168659687
1780528914116955100,9.737955078125,-0.7635815739631653,0.2186897546052932,-0.1038470938801765
1780528914127056600,9.748056640625,-0.7770205736160278,0.1966986060142517,-0.2382374405860901
1780528914137158000,9.758157958984375,-0.7379252314567566,0.2296853363513946,-0.3775147199630737
1780528914157269000,9.77826904296875,-0.7867944240570068,0.221133217215538,-0.2871066629886627
1780528914177502200,9.798502197265623,-0.8197811841964722,0.0977384373545646,-0.2675589919090271
1780528914197704700,9.81870458984375,-0.6988298296928406,0.2602286040782928,-0.4312708675861358
1780528914207806000,9.828805908203124,-0.6743952035903931,0.2223549485206604,-0.485027015209198
1780528914217876700,9.838876708984374,-0.7134906053543091,0.1368338167667389,-0.4862487316131592
1780528914227978200,9.848978271484375,-0.7806857824325562,0.0794124826788902,-0.4544837474822998
1780528914248150300,9.869150390625,-0.8026769161224365,-0.0256563406437635,-0.342084527015686
1780528914258251500,9.87925146484375,-0.7855727076530457,-0.0280998013913631,-0.2748893499374389
1780528914288555500,9.909555419921874,-0.7024950385093689,-0.0354301854968071,-0.2577851414680481
1780528914308758300,9.92975830078125,-0.7098253965377808,-0.1356120854616165,-0.3200933933258056
1780528914318798600,9.939798583984375,-0.6597344875335693,-0.1295034289360046,-0.2883284091949463
1780528914328899800,9.94989990234375,-0.5546656250953674,-0.107512280344963,-0.3139847218990326
1780528914349102300,9.970102294921874,-0.4630358517169952,-0.1282816976308822,-0.3481931984424591
1780528914369274600,9.990274658203123,-0.384845107793808,-0.0476474873721599,-0.2480112910270691
1780528914379375900,10.0003759765625,-0.4178318381309509,-0.0109955742955207,-0.0940732508897781
1780528914389507600,10.010507568359374,-0.3628539443016052,0.0036651915870606,-0.0561996027827262
1780528914399609000,10.020609130859375,-0.3213151097297668,0.0305432621389627,-0.1600466966629028
1780528914409710300,10.03071044921875,-0.3103195428848266,0.0097738439217209,-0.107512280344963
1780528914419842000,10.040842041015624,-0.2700024247169494,0.0195476878434419,-0.0842994004487991
1780528914429943600,10.050943603515623,-0.2015855312347412,0.0842994004487991,-0.1001818999648094
1780528914440014300,10.061014404296875,-0.1734857261180877,0.1734857261180877,-0.1747074574232101
1780528914450146000,10.07114599609375,-0.221133217215538,0.2675589919090271,-0.0940732508897781
1780528914460247600,10.08124755859375,-0.1588249653577804,0.3005456924438476,0.0317649915814399
1780528914470348800,10.091348876953123,-0.0073303831741213,0.2419026345014572,-0.0232128798961639
1780528914490551300,10.11155126953125,0.1698205322027206,0.1160643994808197,-0.46547931432724
1780528914500622000,10.1216220703125,0.1966986060142517,0.1966986060142517,-0.375071257352829
1780528914510754000,10.131754150390623,0.2797762751579284,0.2321287989616394,-0.107512280344963
1780528914581341200,10.202341064453124,1.351233959197998,0.2480112910270691,-0.3860668241977691
1780528914652111400,10.273111328125,2.028072595596313,-0.0525344125926494,-0.2406809031963348
1780528914662182100,10.28318212890625,2.052507162094116,-0.0818559452891349,0.0219911485910415
1780528914672314000,10.293314208984375,2.146580457687378,-0.0439822971820831,0.1881465017795562
1780528914682445800,10.30344580078125,2.1759018898010254,-0.0280998013913631,0.2321287989616394
1780528914692547300,10.31354736328125,2.113593816757202,-0.058643065392971,0.2162462919950485
1780528914702618000,10.3236181640625,2.0415115356445312,-0.0952949747443199,0.0623082555830478
1780528914712749800,10.333749755859374,2.028072595596313,-0.1026253625750541,-0.1368338167667389
1780528914722881800,10.3438818359375,2.109928607940674,-0.0952949747443199,-0.3225368559360504
1780528914743114800,10.36411474609375,2.0060815811157227,0.0769690200686454,-0.2406809031963348
1780528914753216300,10.37421630859375,1.8216001987457275,0.2834414839744568,0.0769690200686454
1780528914773449500,10.394449462890623,1.683544635772705,0.7098253965377808,0.3481931984424591
1780528914783581200,10.404581298828123,1.5076154470443726,0.8026769161224365,0.1050688251852989
1780528914793682400,10.414682373046874,1.2290608882904053,0.8234463334083557,-0.0574213340878486
1780528914803722800,10.42472265625,0.9566149711608888,0.8222246170043945,-0.1246165111660957
1780528914813885200,10.43488525390625,0.6780604124069214,0.8662069439888,-0.0219911485910415
1780528914823986400,10.444986328125,0.4642575979232788,0.9957103729248048,0.1368338167667389
1780528914854321000,10.47532080078125,0.067195177078247,1.0519099235534668,0.0720821022987365
1780528914864422100,10.485422119140624,-0.0745255574584007,0.8735373020172119,-0.117286130785942
1780528914945354800,10.566354736328124,-1.119105100631714,-0.280998021364212,-0.0781907513737678
1780528914955456300,10.576456298828123,-1.2119566202163696,-0.4740314185619354,-0.1331686228513717
1780528914985821200,10.6068212890625,-1.6126842498779297,-0.8307767510414124,-0.2455678284168243
1780528914995922400,10.61692236328125,-1.6945401430130005,-0.856433093547821,-0.2638937830924988
1780528915006054400,10.627054443359375,-1.7641788721084597,-0.8295549750328064,-0.2834414839744568
1780528915016155600,10.63715576171875,-1.7837265729904177,-0.7904596328735352,-0.2981022298336029
1780528915026287400,10.647287353515624,-1.7495180368423462,-0.799011766910553,-0.2602286040782928
1780528915036388900,10.657388916015623,-1.7018705606460571,-0.8148942589759827,-0.1453859210014343
1780528915056591400,10.67759130859375,-1.7556266784667969,-0.856433093547821,0.0891863256692886
1780528915066692900,10.68769287109375,-1.7470746040344238,-0.8539896011352539,0.1038470938801765
1780528915107098000,10.72809814453125,-1.3463469743728638,-0.294437050819397,0.4239404797554016
1780528915117199400,10.738199462890623,-1.138652801513672,-0.2235766798257827,0.3787364661693573
1780528915137402000,10.758402099609375,-1.351233959197998,-0.2993239760398865,0.0696386396884918
1780528915147533800,10.768533935546875,-1.4233160018920898,-0.2846632003784179,0.0280998013913631
1780528915157635000,10.778635009765624,-1.2498302459716797,-0.1221730485558509,0.1527163088321685
1780528915238537200,10.859537109375,-0.5742133259773254,-0.3787364661693573,0.4263839423656463
1780528915248669200,10.869669189453123,-0.5510004758834839,-0.4105014503002167,0.5485569834709167
1780528915258770400,10.8797705078125,-0.351858377456665,-0.2993239760398865,0.5351179838180542
1780528915278973000,10.899972900390624,-0.1233947798609733,-0.1466076523065567,0.2846632003784179
1780528915289074400,10.910074462890623,-0.0256563406437635,-0.1466076523065567,-0.0610865242779254
1780528915299145200,10.920145263671875,0.058643065392971,-0.3005456924438476,-0.3665191531181335
1780528915309216000,10.930216064453123,0.0781907513737678,-0.3970624208450317,-0.6059783101081848
1780528915319286800,10.940286865234375,-0.0158824957907199,-0.4007275998592376,-0.2700024247169494
1780528915329357600,10.950357666015623,0.0024434609804302,-0.3824016451835632,0.3909537494182586
1780528915339428400,10.960428466796875,-0.0061086523346602,-0.2443460971117019,0.9162978529930116
1780528915349529600,10.970529541015624,-0.1160643994808197,-0.0488692186772823,1.3548991680145264
1780528915359600400,10.980600341796874,-0.0659734457731247,0.3408628106117248,1.3732250928878784
1780528915369640700,10.990640625,0.1918116807937622,0.6279694437980652,0.5436700582504272
1780528915399883800,11.0208837890625,0.5412266254425049,-0.3188716471195221,-0.4263839423656463
1780528915409954600,11.03095458984375,0.1759291887283325,0.0720821022987365,0.6328563690185547
1780528915420025300,11.041025390625,-0.0806342139840126,0.4434881806373596,1.5748106241226196
1780528915430126600,11.051126708984375,-0.0146607663482427,0.675616979598999,1.7495180368423462
1780528915440197400,11.061197265625,0.2247984111309051,0.675616979598999,1.0054842233657837
1780528915450237700,11.07123779296875,0.5448917746543884,0.3408628106117248,-0.1857030391693115
1780528915460247600,11.08124755859375,0.7953465580940247,-0.1820378452539444,-1.138652801513672
1780528915470348800,11.091348876953123,0.8210029006004333,-0.5571091175079346,-1.3084733486175537
1780528915480450000,11.101449951171874,0.6817256212234497,-0.4214970171451568,-0.8063421249389648
1780528915490490400,11.111490478515623,0.4764748811721802,0.1295034289360046,0.1441642045974731
1780528915510601500,11.1316015625,0.5925393104553223,0.4129449129104614,1.312138557434082
1780528915520672300,11.14167236328125,0.7037167549133301,0.2871066629886627,0.8698720932006836
1780528915530743000,11.151742919921874,0.7660250067710876,0.0696386396884918,-0.1087340116500854
1780528915540783400,11.161783447265623,0.7379252314567566,-0.2247984111309051,-0.9089674949645996
1780528915550884600,11.171884521484374,0.6340781450271606,-0.3323107063770294,-1.0396926403045654
1780528915561016600,11.1820166015625,0.5791002511978149,-0.2357939779758453,-0.5363397002220154
1780528915571087400,11.19208740234375,0.5827654600143433,-0.0146607663482427,0.2724458873271942
1780528915591229000,11.21222900390625,0.5778785347938538,0.2834414839744568,1.2217304706573486
1780528915631573200,11.2525732421875,0.3762930035591125,-0.3995058834552765,-0.6218608021736145
1780528915641674500,11.262674560546875,0.3933972120285034,-0.4447098970413208,-0.4532620012760162
1780528915651714800,11.27271484375,0.455705463886261,-0.2590068578720093,0.0439822971820831
1780528915661816000,11.282816162109375,0.5962044596672058,-0.0733038261532783,0.4544837474822998
1780528915671886800,11.292886962890623,0.6047565937042236,-0.067195177078247,0.5522221922874451
1780528915681988000,11.302988037109374,0.4288274049758911,-0.1661553531885147,0.4691445231437683
1780528915702129700,11.323129638671874,0.4886921942234039,-0.2883284091949463,0.1722639948129654
1780528915712200400,11.333200439453124,0.5827654600143433,-0.3188716471195221,0.058643065392971
1780528915722302000,11.343302001953123,0.5803219676017761,-0.3335324227809906,0.0610865242779254
1780528915732403200,11.3534033203125,0.5607742667198181,-0.3274237811565399,0.1685988008975982
1780528915742504400,11.36350439453125,0.5522221922874451,-0.3310889601707458,0.280998021364212
1780528915752606000,11.37360595703125,0.4740314185619354,-0.3078760802745819,0.3237585723400116
1780528915762707200,11.383707275390623,0.3323107063770294,-0.2968805134296417,0.4434881806373596
1780528915772778000,11.393778076171875,0.2993239760398865,-0.2748893499374389,0.4948008358478546
1780528915782879200,11.403879150390624,0.3408628106117248,-0.2785545587539673,0.4251621961593628
1780528915792980500,11.41398046875,0.3579670190811157,-0.3176499307155609,0.3310889601707458
1780528915813152800,11.43415283203125,0.3371976017951965,-0.4178318381309509,0.3005456924438476
1780528915823223600,11.4442236328125,0.3897320330142975,-0.4703662395477295,0.3958406746387481
1780528915833263900,11.454263916015623,0.4508185386657715,-0.461814135313034,0.3677408695220947
1780528915843334700,11.464334716796875,0.4288274049758911,-0.4202753007411957,0.3494149148464203
1780528915853405400,11.474405517578123,0.3982841372489929,-0.4129449129104614,0.3824016451835632
1780528915873577500,11.494577392578124,0.4300491213798523,-0.5265658497810364,0.2651155292987823
1780528915883648300,11.504648193359374,0.3775147199630737,-0.5167919993400574,0.261450320482254
1780528915893719000,11.514718994140624,0.3347541689872741,-0.4948008358478546,0.3262020349502563
1780528915913891300,11.534891357421875,0.3176499307155609,-0.4789183437824249,0.4544837474822998
1780528915923962000,11.544962158203123,0.3200933933258056,-0.4251621961593628,0.4166100919246673
1780528915954235400,11.5752353515625,0.2638937830924988,-0.3164281845092773,0.2638937830924988
1780528915964306200,11.58530615234375,0.2333505302667617,-0.3164281845092773,0.2577851414680481
1780528915974377000,11.595376953125,0.2296853363513946,-0.2993239760398865,0.2186897546052932
1780528915994549200,11.61554931640625,0.1881465017795562,-0.1527163088321685,0.2162462919950485
1780528916024853200,11.645853271484375,0.1649336218833923,-0.1661553531885147,0.3567453026771545
1780528916055126500,11.67612646484375,0.1319468915462494,-0.0427605658769607,0.230907067656517
1780528916125713700,11.746713623046874,0.0794124826788902,0.0733038261532783,0.0354301854968071
1780528916155987200,11.7769873046875,0.0268780700862407,0.0268780700862407,0.1551597714424133
1780528916186260700,11.8072607421875,0.0158824957907199,-0.0134390350431203,-0.098960168659687
1780528916196331500,11.81733154296875,0.0549778714776039,-0.0696386396884918,-0.1014036312699318
1780528916206402300,11.82740234375,0.058643065392971,-0.0561996027827262,-0.0916297882795333
1780528916236584200,11.857584228515623,0.1001818999648094,-0.0036651915870606,-0.0806342139840126
1780528916246655000,11.867655029296875,0.1209513172507286,0.0097738439217209,-0.1123992055654525
1780528916327190800,11.948190673828124,0.1270599663257599,0.375071257352829,-0.1502728462219238
1780528916337292000,11.9582919921875,0.1001818999648094,0.4447098970413208,-0.0757472887635231
1780528916387737600,12.008737548828124,-0.1087340116500854,0.4080579876899719,-0.3689626157283783
1780528916397839000,12.018839111328123,-0.1612684279680252,0.455705463886261,-0.3481931984424591
1780528916407940400,12.0289404296875,-0.1844813078641891,0.5375614166259766,-0.2357939779758453
1780528916417980700,12.038980712890623,-0.2113593816757202,0.6010913848876953,-0.1429424732923507
1780528916428051500,12.049051513671875,-0.2919935882091522,0.5949827432632446,-0.0757472887635231
1780528916438152700,12.059152587890624,-0.361632227897644,0.5387831330299377,-0.0415388382971286
1780528916448223500,12.069223388671874,-0.3958406746387481,0.4923573732376098,-0.0464257597923278
1780528916458294300,12.079294189453124,-0.3872885704040527,0.4813618063926697,-0.0488692186772823
1780528916468365000,12.089364990234374,-0.3555235862731933,0.4581489264965057,-0.1600466966629028
1780528916478435800,12.099435791015624,-0.3640756905078888,0.3824016451835632,-0.3738495409488678
1780528916488506600,12.109506591796874,-0.4263839423656463,0.3347541689872741,-0.513126790523529
1780528916498577400,12.119577392578124,-0.5106833577156067,0.3469714522361755,-0.4996877610683441
1780528916508648400,12.1296484375,-0.5619960427284241,0.3762930035591125,-0.3579670190811157
1780528916518719200,12.13971923828125,-0.5827654600143433,0.3787364661693573,-0.2480112910270691
1780528916528790000,12.1497900390625,-0.6572909951210022,0.3274237811565399,-0.2284636050462722
1780528916538799600,12.159799560546874,-0.7452555894851685,0.2553416788578033,-0.1954768747091293
1780528916548901000,12.169901123046875,-0.7574729323387146,0.2076941877603531,-0.180816113948822
1780528916569073200,12.1900732421875,-0.8014551997184753,0.1820378452539444,0.0219911485910415
1780528916579113500,12.200113525390623,-0.8478809595108032,0.1747074574232101,0.0427605658769607
1780528916599285500,12.220285400390624,-0.8943067193031311,0.0818559452891349,-0.0500909499824047
1780528916629528600,12.250528564453123,-0.911410927772522,0.0561996027827262,-0.0097738439217209
1780528916720226800,12.341226806640623,-0.8943067193031311,0.0329867228865623,-0.0293215326964855
1780528916740368400,12.361368408203123,-0.8283332586288452,-0.0109955742955207,-0.2150245606899261
1780528916750469600,12.3714697265625,-0.8747590184211731,-0.0097738439217209,-0.1429424732923507
1780528916760540400,12.38154052734375,-0.8662069439888,-0.0317649915814399,-0.0354301854968071
1780528916770611200,12.391611083984374,-0.7855727076530457,-0.0403171069920063,0.0073303831741213
1780528916780682000,12.401681884765624,-0.7000515460968018,-0.0293215326964855,-0.0684169083833694
1780528916790752800,12.411752685546874,-0.6743952035903931,0.0085521135479211,-0.1490511149168014
1780528916800823600,12.421823486328124,-0.6572909951210022,-0.0134390350431203,-0.147829383611679
1780528916810863900,12.43186376953125,-0.6291912198066711,-0.0610865242779254,-0.271224170923233
1780528916820934700,12.4419345703125,-0.6511823534965515,-0.0488692186772823,-0.3469714522361755
1780528916861248500,12.48224853515625,-0.5290092825889587,0.0561996027827262,-0.3995058834552765
1780528916871288800,12.492288818359375,-0.5448917746543884,0.1942551434040069,-0.304210901260376
1780528916881390000,12.50239013671875,-0.4764748811721802,0.3029891550540924,-0.2626720666885376
1780528916891460900,12.5124609375,-0.4214970171451568,0.2871066629886627,-0.1453859210014343
1780528916931805200,12.55280517578125,-0.1930334120988845,0.1087340116500854,-0.6316346526145935
1780528916992321500,12.613321533203123,0.2504547536373138,0.1869247704744339,-0.3078760802745819
1780528917002422800,12.6234228515625,0.4056145250797272,0.1771509200334549,-0.442266434431076
1780528917012493600,12.63349365234375,0.5497786998748779,0.0525344125926494,-0.5925393104553223
1780528917022594800,12.6435947265625,0.5754350423812866,-0.1050688251852989,-0.6206390857696533
1780528917032635100,12.65363525390625,0.5644394755363464,-0.2272418737411499,-0.4630358517169952
1780528917042736400,12.663736328125,0.6524040699005127,-0.1893682330846786,-0.3164281845092773
1780528917052838000,12.673837890625,0.7672467231750488,-0.1588249653577804,-0.1539380401372909
1780528917062908700,12.68390869140625,0.9529497623443604,-0.1918116807937622,-0.1295034289360046
1780528917072979500,12.6939794921875,0.978606104850769,-0.3005456924438476,-0.1942551434040069
1780528917083080700,12.704080810546875,0.901637077331543,-0.3286454975605011,-0.1209513172507286
1780528917093182000,12.714181884765624,0.9749409556388856,-0.2577851414680481,-0.1343903541564941
1780528917123455500,12.74445556640625,1.442863702774048,-0.304210901260376,-0.4300491213798523
1780528917133556700,12.754556640625,1.4563027620315552,-0.2907718420028686,-0.1539380401372909
1780528917143627500,12.76462744140625,1.5271631479263306,-0.2076941877603531,0.1246165111660957
1780528917214275800,12.83527587890625,1.6713273525238037,0.2785545587539673,0.0390953756868839
1780528917254711600,12.875711669921875,1.4929546117782593,0.1857030391693115,-0.4227187633514404
1780528917335400000,12.95639990234375,0.4948008358478546,0.1832595765590667,0.0427605658769607
1780528917375744300,12.996744140625,-0.0183259565383195,0.3029891550540924,0.171042263507843
1780528917406048300,13.02704833984375,-0.5925393104553223,0.1356120854616165,-0.0659734457731247
1780528917416180000,13.037179931640624,-0.8491026759147644,0.1233947798609733,0.2357939779758453
1780528917426220300,13.04722021484375,-0.9431759119033812,0.0317649915814399,0.4483750760555267
1780528917436352300,13.057352294921875,-0.9468411207199096,-0.1429424732923507,0.3701843321323395
1780528917446453500,13.06745361328125,-1.0201449394226074,-0.3005456924438476,0.0769690200686454
1780528917456585200,13.077585205078124,-1.205847978591919,-0.3604104816913605,-0.1123992055654525
1780528917466656300,13.08765625,-1.341460108757019,-0.3176499307155609,-0.1258382350206375
1780528917476788000,13.0977880859375,-1.3524556159973145,-0.2577851414680481,-0.1026253625750541
1780528917517223700,13.1382236328125,-1.563814997673035,-0.4361577928066253,0.0073303831741213
1780528917527355600,13.148355712890623,-1.389107584953308,-0.4581489264965057,-0.2504547536373138
1780528917557659600,13.17865966796875,-1.583362698554993,-0.2895501255989074,-0.0720821022987365
1780528917567761000,13.188760986328123,-1.3048081398010254,-0.0647517144680023,-0.1905899494886398
1780528917648632600,13.269632568359375,-1.1924089193344116,-0.0708603709936142,0.7024950385093689
1780528917658703400,13.279703369140623,-0.9724974632263184,-0.140499010682106,0.4019493460655212
1780528917668804600,13.2898046875,-0.7538077235221863,-0.3909537494182586,-0.1160643994808197
1780528917678905900,13.29990576171875,-0.5876523852348328,-0.5815436840057373,-0.5082398653030396
1780528917689007000,13.310007080078124,-0.5925393104553223,-0.6145304441452026,-0.3640756905078888
1780528917699078000,13.320077880859374,-0.6670648455619812,-0.513126790523529,0.1453859210014343
1780528917739452700,13.36045263671875,-0.4276056587696075,-0.0097738439217209,0.5852088928222656
1780528917749584600,13.370584716796875,-0.2076941877603531,0.1527163088321685,-0.1282816976308822
1780528917759686000,13.380685791015624,0.0439822971820831,0.1026253625750541,-0.8454375267028809
1780528917769817900,13.39081787109375,0.1527163088321685,-0.1966986060142517,-1.1252137422561646
1780528917779888600,13.400888671875,0.1649336218833923,-0.4117231667041778,-1.0519099235534668
1780528917790020400,13.411020263671874,-0.1111774742603302,-0.3640756905078888,-0.4239404797554016
1780528917800121600,13.42112158203125,-0.3457497358322143,-0.1319468915462494,0.923628270626068
1780528917810253600,13.431253662109375,-0.1588249653577804,0.3787364661693573,1.8374826908111568
1780528917820324400,13.441324462890623,0.1050688251852989,0.7806857824325562,1.6762142181396484
1780528917880932400,13.501932373046875,-0.0207694191485643,-0.2590068578720093,0.5180137157440186
1780528917891033600,13.51203369140625,-0.0354301854968071,0.2419026345014572,1.3646728992462158
1780528917901134800,13.522134765625,0.0928515195846557,0.6438519954681396,1.693318486213684
1780528917911236000,13.532236083984374,0.3799581825733185,0.8429940342903137,1.236391305923462
1780528917921368000,13.5423681640625,0.7098253965377808,0.5351179838180542,0.1136209368705749
1780528917931469300,13.55246923828125,0.8796459436416626,-0.058643065392971,-0.8967501521110535
1780528917941440300,13.562440185546874,0.8588765263557434,-0.3371976017951965,-1.2095131874084473
1780528917951541500,13.57254150390625,0.7318165898323059,-0.2150245606899261,-0.7147123217582703
1780528917961642800,13.582642822265624,0.6389650702476501,0.0818559452891349,0.2504547536373138
1780528917971713500,13.592713623046874,0.6670648455619812,0.3200933933258056,1.0702359676361084
1780528917991916300,13.612916259765624,0.5558874011039734,0.3054326176643371,1.0323622226715088
1780528918022250800,13.643250732421874,0.4728097021579742,-0.3298672437667846,-0.6194173693656921
1780528918052493600,13.67349365234375,0.4911356568336487,-0.0378736443817615,0.3689626157283783
1780528918062595000,13.683594970703124,0.2651155292987823,0.1148426681756973,0.8772025108337402
1780528918072665900,13.693665771484374,0.2700024247169494,0.2467895597219467,0.9468411207199096
1780528918082706000,13.703705810546875,0.4312708675861358,0.2040289938449859,0.5436700582504272
1780528918123019800,13.744019775390624,0.646295428276062,-0.2174680233001709,0.058643065392971
1780528918133090600,13.754090576171874,0.513126790523529,-0.1123992055654525,0.6059783101081848
1780528918143161300,13.764161376953124,0.5644394755363464,-0.0390953756868839,0.8869763612747192
1780528918153232100,13.774232177734374,0.6841690540313721,-0.0952949747443199,0.7293730974197388
1780528918173343200,13.79434326171875,0.6389650702476501,-0.1331686228513717,0.2003637999296188
1780528918203555600,13.8245556640625,0.2736676335334778,-0.2895501255989074,0.6633996367454529
1780528918213626400,13.83462646484375,0.2492330223321914,-0.1087340116500854,0.6475171446800232
1780528918223727900,13.844727783203124,0.2150245606899261,-0.0354301854968071,0.6426302194595337
1780528918233798700,13.854798583984374,0.1747074574232101,-0.0317649915814399,0.7257078886032104
1780528918243900000,13.86489990234375,0.1832595765590667,-0.0354301854968071,0.7037167549133301
1780528918253970700,13.874970703125,0.2003637999296188,-0.0598647929728031,0.6340781450271606
1780528918284213500,13.905213623046874,0.2370157092809677,0.0134390350431203,0.4935791194438934
1780528918294284300,13.9152841796875,0.3274237811565399,0.0403171069920063,0.5900958180427551
1780528918304324600,13.92532470703125,0.384845107793808,-0.0549778714776039,0.6316346526145935
1780528918314395400,13.9353955078125,0.3824016451835632,-0.2333505302667617,0.5937610268592834
1780528918324435700,13.945435791015624,0.361632227897644,-0.3909537494182586,0.5204572081565857
1780528918334537200,13.955537109375,0.3640756905078888,-0.46547931432724,0.4398229718208313
1780528918344638500,13.965638427734374,0.3995058834552765,-0.4935791194438934,0.3066543638706207
1780528918395053600,14.016053466796874,0.3689626157283783,-0.4019493460655212,0.4398229718208313
1780528918415225600,14.0362255859375,0.3506366610527038,-0.271224170923233,0.090408056974411
1780528918425326800,14.046326904296874,0.3506366610527038,-0.2981022298336029,-0.1160643994808197
1780528918435428000,14.056427978515623,0.3408628106117248,-0.3445279896259308,-0.2113593816757202
1780528918445529600,14.066529541015624,0.3347541689872741,-0.3200933933258056,-0.1624901592731475
1780528918455600400,14.076600341796874,0.2919935882091522,-0.2357939779758453,-0.0109955742955207
1780528918465701600,14.08670166015625,0.2162462919950485,-0.1148426681756973,0.180816113948822
1780528918516055600,14.1370556640625,0.1270599663257599,-0.1820378452539444,-0.1612684279680252
1780528918526157000,14.147156982421874,0.0952949747443199,-0.2186897546052932,-0.2247984111309051
1780528918536227800,14.157227783203124,0.0794124826788902,-0.140499010682106,-0.2138028293848037
1780528918546298600,14.167298583984374,0.0977384373545646,-0.0403171069920063,-0.1111774742603302
1780528918556399900,14.17739990234375,0.1197295859456062,-0.0073303831741213,0.0329867228865623
1780528918566501000,14.187501220703124,0.1270599663257599,0.0024434609804302,0.1136209368705749
1780528918576572000,14.197572021484374,0.1270599663257599,0.0219911485910415,0.0757472887635231
1780528918586642700,14.207642578125,0.1185078546404838,-0.0036651915870606,-0.0085521135479211
1780528918596744200,14.217744140625,0.1356120854616165,-0.0097738439217209,-0.090408056974411
1780528918606815000,14.22781494140625,0.130725160241127,-0.0366519130766391,-0.1270599663257599
1780528918637057800,14.258057861328124,0.0781907513737678,-0.0476474873721599,0.0500909499824047
1780528918707431400,14.328431396484374,0.1551597714424133,-0.0171042270958423,-0.180816113948822
1780528918717502200,14.338502197265624,0.1820378452539444,-0.0293215326964855,-0.0439822971820831
1780528918727603500,14.348603515625,0.1905899494886398,-0.0036651915870606,0.0623082555830478
1780528918737643800,14.358643798828124,0.1527163088321685,0.0500909499824047,0.0525344125926494
1780528918747745000,14.3687451171875,0.1099557429552078,0.1123992055654525,-0.0329867228865623
1780528918757846500,14.378846435546874,0.1062905490398407,0.1918116807937622,-0.1539380401372909
1780528918767917300,14.388917236328124,0.1185078546404838,0.2577851414680481,-0.2724458873271942
1780528918777957600,14.39895751953125,0.1014036312699318,0.3286454975605011,-0.3164281845092773
1780528918788059000,14.409058837890624,0.0659734457731247,0.4227187633514404,-0.2528982162475586
1780528918798160100,14.41916015625,0.0244346093386411,0.4776966273784637,-0.1038470938801765
1780528918828403000,14.44940283203125,-0.1099557429552078,0.5607742667198181,-0.1820378452539444
1780528918838474000,14.459473876953124,-0.1111774742603302,0.6157521605491638,-0.3176499307155609
1780528918848544800,14.469544677734374,-0.1197295859456062,0.6120869517326355,-0.3176499307155609
1780528918909030400,14.530030517578124,-0.1539380401372909,0.4410447180271148,-0.3530801236629486
1780528918969455400,14.590455322265624,-0.6805039048194885,0.4007275998592376,-0.2150245606899261
1780528918979526100,14.600526123046874,-0.7709119319915771,0.3249803185462951,-0.2638937830924988
1780528918989597000,14.610596923828124,-0.7929030656814575,0.2956587672233581,-0.3176499307155609
1780528918999698200,14.6206982421875,-0.7916813492774963,0.3433062732219696,-0.2455678284168243
1780528919009799400,14.63079931640625,-0.8112290501594543,0.3738495409488678,-0.1270599663257599
1780528919019839700,14.64083984375,-0.8991936445236206,0.3262020349502563,-0.051312681287527
1780528919029910500,14.65091064453125,-0.9920451641082764,0.2541199326515198,-0.0012217304902151
1780528919050052400,14.67105224609375,-0.9395107626914978,0.2370157092809677,-0.1087340116500854
1780528919060092400,14.681092529296874,-0.8454375267028809,0.2284636050462722,-0.2541199326515198
1780528919070163200,14.6911630859375,-0.750142514705658,0.230907067656517,-0.3604104816913605
1780528919080234200,14.701234130859374,-0.7330383062362671,0.2162462919950485,-0.3604104816913605
1780528919090305000,14.711304931640624,-0.7733554244041443,0.1930334120988845,-0.261450320482254
1780528919100406300,14.72140625,-0.7586946487426758,0.180816113948822,-0.2272418737411499
1780528919110477000,14.73147705078125,-0.7574729323387146,0.2260201424360275,-0.2382374405860901
1780528919120547800,14.7415478515625,-0.8503243923187256,0.2492330223321914,-0.1380555480718612
1780528919211337700,14.832337646484374,-0.8454375267028809,0.0525344125926494,-0.1747074574232101
1780528919221439000,14.84243896484375,-0.7550294399261475,0.098960168659687,-0.3677408695220947
1780528919231540200,14.852540283203124,-0.7195992469787598,-0.058643065392971,-0.5338962078094482
1780528919241611000,14.862611083984374,-0.7061602473258972,-0.2419026345014572,-0.636521577835083
1780528919251681800,14.872681884765624,-0.6866125464439392,-0.3017674386501312,-0.6707300543785095
1780528919261722000,14.88272216796875,-0.6377432942390442,-0.1637118905782699,-0.6536257863044739
1780528919271793000,14.89279296875,-0.6328563690185547,-0.0500909499824047,-0.4593706727027893
1780528919281863700,14.90286376953125,-0.6194173693656921,-0.0195476878434419,-0.1844813078641891
1780528919291965200,14.912965087890624,-0.5717698931694031,-0.0146607663482427,-0.0415388382971286
1780528919302036000,14.923035888671874,-0.504574716091156,-0.0549778714776039,-0.1026253625750541
1780528919312137200,14.93313720703125,-0.4740314185619354,-0.0928515195846557,-0.3591887652873993
1780528919322177500,14.943177490234374,-0.5167919993400574,-0.0244346093386411,-0.4764748811721802
1780528919332248300,14.953248291015624,-0.5119050741195679,0.0842994004487991,-0.4581489264965057
1780528919342349600,14.963349609375,-0.4667010605335235,0.107512280344963,-0.3396410644054413
1780528919352450800,14.973450927734374,-0.3860668241977691,0.0232128798961639,-0.1453859210014343
1780528919362552300,14.98355224609375,-0.3640756905078888,-0.0476474873721599,-0.0879645943641662
1780528919382724400,15.003724365234374,-0.3787364661693573,0.0452040284872055,0.1343903541564941
1780528919402896400,15.023896484375,-0.1343903541564941,0.0329867228865623,-0.1111774742603302
1780528919423068700,15.044068603515624,0.0769690200686454,-0.167377084493637,-0.3604104816913605
1780528919433139500,15.054139404296874,0.147829383611679,-0.2186897546052932,-0.4740314185619354
1780528919453311500,15.0743115234375,0.1551597714424133,0.0317649915814399,-0.130725160241127
1780528919483585000,15.1045849609375,0.7232644557952881,-0.1160643994808197,-0.3543018400669098
1780528919523898600,15.144898681640624,1.027475357055664,0.0415388382971286,-0.2357939779758453
1780528919544071000,15.16507080078125,1.1838568449020386,0.0183259565383195,-0.1551597714424133
1780528919554172200,15.175172119140624,1.215621829032898,0.051312681287527,-0.3139847218990326
1780528919564212500,15.18521240234375,1.2229522466659546,0.0598647929728031,-0.4569272100925445
1780528919574283300,15.195283203125,1.341460108757019,0.0207694191485643,-0.6438519954681396
1780528919584384500,15.205384521484374,1.4660766124725342,-0.1331686228513717,-0.759916365146637
1780528919594485800,15.21548583984375,1.4355332851409912,-0.3005456924438476,-0.5351179838180542
1780528919604556500,15.225556640625,1.380555510520935,-0.3469714522361755,0.0366519130766391
1780528919624728800,15.245728759765624,1.4611896276474,-0.2333505302667617,0.750142514705658
1780528919634830000,15.255830078125,1.5796974897384644,-0.2040289938449859,0.6621779203414917
1780528919644931300,15.265931396484374,1.6578882932662964,-0.1527163088321685,0.1502728462219238
1780528919655032600,15.276032470703123,1.6322319507598877,-0.0855211317539215,-0.3298672437667846
1780528919665103600,15.286103515625,1.6371188163757324,-0.0342084541916847,-0.4679227769374847
1780528919735812600,15.3568125,1.0445796251296997,0.2406809031963348,0.5876523852348328
1780528919755954400,15.376954345703124,0.7648032903671265,0.1136209368705749,-0.3286454975605011
1780528919776126500,15.39712646484375,0.5619960427284241,0.0293215326964855,-0.2382374405860901
1780528919786197200,15.407197265625,0.432492583990097,0.0818559452891349,0.0244346093386411
1780528919796268000,15.41726806640625,0.2748893499374389,0.2467895597219467,0.2455678284168243
1780528919806369300,15.427369384765624,0.1429424732923507,0.4129449129104614,0.4581489264965057
1780528919816440000,15.437440185546874,0.1136209368705749,0.5057964324951172,0.5839871764183044
1780528919836612400,15.4576123046875,0.0635299831628799,0.5754350423812866,0.3310889601707458
1780528919846683100,15.46768310546875,-0.0146607663482427,0.5192354321479797,0.171042263507843
1780528919856692700,15.477692626953123,-0.130725160241127,0.4642575979232788,0.1221730485558509
1780528919866794200,15.487794189453124,-0.2700024247169494,0.4838052690029144,0.0940732508897781
1780528919876895500,15.4978955078125,-0.4251621961593628,0.5338962078094482,-0.0390953756868839
1780528919886966300,15.50796630859375,-0.5632177591323853,0.5766568183898926,-0.1685988008975982
1780528919897006600,15.518006591796874,-0.6633996367454529,0.4679227769374847,-0.2663372457027435
1780528919907107800,15.52810791015625,-0.6927211880683899,0.2797762751579284,-0.3543018400669098
1780528919917209000,15.538208984375,-0.7929030656814575,0.0928515195846557,-0.4080579876899719
1780528919927280000,15.548280029296874,-0.9456194043159484,-0.067195177078247,-0.3029891550540924
1780528919937320200,15.5583203125,-1.1129964590072632,-0.1392772793769836,-0.1795943826436996
1780528919947421700,15.568421630859374,-1.3280210494995115,-0.1356120854616165,-0.0745255574584007
1780528919957523000,15.57852294921875,-1.5271631479263306,-0.157603234052658,-0.0268780700862407
1780528919977695000,15.598695068359374,-1.3829989433288574,-0.3127630054950714,-0.4899139404296875
1780528919987796500,15.60879638671875,-1.2376129627227783,-0.4263839423656463,-0.8527678847312927
1780528919997897700,15.618897705078124,-1.2791517972946167,-0.5742133259773254,-0.8552113175392151
1780528920007999000,15.6289990234375,-1.480737328529358,-0.7293730974197388,-0.4483750760555267
1780528920018069800,15.63906982421875,-1.655444860458374,-0.7330383062362671,0.0232128798961639
1780528920028171000,15.6491708984375,-1.7092009782791138,-0.5338962078094482,0.2895501255989074
1780528920068545800,15.6895458984375,-1.1887437105178833,-0.4007275998592376,-0.1637118905782699
1780528920098788900,15.719788818359374,-1.340238332748413,-0.0537561401724815,0.5082398653030396
1780528920108920600,15.729920654296874,-1.2486085891723633,-0.0305432621389627,0.608421802520752
1780528920118991400,15.739991455078124,-1.0445796251296997,-0.1698205322027206,0.6548475623130798
1780528920129092900,15.7500927734375,-0.8503243923187256,-0.4288274049758911,0.6731734871864319
1780528920159427300,15.78042724609375,-0.8588765263557434,-0.3127630054950714,1.442863702774048
1780528920169528600,15.790528564453124,-0.7904596328735352,-0.1966986060142517,1.7214182615280151
1780528920179629800,15.8006298828125,-0.93095862865448,-0.2223549485206604,1.9449949264526367
1780528920199802000,15.820802001953124,-0.7770205736160278,-0.6352998614311218,1.33168625831604
1780528920209903400,15.8309033203125,-0.6401867866516113,-1.0543533563613892,0.2394591718912124
1780528920220004600,15.841004638671874,-0.5937610268592834,-1.166752576828003,-0.2675589919090271
1780528920230105900,15.85110595703125,-0.4776966273784637,-0.9712757468223572,-0.251676470041275
1780528920280612600,15.901612548828124,-0.685390830039978,-0.4276056587696075,0.1038470938801765
1780528920321017900,15.942017822265624,0.3078760802745819,0.4361577928066253,0.3078760802745819
1780528920331119000,15.952119140625,0.2101376503705978,0.6963863968849182,0.3225368559360504
1780528920422092000,16.043092041015626,0.8503243923187256,0.304210901260376,0.0183259565383195
1780528920432223700,16.0532236328125,1.0238101482391355,0.1160643994808197,-0.1869247704744339
1780528920452426500,16.073426513671876,0.5668829679489136,-0.0965167060494422,0.0427605658769607
1780528920472659700,16.09365966796875,0.4459316432476043,0.0525344125926494,0.2150245606899261
1780528920533267500,16.154267333984375,0.4569272100925445,0.171042263507843,0.4361577928066253
1780528920543399400,16.1643994140625,0.5791002511978149,0.157603234052658,0.4899139404296875
1780528920553531100,16.17453125,0.5998696684837341,0.1270599663257599,0.3359758853912353
1780528920563632600,16.184632568359376,0.504574716091156,0.0329867228865623,0.0476474873721599
1780528920583835100,16.204835205078126,0.475253164768219,-0.1832595765590667,-0.1527163088321685
1780528920593936400,16.214936279296875,0.5094616413116455,-0.1954768747091293,-0.0158824957907199
1780528920604068400,16.225068359375,0.5754350423812866,-0.197920337319374,0.1795943826436996
1780528920614169600,16.235169677734376,0.6597344875335693,-0.1014036312699318,0.2382374405860901
1780528920624271000,16.24527099609375,0.685390830039978,-0.0464257597923278,0.2626720666885376
1780528920634372400,16.255372314453126,0.66584312915802,-0.1001818999648094,0.1991420686244964
1780528920644473600,16.2654736328125,0.6389650702476501,-0.1930334120988845,0.0818559452891349
1780528920654574800,16.275574951171876,0.6108652353286743,-0.2968805134296417,0.0280998013913631
1780528920715182800,16.336182861328126,0.5534439086914062,-0.221133217215538,0.3787364661693573
1780528920725284000,16.3462841796875,0.6157521605491638,-0.3506366610527038,0.2883284091949463
1780528920735416000,16.356416015625,0.6352998614311218,-0.4593706727027893,0.2284636050462722
1780528920745517300,16.366517333984376,0.5619960427284241,-0.5326744914054871,0.2345722615718841
1780528920785892000,16.40689208984375,0.452040284872055,-0.5448917746543884,0.0476474873721599
1780528920816135000,16.437135009765626,0.485027015209198,-0.5424483418464661,0.180816113948822
1780528920826267000,16.447266845703126,0.4263839423656463,-0.5314527750015259,0.1197295859456062
1780528920836307200,16.45730712890625,0.4434881806373596,-0.5119050741195679,0.0500909499824047
1780528920846378000,16.4673779296875,0.4337143301963806,-0.4361577928066253,-0.0378736443817615
1780528920856418300,16.477418212890626,0.3494149148464203,-0.2797762751579284,0.0171042270958423
1780528920866489000,16.487489013671876,0.2590068578720093,-0.1563815027475357,0.2125810980796814
1780528920886600200,16.50760009765625,0.0696386396884918,-0.140499010682106,0.3371976017951965
1780528920896640300,16.51764013671875,-0.0024434609804302,-0.1771509200334549,0.2015855312347412
1780528920906741800,16.52774169921875,0.0232128798961639,-0.1319468915462494,-0.0476474873721599
1780528920916812500,16.5378125,0.0561996027827262,-0.0610865242779254,-0.1918116807937622
1780528920926883300,16.54788330078125,0.0769690200686454,0.0109955742955207,-0.1123992055654525
1780528920936923600,16.557923583984376,0.140499010682106,0.1050688251852989,0.0366519130766391
1780528920947025000,16.56802490234375,0.2028072625398636,0.1490511149168014,0.1685988008975982
1780528920957095700,16.578095703125,0.2223549485206604,0.1282816976308822,0.2419026345014572
1780528920967197000,16.588197021484376,0.2015855312347412,0.1392772793769836,0.2247984111309051
1780528920997409500,16.618409423828126,0.1857030391693115,0.0928515195846557,0.0427605658769607
1780528921007480300,16.628480224609376,0.1832595765590667,0.0403171069920063,-0.0635299831628799
1780528921017551000,16.638551025390626,0.1466076523065567,-0.0171042270958423,-0.1050688251852989
1780528921027652400,16.64865234375,0.1356120854616165,-0.0659734457731247,-0.1160643994808197
1780528921037753600,16.658753662109376,0.1380555480718612,-0.1160643994808197,-0.1197295859456062
1780528921047794000,16.6687939453125,0.1136209368705749,-0.1123992055654525,-0.0916297882795333
1780528921067935500,16.688935546875,0.0940732508897781,0.0134390350431203,0.0305432621389627
1780528921078036700,16.69903662109375,0.0842994004487991,0.0500909499824047,0.067195177078247
1780528921088138200,16.70913818359375,0.098960168659687,0.0293215326964855,0.0696386396884918
1780528921098209000,16.719208984375,0.1014036312699318,-0.0183259565383195,0.0635299831628799
1780528921128482300,16.749482421875,0.1258382350206375,-0.1612684279680252,-0.0158824957907199
1780528921209079300,16.830079345703126,0.0280998013913631,0.1624901592731475,-0.1771509200334549
1780528921249362400,16.870362548828126,-0.0916297882795333,0.5363397002220154,-0.1991420686244964
1780528921259402800,16.88040283203125,-0.1246165111660957,0.5607742667198181,-0.251676470041275
1780528921269504300,16.890504150390626,-0.1441642045974731,0.5827654600143433,-0.3433062732219696
1780528921279575000,16.900574951171876,-0.1551597714424133,0.6230825781822205,-0.4214970171451568
1780528921289676300,16.91067626953125,-0.1392772793769836,0.7086036801338196,-0.4434881806373596
1780528921299747000,16.9207470703125,-0.1001818999648094,0.7428121566772461,-0.4129449129104614
1780528921309787400,16.930787353515626,-0.0598647929728031,0.7244861721992493,-0.3604104816913605
1780528921329959400,16.95095947265625,-0.0867428630590438,0.6120869517326355,-0.3591887652873993
1780528921340030200,16.9610302734375,-0.090408056974411,0.5815436840057373,-0.4080579876899719
1780528921360171800,16.981171875,-0.0855211317539215,0.5705481171607971,-0.3078760802745819
1780528921370242600,16.99124267578125,-0.1722639948129654,0.4630358517169952,-0.2406809031963348
1780528921380283000,17.001282958984376,-0.1722639948129654,0.4630358517169952,-0.2406809031963348
1780528921390353700,17.011353759765626,-0.3811798989772796,0.2797762751579284,-0.2785545587539673
1780528921400455200,17.021455078125,-0.4813618063926697,0.2333505302667617,-0.2675589919090271
1780528921410526000,17.03152587890625,-0.5497786998748779,0.2076941877603531,-0.2028072625398636
1780528921420596700,17.0415966796875,-0.5522221922874451,0.1502728462219238,-0.1832595765590667
1780528921491153400,17.1121533203125,-0.8637634515762329,0.0342084541916847,-0.0268780700862407
1780528921511325400,17.132325439453126,-0.8539896011352539,0.0268780700862407,-0.1185078546404838
1780528921531467000,17.152467041015626,-0.8930850028991699,0.0134390350431203,-0.2003637999296188
1780528921581821000,17.202821044921876,-1.007927656173706,0.0842994004487991,-0.4386012554168701
1780528921591861200,17.212861328125,-1.0250319242477417,0.1123992055654525,-0.3787364661693573
1780528921601932000,17.22293212890625,-0.93095862865448,0.130725160241127,-0.3152064681053161
1780528921612002800,17.2330029296875,-0.8539896011352539,0.1026253625750541,-0.3103195428848266
1780528921622073600,17.243073486328125,-0.901637077331543,0.1343903541564941,-0.2296853363513946
1780528921642246000,17.263245849609376,-0.9224064946174622,0.2199114859104156,-0.0317649915814399
1780528921652347100,17.27334716796875,-0.9053022861480712,0.180816113948822,-0.0916297882795333
1780528921662418000,17.28341796875,-0.8906415104866028,0.1441642045974731,-0.1087340116500854
1780528921672488700,17.29348876953125,-0.8307767510414124,0.1539380401372909,-0.2003637999296188
1780528921682559500,17.3035595703125,-0.7660250067710876,0.1588249653577804,-0.3188716471195221
1780528921692630300,17.31363037109375,-0.7110471725463867,0.1453859210014343,-0.3885102868080139
1780528921702701000,17.323701171875,-0.6768386960029602,0.1026253625750541,-0.4129449129104614
1780528921712802600,17.333802490234376,-0.6817256212234497,0.0574213340878486,-0.4056145250797272
1780528921722903800,17.34390380859375,-0.7061602473258972,0.0464257597923278,-0.271224170923233
1780528921732974600,17.353974609375,-0.6829473376274109,0.0977384373545646,-0.1343903541564941
1780528921743045400,17.36404541015625,-0.588874101638794,0.1221730485558509,-0.1490511149168014
1780528921763187000,17.38418701171875,-0.4630358517169952,-0.0952949747443199,-0.371406078338623
1780528921773257700,17.3942578125,-0.4508185386657715,-0.067195177078247,-0.4153883755207062
1780528921783328500,17.40432861328125,-0.4117231667041778,0.0317649915814399,-0.4129449129104614
1780528921803500800,17.424500732421876,-0.1966986060142517,-0.0842994004487991,-0.3579670190811157
1780528921823672800,17.4446728515625,-0.107512280344963,-0.058643065392971,-0.0219911485910415
1780528921833774000,17.454774169921876,-0.0708603709936142,0.0134390350431203,0.0061086523346602
1780528921843875600,17.46487548828125,-0.0855211317539215,0.0733038261532783,-0.0256563406437635
1780528921863986400,17.484986328125,-0.0708603709936142,0.0659734457731247,-0.2015855312347412
1780528921884128300,17.505128173828126,-0.0403171069920063,-0.090408056974411,-0.2492330223321914
1780528921904330800,17.525330810546876,0.0623082555830478,0.0561996027827262,-0.2235766798257827
1780528921914432000,17.535431884765625,0.1466076523065567,0.1148426681756973,-0.1930334120988845
1780528921934543000,17.555543212890626,0.3677408695220947,-0.0659734457731247,-0.1747074574232101
1780528921944644600,17.56564453125,0.432492583990097,-0.0977384373545646,-0.1954768747091293
1780528921954715400,17.57571533203125,0.5387831330299377,-0.0635299831628799,-0.3530801236629486
1780528921974826500,17.595826416015626,0.5937610268592834,0.0207694191485643,-0.2602286040782928
1780528921984927700,17.605927734375,0.7220427393913269,0.0012217304902151,0.0134390350431203
1780528921995029000,17.616029052734376,0.9297369122505188,0.0305432621389627,0.0635299831628799
1780528922015170600,17.636170654296876,1.1606439352035522,0.2125810980796814,-0.2247984111309051
1780528922025272000,17.64627197265625,1.2901474237442017,0.3298672437667846,-0.4105014503002167
1780528922035342800,17.6563427734375,1.447750687599182,0.3738495409488678,-0.4337143301963806
1780528922045413600,17.66641357421875,1.6273449659347534,0.3579670190811157,-0.3543018400669098
1780528922055454000,17.676453857421876,1.6982053518295288,0.3335324227809906,-0.2919935882091522
1780528922065524700,17.686524658203126,1.6872098445892334,0.3836233615875244,-0.1185078546404838
1780528922075626000,17.6966259765625,1.7189748287200928,0.5998696684837341,-0.0390953756868839
1780528922085727200,17.706727294921876,1.7959438562393188,0.759916365146637,0.0195476878434419
1780528922126010400,17.74701025390625,1.7434093952178955,0.1918116807937622,-0.7342600226402283
1780528922166324200,17.78732421875,1.7104226350784302,0.2235766798257827,-0.0879645943641662
1780528922176364500,17.797364501953126,1.2999212741851809,-0.0085521135479211,-0.2577851414680481
1780528922186465800,17.8074658203125,1.1520918607711792,-0.0085521135479211,-0.2101376503705978
1780528922196536600,17.81753662109375,1.1215485334396362,0.0317649915814399,-0.1942551434040069
1780528922206577000,17.827576904296876,1.0054842233657837,0.098960168659687,-0.1893682330846786
1780528922216678100,17.83767822265625,0.7904596328735352,0.1014036312699318,-0.0158824957907199
1780528922226749000,17.8477490234375,0.675616979598999,0.0268780700862407,0.0965167060494422
1780528922236819700,17.85781982421875,0.5791002511978149,0.0195476878434419,0.0818559452891349
1780528922246890500,17.867890380859375,0.3567453026771545,0.0708603709936142,0.147829383611679
1780528922256961500,17.87796142578125,0.1966986060142517,0.1637118905782699,0.2761110961437225
1780528922267032300,17.8880322265625,0.1918116807937622,0.2871066629886627,0.2443460971117019
1780528922277103000,17.89810302734375,0.1417207419872284,0.3200933933258056,0.1343903541564941
1780528922287204400,17.908204345703126,0.0256563406437635,0.280998021364212,0.0720821022987365
1780528922297244700,17.91824462890625,-0.1038470938801765,0.2431243658065796,-0.0109955742955207
1780528922307346000,17.928345947265626,-0.3237585723400116,0.2357939779758453,-0.0146607663482427
1780528922377841700,17.998841552734376,-1.2559388875961304,-0.0635299831628799,0.117286130785942
1780528922387881700,18.0088818359375,-1.312138557434082,-0.1136209368705749,0.2467895597219467
1780528922397983200,18.01898315429688,-1.3756685256958008,-0.1295034289360046,0.2492330223321914
1780528922408084500,18.02908447265625,-1.5125023126602173,-0.1918116807937622,0.197920337319374
1780528922418155300,18.0391552734375,-1.6200146675109863,-0.2748893499374389,0.0916297882795333
1780528922428226000,18.04922607421875,-1.644449234008789,-0.3298672437667846,-0.130725160241127
1780528922438296800,18.059296875,-1.6310101747512815,-0.3665191531181335,-0.4544837474822998
1780528922448367600,18.06936767578125,-1.6701055765151978,-0.5082398653030396,-0.5815436840057373
1780528922458408000,18.079407958984376,-1.63467538356781,-0.7440338730812073,-0.4483750760555267
1780528922468509200,18.08950927734375,-1.5234979391098022,-0.9382890462875366,-0.2956587672233581
1780528922478610700,18.09961059570313,-1.4489723443984983,-0.9896016716957092,-0.130725160241127
1780528922488681500,18.109681396484376,-1.4538593292236328,-0.8881980776786804,-0.0073303831741213
1780528922498752300,18.119752197265623,-1.508837103843689,-0.7049384713172913,0.0977384373545646
1780528922508823000,18.12982299804688,-1.5344934463500977,-0.6218608021736145,0.2247984111309051
1780528922518893800,18.13989379882813,-1.4831807613372805,-0.6963863968849182,0.4214970171451568
1780528922528964600,18.149964599609376,-1.3377948999404907,-0.8539896011352539,0.4239404797554016
1780528922539005000,18.1600048828125,-1.254717230796814,-0.8735373020172119,0.1026253625750541
1780528922549075700,18.17007568359375,-1.3439035415649414,-0.7232644557952881,-0.0427605658769607
1780528922559177000,18.18017700195313,-1.3145819902420044,-0.4667010605335235,0.2138028293848037
1780528922579318500,18.200318603515623,-1.027475357055664,-0.2846632003784179,0.8026769161224365
1780528922670078000,18.291077880859376,-0.7073819637298584,0.0830776765942573,1.2217304706573486
1780528922690250000,18.31125,0.0,0.3872885704040527,0.3787364661693573
1780528922740726000,18.36172607421875,-0.0867428630590438,-0.1197295859456062,1.225395679473877
1780528922801334000,18.422333984375,0.5827654600143433,-0.4386012554168701,-0.3359758853912353
1780528922821536500,18.44253662109375,0.5021312236785889,0.4410447180271148,1.3817771673202517
1780528922861941800,18.482941650390625,0.7721336483955383,-0.1466076523065567,-0.7342600226402283
1780528922882144500,18.50314453125,1.0543533563613892,0.384845107793808,0.375071257352829
1780528922952853800,18.573853759765623,0.8002334833145142,-0.3457497358322143,0.0024434609804302
1780528922983188200,18.60418823242188,0.6414085030555725,0.0171042270958423,0.66584312915802
1780528922993320000,18.61431982421875,0.7293730974197388,0.1600466966629028,0.7941248416900635
1780528923033694700,18.65469482421875,0.197920337319374,-0.4495968222618103,0.1893682330846786
1780528923074069500,18.69506958007813,0.3885102868080139,-0.3237585723400116,0.4129449129104614
1780528923124576300,18.745576171875,0.4398229718208313,-0.3726277947425842,0.3249803185462951
1780528923134616300,18.7556162109375,0.4361577928066253,-0.3860668241977691,0.1527163088321685
1780528923144748300,18.765748291015623,0.4019493460655212,-0.2907718420028686,0.1453859210014343
1780528923154849500,18.775849609375,0.3958406746387481,-0.2235766798257827,0.2724458873271942
1780528923164981500,18.7859814453125,0.4190535545349121,-0.2431243658065796,0.3139847218990326
1780528923185184000,18.80618408203125,0.3762930035591125,-0.3090978264808655,0.2846632003784179
1780528923195285500,18.816285400390623,0.4459316432476043,-0.2932153046131134,0.2577851414680481
1780528923205386800,18.82638671875,0.4838052690029144,-0.2871066629886627,0.2247984111309051
1780528923215457500,18.83645751953125,0.3921754956245422,-0.2504547536373138,0.2858849465847015
1780528923225589200,18.84658935546875,0.3335324227809906,-0.1563815027475357,0.3469714522361755
1780528923286227700,18.90722778320313,0.2956587672233581,-0.2125810980796814,0.0647517144680023
1780528923296329200,18.9173291015625,0.2871066629886627,-0.2541199326515198,0.0794124826788902
1780528923306430500,18.92743041992188,0.2736676335334778,-0.2736676335334778,0.1014036312699318
1780528923316531700,18.93753173828125,0.2492330223321914,-0.230907067656517,0.0891863256692886
1780528923326633000,18.947633056640623,0.2113593816757202,-0.1893682330846786,0.0659734457731247
1780528923336703700,18.95770385742188,0.2174680233001709,-0.1539380401372909,0.0415388382971286
1780528923346835700,18.967835693359376,0.2455678284168243,-0.1295034289360046,0.0256563406437635
1780528923377139700,18.9981396484375,0.1759291887283325,-0.1502728462219238,-0.0537561401724815
1780528923387271400,19.008271484375,0.1527163088321685,-0.147829383611679,-0.0085521135479211
1780528923417606000,19.03860595703125,0.1111774742603302,-0.1600466966629028,-0.1527163088321685
1780528923508365300,19.129365234375,0.0708603709936142,-0.0012217304902151,-0.0867428630590438
1780528923538608000,19.15960815429688,0.0,-0.0232128798961639,-0.0500909499824047
1780528923548709400,19.16970947265625,-0.0048869219608604,-0.0268780700862407,-0.1001818999648094
1780528923558780200,19.1797802734375,-0.0061086523346602,-0.0244346093386411,-0.0659734457731247
1780528923578891300,19.19989135742188,0.0488692186772823,0.0427605658769607,0.051312681287527
1780528923649448000,19.27044799804688,0.2003637999296188,0.1502728462219238,0.0684169083833694
1780528923679721500,19.30072143554688,0.1905899494886398,0.271224170923233,-0.0818559452891349
1780528923689792300,19.31079223632813,0.1624901592731475,0.2993239760398865,-0.1380555480718612
1780528923699893500,19.3208935546875,0.1466076523065567,0.2956587672233581,-0.2504547536373138
1780528923709964300,19.33096435546875,0.1111774742603302,0.2907718420028686,-0.3970624208450317
1780528923720035000,19.34103515625,0.058643065392971,0.3139847218990326,-0.5448917746543884
1780528923730105900,19.35110595703125,0.0415388382971286,0.3530801236629486,-0.656069278717041
1780528923750278100,19.37127807617188,0.1050688251852989,0.5375614166259766,-0.6646214127540588
1780528923760379400,19.38137939453125,0.107512280344963,0.5949827432632446,-0.5534439086914062
1780528923770450200,19.3914501953125,0.1331686228513717,0.5962044596672058,-0.4398229718208313
1780528923780551400,19.40155151367188,0.1698205322027206,0.5595525503158569,-0.3885102868080139
1780528923790622200,19.41162231445313,0.2076941877603531,0.5229006409645081,-0.3628539443016052
1780528923800662500,19.42166259765625,0.230907067656517,0.4996877610683441,-0.3933972120285034
1780528923820773600,19.441773681640623,0.1062905490398407,0.4007275998592376,-0.5644394755363464
1780528923830844400,19.45184448242188,0.0452040284872055,0.3445279896259308,-0.6096435189247131
1780528923851016700,19.4720166015625,0.0268780700862407,0.3384193480014801,-0.5473352670669556
1780528923861087500,19.48208740234375,0.0109955742955207,0.3481931984424591,-0.6023131608963013
1780528923871188700,19.49218872070313,0.0085521135479211,0.3506366610527038,-0.7782423496246338
1780528923891330300,19.512330322265623,0.1624901592731475,0.342084527015686,-1.2901474237442017
1780528923901401000,19.52240112304688,0.2467895597219467,0.3274237811565399,-1.408655285835266
1780528923911471900,19.53247192382813,0.2602286040782928,0.3628539443016052,-1.351233959197998
1780528923921542700,19.542542724609376,0.1441642045974731,0.4691445231437683,-1.056796908378601
1780528923941684200,19.56268432617188,-0.1637118905782699,0.5949827432632446,-0.3665191531181335
1780528923951755000,19.57275512695313,-0.3090978264808655,0.5522221922874451,-0.2834414839744568
1780528923961856500,19.5828564453125,-0.4923573732376098,0.4373795092105865,-0.2932153046131134
1780528923971957800,19.59295776367188,-0.6108652353286743,0.3579670190811157,-0.3176499307155609
1780528923982059000,19.60305908203125,-0.6829473376274109,0.271224170923233,-0.394618958234787
1780528923992160500,19.613160400390623,-0.7635815739631653,0.2394591718912124,-0.3726277947425842
1780528924002231300,19.62323120117188,-0.7525860071182251,0.2492330223321914,-0.3127630054950714
1780528924012271400,19.63327124023437,-0.7134906053543091,0.1881465017795562,-0.3738495409488678
1780528924022372900,19.643372802734376,-0.7904596328735352,0.1392772793769836,-0.3139847218990326
1780528924032443600,19.653443603515623,-0.8649851679801941,0.1441642045974731,-0.1661553531885147
1780528924042514400,19.66351440429688,-0.8747590184211731,0.1001818999648094,-0.0623082555830478
1780528924052615700,19.67361572265625,-0.923628270626068,0.0464257597923278,0.0329867228865623
1780528924062656000,19.683656005859376,-1.026253581047058,0.067195177078247,0.1270599663257599
1780528924102969600,19.723969482421875,-1.076344609260559,0.0403171069920063,0.0610865242779254
1780528924113040600,19.73404052734375,-1.1288789510726929,-0.0305432621389627,0.0280998013913631
1780528924213779000,19.834779052734376,-0.9101892113685608,-0.2064724564552307,-0.1490511149168014
1780528924244022000,19.86502197265625,-0.7867944240570068,-0.1490511149168014,0.1246165111660957
1780528924294284300,19.9152841796875,-0.6805039048194885,-0.0842994004487991,0.1612684279680252
1780528924354770200,19.97577026367188,-0.2846632003784179,-0.0952949747443199,-0.2382374405860901
1780528924364841000,19.98584106445313,-0.2321287989616394,-0.1453859210014343,-0.1722639948129654
1780528924374911700,19.995911865234376,-0.167377084493637,-0.0769690200686454,-0.1148426681756973
1780528924395053600,20.01605346679688,0.1099557429552078,0.1722639948129654,0.0097738439217209
1780528924405154800,20.02615478515625,0.2773328125476837,0.2736676335334778,-0.1857030391693115
1780528924415225600,20.0362255859375,0.3200933933258056,0.36529740691185,-0.2638937830924988
1780528924425326800,20.04632690429688,0.4312708675861358,0.4007275998592376,-0.2235766798257827
1780528924435428000,20.056427978515625,0.8002334833145142,0.140499010682106,-0.4068362414836883
1780528924445499100,20.0664990234375,0.9517280459403992,0.0549778714776039,-0.3689626157283783
1780528924455539200,20.076539306640623,1.1007791757583618,0.1649336218833923,-0.3139847218990326
1780528924465610000,20.08660986328125,1.2095131874084473,0.3066543638706207,-0.1539380401372909
1780528924475680800,20.0966806640625,1.4025466442108154,0.3139847218990326,0.0598647929728031
1780528924485782300,20.1067822265625,1.5931365489959717,0.2651155292987823,0.0048869219608604
1780528924495883500,20.11688354492188,1.626123309135437,0.2565633952617645,-0.0842994004487991
1780528924505954300,20.12695434570313,1.683544635772705,0.304210901260376,-0.1918116807937622
1780528924516055600,20.1370556640625,1.8020524978637693,0.3396410644054413,-0.4080579876899719
1780528924526096000,20.147095947265623,1.973094701766968,0.3457497358322143,-0.4679227769374847
1780528924536136200,20.15713623046875,2.138028383255005,0.2981022298336029,-0.3933972120285034
1780528924546237400,20.16723754882813,2.107485055923462,0.2638937830924988,-0.1551597714424133
1780528924596652500,20.217652587890623,1.703092336654663,0.598647952079773,-0.1551597714424133
1780528924626895600,20.2478955078125,1.3426817655563354,0.4178318381309509,0.1514945775270462
1780528924636966400,20.25796630859375,1.2290608882904053,0.4312708675861358,0.5277875661849976
1780528924647098000,20.26809814453125,1.1508700847625732,0.4300491213798523,0.7391469478607178
1780528924657169000,20.2781689453125,1.0873401165008545,0.3677408695220947,0.6352998614311218
1780528924677341000,20.2983408203125,0.6328563690185547,0.1014036312699318,0.4190535545349121
1780528924747928300,20.36892822265625,-0.3286454975605011,-0.0158824957907199,-0.7159340381622314
1780528924778201600,20.39920166015625,-1.0873401165008545,-0.2040289938449859,0.1295034289360046
1780528924788272400,20.4092724609375,-1.2877039909362793,-0.1490511149168014,0.2932153046131134
1780528924798343200,20.41934326171875,-1.4330898523330688,-0.0916297882795333,0.197920337319374
1780528924808444700,20.42944458007813,-1.5063936710357666,-0.0342084541916847,-0.0659734457731247
1780528924818546000,20.4395458984375,-1.528384804725647,-0.0390953756868839,-0.3445279896259308
1780528924828616700,20.44961669921875,-1.5467108488082886,-0.0696386396884918,-0.50335294008255
1780528924848758300,20.46975830078125,-1.567480206489563,-0.1123992055654525,-0.4349360466003418
1780528924858829000,20.4798291015625,-1.683544635772705,-0.1185078546404838,-0.3188716471195221
1780528924868869400,20.489869384765623,-1.7898352146148682,-0.1123992055654525,-0.1331686228513717
1780528924889041400,20.51004150390625,-1.6175711154937744,-0.2284636050462722,-0.147829383611679
1780528924899143000,20.520142822265623,-1.615127682685852,-0.3225368559360504,-0.1001818999648094
1780528924909213700,20.53021362304688,-1.5613715648651123,-0.3591887652873993,0.0476474873721599
1780528924919284500,20.54028442382813,-1.370781660079956,-0.3335324227809906,0.0537561401724815
1780528924959537200,20.580537109375,-1.0641272068023682,-0.5705481171607971,0.4178318381309509
1780528924969638400,20.590638427734376,-0.9065240025520324,-0.5571091175079346,0.475253164768219
1780528924979709200,20.600709228515623,-0.9272934198379515,-0.4740314185619354,0.4007275998592376
1780528924989810400,20.610810546875,-0.9896016716957092,-0.3799581825733185,0.4764748811721802
1780528924999850800,20.62085083007813,-0.8662069439888,-0.3335324227809906,0.46547931432724
1780528925030124300,20.65112426757813,-0.7525860071182251,-0.4337143301963806,-0.5106833577156067
1780528925040195000,20.661195068359376,-0.9065240025520324,-0.3567453026771545,0.0684169083833694
1780528925050265900,20.671265869140623,-0.8161159753799438,-0.221133217215538,0.6719517707824707
1780528925070377000,20.691376953125,-0.5241223573684692,-0.1099557429552078,0.9065240025520324
1780528925080447700,20.70144775390625,-0.3433062732219696,-0.0171042270958423,0.3860668241977691
1780528925090518500,20.7115185546875,-0.1857030391693115,-0.0073303831741213,-0.2186897546052932
1780528925100558800,20.721558837890623,-0.1417207419872284,-0.1453859210014343,-0.5876523852348328
1780528925110629600,20.73162963867188,-0.1893682330846786,-0.36529740691185,-0.46547931432724
1780528925120700400,20.74170043945313,-0.2541199326515198,-0.452040284872055,-0.1466076523065567
1780528925130801700,20.7518017578125,-0.3530801236629486,-0.3958406746387481,0.4202753007411957
1780528925140872400,20.76187255859375,-0.4056145250797272,-0.2235766798257827,1.0958921909332275
1780528925201327900,20.822327880859376,0.2541199326515198,-0.2907718420028686,-0.3139847218990326
1780528925211398700,20.832398681640623,0.0928515195846557,-0.1160643994808197,0.8185594081878662
1780528925221500000,20.8425,0.0561996027827262,0.2956587672233581,1.4294246435165403
1780528925241672200,20.862672119140623,0.4581489264965057,0.9101892113685608,0.598647952079773
1780528925251712500,20.87271240234375,0.8857545852661133,0.6352998614311218,-0.375071257352829
1780528925271884500,20.892884521484376,0.7965682744979858,-0.4361577928066253,-0.6646214127540588
1780528925281955300,20.902955322265623,0.4764748811721802,-0.3066543638706207,0.0378736443817615
1780528925292026000,20.91302612304688,0.2663372457027435,0.1392772793769836,0.8503243923187256
1780528925312228900,20.933228759765623,0.5558874011039734,0.608421802520752,1.4049900770187378
1780528925322330000,20.943330078125,0.5632177591323853,0.271224170923233,0.9651671051979064
1780528925332401000,20.95340087890625,0.5473352670669556,-0.1295034289360046,0.117286130785942
1780528925342471700,20.9634716796875,0.6145304441452026,-0.3139847218990326,-0.608421802520752
1780528925352573000,20.97357299804688,0.7195992469787598,-0.2247984111309051,-0.6731734871864319
1780528925362674200,20.983674072265625,0.7476990818977356,0.0048869219608604,-0.2113593816757202
1780528925402988000,21.023988037109376,0.394618958234787,0.0354301854968071,0.6670648455619812
1780528925433261600,21.054261474609376,0.9028588533401488,-0.3933972120285034,-0.3555235862731933
1780528925483676400,21.10467651367188,0.5534439086914062,-0.1331686228513717,0.6963863968849182
1780528925513950000,21.13494995117188,0.3274237811565399,-0.5900958180427551,-0.1905899494886398
1780528925524051200,21.14505126953125,0.1123992055654525,-0.8112290501594543,-0.2174680233001709
1780528925544254000,21.16525390625,0.0757472887635231,-0.3213151097297668,-0.1343903541564941
1780528925554355200,21.175355224609376,0.361632227897644,0.0891863256692886,0.0452040284872055
1780528925574588400,21.19558837890625,0.4153883755207062,-0.3286454975605011,0.5241223573684692
1780528925584720100,21.20572021484375,0.2003637999296188,-0.4923573732376098,0.7122688889503479
1780528925594821600,21.21582153320313,0.0745255574584007,-0.36529740691185,0.685390830039978
1780528925604923000,21.2259228515625,0.1209513172507286,-0.1844813078641891,0.50335294008255
1780528925614993700,21.23599365234375,0.2162462919950485,-0.2028072625398636,0.2150245606899261
1780528925625125400,21.24612548828125,0.2174680233001709,-0.4386012554168701,0.0427605658769607
1780528925635227000,21.256226806640623,0.2687807083129883,-0.4361577928066253,0.0
1780528925645358600,21.26635864257813,0.384845107793808,-0.2174680233001709,0.0818559452891349
1780528925655459800,21.2764599609375,0.4312708675861358,-0.0390953756868839,0.3115412890911102
1780528925685763800,21.306763916015623,0.4593706727027893,-0.3897320330142975,0.6609562039375305
1780528925695865300,21.316865234375,0.4532620012760162,-0.3469714522361755,0.4019493460655212
1780528925705966600,21.326966552734376,0.455705463886261,-0.3152064681053161,0.2296853363513946
1780528925716067800,21.33706787109375,0.4984660446643829,-0.3481931984424591,0.1417207419872284
1780528925726199800,21.34719970703125,0.5021312236785889,-0.3604104816913605,0.1001818999648094
1780528925736301000,21.357301025390623,0.4312708675861358,-0.3885102868080139,0.1563815027475357
1780528925756534300,21.3775341796875,0.3152064681053161,-0.384845107793808,0.1857030391693115
1780528925766635500,21.38763549804688,0.2981022298336029,-0.3347541689872741,0.0549778714776039
1780528925776736800,21.39773681640625,0.230907067656517,-0.3115412890911102,-0.1356120854616165
1780528925786838000,21.407838134765623,0.1563815027475357,-0.2724458873271942,-0.157603234052658
1780528925796970000,21.41796997070313,0.1698205322027206,-0.1087340116500854,0.1221730485558509
1780528925807040800,21.428040771484376,0.1343903541564941,0.0195476878434419,0.2260201424360275
1780528925817172500,21.43817236328125,0.0928515195846557,0.0500909499824047,0.294437050819397
1780528925827304400,21.448304443359376,0.1429424732923507,0.0219911485910415,0.2638937830924988
1780528925837405700,21.45840576171875,0.1918116807937622,-0.0207694191485643,0.1343903541564941
1780528925847507000,21.4685068359375,0.1563815027475357,-0.0464257597923278,0.0171042270958423
1780528925857608400,21.4786083984375,0.1466076523065567,-0.0549778714776039,-0.0610865242779254
1780528925867709700,21.48870971679688,0.1844813078641891,-0.0574213340878486,-0.1356120854616165
1780528925877811000,21.49881103515625,0.1942551434040069,-0.0280998013913631,-0.157603234052658
1780528925887912400,21.508912353515623,0.2089159190654754,0.0171042270958423,-0.1185078546404838
1780528925898013700,21.519013671875,0.2333505302667617,0.0342084541916847,-0.0378736443817615
1780528925908115000,21.529114990234376,0.2296853363513946,-0.0122173046693205,0.0232128798961639
1780528925918216200,21.53921630859375,0.1820378452539444,-0.0232128798961639,0.0219911485910415
1780528925928348200,21.54934814453125,0.147829383611679,0.0158824957907199,-0.0342084541916847
1780528925948581400,21.56958129882813,0.0891863256692886,-0.0122173046693205,-0.1001818999648094
1780528925999087900,21.620087890625,0.0610865242779254,-0.0232128798961639,-0.0769690200686454
1780528926009219800,21.6302197265625,0.0916297882795333,0.0574213340878486,-0.0415388382971286
1780528926019321000,21.64032104492188,0.1295034289360046,0.1295034289360046,0.0342084541916847
1780528926039523600,21.660523681640623,0.1844813078641891,0.1490511149168014,0.2455678284168243
1780528926049655600,21.67065551757813,0.2076941877603531,0.0891863256692886,0.261450320482254
1780528926059756800,21.6807568359375,0.2419026345014572,0.0598647929728031,0.1014036312699318
1780528926069858000,21.69085815429688,0.2394591718912124,0.0733038261532783,-0.0867428630590438
1780528926079959600,21.70095947265625,0.2846632003784179,0.0464257597923278,-0.2748893499374389
1780528926090060800,21.711060791015623,0.3371976017951965,0.0146607663482427,-0.4410447180271148
1780528926100162000,21.721162109375,0.3237585723400116,0.0280998013913631,-0.4410447180271148
1780528926181064200,21.802064208984376,0.1869247704744339,0.2919935882091522,-0.6352998614311218
1780528926221439000,21.84243896484375,-0.0122173046693205,0.3176499307155609,-0.5473352670669556
1780528926271915000,21.8929150390625,0.0219911485910415,0.098960168659687,-0.4923573732376098
1780528926292087000,21.91308715820313,-0.1380555480718612,0.0403171069920063,-0.6096435189247131
1780528926362643700,21.98364379882813,-0.7037167549133301,0.1062905490398407,-0.0977384373545646
1780528926423099100,22.04409912109375,-0.9065240025520324,0.0280998013913631,0.0244346093386411
1780528926453372700,22.07437255859375,-0.8723155856132507,-0.0647517144680023,-0.1747074574232101
1780528926493716700,22.114716796875,-0.9847147464752196,0.0390953756868839,0.3995058834552765
1780528926513919500,22.13491943359375,-1.0690141916275024,0.0122173046693205,0.2797762751579284
1780528926544162300,22.165162353515623,-1.0152580738067627,-0.147829383611679,-0.4813618063926697
1780528926554233000,22.17523315429688,-1.009149432182312,-0.1869247704744339,-0.3811798989772796
1780528926564304000,22.18530395507813,-1.017701506614685,-0.2076941877603531,-0.2773328125476837
1780528926574374700,22.195374755859376,-1.027475357055664,-0.2247984111309051,-0.1795943826436996
1780528926584445400,22.205445556640623,-1.0042624473571775,-0.2504547536373138,-0.0403171069920063
1780528926655032600,22.276032470703125,-0.6731734871864319,-0.0794124826788902,-0.197920337319374
1780528926665164500,22.28616455078125,-0.6414085030555725,0.0366519130766391,0.0219911485910415
1780528926675235300,22.2962353515625,-0.5522221922874451,0.1197295859456062,0.0549778714776039
1780528926685275600,22.306275634765623,-0.4434881806373596,0.1600466966629028,-0.1441642045974731
1780528926695346400,22.31634643554688,-0.3127630054950714,0.1441642045974731,-0.3909537494182586
1780528926705417200,22.32641723632813,-0.180816113948822,0.107512280344963,-0.5656611919403076
1780528926715488000,22.336488037109376,-0.1197295859456062,0.0842994004487991,-0.5412266254425049
1780528926725558800,22.346558837890623,-0.1136209368705749,0.1466076523065567,-0.3152064681053161
1780528926735629600,22.35662963867188,-0.0977384373545646,0.2687807083129883,-0.0207694191485643
1780528926786044700,22.407044677734376,0.46547931432724,0.4630358517169952,-0.36529740691185
1780528926796115500,22.417115478515623,0.5057964324951172,0.5791002511978149,-0.0940732508897781
1780528926806216700,22.427216796875,0.5815436840057373,0.6572909951210022,0.051312681287527
1780528926816318200,22.437318115234376,0.7269296646118164,0.7257078886032104,0.0280998013913631
1780528926826358300,22.447358154296875,0.9566149711608888,0.7623597979545593,-0.1429424732923507
1780528926836398600,22.457398681640623,1.1252137422561646,0.7354817390441895,-0.3286454975605011
1780528926846500000,22.4675,1.2583824396133425,0.7452555894851685,-0.3286454975605011
1780528926896823600,22.51782348632813,2.0024163722991943,0.827111542224884,-0.2541199326515198
1780528926906833200,22.52783325195313,2.106263399124145,0.720820963382721,-0.2590068578720093
1780528926916934700,22.5379345703125,2.2003366947174072,0.5925393104553223,-0.2846632003784179
1780528926967288600,22.58828857421875,2.162462949752808,0.5204572081565857,-0.3078760802745819
1780528926977359400,22.598359375,2.004859685897827,0.3530801236629486,-0.3885102868080139
1780528926987430100,22.60843017578125,1.9058995246887207,0.3555235862731933,-0.4178318381309509
1780528926997501000,22.6185009765625,1.8460347652435305,0.5106833577156067,-0.4361577928066253
1780528927017642500,22.638642578125,1.52105450630188,0.6414085030555725,-0.098960168659687
1780528927037784000,22.6587841796875,1.253495454788208,0.4019493460655212,0.1209513172507286
1780528927047854800,22.668854736328125,1.1142182350158691,0.2956587672233581,0.0867428630590438
1780528927057926000,22.67892578125,0.9517280459403992,0.2895501255989074,-0.1014036312699318
1780528927067966000,22.68896606445313,0.7134906053543091,0.2394591718912124,-0.1869247704744339
