Time (s),Acc_X,Acc_Y,Acc_Z,Gyro_X,Gyro_Y,Gyro_Z,activity_label
4.987676583,1.387913818,11.72317154,3.860472107,-1.34932065,1.889147878,-0.629578948,1
5.007718583,1.505269775,12.53538254,4.150568848,-1.698063254,2.564241886,-0.6661197543,1
5.027760583,1.450034637,13.03414536,3.701352997,-2.345422506,2.40237546,-0.6744663119,1
5.047802583,0.6322851562,12.1297261,0.8884025574,-2.803845167,1.09868753,-0.6725625992,1
5.067844583,-1.059347076,9.661059723,0.266894989,-2.1901474,0.6221663356,-1.342304707,1
5.087885583,-2.756517792,8.05130722,0.4345463562,-2.1901474,0.6221663356,-1.342304707,1
5.107927583,-3.907773743,6.993756409,-0.4947212219,-2.098649025,2.813938379,-1.903249383,1
5.127969583,-4.291575623,7.434440002,-0.1378633118,-2.587319851,2.983388186,-2.02138114,1
5.148011583,-5.270539856,8.710536346,7.042405243,-2.460448503,2.140675545,-1.565047979,1
5.168053583,-5.352868652,8.819210358,7.322921906,-1.253594637,1.143343091,-0.6730442047,1
5.188094583,-3.202440491,7.7237883,3.633544006,-0.7592763305,0.08485895395,-0.1151547581,1
5.208136583,-2.282603302,6.722819824,2.713257751,-0.5635764003,0.2387993187,0.003927513026,1
5.228178583,-2.290237427,5.716163177,3.288960571,-0.4132929146,0.5996467471,0.06597037613,1
5.248220583,-2.361489258,5.131029968,4.878355408,-0.07667219639,0.4152871966,0.2389737517,1
5.268262583,-2.114203491,4.911286926,4.668192444,0.779432714,-0.7957873344,0.6858322024,1
5.288303208,-2.125579834,5.186564484,3.991898804,0.779432714,-0.7957873344,0.6858322024,1
5.308345208,-2.670446777,5.604495392,4.339176636,0.9505386353,-0.7193486691,0.6461517811,1
5.328387208,-3.22713913,6.276897125,5.220693512,0.9505386353,-0.7193486691,0.6461517811,1
5.348429208,-3.562142487,6.508166199,6.214925995,0.8085327744,-0.4786851704,0.4618950188,1
5.368471208,-3.214116211,7.211553497,8.299640808,0.3047777414,-0.5336828828,0.3811050653,1
5.388513208,-3.986959076,7.826025696,11.0428363,0.2131355703,-0.4214164317,-0.3002845943,1
5.408554208,-4.787344666,6.661896515,10.07000931,0.2131355703,-0.4214164317,-0.3002845943,1
5.428596208,-3.798950043,5.286855927,4.095782776,0.243804276,-0.1124055982,-0.2700695395,1
5.448638208,-4.359234924,11.01035385,2.893932037,-1.688390136,0.7663280368,-0.3790041208,1
5.468680208,-2.812651062,29.15098022,6.350244598,-1.291203499,1.152509451,-2.00756073,1
5.488722208,-6.849606171,16.162939,0.2210902405,0.0999488458,-0.9509654641,1.540756106,1
5.508763208,1.050216064,-0.6099815369,-1.588047638,1.619813204,-1.918542981,1.586253166,1
5.528805208,1.106648712,-3.792363739,2.122735748,1.619813204,-1.918542981,1.586253166,1
5.548847208,0.06107299805,9.858798523,3.845503235,1.118773818,0.06930302829,-0.4095290601,1
5.568889208,-1.034049683,14.53956482,-1.02611618,2.861154079,-1.698808312,-1.507785559,1
5.588931208,-3.720662842,12.33210526,-3.750450897,3.728697538,-2.637434006,-0.5866181254,1
5.608972208,-1.8791922,13.08444077,-4.057612152,2.628526926,-2.304038048,0.7974513769,1
5.629014208,0.9354048157,13.32064957,-2.20910614,1.562603116,-1.35446763,1.017287016,1
5.649056208,0.4875361633,10.95197525,0.6885681152,0.9587486386,-1.018128753,0.6916199327,1
5.669098208,-0.450712738,9.191336517,4.127965851,1.118335962,-1.190516233,0.7132018209,1
5.689140208,-0.5968089294,8.779991913,3.581751709,2.228919983,-1.806246281,0.9230100513,1
5.709181208,0.002245330811,9.018595734,0.2188449097,2.228919983,-1.806246281,0.9230100513,1
5.729223208,0.155975647,8.664132843,-2.711910553,1.881109357,-1.900905252,0.7954009771,1
5.749265208,0.3288661194,7.632927246,-3.163820801,1.237477303,-1.777768016,0.6872346997,1
5.769307208,0.3751199341,7.788603516,-2.266586609,0.8297245502,-1.284963727,0.5559275746,1
5.789349208,-0.09969268799,8.703351288,0.07050338745,0.7306472063,-0.5429834127,0.3429897428,1
5.809390208,-0.6370751953,9.550739136,1.100511475,1.042856455,0.2668942511,0.2091693878,1
5.829432208,-0.4685256958,9.85326004,-0.5146298218,1.314849973,0.1853423417,0.1741289943,1
5.849474208,-0.02469863892,9.392518158,-1.538500671,1.393081546,-0.3583638966,0.1736989468,1
5.869516208,0.5902226257,8.938661957,-1.2753479,1.412902355,-0.4181590378,0.08503033221,1
5.889558208,0.9550140381,9.318122864,-0.69620224,1.181899428,-0.3142720163,-0.09013715386,1
5.909599208,0.9894424438,10.19649628,0.4254153442,1.181899428,-0.3142720163,-0.09013715386,1
5.929641208,0.2951861572,10.84060684,1.021176453,1.235165,-0.5260593295,-0.1023486629,1
5.949683208,-0.06676116943,10.49811905,0.2546205139,1.083811283,-0.5870128274,-0.03700277209,1
5.969725208,0.325872345,10.01791763,-0.3661386108,0.6235599518,-0.5236616731,0.02744979225,1
5.989767208,1.28358078,9.841883698,-0.6219566345,0.1093942076,-0.7174911499,0.07533855736,1
6.009808208,2.22781723,9.803563385,-1.057999878,-0.2188859433,-1.207531691,0.1244786531,1
6.029850208,2.135309601,9.471404114,-0.892893219,-0.3272258639,-1.437672973,0.247729674,1
6.049892208,1.520238647,10.45246399,-0.7466473389,-0.3465308249,-1.20712328,0.4810947776,1
6.069934208,1.363963623,12.85481827,-0.1944456482,-0.55581671,-0.6921153665,0.6517935395,1
6.089976208,1.099613342,12.49302063,-0.3019221497,-1.889321923,-0.05246675014,0.7922239304,1
6.110017208,0.9951306152,11.66164948,-2.2746698,-1.889321923,-0.05246675014,0.7922239304,1
6.130059208,1.383423157,11.22949814,-3.186274109,-2.49804616,-0.8401549459,0.9464233518,1
6.150101208,-0.5056484985,11.40852585,-1.949545898,-3.141219616,-1.176131487,0.6039491296,1
6.170143208,-2.364333344,12.31069977,0.2460882568,-3.632317543,-0.7776007652,0.00959051773,1
6.190185208,-3.226690063,12.50260071,2.174528046,-3.40925622,-0.6103057861,-1.148941278,1
6.210226208,-5.473817139,10.40441391,2.111509094,-2.731760025,-1.081330657,-1.724979162,1
6.230268208,-4.920118561,9.909842377,1.945504303,-2.09078598,-1.23489356,-1.131346822,1
6.250310208,-0.458795929,9.887987823,1.090332642,-1.532844067,0.2680238187,-0.411722064,1
6.270352208,2.360740814,10.49632278,-0.5915698242,-1.811130285,1.818934917,-0.1193318814,1
6.290394958,3.449875946,10.6925647,-0.6973997498,-2.442603111,2.244915962,-0.01792573743,1
6.310435958,3.011587372,10.33166519,0.4656816101,-2.442603111,2.244915962,-0.01792573743,1
6.330477958,1.640289001,9.178762665,1.191073151,-2.350317478,1.7063241,0.02594879456,1
6.350519958,-0.2092648315,7.639363861,2.901416473,-2.170305729,1.146746516,-0.05548989028,1
6.370561958,-1.820813599,6.689289551,4.491410065,-1.673567295,1.030849814,-0.2338803113,1
6.390603958,-3.376079407,6.101761322,4.211641846,-1.007475972,0.9988820553,-0.2905895114,1
6.410644958,-4.49081131,5.714217224,2.858306122,-0.4764434397,1.143067122,-0.04716236144,1
6.430686958,-3.385509796,5.706433411,1.850901031,-0.166210264,1.370573044,0.3355232179,1
6.450728958,-1.577719116,5.499862976,1.286724243,0.08999393135,1.217447162,0.3873137534,1
6.470770958,-1.281634827,5.307063904,1.90957901,0.311778456,0.7233330011,0.2487514764,1
6.490812958,-1.822460175,5.278473358,3.113824768,0.653637886,0.1745678782,0.1438947469,1
6.510853958,-1.822460175,5.165308685,4.323609009,1.087811112,-0.1787817478,0.09182956815,1
6.530895958,-1.501078491,5.31335083,5.722300415,1.609157801,-0.3545770943,0.03778606281,1
6.550937958,-0.9089099121,6.728358307,6.395749969,2.128427029,-0.1909849048,-0.09001680464,1
6.570979958,-0.3775149536,9.941576385,5.221441956,2.226231813,0.3669111431,-0.2655158937,1
6.591021958,-0.5569917297,14.74583588,3.29494812,-0.2791743875,1.220476627,-0.2368673235,1
6.611062958,-2.660267944,17.16151245,3.051254883,-0.2791743875,1.220476627,-0.2368673235,1
6.631104958,-5.396128693,12.81245636,7.857909393,-2.063612461,2.122324705,0.04741629586,1
6.651146958,-4.770130463,6.647376709,12.54571106,-1.669539809,1.135527253,0.6296339631,1
6.671188958,-1.635948029,3.496129761,10.76501404,-0.07314219326,-1.200237989,0.9592475295,1
6.691230958,0.1779798889,6.913074188,5.129982147,1.458122492,1.248000026,-0.2396062165,1
6.711271958,-1.890269165,15.9930423,-0.266894989,1.458122492,1.248000026,-0.2396062165,1
6.731313958,-7.217690735,17.92687088,-6.869814148,1.401803136,-0.3870310485,-0.6101666689,1
6.751355958,-5.218448181,10.09560608,-3.06322998,-0.8994526863,0.9858748913,0.635496676,1
6.771397958,-0.01422042847,6.938670959,5.297633514,-0.8994526863,0.9858748913,0.635496676,1
6.791439958,-1.234632568,3.174299011,1.395398254,1.537576079,-0.9782753587,-0.2862945199,1
6.811480958,-1.962119751,4.543651428,-0.5767506409,1.537576079,-0.9782753587,-0.2862945199,1
6.831522958,-0.6903643799,9.417216797,-1.177750854,2.269557714,-1.049360514,-0.1364030987,1
6.851564958,0.3237767029,12.23899887,-5.249284058,2.469982624,-0.8967573643,0.1108716428,1
6.871606958,0.4257147217,15.88900864,-6.680607605,1.230815411,-0.6937974095,0.49526757,1
6.891648958,2.10267746,11.37978561,1.016985168,1.062571764,-1.023672104,0.8417034745,1
6.911689958,0.5602848816,9.092392273,6.910978546,1.062571764,-1.023672104,0.8417034745,1
6.931731958,-1.990111542,9.103768616,2.349963226,2.059281588,-0.9059982896,0.8098097444,1
6.951773958,-2.130369873,8.569230194,-2.852019196,1.244257331,-2.098642826,0.7512233853,1
6.971815958,-1.041534119,7.36333786,-4.199517059,1.244257331,-2.098642826,0.7512233853,1
6.991856958,-0.5170248413,7.257507935,-2.498903503,0.9237063527,-2.172607183,0.4756428301,1
7.011898958,-0.2655477905,7.77992157,0.1933978271,1.044867635,-0.9539063573,0.1596657932,1
7.031940958,0.2206411743,8.984317017,0.2421963501,1.108611107,0.6491730809,-0.08443637937,1
7.051982958,0.3511697388,9.778864746,-0.4504133606,0.9282178879,1.078629732,-0.1113565415,1
7.072024958,0.5804928589,9.429491272,0.492026825,0.8654720783,0.4023983479,0.01231219899,1
7.092065958,0.5318440247,9.408534851,0.6357279968,1.00696218,-0.3615002632,0.02562473901,1
7.112107958,0.3317102051,9.3654245,-0.2312690735,1.006348491,-0.6011750698,-0.0691697821,1
7.132149958,0.3025209045,9.877958679,-0.3945794678,0.8959342837,-0.5713185668,-0.1272289604,1
7.152191958,0.03996688843,10.44887146,-0.04909790039,1.061289191,-0.3536948264,-0.09371038526,1
7.172233958,-0.3365002441,10.29978149,0.1842668152,1.061289191,-0.3536948264,-0.09371038526,1
7.192274958,-0.1463955688,9.93289444,0.2984793091,0.8599093556,-0.3014843166,-0.02552621812,1
7.212316958,0.7445516968,10.29633865,-0.6358776855,0.4415238798,-0.4835054874,0.01696468331,1
7.232358958,1.860331421,10.44228516,-1.37129837,0.2044626474,-0.9919512272,0.001399722183,1
7.252400958,2.304008789,9.88604187,-1.435514832,0.04984085262,-1.107355356,0.06935279816,1
7.272442958,1.995500336,9.768536224,-1.101559296,0.01449623331,-0.507953465,0.2196456343,1
7.292483083,0.5453160095,11.45328278,-0.522563324,0.01449623331,-0.507953465,0.2196456343,1
7.312525083,-0.6429130554,13.10075684,0.7002438354,-0.2206986398,-0.04990502819,0.3355850577,1
7.332567083,-0.0889151001,11.8007103,0.03008743286,-0.8082388043,0.0877995193,0.4821596444,1
7.352609083,0.9774673462,10.94000015,-1.434317322,-1.464866757,-0.3951250315,0.7766826153,1
7.372650083,1.388063507,11.00930603,-2.102827148,-2.142165422,-0.8266932368,1.037657738,1
7.392692083,2.00672699,11.17605927,-1.102607117,-2.699196339,-0.66494596,0.9123257995,1
7.412734083,-1.268911285,9.998458099,0.08502319336,-2.872798204,-0.06051885337,0.3119918704,1
7.432776083,-2.5613237,10.89269852,0.2767744446,-2.956780672,-0.05459278822,-0.1374708712,1
7.452818083,-2.425106964,11.86208267,1.920506287,-2.782939196,-0.6384955049,-0.6493845582,1
7.472859083,-1.961371307,11.02951401,2.528841248,-2.263940334,-1.100504637,-0.6535956264,1
7.492901083,-0.1228944397,10.16610947,2.229613495,-1.632202268,-0.7229396105,-0.2148395628,1
7.512943083,1.43102417,10.06372238,0.5219645691,-1.156844378,1.361086965,0.04065509513,1
7.532985083,2.350561981,10.35067566,-1.441652069,-1.529675007,3.142823219,0.003496732563,1
7.553027083,2.128872986,10.27628036,-1.31396759,-2.234392643,2.716313839,-0.1978244632,1
7.573068083,1.620380402,10.1656604,-0.2499801636,-2.234392643,2.716313839,-0.1978244632,1
7.593110083,0.4411326599,9.686057739,0.86235672,-2.155119181,2.193414688,-0.2572602928,1
7.613152083,-1.208287354,8.789272614,1.478325806,-1.973941922,1.85920012,-0.4447527826,1
7.633194083,-3.121608582,7.728278961,2.599494324,-1.728194833,1.643351912,-0.4830169082,1
7.653236083,-5.309159546,6.960974579,3.489842834,-0.6315329671,1.176912785,0.4497086108,1
7.673277083,-5.279072113,6.450536041,3.217858429,-0.6315329671,1.176912785,0.4497086108,1
7.693319083,-2.540516968,6.199957123,2.333796844,-0.09212333709,0.9147854447,0.7233572006,1
7.713361083,-1.614392853,5.597609711,1.519190826,0.2640915811,0.7429699302,0.6520247459,1
7.733403083,-1.125509491,5.200036469,1.519490204,0.496019125,0.4139549136,0.5125140548,1
7.753444083,-0.9315129089,5.025798798,2.714904327,0.7399560213,0.03559924662,0.3440792561,1
7.773486083,-1.006656647,4.881349182,4.653073883,1.150462747,-0.3070682287,0.2018195093,1
7.793528083,-0.8776249695,5.362598419,6.125561829,1.720378518,-0.4638468027,0.03133676201,1
7.813570083,0.05014572144,7.750133514,6.236630859,2.14617753,-0.0391092822,-0.1475583017,1
7.833612083,0.6321354675,12.16669922,5.092559967,2.054917336,0.7523973584,-0.3700704873,1
7.853653083,-1.43925705,16.35693558,3.257975006,0.846445322,1.168645859,-0.4013790488,1
7.873695083,-3.148402863,15.41823761,6.17690506,-1.444945931,1.568494439,-0.0059944354,1
7.893737083,-2.992427216,9.191935272,11.91507248,-0.2312158495,-1.034703255,0.6062544584,1
7.913779083,-2.090702362,5.381459198,11.89651108,-0.2312158495,-1.034703255,0.6062544584,1
7.933821083,-0.5869294739,5.330415344,6.068231049,0.9005295038,1.513686657,-0.076033324,1
7.953862083,-0.2980302429,11.21153549,-1.758393402,0.9005295038,1.513686657,-0.076033324,1
7.973904083,-4.19008667,15.77509552,-4.723726959,1.116044641,0.03842517361,-0.8633406758,1
7.993946083,-8.583899689,14.18899384,-3.444487152,-0.7046893239,0.3767955005,0.2711604834,1
8.013988083,-1.794618073,11.6559613,4.479734344,-0.7046893239,0.3767955005,0.2711604834,1
8.034029083,-0.6750961304,6.33018631,3.337010651,0.2551466525,0.488829881,0.04140894488,1
8.054071083,-2.408491516,3.508703613,-2.656974792,1.71828258,-0.9027867913,0.1889261007,1
8.074113083,-0.9361532593,6.485114136,-3.418141937,2.172645569,-1.522355437,0.3233916163,1
8.094155083,0.2107617188,10.51054321,-5.100343781,2.149080992,-1.632895231,-0.0493461974,1
8.114197083,-0.3770658875,13.31211731,-6.427783356,1.176723003,-1.449211836,-0.2976431251,1
8.134238083,0.05328918457,12.97486862,-0.650098114,0.1474928409,-1.032114387,0.2501471043,1
8.154280083,1.638343048,9.741741943,7.349865875,0.8998959661,-0.02610653639,0.716496408,1
8.174322083,-1.20289856,9.305549011,2.046993256,1.759541988,0.3259799182,0.9518102407,1
8.194364083,-2.389930115,8.760532379,-2.430645447,1.657705545,-0.4416128695,1.005037546,1
8.214406083,-2.091750183,7.978259125,-3.130889282,1.006749034,-1.96916163,0.596989274,1
8.234447083,-1.01803299,7.86644165,-1.032403107,1.006749034,-1.96916163,0.596989274,1
8.254489083,0.05149291992,8.693322144,-0.3173400879,1.006141067,-1.142769575,0.2229255885,1
8.274531083,0.7399113464,8.965905304,0.01242416382,0.9633603096,0.03253587708,-0.08525311202,1
8.294572875,0.9443861389,9.069489899,0.005837860107,0.9633603096,0.03253587708,-0.08525311202,1
8.314613875,0.8123606873,9.206155701,-0.4167333984,0.9082089067,-0.5601378083,-0.05491865799,1
8.334655875,0.5490582275,9.241931305,-0.4875361633,0.93983531,-0.9778019786,-0.04296156392,1
8.354697875,0.5872288513,9.069190521,-0.5046006775,1.008880615,-0.775261879,-0.08838127553,1
8.374739875,0.7231462097,9.769733734,0.2118095398,1.070692658,-0.3408670723,-0.198861137,1
8.394781875,0.2574645996,10.56098831,0.9526190186,1.087652087,-0.2141865641,-0.1784685552,1
8.414822875,-0.5722599792,10.05938141,1.058149567,1.087652087,-0.2141865641,-0.1784685552,1
8.434864875,-0.6509962463,9.702673187,0.5891748047,0.751783669,-0.3983103931,-0.07331839949,1
8.454906875,0.7216493225,9.973011017,-1.015338593,0.372784555,-0.8243712783,-0.09248685837,1
8.474948875,2.243235168,10.32283356,-1.836680603,0.1156171933,-1.398897409,-0.03691947088,1
8.494989875,2.668500824,10.60709244,-0.9294172668,0.1028108597,-1.263756633,0.09336705506,1
8.515031875,1.634301453,10.36265076,-0.4685256958,0.3310191929,-0.2761411369,0.1453669667,1
8.535073875,0.189206543,10.84659439,-0.2767744446,0.2992233038,0.387717694,0.2337532341,1
8.555115875,-0.8198451233,12.44706619,0.8822653198,-0.1087710261,0.4331141412,0.2961647511,1
8.575157875,-0.0462538147,12.25756027,-0.9379495239,-1.392677903,-0.923302412,0.7421832681,1
8.595198875,0.444276123,11.95309341,-2.879861298,-1.392677903,-0.923302412,0.7421832681,1
8.615240875,1.032852173,11.10600494,-2.43962677,-1.972458482,-0.943824172,1.319207668,1
8.635282875,1.71303772,10.28795609,-0.7864645386,-2.46384573,-0.2368769497,1.182856441,1
8.655324875,-2.29338089,9.256301422,-0.4490661621,-2.892068148,0.6638795137,0.4207059145,1
8.675366875,-3.016227722,10.18362305,-0.429307251,-3.10747242,-0.6783035994,-0.6220152974,1
8.695407875,-2.875071259,11.66090103,1.22041214,-3.10747242,-0.6783035994,-0.6220152974,1
8.715449875,-2.116299133,11.61105469,2.719544678,-2.6014359,-1.884380937,-0.6504639983,1
8.735491875,-0.256716156,11.31781448,2.863844604,-1.879397631,-1.835371375,-0.2249574661,1
8.755533875,0.9964778137,11.32784363,1.098565521,-1.237786055,0.5907269716,0.1593917757,1
8.775574875,2.426005096,11.21527771,-1.453327789,-1.647220969,3.213601828,0.3115972281,1
8.795616875,2.817291412,10.6805896,-1.296004944,-2.168483257,3.616637945,0.2597220838,1
8.815658875,2.516417084,9.937983856,-0.5529501343,-2.256205559,2.647304296,0.2723853588,1
8.835700875,1.357227631,9.242979126,0.6300398254,-2.114675999,1.749000669,0.1979809254,1
8.855741875,-0.3914360046,8.347840576,1.991608429,-1.961418867,1.707278371,-0.05218683183,1
8.875783875,-2.361040192,7.330256653,2.480791168,-1.695256114,1.869393945,-0.2919859588,1
8.895825875,-4.013304291,6.524631958,2.854563904,-1.296674848,1.676450729,-0.1676656604,1
8.915867875,-4.585264893,6.355483704,2.835254059,-0.7617796659,1.36827755,0.2159551382,1
8.935909875,-3.617976379,5.9627005,2.31912735,0.2469405979,0.9011999369,0.6333739758,1
8.955950875,-2.003433838,5.711373138,1.953886871,0.2469405979,0.9011999369,0.6333739758,1
8.975992875,-1.302142181,5.128335571,2.269131317,0.5915830135,0.6512235999,0.5384628177,1
8.996034875,-0.8090675354,5.0337323,3.941004639,0.9363490343,0.2304498702,0.3722829521,1
9.016076875,-0.7141648865,4.99631012,5.882916412,1.50439775,-0.2006081641,0.1531578451,1
9.036118875,-0.3480262756,5.330415344,6.570885773,2.321215153,0.2103180438,-0.3948792517,1
9.056159875,1.169817352,7.855813751,5.915548553,2.321215153,0.2103180438,-0.3948792517,1
9.076201875,1.645977173,11.89037384,4.850962372,2.007850885,0.8942059278,-0.8527903557,1
9.096243875,-1.0577005,16.02642288,4.09174118,0.7531135678,1.07583046,-1.022014141,1
9.116285875,-5.155279541,15.14730103,7.626790009,-0.6570931673,0.01919109002,0.3488146365,1
9.136326875,-4.456083527,8.570427704,11.66988235,-0.6570931673,0.01919109002,0.3488146365,1
9.156368875,-3.264860687,6.143674164,9.317823486,0.358548671,-1.159031868,0.5062252283,1
9.176410875,-0.6960525513,5.616320801,4.111799469,0.8257540464,0.5539028049,0.3079976737,1
9.196452875,0.3808081055,11.50747009,-2.978655853,0.6646856666,1.465783238,-0.4302259982,1
9.216494875,-4.045637054,16.89207275,-5.546116791,0.7833638787,-1.712348104,-0.1262635589,1
9.236535875,-7.961344299,15.68288727,-3.05275177,0.7833638787,-1.712348104,-0.1262635589,1
9.256577875,-0.2185455322,8.084687805,8.546477509,-0.7219936252,0.1791318506,0.876221478,1
9.276620083,1.345851288,4.419110413,0.8186476135,1.83032918,-0.510119617,0.1321798414,1
9.296662083,-1.526525574,4.132905579,-5.279221802,1.83032918,-0.510119617,0.1321798414,1
9.316703083,-0.6227050781,9.919871521,-5.630990295,1.615315437,-1.507760882,0.184600085,1
9.336745083,0.1540296936,15.16960464,-3.1346315,1.056434631,-1.090714693,0.3309029043,1
9.356787083,1.801803131,12.07643692,1.131946106,0.9697492123,-0.2261201888,0.6097877026,1
9.376829083,0.2885998535,9.028026123,3.42712326,1.28720212,0.7901467085,0.830088675,1
9.396871083,-1.977837067,8.951235809,0.8491841125,1.224299192,-0.137422353,0.8455573916,1
9.416912083,-3.012485504,8.426576843,-1.473685455,1.224299192,-0.137422353,0.8455573916,1
9.436954083,-2.414479065,7.976013794,-2.417023773,1.20804882,-1.228680015,0.7212200165,1
9.456996083,-1.153201904,7.888894958,-2.17288147,1.149136901,-1.683175802,0.4601599872,1
9.477038083,-0.05643264771,8.553812256,-0.8575666809,1.001845002,-1.339391708,0.2916689217,1
9.497079083,0.922381897,9.074279938,0.5658233643,0.9407107234,-0.5798107386,0.08943260461,1
9.517121083,1.043929138,9.354197845,0.0845741272,0.8923603892,-0.2463719249,-0.04662251845,1
9.537163083,0.7641609192,9.394913177,-0.2523751831,0.9411813617,-0.6546624303,-0.04185617343,1
9.557205083,0.4282594299,8.985364838,-0.5953120422,0.9401317239,-0.9133420587,-0.03068799525,1
9.577246083,0.40251297,8.73822876,-0.02439926147,0.9074577689,-0.6228290796,-0.07271999121,1
9.597288083,0.6595285034,9.573342133,-0.0339793396,0.9859693646,-0.2101555318,-0.2536717355,1
9.617330083,-0.09954299927,10.34109558,0.4595443726,1.029917717,-0.2604379356,-0.3457327783,1
9.637372083,-0.6295907593,10.33465897,1.163380737,1.038273931,-0.1329915226,-0.2553823292,1
9.657414083,0.1212478638,9.789043579,-0.0001496887207,0.2963634133,-0.8576161861,0.01774119958,1
9.677455083,1.081351318,10.04740631,-1.015039215,0.2963634133,-0.8576161861,0.01774119958,1
9.697497083,1.562151489,10.34184402,-0.8223898315,0.2310150862,-1.730258822,-0.1684717983,1
9.717539083,1.91197403,10.26295807,-0.4441264343,-0.0793652758,-0.7245108485,-0.01076186821,1
9.737581083,2.384541321,10.02480331,-0.9846524048,-0.03895127028,0.8174932599,0.3060471416,1
9.757622083,2.226470032,11.09792175,-2.069147186,0.1979183853,0.4486178756,0.4493454695,1
9.777664083,0.6138734436,13.59817245,0.4742138672,0.05460210145,0.0940444693,0.8256227374,1
9.797706083,0.3264710999,14.02119278,-0.8768765259,-0.9185858369,0.1218142807,0.7617727518,1
9.817748083,-0.1351689148,11.53186935,-2.685715027,-1.679306865,-0.5079783797,0.7415154576,1
9.837790083,-0.7180567932,10.75633209,-2.996917877,-3.243317366,-0.5916525722,0.5737717152,1
9.857831083,-2.357447662,9.780211945,0.5288502502,-3.243317366,-0.5916525722,0.5737717152,1
9.877873083,-2.551593933,10.21730301,0.6569837952,-3.127354383,-0.4422490895,0.08024956286,1
9.897915083,-3.477867737,12.05233704,1.617686005,-2.875751495,-0.3727392256,-0.650083065,1
9.917957083,-2.435285797,11.27200974,1.919907532,-2.451956272,-0.620518446,-0.5949499011,1
9.937998083,0.007634124756,10.3369043,1.00156723,-2.254651308,-1.174221039,-0.323686868,1
9.958040083,1.099613342,9.844278717,1.281784515,-1.986176133,-1.582931757,-0.3309791684,1
9.978082083,0.7435038757,9.395511932,2.40220459,-1.873732924,-0.1908748746,-0.3080613315,1
9.998124083,0.7884104919,9.199419708,1.55975647,-1.951255441,2.209276199,-0.2840702832,1
10.01816608,0.9674382019,8.962013397,0.8408015442,-1.810034275,2.250054359,-0.5169730186,1
10.03820708,0.3206332397,8.151149597,1.034498749,-1.810034275,2.250054359,-0.5169730186,1
10.05824908,0.01646575928,8.452173615,0.8933422852,-1.909888864,2.521636248,-0.692353785,1
10.07829108,-1.865570526,8.306825867,0.8704399109,-1.641138554,1.525773525,-0.5593855381,1
10.09833308,-3.453767853,8.503965912,2.006876678,-1.316114306,0.9679404497,-0.1470471323,1
10.11837408,-3.12056076,7.321874084,2.475552063,-0.8512992859,1.213840127,0.3589703441,1
10.13841608,-1.469194794,6.531667328,2.036215668,-0.6037126184,1.716227412,0.4917099178,1
10.15845808,-1.740430756,5.357359314,2.649340668,0.7364669442,0.5942229033,0.5927311182,1
10.17850008,-2.396516418,4.685855713,4.627776489,0.7364669442,0.5942229033,0.5927311182,1
10.19854108,-2.987637177,3.696413269,6.200705566,1.647523522,0.02145750821,0.4670660198,1
10.21858308,-1.694476318,4.249213715,7.014563141,2.55419445,-0.2097264081,0.2759758532,1
10.23862508,0.8508306885,6.74557251,6.251150665,3.103040218,0.006518969312,0.1316961795,1
10.25866708,0.8852590942,13.30657883,3.633394318,2.832917452,0.4820989668,0.133784458,1
10.27870963,-0.04685256958,17.95231796,-0.3935316467,-2.951714754,2.054748058,-0.04567490146,1
10.29875062,-1.56319931,12.75542496,10.73911789,-2.951714754,2.054748058,-0.04567490146,1
10.31879263,-3.771856384,6.37000351,19.84064117,0.1943736076,-0.3603983819,0.007922888733,1
10.33883462,-2.47585144,3.471281433,7.198979645,0.1943736076,-0.3603983819,0.007922888733,1
10.35887663,-1.122515717,8.651259613,-2.914589081,0.6389551759,-0.4640839398,-0.6435873508,1
10.37891762,-4.426894226,17.52989639,-8.666527863,0.6389551759,-0.4640839398,-0.6435873508,1
10.39895963,-9.47649353,20.3738324,0.3300636292,-1.445969343,2.267954826,0.2305023819,1
10.41900162,2.619402924,9.496851196,7.732619934,-1.445969343,2.267954826,0.2305023819,1
10.43904363,2.073039093,4.864434357,-1.883533173,1.905339122,-1.165528893,0.613515377,1
10.45908562,-0.6475534058,6.61803772,-7.476203156,1.846628189,-1.486870766,0.7017911077,1
10.47912663,-0.3781137085,12.80122971,-6.611451416,1.419289589,-0.9737849236,0.6775459051,1
10.49916862,-1.148711243,13.57871292,-4.940925293,1.419289589,-0.9737849236,0.6775459051,1
10.51921062,-1.948498077,10.72774155,-0.04281097412,1.109403014,-1.049073458,0.8777923584,1
10.53925262,-1.801803131,9.494905243,6.856791229,2.009991646,0.2927394211,1.007700562,1
10.55929363,-2.703378296,8.931027832,1.075513458,2.389981031,1.097918868,1.150367022,1
10.57933562,-2.394121399,8.563991089,-3.865112457,1.415784836,0.1053653806,0.9233824611,1
10.59937762,-2.020797729,6.61684021,-3.803440704,0.3731452525,-1.950170755,0.6096209884,1
10.61941962,-1.331331482,6.430627441,-2.365979919,0.3540774286,-3.867364407,0.3968797624,1
10.63946063,-0.2086660767,8.018226013,1.574575653,0.873047173,-4.53944397,0.2701450288,1
10.65950262,1.193019104,9.211694183,3.209475861,1.383323669,-2.133879423,0.02541633137,1
10.67954462,1.143921204,8.776698761,-0.8879534912,1.320706725,0.03307315335,-0.1864201725,1
10.69958662,2.424657898,9.602232056,0.4412823486,1.089536667,1.005905509,-0.2469885051,1
10.71962862,2.737657013,9.707463226,2.330354004,1.035506845,-0.234922871,-0.2706038654,1
10.73966962,1.53865036,10.21580612,1.208287354,1.035506845,-0.234922871,-0.2706038654,1
10.75971162,0.7608677673,9.859846344,-0.8545729065,1.108242631,-1.202566147,-0.2254098654,1
10.77975363,0.1035845947,9.683513031,0.3766168213,1.211259961,0.104481779,-0.2141727805,1
10.79979562,0.05119354248,9.663604431,0.9244775391,0.5928336382,0.3774980307,-0.04586351663,1
10.81983662,0.2516267395,9.6414505,0.4522096252,0.5928336382,0.3774980307,-0.04586351663,1
10.83987862,0.8583151245,10.61831909,0.02664459229,0.03316898644,-0.3940607309,-0.07273137569,1
10.85992063,0.9494755554,10.47761169,-1.710193634,-0.3916877508,-1.9037503,0.3403939009,1
10.87996262,0.9545649719,10.28945297,-1.35962265,-0.3916877508,-1.9037503,0.3403939009,1
10.90000362,0.9056167603,10.10249176,-0.4158352661,0.02638737112,-1.571236134,0.3424366713,1
10.92004562,0.9442364502,10.61248123,0.3400927734,0.4966351092,-0.6723921895,0.3922584951,1
10.94008763,0.846789093,11.75595337,0.8801696777,-0.4227754474,0.6889311075,0.2536499202,1
10.96012962,-0.5665718079,12.72608597,0.2547702026,-0.4227754474,0.6889311075,0.2536499202,1
10.98017063,0.7436535645,11.14282837,-0.2719844055,-1.466452003,0.1880283207,0.3918892741,1
11.00021262,0.904119873,11.10181366,0.3112028503,-2.022941113,-0.6267312765,0.5105453134,1
11.02025463,0.3498225403,11.86642365,0.4611909485,-3.334365129,0.2941174507,0.1822589487,1
11.04029662,-0.3543132019,10.63927551,0.4489164734,-3.334365129,0.2941174507,0.1822589487,1
11.06033863,-1.942959595,9.752818909,-0.8593629456,-2.341929436,-1.426852822,-0.3940765858,1
11.08037962,-3.002007294,11.72975784,-0.687071228,-2.341929436,-1.426852822,-0.3940765858,1
11.10042163,-1.272503815,10.47252228,1.161434784,-1.928454995,-0.7326135039,-0.06693846732,1
11.12046362,1.083746338,10.17194733,2.675386505,-1.928454995,-0.7326135039,-0.06693846732,1
11.14050563,1.831441498,10.16985168,2.1459375,-1.576194882,2.068572283,-0.2322746664,1
11.16054662,1.878892822,10.42132874,2.298170929,-1.576194882,2.068572283,-0.2322746664,1
11.18058863,1.660496979,10.11446686,1.001866608,-1.686159611,3.111553431,-0.3800494075,1
11.20063062,1.287921753,9.293873291,-0.2222877502,-1.686159611,3.111553431,-0.3800494075,1
11.22067263,0.6078858948,8.675209808,-0.2061213684,-1.64767766,1.208000779,-0.6453798413,1
11.24071362,-0.9800120544,7.86299881,1.075663147,-1.64767766,1.208000779,-0.6453798413,1
11.26075563,-3.075205078,7.332202606,2.777623901,-0.8234345913,1.367974639,-0.2316673547,1
11.28080058,-5.053341522,6.743327179,2.729124756,-0.3077566028,1.088253736,0.3809049428,1
11.30084258,-3.612437897,6.572232971,3.069067841,-0.3077566028,1.088253736,0.3809049428,1
11.32088458,-2.102827148,6.336323547,2.320923615,0.6647752523,0.3777738512,0.5498977304,1
11.34092558,-2.065854034,6.055657196,2.021845551,0.6647752523,0.3777738512,0.5498977304,1
11.36096758,-1.992057495,5.589676208,2.276915131,0.9834604859,0.2752445936,0.4862226546,1
11.38100958,-1.824555817,5.375920715,2.975213013,1.279337406,0.1164259687,0.4114927053,1
11.40105158,-0.9096583557,5.756579132,4.278253326,2.206984997,-0.2887381315,-0.04355669394,1
11.42109258,-0.3861968994,7.623496857,5.60359726,2.206984997,-0.2887381315,-0.04355669394,1
11.44113458,-1.059496765,11.95908096,5.500910797,2.714381218,-0.3199302256,-0.1163500473,1
11.46117658,-1.789528656,13.85309235,1.614392853,2.405779839,-0.5348122716,0.1729449481,1
11.48121858,-1.747316437,13.70400238,-0.08053253174,-2.920339108,2.572245836,0.1522807181,1
11.50125958,-2.59171051,11.48456772,14.8941774,-2.920339108,2.572245836,0.1522807181,1
11.52130158,-1.231489105,7.91568924,14.33928131,-1.382943392,2.886619091,-0.11021173,1
11.54134358,-1.798210602,6.276448059,8.56623642,0.4312944114,-1.914074421,0.05247881636,1
11.56138558,-0.4701722717,11.37798935,4.96113327,1.478391051,-1.39833796,0.3398070633,1
11.58142658,0.3616479492,17.68138138,-3.042872314,1.197812319,1.239186168,-0.1361530423,1
11.60146858,-2.399360504,14.27521454,-6.109694824,-0.01882995665,0.81459409,-0.2995592654,1
11.62151058,-3.35811676,7.776179352,-0.1454974365,-0.3663679659,0.2838756144,0.3158873916,1
11.64155258,0.4619393921,5.525459747,6.761439514,-0.2123813927,0.8969119191,0.6795790195,1
11.66159358,-3.191513214,4.735851746,0.7741900635,0.8926962018,-0.185909152,0.136417821,1
11.68163558,-4.332290955,6.887028351,-2.390828247,1.554246306,-1.375054359,-0.04688840732,1
11.70167758,-1.834584961,10.65948349,-4.723577271,1.591461658,-1.264607549,-0.292876482,1
11.72171958,0.04116439819,11.46211441,-6.2891716,1.004651308,-0.2881656289,-0.3680464625,1
11.74176058,0.6285429382,10.89434509,-2.883154449,0.3328839839,0.3614797294,-0.06524514407,1
11.76180258,1.028960266,11.20360199,5.884712677,0.8994394541,0.7991968989,0.2065961659,1
11.78184458,-1.311273193,10.18871246,3.620970154,1.794374824,1.078740716,0.6125738025,1
11.80188658,-2.465522919,9.619745636,-0.9446855164,1.559918761,0.0268525891,0.9873965979,1
11.82192858,-2.067350922,8.550519104,-1.808838501,0.8458397985,-2.4998281,0.9327723384,1
11.84196958,-1.634900208,7.871980133,-0.9828561401,0.8458397985,-2.4998281,0.9327723384,1
11.86201158,-0.938997345,7.788154449,-0.3688330078,0.9878146052,-2.918509722,0.6863901615,1
11.88205358,-0.1683998108,8.230933685,0.6834786987,1.133601069,-2.045596123,0.370741725,1
11.90209558,0.8520281982,9.00033371,0.01856140137,0.8520610929,1.18157804,-0.1119655073,1
11.92213658,1.653461609,9.408235474,0.09729766846,0.8520610929,1.18157804,-0.1119655073,1
11.94217858,1.739832001,9.73395813,0.3097059631,0.9558246136,0.9317444563,-0.1385523379,1
11.96222058,0.8599617004,9.155261536,0.1166075134,0.7024837136,0.2980079055,0.05193914473,1
11.98226258,0.1919009399,9.098230133,0.3198847961,0.8046752214,-0.8423276544,-0.08256551623,1
12.00230358,0.1528321838,9.743388519,0.1121168518,0.8046752214,-0.8423276544,-0.08256551623,1
12.02234558,0.2489323425,9.742340698,0.6087840271,0.7703514695,-0.5425933003,-0.1476400793,1
12.04238758,-0.005089416504,9.647887115,1.084943848,0.7629085183,-0.4783198535,-0.06703819335,1
12.06242958,0.4010160828,9.867181091,0.2992277527,0.5003089905,-0.4872532785,0.0239518825,1
12.08247058,1.055754547,9.611213379,-1.903890839,0.5003089905,-0.4872532785,0.0239518825,1
12.10251258,1.592687988,9.792636108,-1.571881256,0.2031702101,-1.068824768,0.01686701365,1
12.12255458,1.919458466,10.49033524,-0.3418890381,0.2031702101,-1.068824768,0.01686701365,1
12.14259658,1.872306519,10.39947418,-1.267863464,-0.07126174867,-0.2017481029,0.1611347795,1
12.16263758,1.109343109,10.49781967,-1.523531799,-0.07126174867,-0.2017481029,0.1611347795,1
12.18267958,-0.122744751,12.48104553,0.4909790039,-0.07639812678,-0.04977062717,0.3383510113,1
12.20272158,0.0687071228,13.25418777,0.3968247986,-0.6262462735,0.7126768231,0.6042714715,1
12.22276358,1.065634003,11.91432404,-0.01960922241,-1.552780151,0.5403273702,0.7961320877,1
12.24280458,1.390757904,12.30950226,-0.9728269958,-2.090198994,-0.4273894429,0.8754624128,1
12.26284658,0.1799258423,11.43337418,-0.5629792786,-2.847784281,-0.9703780413,0.5100460052,1
12.28288608,-3.025658112,9.792636108,0.4667294312,-3.115041256,-0.7960609794,0.2563272119,1
12.30292808,-3.420836334,10.29394363,0.4707710266,-2.953365088,-0.7583137155,-0.09251312166,1
12.32296908,-3.266207886,11.93557983,1.571881256,-2.774433136,-1.043352604,-0.5259307623,1
12.34301108,-1.743574219,11.46331192,2.667003937,-2.386481762,-1.278516293,-0.5205025077,1
12.36305308,0.5842350769,10.3806134,1.297352142,-1.802069902,-0.9371266961,-0.3191409707,1
12.38309508,1.724563751,9.925559692,1.410666504,-1.491431475,0.1831901968,-0.204878062,1
12.40313608,2.176773376,9.910890198,0.7249424744,-1.760771513,2.371769667,-0.1775503755,1
12.42317808,2.19743042,9.665700073,0.6652166748,-2.031877518,3.127629757,-0.3039286733,1
12.44322008,1.578916626,9.35838913,0.3173400879,-1.939300179,2.761314154,-0.4484815001,1
12.46326208,0.08038284302,8.778345337,0.6938072205,-1.892445207,2.042791128,-0.6231920719,1
12.48330308,-2.243235168,7.809559937,1.22625,-1.769988775,1.398822904,-0.7821855545,1
12.50334508,-5.581443329,6.626569977,3.018922119,-1.47020781,1.298310637,-0.5183027983,1
12.52338708,-5.779182129,5.911357269,3.30437851,-0.9884984493,1.354701877,0.02109096944,1
12.54342908,-3.125500488,5.572761383,3.68114502,-0.3142325878,0.6676096916,0.2645564973,1
12.56347008,-1.539099426,5.391937408,3.174897766,0.2521845698,0.5780403018,0.1709816307,1
12.58351208,-1.789378967,5.3893927,2.722239075,0.7670026422,0.3202220201,0.1553681642,1
12.60355408,-2.204765167,5.096302185,3.154989166,1.166027308,0.1193976402,0.1691779792,1
12.62359608,-2.018552399,4.597389679,4.406985626,1.580899358,-0.02609172836,0.1346437186,1
12.64363708,-1.414708099,5.192552032,5.895041199,2.178082466,-0.2211344987,-0.03316626325,1
12.66367908,-0.8114625549,7.799680481,6.396648102,2.671728134,-0.1567861438,-0.2554422021,1
12.68372108,-1.765129395,13.47827179,4.521796875,2.684993505,-0.2180423886,-0.1498776823,1
12.70376308,-2.049537964,16.3606778,1.941911774,0.9289815426,-0.7901580334,0.2736051977,1
12.72380408,-2.082469482,12.26504471,8.89151001,-2.069827795,1.181973934,0.1241787076,1
12.74384608,-2.562970276,6.780449982,15.66642151,-0.04110033065,-0.3088949025,-0.04194180667,1
12.76388808,-1.42982666,4.611759796,9.452842712,-0.04110033065,-0.3088949025,-0.04194180667,1
12.78393008,-0.8068222046,9.185947723,2.700683899,1.336882353,-2.004483223,0.3550089598,1
12.80397108,-2.324216766,18.65196304,-3.211122437,1.118512869,0.2495117635,-0.1659687608,1
12.82401308,-7.803123322,17.77433807,-2.952909393,0.467010498,-0.189841643,-0.2343466431,1
12.84405508,-2.197729797,9.105115814,4.154161377,-0.2127033025,0.6358152628,0.5027452111,1
12.86409708,1.958976288,5.149142303,2.74499176,-0.1453702748,1.342596769,0.5744356513,1
12.88413808,0.1531315613,4.133654022,-3.878584442,0.7952291965,-1.071276426,0.03677596897,1
12.90418008,-1.268312531,6.869065704,-4.940027161,1.104644775,-3.167074919,-0.2542971671,1
12.92422208,-3.087479553,12.10607529,-5.622008972,1.176842093,-3.248581886,-0.2753569186,1
12.94426408,-2.503543854,13.43576019,-4.562063141,0.9249721169,-2.094783545,0.1867984384,1
12.96430508,0.7512876892,11.63410675,4.934488678,1.235605478,0.4471101463,0.539010942,1
12.98434708,0.5498066711,9.887688446,3.744463348,1.802324057,3.355177402,0.542617023,1
13.00438908,0.2029779053,9.072184296,0.6197113037,2.31917882,2.813657045,0.9483240843,1
13.02443108,-1.044827271,8.732241211,-1.954635315,1.835333109,0.2668559849,1.020791769,1
13.04447208,-1.341210938,8.448880463,-1.351389771,0.6523832083,-1.860626221,0.9347856045,1
13.06451408,-0.6059399414,7.698191528,-1.280587006,0.2957363725,-3.0018363,0.9096016884,1
13.08455608,-0.7003935242,8.159831543,1.423689423,1.015353441,-3.963215828,0.6567021012,1
13.10459808,-0.4787045288,8.475225677,0.8620573425,0.7219632268,0.4127272367,-0.2286531627,1
13.12463908,0.4710704041,8.846154327,-2.328108673,0.7219632268,0.4127272367,-0.2286531627,1
13.14468108,1.778751068,9.457333374,0.02769241333,0.3961271942,1.784321547,-0.1819229126,1
13.16472308,1.51874176,9.614805908,1.557062073,1.271574378,1.404157639,-0.1501624882,1
13.18476508,1.371597748,9.677675171,-0.4337979126,1.072479129,-0.7580087781,-0.2706363201,1
13.20480608,0.2707868958,9.833201752,0.2245330811,1.072479129,-0.7580087781,-0.2706363201,1
13.22484808,0.1330732727,10.43794418,0.4739144897,0.4088420868,-0.7382936478,-0.1998948902,1
13.24489008,-0.3969744873,9.766290894,0.5279521179,0.4659277201,-1.073861718,-0.1181147173,1
13.26493208,-0.3954776001,9.420809326,1.182840271,0.6926608682,-0.710683167,-0.164989382,1
13.28497221,1.372346191,9.890233154,-0.5544470215,0.6926608682,-0.710683167,-0.164989382,1
13.30501421,2.283800812,9.963580627,-2.324665833,-0.01502531115,-0.8612176776,-0.1852023602,1
13.32505621,1.982028351,10.10967682,-0.8598120117,-0.5772836804,-0.7846684456,0.1328389049,1
13.34509821,1.509610748,9.834099884,-0.3963757324,0.001664572628,-0.2667228281,0.569917798,1
13.36513921,0.1959425354,9.724976807,1.369801483,0.001664572628,-0.2667228281,0.569917798,1
13.38518121,-1.15365097,12.39811798,2.238594818,-0.9726436734,1.43534112,0.3960316181,1
13.40522321,-0.6010002136,12.66351608,1.132993927,-2.164544821,-0.8333102465,0.4058758616,1
13.42526421,0.4354444885,13.46300354,-1.114432526,-2.164544821,-0.8333102465,0.4058758616,1
13.44530621,1.060544586,13.83303406,-3.152743835,-2.181464672,-2.141415358,0.8927731514,1
13.46534821,0.8887019348,11.77690979,-1.24496109,-2.482923746,-1.115768075,0.6438792944,1
13.48539021,-2.411485291,11.0455307,0.05748046875,-2.652346134,0.2305559367,0.2822450995,1
13.50543221,-1.529669037,11.35658386,0.3579057312,-2.25333786,-0.3544365764,-0.4366542697,1
13.52547321,0.08906478882,10.00714005,1.231489105,-2.25333786,-0.3544365764,-0.4366542697,1
13.54551521,0.7491920471,9.423354034,2.32257019,-2.069658041,-0.9234651327,-0.9022477269,1
13.56555721,-0.3421884155,9.738448792,3.40257431,-1.788499594,-0.359269172,-0.8641138673,1
13.58559821,-0.2210902405,10.26849655,2.636766815,-1.368642211,1.590018868,-0.426240474,1
13.60564021,0.863404541,9.525890808,0.3411405945,-1.522614479,2.81971693,-0.09958145022,1
13.62568221,1.166973267,8.535550232,0.3222798157,-1.753507018,2.851104021,-0.1448351592,1
13.64572421,0.7012916565,8.595725098,-0.2724334717,-1.638468981,1.825060129,-0.2467404157,1
13.66576521,-0.7884104919,7.747289429,1.119072876,-1.403160214,1.119914055,-0.1659196466,1
13.68580721,-2.526146851,7.487579498,1.924547882,-1.193522692,1.117160559,-0.1451656669,1
13.70584921,-3.135080566,7.056925049,3.176843719,-0.8860604167,1.759003878,0.08582475781,1
13.72589121,-2.991678772,6.760840759,2.358645172,0.1855145693,0.9602228999,0.5958698988,1
13.74593221,-2.299368439,6.129753113,2.132914581,0.1855145693,0.9602228999,0.5958698988,1
13.76597421,-2.329904938,5.41753418,2.015858002,0.6349152923,0.2810063362,0.5226499438,1
13.78601621,-2.058519287,5.243895264,2.739004211,1.016596794,-0.05583400652,0.4376357794,1
13.80605821,-1.342408447,5.429509277,3.998934174,1.839439154,-0.2241544873,-0.1807540655,1
13.82609921,-0.7885601807,7.065906372,5.559289398,1.839439154,-0.2241544873,-0.1807540655,1
13.84614121,-0.5599855042,10.89539291,5.979615326,2.222022533,-0.2150145471,-0.3445281386,1
13.86618321,-1.485810242,13.51479584,3.645818481,0.09670433402,0.4233940244,0.284868896,1
13.88622521,-1.042282562,13.94021118,2.181713104,-2.126438618,2.62673068,-0.02268464118,1
13.90626621,-2.829715576,11.22455841,10.65843567,-2.126438618,2.62673068,-0.02268464118,1
13.92630821,-1.292113037,7.787555695,12.31189728,-1.402233124,2.316905022,-0.1784892827,1
13.94635021,-1.253942413,6.006559296,7.310797119,0.1934591681,-1.893337488,0.05635813251,1
13.96639121,0.3278182983,6.971003723,2.858306122,0.9126742482,-1.610795498,0.5215411186,1
13.98643321,1.514251099,9.999805298,-1.193318481,0.4113267064,1.365353584,0.4222615659,1
14.00647521,-0.6165678406,13.95039001,-1.049168243,0.7024790645,0.8223453164,-0.1212553829,1
14.02651721,-4.671335907,16.2982576,0.1951940918,1.343604684,0.04062101617,-0.3568080068,1
14.04655821,-6.217470703,15.76835953,-0.1953437805,-0.04507176951,-0.2257250249,-0.07243104279,1
14.06660021,-5.39178772,7.646698608,6.277346191,-0.7613885403,0.3990581632,0.2177175432,1
14.08664221,-3.090473328,3.371439056,0.5812413025,0.6470774412,0.7061527967,0.1771224141,1
14.10668421,-1.559457092,4.090543671,-3.417243805,1.767444611,-1.450965047,-0.2309570312,1
14.12672521,-0.2243833923,10.68612808,-7.808811493,1.767444611,-1.450965047,-0.2309570312,1
14.14676721,0.2198927307,14.38373886,-7.458839264,0.5779042244,-1.926236272,-0.02423897944,1
14.16680921,1.308429108,12.00668198,-0.1589694214,0.1861063987,-1.86727953,0.4992151558,1
14.18685121,2.353406067,9.565708008,8.990454254,2.706034899,1.257980704,0.8730047345,1
14.20689221,-1.397493896,8.540939026,2.030228119,2.706034899,1.257980704,0.8730047345,1
14.22693421,-1.602717133,8.363408203,-3.407813416,1.87227118,0.8973987699,1.389932394,1
14.24697621,-1.017134857,7.879165192,-3.50436264,0.4423573315,-1.168969393,1.104104638,1
14.26701721,-1.637145538,7.219037933,1.189426575,0.2620943487,-2.672742128,0.4983924031,1
14.28705937,-2.906954956,8.638536072,2.8479776,0.839957118,-0.5693431497,-0.06753611565,1
14.30710138,-0.02409988403,9.178612976,-1.174308014,0.6853414774,0.004167739302,-0.2468617111,1
14.32714337,1.473685455,9.848470001,0.5072950745,0.6853414774,0.004167739302,-0.2468617111,1
14.34718438,2.051932983,9.988279266,2.95919632,0.9433649182,0.606456399,-0.1823058873,1
14.36722637,1.838925934,9.636660461,1.025517426,0.8226338029,0.2908423841,-0.09136665612,1
14.38726838,1.723066864,9.50807785,0.2860551453,0.6416990757,-1.204480171,-0.1762948185,1
14.40731037,1.186732178,9.660161591,0.5233117676,0.8559588194,-0.7712593675,-0.2485967278,1
14.42735138,0.7773335266,9.556427307,0.07379653931,0.9150292873,-0.2851665914,-0.1895887703,1
14.44739337,0.6216572571,9.432335358,-0.6960525513,0.9150292873,-0.2851665914,-0.1895887703,1
14.46743538,0.02200424194,9.596543884,-0.1986369324,0.590606451,-0.2652897835,-0.1507499963,1
14.48747737,0.3610491943,9.543853455,-0.6659651184,0.222275719,-0.6345742941,-0.1161656603,1
14.50751838,1.565145264,10.11446686,-1.460961914,-0.02347614244,-1.068829417,-0.05795523897,1
14.52756037,1.301393738,10.65454376,-1.59598114,-0.02347614244,-1.068829417,-0.05795523897,1
14.54760238,0.3135978699,10.76082275,-0.2296224976,0.3127598166,-0.1729581654,0.2200646847,1
14.56764337,0.1483415222,10.47521667,-0.6839277649,0.3127598166,-0.1729581654,0.2200646847,1
14.58768538,-0.8117619324,10.91245743,0.183817749,-0.32580024,-0.1850622147,0.2501007318,1
14.60772737,-0.965791626,12.15053284,0.5062472534,-0.32580024,-0.1850622147,0.2501007318,1
14.62776938,0.305514679,11.89725952,0.682281189,-1.449451327,-0.9714958072,0.6218982339,1
14.64781037,0.9581575012,11.21078705,-0.2528242493,-1.449451327,-0.9714958072,0.6218982339,1
14.66785238,1.508712616,11.17366425,-0.7774832153,-2.50570941,-0.6316535473,0.7759420872,1
14.68789437,1.792821808,11.06199646,-0.1871109009,-2.50570941,-0.6316535473,0.7759420872,1
14.70793638,-0.6821315002,9.340576172,0.5950126648,-3.101587296,0.75006181,-0.2127046436,1
14.72797737,-2.04295166,9.989177399,0.800684967,-3.101587296,0.75006181,-0.2127046436,1
14.74801938,-2.229463806,10.89928482,1.649120636,-2.277773142,-0.5333759189,-0.9337704778,1
14.76806137,-2.244881744,11.0866951,1.660047913,-2.277773142,-0.5333759189,-0.9337704778,1
14.78810238,-0.3327580261,11.15180969,0.7991880798,-1.733169079,-0.6547726989,-0.4001500905,1
14.80814437,1.397493896,11.56914185,0.0462538147,-1.806592941,1.950411439,0.01979978383,1
14.82818638,2.055076447,11.39400604,0.4809498596,-1.930167675,2.870568752,-0.0403015241,1
14.84822837,1.546134796,10.48045578,0.8175997925,-1.93356359,2.500044823,-0.2305999845,1
14.86826938,0.62599823,9.522747345,1.00156723,-1.783548594,1.866097331,-0.4162401855,1
14.88831137,-1.792821808,8.442892914,1.41351059,-1.783548594,1.866097331,-0.4162401855,1
14.90835338,-4.865631866,7.092850342,2.545007629,-0.9934073091,1.226135254,0.4435188174,1
14.92839437,-5.515879669,6.140381012,3.605552216,-0.9934073091,1.226135254,0.4435188174,1
14.94843638,-1.926044769,5.686973877,3.763473816,0.0652031973,0.2063796371,0.5440404415,1
14.96847837,-0.7081773376,5.497767334,3.253035278,0.0652031973,0.2063796371,0.5440404415,1
14.98852038,-0.712817688,5.837111664,2.409838715,0.7590369582,0.2658033669,0.3193363547,1
15.00856137,-1.56319931,6.131998444,2.558629303,0.7590369582,0.2658033669,0.3193363547,1
15.02860338,-1.750609589,5.978717194,3.378324738,1.508519053,-0.08982095122,0.2749197781,1
15.04864537,-1.467398529,6.016139374,4.153263245,1.508519053,-0.08982095122,0.2749197781,1
15.06868738,-0.7891589355,6.536906433,4.177363129,1.837663412,-0.731171608,-0.240459159,1
15.08872837,-0.1428030396,8.069269867,3.835324402,1.837663412,-0.731171608,-0.240459159,1
15.10877038,-0.2028282166,9.829010468,4.04024826,0.8724656105,0.4103527963,-0.4934958518,1
15.12881237,-0.9891430664,11.3586795,4.579427032,0.8724656105,0.4103527963,-0.4934958518,1
15.14885338,-0.9377998352,13.49204315,7.456743622,-0.06120861322,1.398496747,-0.02302861214,1
15.16889537,1.370849304,11.92330536,9.354347534,-0.4696633518,1.90139854,0.4197197855,1
15.18893738,1.092278595,9.358838196,7.647147675,0.1901891977,-0.8056574464,0.7872982025,1
15.20897937,0.1950444031,8.609795837,7.400310974,0.4633040428,0.8181699514,0.6592506766,1
15.22902038,1.671873322,11.12860794,6.882388,0.9960101843,2.011065245,-0.0814152211,1
15.24906237,0.3357518005,15.48410065,1.790576477,0.9960101843,2.011065245,-0.0814152211,1
15.26910438,-5.530100098,15.18427414,-5.169799347,0.5081719756,-0.8289912343,0.37293455,1
15.28914663,-6.28572876,10.90931396,-5.186564484,-0.547852397,-0.09208066761,0.5361831188,1
15.30918862,-3.334016876,7.064110107,3.091072083,-0.547852397,-0.09208066761,0.5361831188,1
15.32923063,-2.407294006,4.173920288,6.687493286,1.066524744,-0.2357705384,-0.5310629606,1
15.34927262,-4.052672424,3.444487152,-1.379381561,1.657218575,-2.006519318,-0.5892785788,1
15.36931363,-2.885848846,7.281757507,-4.026776276,1.423571706,-2.029595613,-0.4287492037,1
15.38935562,-1.093027039,13.10240341,-6.992858276,1.423571706,-2.029595613,-0.4287492037,1
15.40939763,0.6953041077,12.78147079,-5.880222015,0.3110712171,-0.5147750378,0.270771265,1
15.42943862,2.58587265,11.25584335,1.916464691,0.3110712171,-0.5147750378,0.270771265,1
15.44948063,1.511257324,10.09351044,5.393134918,2.412327528,1.320796967,0.6577868462,1
15.46952262,-1.285077667,9.514514465,1.472188568,2.412327528,1.320796967,0.6577868462,1
15.48956463,-2.146236877,9.10331955,-2.243983612,0.565793097,-0.4796864688,0.9904748201,1
15.50960562,-2.004631348,8.286767578,-3.247197418,0.565793097,-0.4796864688,0.9904748201,1
15.52964763,-1.947450256,7.843688965,-1.686991882,0.5401528478,-2.089463472,0.4139873385,1
15.54968962,-2.776127014,8.678652649,0.563278656,0.5401528478,-2.089463472,0.4139873385,1
15.56973163,-1.015188904,9.272018738,1.617386627,0.6679270864,0.5695845485,0.03207406029,1
15.58977262,1.193318481,9.85685257,0.2647993469,0.6679270864,0.5695845485,0.03207406029,1
15.60981463,2.744692383,10.00130219,1.161135406,0.5293068886,-0.1834583879,0.04224380106,1
15.62985662,2.547103271,9.578880615,0.8475375366,0.5293068886,-0.1834583879,0.04224380106,1
15.64989763,1.256936188,9.163943481,0.1809736633,0.5952678323,-0.8364408016,0.09819041938,1
15.66993962,0.6749464417,9.168733521,-0.03427871704,0.7456482053,-1.138581276,0.1044848785,1
15.68998163,-0.001197509766,9.246272278,1.181044006,0.9514824152,0.2727751136,-0.09623574466,1
15.71002362,-0.2206411743,9.203012238,0.2591111755,0.8511002064,0.4550308883,-0.15002729,1
15.73006463,-0.5430706787,9.290131073,0.1463955688,0.7258964181,-0.0579566434,-0.2043495774,1
15.75010662,0.233664093,9.38877594,-0.5769003296,0.7258964181,-0.0579566434,-0.2043495774,1
15.77014863,1.465751953,10.23616379,-2.203118591,0.04914877936,-1.109646201,0.1186460257,1
15.79018962,1.476230164,10.26176056,-1.923050995,0.04914877936,-1.109646201,0.1186460257,1
15.81023163,0.4067042542,10.28316605,-1.13493988,0.4457422793,-0.2909950614,0.2044218928,1
15.83027362,-0.4074526978,10.25337799,-0.6328839111,0.4457422793,-0.2909950614,0.2044218928,1
15.85031563,-0.9141490173,10.35396881,0.2689906311,-0.1806828082,-0.1576070935,0.1342643797,1
15.87035662,-1.441801758,12.46532822,0.4731660461,-0.1806828082,-0.1576070935,0.1342643797,1
15.89039863,0.6414161682,13.01962555,1.061592407,-1.047443628,-1.312855482,0.4747051895,1
15.91044062,1.755249939,11.41615997,-1.643432465,-1.047443628,-1.312855482,0.4747051895,1
15.93048163,2.03591629,11.61823975,-1.98098053,-1.555526257,-1.395708084,0.7635076642,1
15.95052362,2.466121674,11.81852325,-0.113613739,-2.103369474,-0.6593546271,0.7888227105,1
15.97056563,-0.23635849,9.258397064,1.139580231,-3.331143618,1.910273314,-0.07587615401,1
15.99060762,-2.297422485,8.082741852,0.3606001282,-3.514625072,1.06871736,-0.7908473015,1
16.01064863,-2.418221283,9.382489014,0.03652404785,-3.282486677,-0.9233272672,-1.392912865,1
16.03069062,-3.238216095,11.17635864,1.686243439,-3.282486677,-0.9233272672,-1.392912865,1
16.05073263,-3.613934784,11.88094345,3.203338623,-1.945188046,-1.350450635,-0.4641035795,1
16.07077362,-1.008153534,11.93767548,2.229613495,-1.945188046,-1.350450635,-0.4641035795,1
16.09081563,1.04018692,11.89306824,-0.0505947876,-1.808724165,1.65572238,-0.1403511465,1
16.11085762,1.932331696,11.07861191,-0.06481521606,-1.808724165,1.65572238,-0.1403511465,1
16.13089863,1.672921143,10.25891647,0.8598120117,-2.326187849,2.473908663,-0.3134831786,1
16.15094062,0.3279679871,9.089099121,1.84401535,-2.419093132,2.33047986,-0.5045006275,1
16.17098263,-1.838776245,7.757767639,3.239263916,-1.425318599,1.413813233,-0.2821083367,1
16.19102462,-4.240082703,6.272256775,3.354524231,-0.8129335046,0.5531921387,0.2206737399,1
16.21106563,-4.346062317,5.349874878,3.562292175,-0.2608783841,0.08162555099,0.3499740362,1
16.23110762,-2.064656525,5.175637207,3.265010376,-0.2608783841,0.08162555099,0.3499740362,1
16.25114963,-1.279838562,4.944667511,2.813698883,0.5568965077,0.2462313622,0.2124995291,1
16.27119062,-1.470991058,4.761598206,2.859054565,0.5568965077,0.2462313622,0.2124995291,1
16.29123171,-1.848805389,4.942571869,3.381617889,0.9642966986,0.2162764519,0.2454735339,1
16.31127371,-1.768572235,4.561913452,4.501439209,1.474820852,-0.02038816735,0.2456745356,1
16.33131571,-1.777553558,3.967349854,5.28296402,2.626353741,0.06666626781,-0.1904368103,1
16.35135671,-1.148262177,5.127437439,6.163882141,2.923995972,0.5248975158,-0.5579469204,1
16.37139871,-0.3411405945,9.73740097,5.148543549,2.133856535,0.1722983867,-0.259713918,1
16.39144071,-2.46073288,18.16562439,2.477348328,-1.204986095,-0.0900259912,0.2034827471,1
16.41148171,-0.6638694763,17.44397507,2.767744446,-1.204986095,-0.0900259912,0.2034827471,1
16.43152371,-2.495161285,9.442514191,15.49308197,-0.4571422935,0.594722271,-0.06629451364,1
16.45156571,-3.920197906,5.057532806,13.84740417,1.052340388,-1.933300614,0.2110680789,1
16.47160771,-3.128494263,7.788753204,2.540516968,0.8935676813,-0.6854693294,-0.2845232785,1
16.49164871,-4.062851257,14.75646378,-5.200186157,0.8935676813,-0.6854693294,-0.2845232785,1
16.51169071,-8.670419769,14.47415085,-4.811893616,-0.2208732367,0.1173641086,-0.4636431336,1
16.53173271,-4.250710602,9.677226105,7.998766479,-0.04197073728,1.775297284,0.094585374,1
16.55177371,2.130220184,8.644224243,8.071066132,-0.04197073728,1.775297284,0.094585374,1
16.57181571,-0.1266366577,6.951843567,-2.12138855,1.298124552,-1.540754557,0.2114708275,1
16.59185771,-1.549278259,7.258256378,-6.073470154,1.737020731,-3.232366085,0.520442605,1
16.61189871,-1.076860657,9.173074493,-4.428540802,1.335895658,-2.46905303,0.3833918571,1
16.63194071,-0.2471360779,10.47836014,0.4080514526,1.055357814,0.1211713105,-0.05742060021,1
16.65198271,-0.3219804382,10.68747528,-0.9322613525,1.120218992,2.290848017,0.0104234647,1
16.67202471,0.2526745605,11.05181763,-0.9813592529,1.202219367,-0.213385582,0.6825971007,1
16.69206571,-0.0288899231,10.20607635,1.19466568,1.39211905,-1.438788891,0.9244046211,1
16.71210771,-1.40991806,9.430988159,2.410437469,1.277584434,-1.581927657,1.013003111,1
16.73214971,-2.219584351,9.539961548,1.235979767,0.9096524119,-1.639809728,0.8502051234,1
16.75219071,-1.721420288,8.806337128,-0.5647755432,0.9096524119,-1.639809728,0.8502051234,1
16.77223271,-1.190175018,7.80911087,-0.7228468323,0.9034277797,-1.929430008,0.3572115898,1
16.79227471,-0.4167333984,7.645201721,-0.2724334717,1.035291076,-0.7347881198,0.07074274868,1
16.81231571,0.07679031372,8.464747467,-0.1969903564,1.035291076,-0.7347881198,0.07074274868,1
16.83235771,0.7686515808,9.225914612,-0.1308279419,1.113023996,1.021487474,-0.1514440328,1
16.85239971,0.6905140686,9.241482239,1.182091827,1.343697548,0.812268734,-0.06082628667,1
16.87244171,0.8708889771,9.238189087,1.345701599,1.188088894,-0.02926227637,-0.02591948211,1
16.89248271,1.120869141,9.336983643,-0.1960922241,1.188088894,-0.02926227637,-0.02591948211,1
16.91252471,0.2953358459,9.286388855,0.3806584167,0.866376698,-1.02636075,-0.1341595501,1
16.93256671,-0.3272195435,9.708960114,1.54448822,0.7117726207,-0.9066029191,-0.272005856,1
16.95260771,-0.7132667542,10.262509,0.2833607483,0.9653655291,-0.3661256135,-0.3004187047,1
16.97264971,0.003592529297,10.03348526,0.9958790588,0.9897677898,-0.1386652589,-0.129910931,1
16.99269171,1.107247467,9.525292053,0.5325924683,0.6172248125,-0.01190115139,-0.01203008089,1
17.01273271,2.06405777,9.888885956,-1.154399414,-0.01103719324,-0.6352878213,0.0434480235,1
17.03277471,1.734592896,9.539063416,-1.99385376,-0.1419954002,-1.358251929,0.3271143436,1
17.05281671,1.591640167,9.466614075,-2.20790863,-0.1419954002,-1.358251929,0.3271143436,1
17.07285871,1.00036972,11.8776503,-1.254241791,0.2581687272,0.800129354,0.6077966094,1
17.09289971,-0.01422042847,13.96535889,1.342707825,0.3754187524,1.286067963,0.7047674656,1
17.11294171,-0.05254074097,13.20913147,0.9889933777,-0.9619776607,1.200174212,0.8293486834,1
17.13298371,1.629212036,12.43509109,-1.846110992,-1.825895905,-0.2549037933,0.7346689105,1
17.15302471,1.627864838,13.09222458,-1.031355286,-1.788247466,-1.129651189,0.7435861826,1
17.17306671,1.078207855,11.3016481,0.3161425781,-2.38282299,-0.7018060684,0.1678150296,1
17.19310871,-1.607806549,8.69377121,0.3736230469,-3.155242205,0.2052262425,-0.5139929652,1
17.21314971,-2.065554657,7.232210541,0.5929170227,-3.155242205,0.2052262425,-0.5139929652,1
17.23319171,-3.058140564,7.661517792,1.367556152,-3.269469738,0.7252705693,-1.060033083,1
17.25323371,-2.601589966,10.19934036,1.422491913,-2.943790674,0.3055360913,-1.077371597,1
17.27327571,-1.464105377,11.43861328,1.432970123,-2.221769094,0.09799994528,-0.3331331313,1
17.29331637,-0.05897735596,13.4011821,1.632056122,-2.221769094,0.09799994528,-0.3331331313,1
17.31335838,1.213077393,12.63791931,0.3174897766,-1.674381018,1.728376627,0.05657847226,1
17.33340037,2.352957001,11.35852982,-0.4080514526,-2.029735327,2.186058998,-0.2667838931,1
17.35344138,2.075134735,10.63688049,-0.1945953369,-2.372501135,2.284143448,-0.6172352433,1
17.37348337,0.7557783508,9.674082642,1.575922852,-2.372501135,2.284143448,-0.6172352433,1
17.39352538,-1.093176727,8.445587311,4.47913559,-1.545512557,2.239799976,-0.8007766008,1
17.41356637,-3.996239777,7.030130768,4.500840454,-1.545512557,2.239799976,-0.8007766008,1
17.43360838,-5.414390717,6.090834045,3.362457733,-0.3458513916,-0.01679185592,0.3144206107,1
17.45365037,-4.563410339,5.616171112,2.717449036,-0.3458513916,-0.01679185592,0.3144206107,1
17.47369138,-2.652184753,5.281616821,2.440075836,0.02135115862,-0.04272532836,0.4861480594,1
17.49373337,-1.732497253,5.004093933,1.93412796,0.3624531627,0.2067601532,0.3657208085,1
17.51377538,-1.646575928,4.800068207,2.669698334,1.07780087,-0.1472394019,0.3666020036,1
17.53381737,-1.290765839,4.514013062,3.009791107,1.529186368,-0.1862065494,0.2803480923,1
17.55385838,-0.8785231018,4.059558105,4.143533478,2.040599346,-0.2589682937,-0.06149340793,1
17.57390037,-1.040336609,4.470303955,5.449717255,2.040599346,-0.2589682937,-0.06149340793,1
17.59394238,-0.4939727783,8.015381927,5.925577698,2.678507328,0.08164963871,-0.4323348105,1
17.61398337,-3.722459106,15.02036499,3.552861786,2.678507328,0.08164963871,-0.4323348105,1
17.63402538,-2.949915619,16.98817291,0.1480421448,-2.174761295,1.23320365,0.3500799537,1
17.65406737,-1.663640442,12.08182571,5.549859009,-2.174761295,1.23320365,0.3500799537,1
17.67410838,-4.20879776,5.853727112,20.47711761,-1.912826896,2.456666708,-0.134814918,1
17.69415037,-3.542832642,3.483855286,8.666378174,0.195483759,-1.283313513,-0.09214986116,1
17.71419238,-0.4784051514,5.885311432,1.304237823,0.7929843664,1.131000042,0.2678129077,1
17.73423337,1.254541168,12.93744644,-4.515060883,0.7929843664,1.131000042,0.2678129077,1
17.75427538,-1.456321564,18.14047668,-1.504521332,0.4602189958,0.2190139592,0.2860125601,1
17.77431737,-4.567152557,15.53888672,4.104015656,0.4602189958,0.2190139592,0.2860125601,1
17.79435938,-3.753444672,12.81155823,4.855003967,0.005250230432,0.1893101037,0.6194455624,1
17.81440037,-4.14682663,7.241491241,3.610491943,0.005250230432,0.1893101037,0.6194455624,1
17.83444238,-3.851640472,4.310286713,-0.2131567383,1.5348562,-2.049453497,0.5445068479,1
17.85448437,-2.604134674,4.548441467,-1.816322937,1.712232232,-1.716869116,-0.1380195469,1
17.87452538,-1.412911835,7.760761414,-2.045196991,1.024064064,0.02171990648,-0.5089510083,1
17.89456737,0.2332150269,11.28877487,-5.70538559,1.024064064,0.02171990648,-0.5089510083,1
17.91460938,0.892893219,11.72556656,-5.654940491,0.1874660552,0.9117629528,0.319493562,1
17.93465037,1.694626007,11.60806091,0.7640112305,0.1874660552,0.9117629528,0.319493562,1
17.95469238,1.975591736,10.9539212,4.039799194,2.402834415,-0.01583941095,0.9156645536,1
17.97473437,-0.776585083,9.091943207,2.078577576,2.402834415,-0.01583941095,0.9156645536,1
17.99477538,-1.685195618,8.687035217,-0.3682342529,2.138878107,-0.1198268831,1.234370112,1
18.01481737,-1.267863464,8.757837982,-3.081641693,0.8121051192,-0.6158035994,1.044468999,1
18.03485938,-1.458417206,8.21162384,-0.3486250305,0.4893274307,-1.32453084,0.1121790335,1
18.05490037,-1.891167297,8.459807739,0.3019221497,0.4893274307,-1.32453084,0.1121790335,1
18.07494238,-0.1848655701,8.955127716,-0.2987786865,0.64769876,-0.04296340048,-0.1006590575,1
18.09498437,1.11982132,10.12748978,0.05298980713,0.64769876,-0.04296340048,-0.1006590575,1
18.11502638,1.425785065,10.36714142,0.8180488586,0.8114436269,-0.3204869628,0.06096634269,1
18.13506737,1.494791565,9.522298279,0.750838623,0.8114436269,-0.3204869628,0.06096634269,1
18.15510938,1.128054199,9.179810486,-0.0687071228,0.5570753217,-0.728487134,-0.1141180769,1
18.17515137,0.4400848389,9.270970917,0.3658392334,0.6202853322,-0.3225959837,-0.2182811052,1
18.19519238,0.1031355286,9.505682831,0.9882449341,0.7710533142,-0.1927940249,-0.2410862297,1
18.21523437,-0.5004093933,9.69533844,0.3592529297,0.7710533142,-0.1927940249,-0.2410862297,1
18.23527638,-0.7450007629,9.380393372,0.6572831726,0.626021266,-0.2352769822,-0.1168164164,1
18.25531737,0.1836680603,9.323511658,0.3582051086,0.626021266,-0.2352769822,-0.1168164164,1
18.27535938,1.293310547,10.09515701,-0.9039701843,0.3459199369,-0.3856548667,-0.1634241492,1
18.29540158,1.254690857,10.36399796,-1.698667603,0.07144768536,-0.7667158246,-0.08925683796,1
18.31544258,0.7843688965,9.912387085,-1.643881531,0.03781428933,-0.9366499782,0.09214975685,1
18.33548458,0.1589694214,9.193881226,-1.331181793,0.2403974384,-0.6756981611,0.2135071605,1
18.35552658,-0.6542893982,9.853709106,-0.9562115479,0.5089937449,-0.2523031235,0.2664212286,1
18.37556758,-1.921853485,11.28982269,-0.2392025757,0.5727307796,0.06018771604,0.3471741676,1
18.39560958,-1.689835968,11.4688504,0.4683760071,0.4298705459,-0.1761097461,0.4389462173,1
18.41565158,0.2192939758,11.18010086,-0.7473957825,-0.07678992301,-0.5923201442,0.3365574479,1
18.43569258,1.514400787,12.49811005,-1.663490753,-0.6331443191,-1.06803906,0.3575289249,1
18.45573458,2.131567383,13.28756836,-1.055604858,-0.9370777011,-0.9559170008,0.7887102365,1
18.47577658,3.090772705,12.02075272,-0.3315605164,-0.9961511493,-0.2895088494,0.4807180166,1
18.49581858,1.978735199,9.68366272,0.2682421875,-1.764829159,0.9150636196,0.1552824676,1
18.51585958,-1.012494507,8.025111694,0.2480342102,-2.73967576,1.535604358,-0.1937416941,1
18.53590158,-1.245559845,7.307803345,0.02844085693,-3.084424257,0.9710960984,-0.5800113082,1
18.55594358,-1.271306305,7.518565063,0.1592687988,-3.227817774,-0.03862978891,-0.9086615443,1
18.57598458,-1.238524475,8.968150635,0.7979905701,-3.254821301,-0.6743782759,-1.090032458,1
18.59602658,-1.487456818,11.1491153,1.90374115,-2.599288702,-0.3664139509,-0.8071339726,1
18.61606858,-1.465751953,12.96109726,2.900518341,-1.555681348,0.9467728734,-0.4176553488,1
18.63610958,-0.03652404785,13.12425797,0.4637356567,-1.555681348,0.9467728734,-0.4176553488,1
18.65615158,1.373843079,11.72706345,-1.533560944,-1.702510595,1.657391548,-0.2023928314,1
18.67619358,1.019679565,10.5186264,0.6965016174,-1.878513932,2.198595524,-0.2492116988,1
18.69623458,-0.7788304138,9.442065125,3.804338837,-1.878513932,2.198595524,-0.2492116988,1
18.71627658,-1.225651245,8.730894012,3.304079132,-1.425790191,2.615553856,-0.2997566164,1
18.73631858,-2.064806213,7.810907135,2.136357422,-1.072951198,1.163080454,-0.2056144029,1
18.75635958,-3.463946686,6.968758392,2.442620544,-0.7322204113,0.4969990849,0.2458395213,1
18.77640158,-3.75943222,6.393055573,3.47397583,-0.2449499518,0.06218590587,0.5709034204,1
18.79644358,-1.820364532,6.093079376,4.086651764,-0.2449499518,0.06218590587,0.5709034204,1
18.81648458,-0.6960525513,5.624254303,4.14907196,0.2856091857,-0.1276769042,0.5966640711,1
18.83652658,-0.3170407104,5.667364655,3.603755951,1.031575918,0.1028037146,0.4174090624,1
18.85656858,-0.5833369446,5.921087036,3.133733368,1.196037173,0.3472624719,0.3189432323,1
18.87660958,-0.9056167603,5.929768982,3.115171967,1.196037173,0.3472624719,0.3189432323,1
18.89665158,-1.022972717,6.155649261,3.376528473,1.509455204,0.4209845066,-0.2552241981,1
18.91669358,-1.438358917,7.45105545,3.864064636,1.7121135,0.2072384208,-0.3724460304,1
18.93673458,-3.062182159,10.80123871,4.874313812,1.7121135,0.2072384208,-0.3724460304,1
18.95677658,-4.27436142,13.64577347,4.512067108,1.520680428,-0.6832097769,0.1587880403,1
18.97681858,-0.9803114319,11.5233371,4.847220154,0.3446607292,-1.063024282,0.45671767,1
18.99685958,-0.04355941772,9.460327148,8.242609406,-0.3222747743,0.2116565108,0.1712121814,1
19.01690158,-1.315763855,8.751401367,8.724607086,-0.4015542269,1.466800928,-0.1390102804,1
19.03694358,-1.883233795,9.456135864,6.967560883,-0.2812137604,1.201269984,-0.2226510495,1
19.05698458,-1.555265808,9.309740295,4.485123138,-0.05220288038,0.1583907157,0.08641074598,1
19.07702658,-0.5484594727,8.859027557,4.186194763,-0.02710045129,0.245102495,0.4693822265,1
19.09706858,0.3158432007,7.992479553,4.792883148,-0.2346297503,1.15062201,0.4711280167,1
19.11711058,-0.8217910767,9.99726059,4.946463776,0.4097776711,1.7107867,-0.3790852726,1
19.13715158,-3.179238739,15.09505966,4.454886017,0.8177435398,1.240445971,-0.2211576253,1
19.15719358,-6.638096008,15.3493808,-0.6318360901,0.3863135576,-0.2523726523,0.720841229,1
19.17723558,-4.00641861,10.2864592,-4.508773956,0.5136657953,-0.2929039598,0.9881605506,1
19.19727658,-1.504970398,5.899681549,-0.6810836792,0.5884218216,0.1786496639,0.4642502367,1
19.21731858,-0.3658392334,5.598657532,2.563718719,0.8974144459,-0.3382596672,-0.3605426848,1
19.23736058,-4.162993011,6.926396484,0.7093748474,1.272710085,-0.652253449,-0.2921546102,1
19.25740158,-4.873565369,9.018296356,1.085542603,1.272710085,-0.652253449,-0.2921546102,1
19.27744358,-1.617236938,9.252708893,-2.499951324,1.858066082,-0.6547614932,0.2396732271,1
19.29748558,1.378483429,8.814420319,-6.703060913,0.9155732989,-0.7755787373,0.22768794,1
19.31752658,1.815125427,9.374106445,-5.898783417,0.9155732989,-0.7755787373,0.22768794,1
19.33756858,-0.0043409729,10.67579956,-0.8137078857,0.3965561986,-0.3324964345,-0.07758261263,1
19.35761058,-1.583257599,11.03610031,6.491850128,1.693154693,2.071614742,0.3316209912,1
19.37765158,-2.326761475,10.48090485,2.632425842,1.693154693,2.071614742,0.3316209912,1
19.39769358,-1.43805954,9.954000549,-2.133962402,1.119415283,0.7999458313,0.6417757273,1
19.41773558,-1.316961365,8.869505768,-2.822081451,0.1487317532,-2.790703058,0.7370603681,1
19.43777658,-1.369801483,8.395591278,-0.9274713135,0.3543339074,-2.69121623,0.6554201245,1
19.45781858,-0.628692627,8.955726471,0.669407959,0.5297242403,-1.428032517,0.3223058879,1
19.47786058,0.04475692749,9.870923309,0.3814068604,0.3214520812,-0.3420158327,0.1360865533,1
19.49790158,-0.2067201233,9.947264557,-1.255289612,0.256965965,-0.02508352138,0.1544578522,1
19.51794358,-0.01197509766,9.440119171,-0.5367837524,0.6046450138,-0.146768406,0.1690047979,1
19.53798558,0.4851411438,9.2167836,0.3649411011,0.8423771858,-0.3730204999,0.1482658982,1
19.55802658,0.3969744873,9.316027222,0.0383203125,0.8423771858,-0.3730204999,0.1482658982,1
19.57806858,0.3065625,9.29282547,0.4360432434,0.8402975798,-0.515404284,0.08709532768,1
19.59811058,0.1351689148,9.161698151,0.6472540283,0.7753427029,-0.6155108809,-0.06193270534,1
19.61815158,-0.1444496155,8.994645538,-0.2618055725,0.7753427029,-0.6155108809,-0.06193270534,1
19.63819358,-0.5797444153,9.506431274,-0.4049079895,0.7700791955,-0.6670405269,-0.1045595109,1
19.65823558,-0.872535553,9.939780121,0.5381309509,0.8961916566,-0.2220253795,-0.08409968764,1
19.67827658,-0.5228627014,9.489815826,0.4369413757,0.8961916566,-0.2220253795,-0.08409968764,1
19.69831858,0.6021977234,9.511969757,-0.3324586487,0.638643384,-0.465554893,-0.06816753745,1
19.71836058,1.266665955,9.93633728,-1.505120087,-0.07125067711,-1.351479053,0.02120927908,1
19.73840158,1.105451202,10.43420197,-1.724414063,0.06405095756,-1.328609943,0.1936412901,1
19.75844358,0.7107220459,9.834698639,-0.6159690857,0.2948611379,-0.8623012304,0.3918552101,1
19.77848558,-0.1860630798,10.05968079,-0.781973877,0.3329550028,-0.3100311756,0.5960023403,1
19.79852658,-0.8890013123,11.45927032,-0.4556524658,0.1581331044,0.01777888648,0.7324429154,1
19.81856858,-1.443598022,11.81672699,1.184037781,-0.5865893364,-0.2939657271,0.5737646222,1
19.83861058,-0.1332229614,11.94126801,-0.1556762695,-1.376337528,-1.153980732,0.5115885735,1
19.85865158,1.166673889,13.67810623,-1.499282227,-1.736107826,-1.706575274,0.8571329117,1
19.87869358,1.564097443,13.35926926,-1.940115509,-1.967299342,-1.551024079,0.795283258,1
19.89873558,1.905238037,10.3581601,-0.912203064,-2.615256071,-0.7860988379,0.2462181002,1
19.91877658,-1.957928467,8.979826355,-0.4851411438,-2.615256071,-0.7860988379,0.2462181002,5
19.93881858,-3.231330414,8.56848175,0.5968089294,-3.047384739,-0.3332283497,-0.4335657954,5
19.95886058,-5.461243286,8.62701004,0.9970765686,-2.380138636,-1.466285229,-0.6337817311,5
19.97890158,-3.908971252,11.72436905,1.803749084,-2.380138636,-1.466285229,-0.6337817311,5
19.99894358,0.1092727661,12.78147079,-0.3444337463,-1.182131767,-1.271486878,-0.4485074282,5
20.01898558,1.207089844,10.70528824,-3.327280884,-0.3867942691,1.445934296,0.2286933213,5
20.03902658,2.360142059,8.989406433,-4.648583221,-1.20942843,1.76607573,0.08169469982,5
20.05906858,2.622696075,9.091194763,-2.250420227,-1.210640073,1.379531145,-0.4104577303,5
20.07911058,0.9650431824,9.220525818,0.3860472107,-0.5806014538,1.173775196,-0.7394315004,5
20.09915158,-0.6460565186,8.527467041,2.774779816,0.2787538171,1.082006097,-0.8998813629,5
20.11919358,-3.392245789,7.855813751,3.205733643,0.8342909813,0.5735899806,-0.2827873826,5
20.13923558,-7.635322266,7.338938599,2.020198975,0.8577135205,0.09044414759,0.3325001299,5
20.15927658,-3.481609955,7.849377136,0.9358538818,0.6633235812,0.2355469465,0.2484040707,5
20.17931858,-0.528999939,8.598120117,1.007554779,0.3699091375,0.8900383115,0.2166173905,5
20.19936058,0.2378553772,8.89615036,1.327140198,0.2439334393,1.494576097,0.1125282496,5
20.21940158,0.5116360474,10.00833755,2.388283539,0.2439334393,1.494576097,0.1125282496,5
20.23944358,-1.035845947,9.925709381,1.487307129,0.3065651953,1.274180055,0.01824063063,5
20.25948558,-2.501298523,9.272617493,-0.03457809448,0.127460286,-0.5697979331,0.2611598074,5
20.27952658,-2.589764557,9.788444824,0.3713777161,0.127460286,-0.5697979331,0.2611598074,5
20.2995715,-2.430645447,9.952054596,1.410367126,0.04318035766,-0.0919315815,0.1624075025,5
20.3196135,-1.416204987,9.913734283,1.362167358,0.4041672945,0.6417745948,0.05350001901,5
20.3396545,-0.5833369446,9.731862488,-0.07125183105,0.7148165107,-0.5769091249,0.1284807026,5
20.3596965,-0.5671705627,9.581125946,-1.669777679,0.7148165107,-0.5769091249,0.1284807026,5
20.3797385,-1.535506897,9.667346649,-1.085991669,0.7184973955,-0.6735005379,0.2743439078,5
20.3997795,-2.776875458,10.09440857,2.212399292,0.8575934172,1.011266947,0.05825778097,5
20.4198215,-2.295626221,9.809550934,1.477427673,0.6145378947,1.477918506,-0.09425865114,5
20.4398635,-1.704056396,9.501341858,-1.023272095,0.3014318049,0.899261117,-0.08728428185,5
20.4599045,-1.726509705,9.508227539,-0.8418493652,0.2314595282,0.5251443982,-0.04987786338,5
20.4799465,-1.57966507,9.603130188,1.427281952,0.2327540219,0.3261612654,-0.1073496789,5
20.4999885,-1.38776413,9.68710556,1.110540619,0.09973224998,-0.3648317456,-0.1223000139,5
20.5200295,-1.323248291,9.69533844,0.1712438965,0.09973224998,-0.3648317456,-0.1223000139,5
20.5400715,-0.8705895996,9.953850861,0.3688330078,-0.01432341523,-0.9396144152,-0.07301108539,5
20.5601125,-0.4852908325,9.908495178,0.4605921936,-0.006407432724,-1.048977613,-0.02810416743,5
20.5801545,-0.2853067017,9.844278717,0.3776646423,0.05359438062,-0.8354837298,0.03567991033,5
20.6001965,-0.5180726624,9.843230896,0.6700067139,0.1995900124,-0.4392413497,0.0496220924,5
20.6202375,-0.8228388977,9.787995758,0.6637197876,0.3677949011,0.1587781608,0.04531715438,5
20.6402795,-0.8878038025,9.895172882,0.3141966248,0.3885534704,0.5215094686,0.01387411263,5
20.6603215,-0.9205856323,9.637259216,0.5269042969,0.3554809391,0.7002470493,-0.02620310709,5
20.6803625,-0.8518785095,9.515711975,0.265847168,0.306006521,0.6208255291,-0.03187354654,5
20.7004045,-0.9310638428,9.560917969,-0.03263214111,0.1353303194,-0.2346211374,-0.00768839661,5
20.7204465,-1.012195129,9.782307587,0.2788700867,0.1157433018,-0.3286198378,-0.004078912549,5
20.7404875,-1.096769257,9.993069305,0.4653822327,0.1157433018,-0.3286198378,-0.004078912549,5
20.7605295,-0.8701405334,9.824370117,0.4808001709,0.09580408782,-0.1452301294,0.01867325231,5
20.7805715,-0.7496411133,9.742340698,-0.01721420288,0.06720938534,-0.2788752317,0.01526962779,5
20.8006125,-0.6993457031,9.664652252,-0.2064207458,0.06720938534,-0.2788752317,0.01526962779,5
20.8206545,-0.5472619629,9.677525482,0.1112187195,0.07006183267,-0.2781367004,0.01570857503,5
20.8406965,-0.3851490784,9.850116577,0.2002835083,0.1411526054,0.1028721705,0.01927674375,5
20.8607375,-0.5682183838,9.91642868,0.1261875916,0.1411526054,0.1028721705,0.01927674375,5
20.8807795,-0.6412664795,9.918973389,0.1499880981,0.2001735866,0.2140743583,0.0327193737,5
20.9008215,-0.6749464417,9.773176575,-0.07948471069,0.1844922155,0.1599432677,0.01059639454,5
20.9208625,-0.5909710693,9.730814667,0.1064286804,0.1844922155,0.1599432677,0.01059639454,5
20.9409045,-0.5212161255,9.775421906,0.09535171509,0.1505036801,0.1995926201,-0.001031723805,5
20.9609465,-0.3613485718,9.680818634,0.06900650024,0.1422128677,0.05944443494,-0.02364907041,5
20.9809875,-0.2032772827,9.800569611,-0.009280700684,0.03785962611,0.05665338039,0.002297617728,5
21.0010295,-0.4281097412,9.825567627,-0.3809577942,0.02736270428,0.08981400728,-0.003799430327,5
21.0210715,-0.5658233643,9.815388794,-0.03622467041,0.05532357469,0.2075614333,0.02703727782,5
21.0411125,-0.7261399841,9.777068481,-0.2709365845,0.07387334853,0.1775553823,0.04054320604,5
21.0611545,-0.9601034546,9.768386536,0.05044509888,0.1637826711,0.2648185492,0.03029153682,5
21.0811965,-0.7071295166,9.792037354,0.2794688416,0.09814606607,0.2293887138,0.02884300239,5
21.1012375,-0.5742059326,9.73859848,-0.203127594,0.09814606607,0.2293887138,0.02884300239,5
21.1212795,-0.473764801,9.7502742,-0.08502319336,0.007457844913,-0.01299102418,0.02047330141,5
21.1413205,-0.6215075684,9.877359924,-0.1242416382,0.0249187164,-0.1878144741,0.02926100232,5
21.1613625,-0.9135502625,9.797276459,-0.4876858521,0.01227936707,-0.2146635354,0.05903931707,5
21.1814045,-1.042881317,9.668993225,-0.4590953064,-0.01366682071,-0.1733592451,0.03807830065,5
21.2014455,-1.135538635,9.875863037,-0.3698808289,0.004032292403,0.005659604445,0.02197452635,5
21.2214875,-1.146316223,9.750872955,-0.4641847229,0.03404378146,0.04108380526,0.03336628154,5
21.2415295,-1.035396881,9.659862213,-0.3838018799,0.08245551586,-0.08404140174,-3.052502871e-05,5
21.2615705,-0.8602610779,9.642049255,-0.4908293152,0.08383031189,-0.1656396985,-0.007125116885,5
21.2816125,-0.7902067566,9.836644592,-0.4956193542,0.05475538969,-0.1882284135,0.01704069413,5
21.30165121,-0.9285191345,9.839189301,-0.3531156921,0.1074829847,-0.2601930201,0.02089969255,5
21.32169221,-0.9710307312,9.839788055,-0.5360353088,0.1074829847,-0.2601930201,0.02089969255,5
21.34173421,-0.935255127,9.821825409,-0.3632945251,0.1008262038,-0.3109708428,0.02107628249,5
21.36177621,-0.7866142273,9.770631866,-0.2393522644,0.03502149507,-0.3147624731,-0.002182453871,5
21.38181721,-0.5345384216,9.693242798,-0.3243754578,-0.01475298405,-0.282981962,-0.02370735258,5
21.40185921,-0.3683839417,9.777517548,0.02320175171,0.002131977119,-0.1935262382,-0.02727386914,5
21.42190121,-0.2028282166,9.844877472,0.02245330811,-0.01007241383,-0.2461249381,-0.009083258919,5
21.44194221,-0.1981878662,9.799970856,-0.2794688416,-0.02530030534,-0.2830255628,0.01098266989,5
21.46198421,-0.2053729248,9.846074982,0.1613644409,-0.006706710905,-0.1194900349,0.008731691167,5
21.48202621,-0.1573228455,9.854607239,0.1044827271,-0.03345184028,-0.07731240988,0.01518385485,5
21.50206721,-0.169896698,9.768835602,0.04430786133,-0.03345184028,-0.07731240988,0.01518385485,5
21.52210921,-0.2917433167,9.724827118,0.04730163574,-0.03454260156,-0.09366909415,0.01863252558,5
21.54215021,-0.4064048767,9.743538208,0.0007484436035,-0.03331641853,-0.03882614523,0.007117324043,5
21.56219221,-0.5870791626,9.783654785,-0.02724334717,-0.03544215485,0.0001595560461,-0.005126791541,5
21.58223421,-0.5789959717,9.676777039,0.08128097534,-0.0127503518,0.05559485033,-0.009217234328,5
21.60227521,-0.5915698242,9.730964355,-0.0,-0.01611219905,0.07162930816,-0.009485561401,5
21.62231721,-0.6330335999,9.7900914,0.1127156067,-0.03508668393,0.1345033646,-0.01961339824,5
21.64235921,-0.5930667114,9.735005951,0.05523513794,-0.01509040594,0.1042174324,-0.0110610649,5
21.66240021,-0.6493496704,9.693542175,0.05269042969,0.005310740322,0.1091656014,-0.01638056338,5
21.68244221,-0.6930587769,9.663454742,-0.1724414062,-0.02399834618,0.1179326475,-0.01831946895,5
21.70248421,-0.8249345398,9.682914276,-0.04430786133,0.003538664896,0.1518179178,-0.02193435095,5
21.72252521,-0.826431427,9.735455017,0.07963439941,0.03654036671,0.189155966,-0.01245199237,5
21.74256721,-0.8089178467,9.737850037,0.003592529297,0.04032664746,0.1362389177,-0.0004434306175,5
21.76260921,-0.8916957092,9.711953888,-0.110919342,0.05703591555,0.1278937608,0.009166868404,5
21.78265021,-0.703686676,9.732012177,0.06810836792,0.05703591555,0.1278937608,0.009166868404,5
21.80269221,-0.7050338745,9.747579803,-0.1070274353,0.07141871005,0.107963331,0.01388777141,5
21.82273321,-0.7652087402,9.854008484,-0.1157093811,0.07993649691,0.05239946395,0.01618337445,5
21.84277521,-0.8211923218,9.763596497,-0.04849914551,0.05451410264,0.09081946313,0.009275550023,5
21.86281721,-0.8159532166,9.597292328,-0.08472381592,0.02357256971,0.09838008136,0.01328135468,5
21.88285821,-0.9358538818,9.785900116,-0.112565918,0.02687554993,0.04547993094,-0.01034918427,5
21.90290021,-0.7453001404,9.755513306,-0.1519340515,0.01083745807,0.0477409251,-0.01363212988,5
21.92294221,-0.5776487732,9.884544983,-0.2713856506,-0.04025029391,0.174676016,-0.009498047642,5
21.94298321,-0.5397775269,9.823771362,-0.4867877197,-0.04297210649,0.1312373281,0.03530893102,5
21.96302521,-0.6845265198,9.605824585,-0.5559439087,0.1139385998,0.1188962311,0.0379370302,5
21.98306721,-0.8583151245,9.634564819,-0.3824546814,0.0718030706,0.3580412269,-0.001106021693,5
22.00310821,-0.9885443115,9.861642609,-0.04939727783,-0.0008743240032,0.4825589657,-0.02717147209,5
22.02315021,-0.7399113464,9.923763428,-0.008083190918,-0.005643183365,0.2845030427,0.004515154753,5
22.04319221,-0.4430786133,9.818382568,-0.1842668152,0.02849494852,-0.04541584104,0.02828641795,5
22.06323321,-0.4564009094,9.684710541,-0.7117698669,0.02849494852,-0.04541584104,0.02828641795,5
22.08327521,-0.710123291,9.70821167,-0.4975653076,0.02247360721,-0.1554966271,0.03222547472,5
22.10331721,-0.8316705322,9.692644043,-0.2968327332,0.0457668826,0.2473316193,-0.01758290268,5
22.12335821,-0.8243357849,9.766290894,-0.4001179504,0.0457668826,0.2473316193,-0.01758290268,5
22.14340021,-0.655486908,9.812245331,-0.3010240173,0.0745382756,0.1987178326,-0.00700150663,5
22.16344121,-0.6634204102,9.778864746,-0.3532653809,0.001402015565,0.06124784797,0.008894102648,5
22.18348321,-0.7545808411,9.781559143,-0.3188369751,-0.002970030531,-0.01052628458,0.002563377842,5
22.20352521,-0.7756869507,9.748777313,-0.3951782227,0.02130947635,0.04067325592,-0.001905140001,5
22.22356621,-0.8020321655,9.752070465,-0.4725672913,0.00756615866,0.1000201777,-0.00677028764,5
22.24360821,-0.8415499878,9.772727509,-0.3715274048,0.05518874526,-0.04964266717,0.004115385003,5
22.26365021,-0.6508465576,9.676327972,-0.4816983032,0.04220829532,-0.05841548368,-0.01689644903,5
22.28369121,-0.7698490906,9.765692139,-0.4926255798,0.04220829532,-0.05841548368,-0.01689644903,5
22.30373346,-0.7708969116,9.84397934,-0.4023632813,0.07518715411,-0.01792435721,-0.0202051755,5
22.32377546,-0.8140072632,9.723779297,-0.329614563,0.07668079436,-0.04018100724,-0.010601772,5
22.34381646,-0.6177653503,9.721234589,-0.3909869385,0.07668079436,-0.04018100724,-0.010601772,5
22.36385846,-0.6953041077,9.78545105,-0.3876937866,0.07535685599,-0.08358734846,-0.02735738829,5
22.38389946,-0.4981640625,9.679172058,-0.4667294312,0.04036046192,-0.03041035309,-0.02437495627,5
22.40394146,-0.4848417664,9.868079224,-0.3634442139,0.03608455509,-0.07789541036,-0.01108341571,5
22.42398346,-0.5752537537,9.877509613,-0.3403921509,0.07884120196,-0.09362344444,-0.007754437625,5
22.44402446,-0.4891827393,9.687704315,-0.2257305908,0.03759397566,0.06719401479,-0.01986812055,5
22.46406646,-0.523611145,9.796528015,-0.230969696,-0.0006819097325,0.008385151625,-0.01301056333,5
22.48410846,-0.5671705627,9.782906342,-0.382155304,0.08686457574,-0.08567362279,-0.005141243339,5
22.50414946,-0.4785548401,9.802515564,-0.3764671326,0.08686457574,-0.08567362279,-0.005141243339,5
22.52419146,-0.505947876,9.801168365,-0.533789978,-0.08310008794,0.2371452898,0.002784335753,5
22.54423346,-0.7915539551,9.661957855,-0.16615448,0.07286853343,0.09139763564,-0.0319365114,5
22.56427446,-0.9153465271,9.656269684,-0.3520678711,0.07286853343,0.09139763564,-0.0319365114,5
22.58431646,-0.4372407532,9.852361908,-0.470022583,0.008101660758,0.09012401849,0.002241851063,5
22.60435746,-0.5694158936,9.840087433,-0.255668335,0.008101660758,0.09012401849,0.002241851063,5
22.62439946,-0.6274951172,9.831854553,-0.4752616882,0.03336360678,0.2009496093,0.006782007869,5
22.64444146,-0.9726773071,9.604627075,-0.7038363647,0.03465503454,0.06902500242,0.006793628447,5
22.66448246,-0.7032376099,9.651479645,-0.4679269409,-0.002348252805,0.0660976842,0.009017704986,5
22.68452446,-0.825383606,9.783355408,-0.3321592712,0.009924924001,0.04379955679,-0.00473342929,5
22.70456646,-0.8818162537,9.761949921,-0.7476951599,0.006785659119,0.1001749188,-0.02514165267,5
22.72460746,-0.7735913086,9.922565918,-0.5213658142,0.02487338334,0.06560327858,-0.003251926042,5
22.74464946,-0.5848338318,9.912836151,-0.5450166321,0.07131171972,-0.0987329185,0.03437870741,5
22.76469146,-0.8096662903,9.689051514,-0.9035211182,0.05527882278,-0.1271807253,0.03768576309,5
22.78473246,-1.052461395,9.627978516,-0.8991801453,0.1026297584,-0.04813748226,0.004596816376,5
22.80477446,-0.9713301086,9.749675446,-0.7291337585,0.06547220051,-0.04774621502,0.006106085144,5
22.82481646,-1.03674408,9.624236298,-0.7801776123,0.04905354977,-0.07964557409,-0.01200144924,5
22.84485746,-0.9117539978,9.661508789,-0.4614903259,0.002349359682,-0.01015858166,-0.0154380342,5
22.86489946,-0.7484436035,9.889484711,-0.7417076111,-0.07298886776,-0.1237417758,-0.02805020288,5
22.88494046,-0.7893086243,9.701775055,-0.7779322815,-0.07298886776,-0.1237417758,-0.02805020288,5
22.90498246,-0.6167175293,9.756561127,-0.4511618042,-0.002372961957,-0.1106490195,0.003223818261,5
22.92502446,-0.8373587036,10.00968475,-0.4079017639,0.01322058029,-0.05377260968,-0.01976259425,5
22.94506546,-0.8764274597,9.631870422,-0.9114546204,0.01322058029,-0.05377260968,-0.01976259425,5
22.96510746,-0.7619155884,9.615853729,-0.2408491516,-0.1039781421,-0.1025840491,-0.0108945407,5
22.98514946,-0.9162446594,9.549391937,-0.7948471069,0.1214336082,-0.2590031922,-0.01476875227,5
23.00519046,-0.4790039062,9.862840118,-0.6523434448,0.05172163993,-0.01561583579,0.009109149687,5
23.02523246,-0.5902226257,9.828411713,-0.5442681885,0.03725481406,0.2168469578,-0.001675853739,5
23.04527346,-0.8149053955,9.750723267,-0.6375242615,0.03725481406,0.2168469578,-0.001675853739,5
23.06531546,-1.064436493,9.744735718,-0.435743866,0.07743565738,-0.2807014287,-0.01392960548,5
23.08535746,-0.8746311951,9.598040771,-0.3966751099,0.06934037805,-0.1773627549,-0.01511019934,5
23.10539846,-0.3900888062,9.786199493,-0.5806425476,0.06934037805,-0.1773627549,-0.01511019934,5
23.12544046,-0.8990304565,9.632020111,-0.7993377686,-0.0333853364,0.04671600834,-0.01788263582,5
23.14548246,-0.889151001,9.924062805,-0.4294569397,0.08680599183,-0.09605111927,0.007855220698,5
23.16552346,-1.038690033,9.730664978,-0.7807763672,0.08680599183,-0.09605111927,0.007855220698,5
23.18556546,-1.0776091,9.718839569,-0.6230044556,0.1180963293,-0.2362462282,0.01189409103,5
23.20560746,-0.7592211914,9.648934937,-0.7885601807,0.05261486769,-0.1095146015,0.003318974515,5
23.22564846,-0.7934999084,9.839937744,-0.8184979248,0.05261486769,-0.1095146015,0.003318974515,5
23.24569046,-0.9551637268,9.696236572,-0.6773414612,-0.009753043763,-0.005666174926,-1.126993448e-05,5
23.26573146,-1.110989685,9.861642609,-0.8635542297,0.06240876764,-0.2034413069,0.001464121277,5
23.28577346,-0.7685018921,9.674382019,-0.7607180786,-0.007941563614,-0.1708405018,0.009373538196,5
23.30581546,-0.9327104187,9.694889374,-0.8653504944,0.02756070718,-0.3318449855,0.03242553025,5
23.32585646,-0.8399034119,9.753417664,-0.7912545776,0.02756070718,-0.3318449855,0.03242553025,5
23.34589846,-0.9647438049,9.533524933,-0.7162605286,0.04317428544,-0.237650618,0.01686673611,5
23.36594046,-0.8241860962,9.798473969,-0.6262976074,0.09195301682,-0.2313506305,0.02612165734,5
23.38598146,-0.8750802612,9.725276184,-0.7870632935,0.09195301682,-0.2313506305,0.02612165734,5
23.40602346,-0.7569758606,9.845925293,-0.9129515076,0.03907601535,-0.03247966245,0.04729995877,5
23.42606446,-0.6623725891,9.554780731,-0.6189628601,0.03907601535,-0.03247966245,0.04729995877,5
23.44610646,-0.7541317749,9.716743927,-0.9318122864,0.003336261725,-0.1515276134,-0.004610027187,5
23.46614846,-0.6165678406,10.01881577,-0.8229885864,0.04325051978,-0.1676995456,0.01749119535,5
23.48618946,-0.5547463989,9.807754669,-0.8256829834,-0.03996300697,-0.1200633943,0.01145343203,5
23.50623146,-0.9255253601,9.518256683,-0.809815979,-0.09860768169,-0.2343556285,-0.01652200893,5
23.52627346,-0.5593867493,9.782307587,-0.8247848511,0.08287109435,-0.1888077259,0.03477375582,5
23.54631446,-0.7414082336,9.679172058,-0.9475296021,0.01308842003,-0.1512919217,0.02349136025,5
23.56635646,-0.7123686218,9.75386673,-0.8351133728,-0.02783257887,-0.09653122723,0.01986904815,5
23.58639846,-0.6300398254,9.806108093,-0.4155358887,-0.03656308725,-0.06690821052,0.02805915102,5
23.60643946,-0.5101391602,9.82047821,-0.5489085388,-0.00997608155,-0.1372693181,0.01748089306,5
23.62648146,-0.6653663635,9.738149414,-0.7388635254,0.00481365528,-0.1736998409,0.01636135578,5
23.64652246,-0.6493496704,9.772727509,-0.8321195984,0.00481365528,-0.1736998409,0.01636135578,5
23.66656446,-0.5267546082,9.717642059,-0.7499404907,-0.01348153502,-0.07265045494,0.004138329532,5
23.68660646,-0.577199707,9.751022644,-0.6867718506,-0.007308985107,-0.02396045998,0.01217880379,5
23.70664746,-0.6539900208,9.705068207,-0.9038204956,-0.007308985107,-0.02396045998,0.01217880379,5
23.72668946,-0.6569837952,9.797875214,-0.6969506836,-0.0005385752302,-0.02476871759,0.00501816161,5
23.74673146,-0.6968009949,9.768386536,-0.6719526672,-0.03033680841,0.01824315637,-0.006648214534,5
23.76677246,-0.7102729797,9.759854279,-0.8075706482,-0.03033680841,0.01824315637,-0.006648214534,5
23.78681446,-0.8863069153,9.734856262,-0.6954537964,-0.04140503705,-0.05238395557,-0.01525816601,5
23.80685546,-0.6138734436,9.78664856,-0.6539900208,0.001763730543,0.003425137838,-0.007048012689,5
23.82689746,-0.7170089722,9.795031128,-0.7337741089,-0.04300360754,0.02747121081,0.005070616491,5
23.84693946,-0.8271798706,9.789043579,-0.773890686,-0.0442144163,0.0669529587,-0.001982318005,5
23.86698046,-0.7009922791,9.740694122,-0.5596861267,-0.0860787034,0.0613354966,0.003279598197,5
23.88702246,-0.7161108398,9.750423889,-0.7107220459,-0.05833674967,0.02617273293,0.002618155675,5
23.90706446,-0.6744973755,9.780062256,-0.6780899048,-0.06241339073,-0.01236928906,0.02020234615,5
23.92710546,-0.8589138794,9.796528015,-0.6140231323,-0.06241339073,-0.01236928906,0.02020234615,5
23.94714746,-0.7979905701,9.759255524,-0.4348457336,-0.06506963074,0.081946522,-0.00559230987,5
23.96718846,-0.9297166443,9.704469452,-0.4628375244,-0.08026894927,0.1249503642,-0.01436486654,5
23.98723046,-1.043629761,9.627379761,-0.2894979858,-0.0282552857,0.09288460761,-0.02417614497,5
24.00727246,-0.715512085,9.841284943,-0.398770752,0.0364561975,0.188933745,-0.02361234277,5
24.02731346,-0.5860313416,9.905651093,-0.5222639465,0.0364561975,0.188933745,-0.02361234277,5
24.04735546,-0.5049000549,9.637558594,-1.063238983,0.01019123849,0.130959481,-0.02920938097,5
24.06739746,-0.5673202515,9.608668671,-0.876277771,-0.03282800689,0.05776710808,0.02966203168,5
24.08743846,-0.6491999817,9.678573303,-0.3294648743,-0.06974554062,0.2695637941,-0.005419617053,5
24.10748046,-0.8231382751,9.761949921,-0.6912625122,-0.02648615651,0.126333788,0.003108868143,5
24.12752146,-0.8656498718,9.800868988,-0.5783972168,-0.02648615651,0.126333788,0.003108868143,5
24.14756346,-0.724044342,9.859696655,-0.2927911377,0.0006991964765,0.09826061875,0.01318300981,5
24.16760546,-0.6954537964,9.739945679,-0.4183799744,-0.04847720265,0.05028731003,0.0102123823,5
24.18764646,-0.546663208,9.67542984,-0.7825726318,-0.04847720265,0.05028731003,0.0102123823,5
24.20768846,-0.7270381165,9.862540741,-0.5623805237,-0.09590936452,0.02022816427,0.01037930883,5
24.22773046,-0.7698490906,9.69533844,-0.505947876,-0.03685289621,0.045812089,0.01439447142,5
24.24777146,-0.7502398682,9.784103851,-0.6177653503,-0.03685289621,0.045812089,0.01439447142,5
24.26781346,-0.7408094788,9.737101593,-0.450712738,-0.007637158968,0.08193775266,0.01242566854,5
24.28785446,-0.659229126,9.748477936,-0.7086264038,-0.03459787369,0.04666168243,0.01223452017,5
24.30789646,-0.6227050781,9.846973114,-0.4911286926,-0.09490855038,0.04481493309,0.03170468658,5
24.32793846,-0.7839198303,9.868827667,-0.3718267822,-0.06445337087,0.09411586076,0.04443107918,5
24.34797946,-0.698896637,9.607471161,-0.6947053528,-0.05448256806,0.07635771483,0.02729483508,5
24.36802146,-0.8741821289,9.646988983,-0.4806504822,-0.03473030031,0.103341803,0.01563719846,5
24.38806246,-0.9006770325,9.758357391,-0.5126838684,-0.03473030031,0.103341803,0.01563719846,5
24.40810446,-0.9092092896,9.687404938,-0.5710624695,-0.02855362929,0.04966873676,0.01482004486,5
24.42814646,-0.899329834,9.693242798,-0.6556365967,-0.02656038478,0.05482821912,-0.001858982025,5
24.44818746,-0.8749305725,9.703122253,-0.5442681885,-0.02656038478,0.05482821912,-0.001858982025,5
24.46822946,-0.7722441101,9.802814941,-0.2836601257,-0.04603388533,0.162216112,-0.006980101578,5
24.48827146,-0.7743397522,9.778116302,-0.4324507141,-0.01285056863,-0.05261559039,0.01673691161,5
24.50831246,-0.8111631775,9.764644318,-0.6634204102,-0.01285056863,-0.05261559039,0.01673691161,5
24.52835446,-0.953966217,9.73395813,-0.6825805664,-0.04768557847,-0.1035942584,0.0322317481,5
24.54839546,-0.7393125916,9.745933228,-0.4064048767,-0.04219900444,0.08304997534,0.02035836503,5
24.56843746,-0.756227417,9.997559967,-0.6670129395,-0.003139345674,0.2532128394,0.002636687364,5
24.58847946,-1.09287735,9.906998291,-0.8812174988,-0.0642747432,0.08445183933,0.01014763303,5
24.60852046,-1.362915802,9.971214752,-0.785716095,-0.1128071919,-0.2618955672,0.00629138574,5
24.62856246,-1.55616394,9.818981323,-0.47271698,-0.1199339479,-0.2910643518,-0.02581865713,5
24.64860446,-1.260977783,9.464668121,-0.6183641052,-0.07639691979,-0.3127047718,-0.01526729669,5
24.66864546,-0.7813751221,9.428742828,-0.7005432129,0.0271606911,-0.4417761266,0.01871969923,5
24.68868746,-0.7837701416,9.547745361,-0.8445437622,0.07764630765,-0.4548783898,0.0472968705,5
24.70872846,-0.9195378113,9.919422455,-0.5159770203,0.07764630765,-0.4548783898,0.0472968705,5
24.72877046,-0.8990304565,9.893376617,0.206869812,0.08736585081,-0.2559703887,0.02519835159,5
24.74881246,-0.5917195129,9.735005951,0.2534230042,-0.02138719708,-0.2047067136,0.005508312024,5
24.76885346,-0.4809498596,9.572444,-0.1585203552,-0.02138719708,-0.2047067136,0.005508312024,5
24.78889546,-0.3019221497,9.617500305,-0.2059716797,-0.1070451066,-0.4368062615,0.01533111557,5
24.80893746,-0.5216651917,10.00758911,-0.1850152588,-0.111092113,-0.3355070055,0.02866854519,5
24.82897846,-0.5590873718,10.10009674,-0.4026626587,-0.111092113,-0.3355070055,0.02866854519,5
24.84902046,-0.9416917419,10.00684067,-1.003064117,-0.08862561733,-0.2412223518,0.01310115494,5
24.86906146,-1.450483704,9.713750153,-1.059347076,-0.07910961658,-0.2883808613,0.006013702601,5
24.88910346,-1.617386627,9.441017303,-0.8885522461,-0.1791825444,-0.4545075893,-0.04201527312,5
24.90914546,-1.246008911,10.03333557,-0.9548643494,-0.2603523731,-0.618697226,-0.1041468158,5
24.92918646,-1.48131958,9.998308411,-0.959355011,-0.2929705679,-0.6750235558,-0.04631631449,5
24.94922846,-1.141526184,9.441316681,-0.6819818115,-0.3091981411,-0.7693052292,-0.05841238052,5
24.96926946,-0.8258326721,10.0993483,-0.9301657104,-0.3091981411,-0.7693052292,-0.05841238052,5
24.98931146,-0.7981402588,10.07689499,-0.7954458618,-0.2578217089,-0.9431604147,-0.01485588681,5
25.00935346,-0.7628137207,10.20218445,-1.548978882,-0.2717034817,-1.648287416,0.1065173522,5
25.02939446,-0.9578581238,9.87436615,-1.801354065,-0.2717034817,-1.648287416,0.1065173522,5
25.04943646,-1.282982025,9.56660614,-2.285746765,-0.2552751303,-1.911186218,0.1423732638,5
25.06947846,-1.989363098,9.822274475,-2.90650589,0.1547904909,-2.694476366,0.03721547127,5
25.08951946,-3.326831818,9.962682495,-3.235372009,0.5992650986,-2.922704458,0.1614312977,5
25.10956146,-5.497617645,8.722062378,-2.733016663,0.5992650986,-2.922704458,0.1614312977,5
25.12960246,-1.68025589,8.728948059,-2.784958649,0.705427289,-2.439102173,0.2281865925,5
25.14964446,0.8776249695,9.977501678,-2.885848846,-0.7408468723,-1.159338236,-0.8911477923,1
25.16968646,-0.106129303,9.570198669,-1.306483154,-0.2384107113,-1.374289393,-0.7434023619,1
25.18972746,0.3134481812,9.99606308,0.7277865601,0.3910329342,-1.919057131,-0.4207777977,1
25.20976946,-0.6746470642,11.39116196,0.3894900513,0.3128908277,-2.387355328,-0.1666277796,1
25.22981046,-1.654060364,11.90639053,-0.1169068909,0.3128908277,-2.387355328,-0.1666277796,1
25.24985246,-2.219584351,11.12815887,-0.06391708374,0.1194903553,-2.454530716,-0.2442883253,1
25.26989446,-2.319277039,9.332792358,-0.7092251587,-0.04936557263,-2.327778578,-0.6095893383,1
25.28993546,-1.919757843,7.93200531,-1.992356873,-0.3219351768,-2.460329056,-1.041581392,1
25.30997771,-1.201102295,7.90042099,-2.111209717,-0.6198659539,-2.935259819,-1.380056024,1
25.33001971,-0.2550695801,9.142537994,-1.014739838,-0.6708567739,-2.663150072,-1.580857992,1
25.35006071,0.2538720703,10.43285477,0.1389111328,-0.4906293154,-2.290210962,-1.603249788,1
25.37010271,-0.2667453003,9.977651367,0.8497828674,-0.2401039004,-2.220543623,-1.573197126,1
25.39014371,-1.271156616,9.080566864,0.7981402588,-0.2401039004,-2.220543623,-1.573197126,1
25.41018571,-1.743125153,8.804989929,0.77927948,-0.3839197159,-1.740495801,-1.490587473,1
25.43022771,-1.182840271,9.760153656,3.745211792,-0.4486674368,-1.662580848,-1.572793126,1
25.45026871,-0.6258485413,9.407337341,3.676654358,-0.4486674368,-1.662580848,-1.572793126,1
25.47031071,-2.227667542,8.73119339,3.823498993,-0.1120160967,-1.973782659,-1.472455025,1
25.49035171,-3.193758545,7.850574646,1.449884949,0.3567355275,-1.688047886,-1.28506875,1
25.51039371,-4.184847565,7.931705933,0.4058061218,0.5651326776,-1.253540754,-1.034560084,1
25.53043571,-3.563339996,8.659492493,1.118923187,0.4626200795,-0.8382912874,-0.5868623853,1
25.55047671,-2.867437134,8.778195648,2.444416809,0.6833058,-1.011790037,-0.4861433208,1
25.57051871,-2.529589691,8.327632599,3.578009491,0.9442631006,-1.567375064,-0.3168788552,1
25.59056071,-2.833308105,7.467970276,3.280428314,1.047963023,-1.844716907,-0.3421426415,1
25.61060171,-3.488495636,7.657476196,2.882406006,0.9097390771,-1.654223442,-0.4292510748,1
25.63064371,-4.465663605,7.735763397,2.544408875,0.8236443996,-1.425043464,-0.3989088833,1
25.65068471,-4.800367584,7.498656464,2.867586823,0.8236443996,-1.425043464,-0.3989088833,1
25.67072671,-5.169350281,6.987619171,4.343667297,0.7216160893,-1.491746068,-0.2200802416,1
25.69076871,-5.251230011,6.8133815,4.530478821,0.1978594065,-1.646643281,-0.1212254018,1
25.71080971,-4.725672913,7.091503143,3.183130646,0.1978594065,-1.646643281,-0.1212254018,1
25.73085171,-5.053491211,7.202422485,4.446054382,-0.4429622591,-1.44976902,-0.2153035402,1
25.75089271,-6.791676636,6.351142731,6.247707825,0.2108098269,-0.268825531,-0.07006314397,1
25.77093471,-6.026617584,12.87068527,3.88232666,1.498204947,-0.1441928297,0.4936215281,1
25.79097671,-2.628833313,20.0446669,-2.493963776,-0.2239809185,-0.7766196132,0.4826501906,1
25.81101771,-0.3402424622,9.796677704,0.0853225708,1.319706917,-0.9588217735,0.8833347559,1
25.83105971,-2.408192139,3.604504395,-2.639610901,1.711473346,-1.681722164,0.9854362607,1
25.85110071,-3.134182434,9.808503113,0.8852590942,1.711473346,-1.681722164,0.9854362607,1
25.87114271,-2.827170868,13.73064697,-1.146615601,1.743387222,-4.133868217,0.8738034368,1
25.89118471,-2.672841797,11.6998201,-1.403182068,1.95094192,-3.707339525,1.090510249,1
25.91122571,-1.155896301,9.748927002,0.4116439819,1.95094192,-3.707339525,1.090510249,1
25.93126771,-0.60025177,8.215815125,-1.071920929,2.352326632,-2.746340513,1.56973815,1
25.95130971,0.5532495117,8.147407379,-3.218157806,1.767117381,-3.196112394,1.33277905,1
25.97135071,2.209704895,8.138875122,-2.492017822,1.767117381,-3.196112394,1.33277905,1
25.99139271,1.725162506,9.187294922,-0.4555027771,1.363556981,-3.222600937,0.7860714197,1
26.01143371,0.02499801636,9.589508514,0.28081604,1.196077347,-3.307573557,0.3683638275,1
26.03147571,-0.9506730652,9.906998291,0.2344125366,1.170265317,-3.623897314,0.2976993322,1
26.05151771,-0.9485774231,9.890382843,0.3189866638,1.378911257,-3.960540771,0.6879521608,1
26.07155871,0.8768765259,10.02210892,-0.1547781372,1.181059957,-3.119016171,0.4772334099,1
26.09160071,1.79252243,10.36788986,-1.456321564,0.6909298301,-2.080766916,0.2357027531,1
26.11164171,1.594484253,9.720635834,-1.460363159,0.6909298301,-2.080766916,0.2357027531,1
26.13168371,0.7385641479,9.901609497,0.3053649902,0.4384614825,-1.38094604,0.3575435877,1
26.15172571,0.3779640198,10.46189438,0.4125421143,0.5565333366,-1.966061711,0.5313548446,1
26.17176671,0.5426216125,9.723180542,-0.5956114197,0.5565333366,-1.966061711,0.5313548446,1
26.19180871,0.379460907,9.121581573,-0.8047265625,0.7976802588,-2.153527498,0.6383555532,1
26.21184971,0.2359094238,8.991651764,-0.4010160828,0.7976802588,-2.153527498,0.6383555532,1
26.23189171,0.4761598206,8.958420868,-0.1323248291,0.8638820052,-1.410228491,0.4010690451,1
26.25193371,0.527353363,9.307494965,-0.7628137207,0.6806819439,-0.7156480551,-0.005662427284,1
26.27197471,-0.06152206421,9.774523773,-0.4813989258,0.6806819439,-0.7156480551,-0.005662427284,1
26.29201671,0.2426454163,10.08512787,0.1143621826,0.717223525,-1.206406236,-0.04060328007,1
26.31205771,0.5944139099,9.508227539,-0.7574249268,0.6996715069,-1.661239862,-0.07617954165,1
26.33209971,0.3508703613,9.694290619,-1.256487122,0.5838173628,-1.712579966,0.2308651209,1
26.35214171,0.2866539001,10.40441391,-0.2773731995,0.5922160149,-1.213471651,0.1164667085,1
26.37218271,0.193996582,10.3939357,0.55579422,0.2961167991,-0.8229676485,0.0227913931,1
26.39222471,0.5745053101,10.2572699,0.2472857666,0.07439505309,-0.8280572295,0.05262670666,1
26.41226671,0.9780661011,11.10061615,0.6280938721,0.07568661869,-1.169557452,0.1225100458,1
26.43230771,0.5638774109,12.55948242,0.008382568359,0.07568661869,-1.169557452,0.1225100458,1
26.45234971,0.2151026917,13.09147614,-0.449664917,-0.5428497791,-0.7867670655,0.5643333793,1
26.47239071,0.5857319641,12.36294113,-1.428928528,-0.5428497791,-0.7867670655,0.5643333793,1
26.49243271,1.31172226,12.25336899,-2.598895569,-1.116559505,-0.3589919508,0.7114803195,1
26.51247471,1.628313904,11.43951141,-2.655178528,-2.373112679,-0.6779239178,0.5239952207,1
26.53251571,1.159488831,10.03992188,-2.877615967,-2.373112679,-0.6779239178,0.5239952207,1
26.55255771,-1.728305969,9.282197571,-2.193837891,-2.973044634,-1.435246468,0.3232625425,1
26.57259871,-2.251018982,10.08662476,1.444795532,-3.269008875,-1.85849905,-0.2740371525,1
26.59264071,-4.909490662,10.15742752,3.663332062,-2.194273233,-1.649735808,-0.6267997026,1
26.61268271,-5.880072327,9.841284943,1.487606506,-1.784473658,-0.9038780332,-0.1442700326,1
26.63272371,-0.7842192078,10.27358597,0.1312770081,-1.935239673,0.5772904754,-0.02353423461,1
26.65276571,1.16772171,10.07494904,-1.679208069,-2.458614588,1.146845937,-0.00113511458,1
26.67280671,2.20207077,10.27882507,-1.836830292,-2.458614588,1.146845937,-0.00113511458,1
26.69284871,2.533331909,10.88790848,-0.3894900513,-2.665548801,1.312718868,0.03532138467,1
26.71289071,2.209704895,10.74286011,1.682201843,-2.429134846,2.055024862,0.1191645414,1
26.73293171,0.2188449097,9.807455292,2.839295654,-2.429134846,2.055024862,0.1191645414,1
26.75297371,-1.632355499,8.460705872,2.701582031,-2.14846611,2.064188719,0.1024338603,1
26.77301471,-2.712658997,7.146438904,3.385809174,-1.769011974,1.779197335,0.2826548815,1
26.79305671,-1.970801697,6.630461884,3.923191681,-1.238290191,1.610163212,0.458866626,1
26.81309871,-1.38192627,6.121969299,3.020419006,-0.3649843931,1.578465343,0.478784889,1
26.83313971,-1.042432251,5.84339859,2.195484467,0.04561720043,1.263131618,0.4545283616,1
26.85318171,-1.506616974,5.620961151,2.00552948,0.3923998475,0.9821568131,0.3803711534,1
26.87322271,-1.394350433,5.179678802,1.806144104,0.3923998475,0.9821568131,0.3803711534,1
26.89326471,-1.459764404,5.028193817,2.590662689,1.016203165,0.3920848072,0.2017490417,1
26.91330671,-1.292711792,5.521418152,3.822600861,1.330289721,-0.1920820177,0.01705620065,1
26.93334771,-1.251846771,7.137607269,4.721631317,1.330289721,-0.1920820177,0.01705620065,1
26.95338971,-1.704954529,9.943821716,3.923940125,1.272407174,-0.719702363,-0.2068999708,1
26.97343071,-2.656974792,11.93617859,4.224814453,0.7525215149,-0.6411554813,-0.2521113157,1
26.99347271,-3.68922821,11.31601822,4.97984436,0.03941981494,0.5397330523,-0.05715930462,1
27.01351471,-2.304757233,9.53966217,6.644532623,-0.6862889528,1.949082732,0.2391775101,1
27.03355571,-0.9595046997,8.882678375,7.696245575,-0.4261407554,0.7209988236,0.4364959896,1
27.05359771,0.4107458496,8.730444946,7.182064819,-0.4261407554,0.7209988236,0.4364959896,1
27.07363871,0.3719764709,8.708590393,6.393804016,-0.1617150754,0.02703592181,0.5733286142,1
27.09368071,-0.1294807434,7.825426941,8.139473877,0.5311998725,0.9958900213,0.6806992888,1
27.11372271,-0.456101532,6.82505722,8.770860901,0.7685253024,1.198325038,0.5417214632,1
27.13376371,-2.100132751,9.439969482,5.175936584,1.088028193,0.8155016899,-0.1200540364,1
27.15380571,-4.245172119,18.83398453,3.463647308,1.534515977,-0.8887959719,-1.039642215,1
27.17384671,-9.467362518,21.16104538,-2.399210815,1.534515977,-0.8887959719,-1.039642215,1
27.19388871,-9.887987823,11.21258331,-4.378095703,0.4925506115,-1.319921374,0.7244480848,1
27.21393071,-1.178798676,2.251168671,2.597248993,0.4010907412,-0.4541986585,0.2354510278,1
27.23397171,0.1447489929,-1.384021912,-2.021097107,0.4010907412,-0.4541986585,0.2354510278,1
27.25401371,-4.320914612,1.154249725,-1.005908203,1.023975611,-0.7899421453,-0.7765356302,1
27.27405471,-0.2520758057,11.03684875,3.265459442,1.473684907,0.1236709356,-1.065439463,1
27.29409671,1.037342834,16.76813049,-3.106340332,1.911211491,-2.186948776,0.8330717683,1
27.31413796,1.735491028,13.55012238,-7.918832703,0.3428718448,-2.162354469,0.8011269569,1
27.33417896,3.481310577,11.70580765,0.6280938721,0.3428718448,-2.162354469,0.8011269569,1
27.35422096,-1.066232758,8.991502075,5.3402948,0.7377179861,-0.7723093033,0.343277663,1
27.37426196,-3.740870819,8.192763062,2.295326843,1.477173567,-0.3586824238,0.2283600867,1
27.39430396,-4.724625092,8.466843109,-0.3755690002,1.526875854,-1.245004177,0.2732254565,1
27.41434596,-2.388882294,9.046138458,-1.348545685,1.179698706,-1.512769699,0.1676335335,1
27.43438696,-0.2047741699,9.071286163,-1.890269165,1.153128386,-0.8794385195,0.1883956343,1
27.45442896,1.262923737,8.973838806,-1.089284821,1.313304424,-0.404297173,0.1806939989,1
27.47446996,1.616488495,9.21798111,-0.005837860107,1.313304424,-0.404297173,0.1806939989,1
27.49451196,0.3555107117,9.203461304,0.3294648743,1.419082999,-0.5448732972,0.3604682088,1
27.51455396,-0.4803511047,8.984466705,0.320483551,1.298875451,-0.6998614669,0.3234373927,1
27.53459496,0.1583706665,8.930279388,0.005837860107,1.298875451,-0.6998614669,0.3234373927,1
27.55463696,0.4477189636,8.931177521,-0.4933740234,1.137405038,-0.7834975123,0.1319109797,1
27.57467796,0.5210664368,8.688981171,-0.6468049622,1.071248055,-0.5626684427,-0.05874659121,1
27.59471996,0.3161425781,9.016799469,-0.8288264465,0.9862443209,-0.2975286841,-0.1637336016,1
27.61476196,-0.03233276367,9.886191559,-0.09984237671,0.9241170287,-0.5491767526,-0.1056032777,1
27.63480296,-0.4698728943,9.595346375,0.2818638611,0.9241170287,-0.5491767526,-0.1056032777,1
27.65484496,-0.4909790039,9.236991577,0.1082249451,0.811147213,-0.5841195583,-0.07384742796,1
27.67488596,0.3275189209,10.21655457,-0.8129594421,0.6815218925,-0.4752806127,-0.1269063503,1
27.69492796,1.421444092,10.83701431,-2.747237091,0.3656846881,-0.9225870371,0.007901320234,1
27.71496996,0.7574249268,11.19581818,-2.448608093,0.5968724489,-1.382377386,0.1832684726,1
27.73501096,-1.242715759,11.3414653,-0.05598358154,0.6286036372,-1.325467587,0.159828186,1
27.75505296,-1.522783356,11.06079895,0.2883004761,0.2298018187,-0.8865021467,0.02195508778,1
27.77509396,-0.623303833,11.02352646,-0.4510121155,0.2298018187,-0.8865021467,0.02195508778,1
27.79513596,0.6688092041,12.77159134,-0.7978408813,-0.2063820213,-0.6458482146,0.1062501445,1
27.81517796,1.304986267,13.32304459,0.6322851562,-0.9019892216,-0.1023038551,0.6516526937,1
27.83521896,1.650467834,12.27208008,-0.6655160522,-0.9019892216,-0.1023038551,0.6516526937,1
27.85526096,1.711989899,11.42065063,-2.619402924,-1.579724073,0.4024125934,0.8753273487,1
27.87530196,1.960772552,10.74645264,-3.279380493,-2.329713345,0.3872992694,0.7733640075,1
27.89534396,-0.1808239746,9.295819244,-1.104403381,-3.507251978,-0.6444244385,-0.07661432028,1
27.91538596,-3.09720932,9.029073944,0.7509883118,-3.244946241,-1.227403045,-0.6673392057,1
27.93542696,-3.254532166,10.78612015,2.672392731,-2.346745968,-1.675295472,-0.9110639691,1
27.95546896,-3.753294983,11.25269989,1.832788696,-1.831503272,-0.6590591669,-0.4645992815,1
27.97550996,-0.6116281128,10.77384567,0.02290237427,-1.831503272,-0.6590591669,-0.4645992815,1
27.99555196,0.8177494812,10.58164536,-1.159638519,-2.239150524,3.301674843,0.04812885821,1
28.01559296,2.30505661,11.03520218,-1.844913483,-2.239150524,3.301674843,0.04812885821,1
28.03563496,2.646346893,11.0468779,-0.6867718506,-2.598163128,2.661717415,-0.2623867393,1
28.05567696,0.9377998352,9.76673996,1.308578796,-2.361762524,1.834668159,-0.4361388087,1
28.07571796,-0.7207511902,9.048982544,1.744172974,-2.06561327,1.643735528,-0.403039068,1
28.09575996,-2.446063385,8.491691437,0.9527687073,-1.909877181,1.790818095,-0.4752754271,1
28.11580196,-3.901935883,7.84773056,0.5099894714,-1.820901632,1.664903045,-0.1852856725,1
28.13584296,-4.812791748,7.107519836,1.726509705,-1.479004741,1.484783053,0.08415897936,1
28.15588496,-3.616629181,6.434070282,2.627486115,-0.9372418523,1.212967277,0.1420713663,1
28.17592596,-2.204166412,5.741759949,2.921175385,-0.3119937181,0.9541572928,0.1628130972,1
28.19596796,-1.984872437,5.296585693,2.683170319,0.2578587234,0.6522195339,0.1768475473,1
28.21600996,-1.942660217,5.145100708,2.307751007,0.7226225734,0.3555558622,0.1898082644,1
28.23605096,-2.374212799,5.366939392,3.005450134,0.7226225734,0.3555558622,0.1898082644,1
28.25609296,-2.325863342,5.493875427,4.041296082,1.553300977,0.0474672243,0.1667506695,1
28.27613396,-2.016456757,5.555696869,4.92610611,1.553300977,0.0474672243,0.1667506695,1
28.29618071,-1.620081024,6.977440338,6.192622375,1.756239533,0.3124633729,-0.06516862661,1
28.31622171,-0.880019989,10.23691223,7.040309601,1.756239533,0.3124633729,-0.06516862661,1
28.33626371,-2.323168945,13.57018066,6.467450867,0.220423013,0.2984025776,-0.02341030911,1
28.35630571,-5.879772949,14.24707306,5.24434433,-1.006093264,0.8846395016,0.1398247182,1
28.37634671,-6.791526947,10.68822372,7.60553421,-1.006093264,0.8846395016,0.1398247182,1
28.39638871,-3.722159729,7.845335541,9.095984802,-0.2417790294,-0.04339243472,0.589800477,1
28.41642971,-1.182391205,5.341791687,6.901997223,-0.2417790294,-0.04339243472,0.589800477,1
28.43647171,-0.190254364,9.520202637,3.822750549,-0.002868050244,0.6185027957,0.3717266619,1
28.45651371,-2.412982178,20.06143204,3.952830048,1.160403609,-0.5403320193,-0.2821492255,1
28.47655471,-5.997577972,17.38005798,-3.111729126,1.160403609,-0.5403320193,-0.2821492255,1
28.49659671,-3.398083649,4.02153717,-2.326462097,1.548794508,-0.3378135562,1.463775039,1
28.51663771,2.474953308,2.761158142,-1.367705841,0.6856527328,0.01907948032,1.423260331,1
28.53667971,0.1965412903,4.382137299,-1.425934753,1.950432181,-0.1439337432,-0.6591699123,1
28.55672171,-0.7405101013,9.594298553,-0.4611909485,2.645658016,-0.5446994305,-0.4506985545,1
28.57676271,-2.565215607,11.34460876,-3.483106842,1.504647493,-1.14848268,0.319488883,1
28.59680471,-1.657652893,11.30509094,-5.475314026,0.490830034,-1.519971609,0.3952863812,1
28.61684571,0.3643423462,12.68132904,-0.2823129272,0.490830034,-1.519971609,0.3952863812,1
28.63688771,-0.9542655945,10.48000671,3.421135712,0.9299601316,-1.494164586,0.3374554515,1
28.65692971,-2.303110657,8.456963654,2.145039368,1.681913972,-1.435265899,0.8594887257,1
28.67697071,-1.163979492,8.151149597,-0.7544311523,1.681913972,-1.435265899,0.8594887257,1
28.69701271,0.03502716064,8.837173004,-3.126248932,1.436888099,-1.216986537,0.7452235818,1
28.71705371,0.2975811768,8.718769226,-2.993325348,1.043830752,-0.883672595,0.4694963992,1
28.73709571,0.08846603394,8.004903717,-1.17595459,0.8902826905,-0.218922317,0.272801429,1
28.75713671,-0.2523751831,8.528215485,-0.5514532471,1.046842337,0.5641235709,0.2128596157,1
28.77717871,-0.5384303284,9.398655396,-0.6646179199,1.054570436,0.5306161046,0.2203909457,1
28.79722071,-0.480201416,9.592053223,-0.05104385376,0.989943862,-0.1985401809,0.227241829,1
28.81726171,-0.1422042847,9.698481903,-0.9738748169,0.9202782512,-0.6959561706,0.1730177552,1
28.83730371,-0.1595681763,9.426347809,-1.527573395,0.9792181849,-0.6742589474,0.1264981329,1
28.85734471,-0.5322930908,8.877588959,-1.166973267,0.9792181849,-0.6742589474,0.1264981329,1
28.87738671,-0.8202941895,9.142238617,-0.5658233643,0.969076097,-0.4185609519,-0.00714842556,1
28.89742871,-0.9690847778,9.507928162,-0.4574487305,0.8835251927,-0.2722739875,-0.1271435767,1
28.91746971,-1.021026764,9.886640625,-0.8373587036,0.8835251927,-0.2722739875,-0.1271435767,1
28.93751171,-0.1917512512,10.51398605,-0.6071374512,0.9075111151,-0.3419288695,-0.07000985742,1
28.95755271,1.196761322,10.10578491,-2.094594269,0.6908256412,-0.5679650903,-0.06586079299,1
28.97759471,1.320553894,10.46683411,-2.049687653,0.3179339468,-0.8291953206,0.05831699818,1
28.99763671,-0.3616479492,10.70678513,-1.06713089,0.4003216922,-0.6712242365,0.1246314421,1
29.01767771,-0.8578660583,11.08504852,-0.6978488159,0.2147608101,-0.4709477127,0.1487371624,1
29.03771971,-0.7171586609,10.95302307,-0.6375242615,-0.0472660102,-0.4775694907,0.2391906381,1
29.05776071,-0.356408844,12.47071701,-0.4376898193,-0.0472660102,-0.4775694907,0.2391906381,1
29.07780271,0.1772314453,12.98953812,0.4879852295,-1.003892064,-0.7445935011,0.4984999597,1
29.09784371,0.802331543,11.72002808,-0.9623487854,-1.003892064,-0.7445935011,0.4984999597,1
29.11788571,0.923429718,11.08564728,-2.376308441,-1.663781762,-0.6818475127,0.6388430595,1
29.13792771,0.7334747314,9.843530273,-2.905607758,-2.440453768,-0.3800275028,0.6416863203,1
29.15796871,-0.07005432129,8.426427155,-1.931882629,-3.222805738,-0.4353791177,0.3755721152,1
29.17801071,-2.852019196,8.026907959,-0.6312373352,-3.313961267,-1.001919866,0.2232356966,1
29.19805171,-3.904929657,10.68418213,1.355581055,-3.133224726,-1.279435158,0.07764147222,1
29.21809371,-2.929258575,12.44497055,1.804198151,-1.904370308,-0.7981689572,-0.1833580732,1
29.23813571,-0.1978884888,11.73544601,1.066981201,-1.519958377,0.4198400974,-0.111448817,1
29.25817671,1.061742096,11.52348679,0.08652008057,-1.831722021,2.061056137,0.0849134177,1
29.27821871,1.721719666,11.18863312,-0.9500743103,-2.255213261,2.471209764,-0.06189355999,1
29.29825583,1.905537415,11.29191833,-0.2109114075,-2.255213261,2.471209764,-0.06189355999,1
29.31829783,0.8137078857,10.34798126,0.8999285889,-2.252345085,2.292177916,-0.2160097659,1
29.33833983,-0.4971162415,9.214987335,1.159189453,-1.941437364,1.908571839,-0.389215529,1
29.35838083,-1.86976181,8.418044586,0.7156617737,-1.876655579,1.528360128,-0.4711233377,1
29.37842283,-3.550915833,7.672445068,0.9488768005,-1.706779361,1.34259069,-0.2950988412,1
29.39846383,-4.702321472,6.88478302,1.70360733,-1.706779361,1.34259069,-0.2950988412,1
29.41850583,-3.845203857,6.186784515,3.209924927,-0.7578598857,1.071420193,0.08772646636,1
29.43854783,-1.475930786,5.821094971,3.650159454,-0.2062720358,0.8628981113,0.02782291919,1
29.45858883,-0.8979826355,5.543721771,3.300636292,0.2982557714,0.4317406714,-0.0107097812,1
29.47863083,-1.157542877,5.666466522,3.0258078,0.6746074557,-0.008931931108,0.002693019575,1
29.49867183,-1.707798615,6.127358093,3.046614532,0.6746074557,-0.008931931108,0.002693019575,1
29.51871383,-1.823807373,6.126759338,3.556903381,0.9476367831,-0.2750602663,0.03300692886,1
29.53875483,-1.394051056,5.986051941,4.230951691,1.163988709,-0.3696937263,0.02850934677,1
29.55879683,-1.293160858,6.18977829,5.472020874,1.311327696,-0.3499083221,-0.03212111071,1
29.57883883,-0.8574169922,7.583529968,6.931934967,1.264557362,0.1447668076,-0.2470627129,1
29.59887983,-0.5307962036,10.21460861,6.373745728,0.7326903343,0.5086842179,-0.1975986212,1
29.61892183,-2.211052094,12.51981491,4.760550385,-0.3403988183,0.7401372194,0.08253019303,1
29.63896283,-4.196223907,12.55124954,4.368964691,-0.3403988183,0.7401372194,0.08253019303,1
29.65900483,-3.726051636,9.956994324,6.980134735,-0.9659494162,0.9485682249,0.3701800406,1
29.67904683,-2.842738495,7.804769897,9.575587463,-0.1108356044,-0.07377231866,0.5149959326,1
29.69908783,-1.416504364,6.861132202,9.177415466,-0.1108356044,-0.07377231866,0.5149959326,1
29.71912983,-2.665057983,9.145980835,5.396577759,0.5085263848,0.3932812512,0.409981817,1
29.73917083,-3.671864319,16.50737274,3.848497009,0.5344510078,1.082053185,-0.00449653808,1
29.75921283,-7.125332794,21.26358215,0.9895921326,0.7177763581,-0.02088055201,-0.5888566375,1
29.77925483,-7.581434326,11.54743698,-2.812950439,-0.2340764254,-0.3598866463,1.704208493,1
29.79929583,-1.54104538,1.93996582,2.562670898,-0.2340764254,-0.3598866463,1.704208493,1
29.81933783,0.7429051208,-0.8312214661,1.551074524,1.43676424,-1.932392597,-0.6440896988,1
29.83937883,-3.20483551,1.637295227,-1.74342453,1.510830045,-0.8554652929,-1.323406935,1
29.85942083,-2.691702576,8.322543182,0.7954458618,1.739954114,0.1913136393,-0.9827486873,1
29.87946183,-0.1103205872,14.29976349,-0.1832189941,1.739954114,0.1913136393,-0.9827486873,1
29.89950383,1.221459961,13.05959244,-5.659880219,1.007698178,-1.226999283,0.635447681,1
29.91954583,2.617307281,12.14948502,-4.503235474,0.3277598917,-1.52242887,0.6034445763,1
29.93958683,3.117417297,11.42274628,2.16120575,0.3277598917,-1.52242887,0.6034445763,1
29.95962883,-0.7976911926,10.17374359,6.546037445,1.112153292,-1.084676623,0.5695349574,1
29.97966983,-2.021995239,9.721983032,2.208507385,1.752178669,-0.4545864761,0.4588641822,1
29.99971183,-2.773282928,9.295968933,-2.155966644,1.557393551,-0.7437160611,0.4332323372,1
30.01975383,-1.007854156,8.20458847,-2.938539276,0.6774075031,-0.9630653262,0.2331186831,1
30.03979483,-0.316741333,7.714058533,-2.003882904,1.056880832,-0.6100208163,0.1761140674,1
30.05983683,-0.3366499329,8.08408905,-0.7951464844,1.577088356,0.1809700429,0.1662826985,1
30.07987783,-0.093256073,8.749754791,0.1872605896,1.721366405,0.9510313869,0.1185056865,1
30.09991983,0.02664459229,9.246571655,1.030307465,1.335100532,0.9645543098,0.1690310836,1
30.11996083,-0.004490661621,9.366771698,-0.3132984924,1.335100532,0.9645543098,0.1690310836,1
30.14000283,-0.03068618774,9.45778244,-0.8310717773,0.7825469375,-0.7618720531,0.1381123513,1
30.16004483,-0.4959187317,9.143286438,-0.3614982605,0.8648245931,-0.6192989945,0.05709975213,1
30.18008583,-0.7225474548,8.912167053,0.4870870972,0.8648245931,-0.6192989945,0.05709975213,1
30.20012783,-0.2583627319,8.998387756,0.5165757751,0.9151673317,-0.133044526,-0.09321016073,1
30.22016883,0.2320175171,9.917775879,0.189206543,0.892901063,0.005969028454,-0.2326805741,1
30.24021083,-0.04311035156,9.766889648,-0.592767334,0.9581226707,-0.2809547782,-0.1827699095,1
30.26025283,-0.5980064392,10.0753981,-1.333277435,0.9025636315,-0.4721193314,0.08190909773,1
30.28029383,-0.2577639771,10.23796005,-0.8801696777,0.6204721928,-0.5473638773,0.04371750727,1
30.30033562,0.227227478,10.26400589,-1.090632019,0.6204721928,-0.5473638773,0.04371750727,1
30.32037663,-0.3863465881,10.67490143,-1.012494507,0.2657550871,-0.8789471388,0.07881174982,1
30.34041862,-0.09220825195,10.89659042,-0.3558100891,0.2874442041,-1.085307717,0.1266609877,1
30.36045963,0.1026864624,10.89090225,-0.383203125,0.3278039396,-0.9725869298,0.1124007851,1
30.38050162,0.483943634,11.93078979,-0.3411405945,0.1257460564,-0.6682319045,0.1872264743,1
30.40054363,1.452579346,14.14528473,-0.03293151855,-0.6288194656,0.1730039567,0.6120060086,1
30.42058462,1.984722748,13.42707825,-0.3025209045,-0.6288194656,0.1730039567,0.6120060086,1
30.44062663,2.195783844,12.72713379,-1.265767822,-1.704765201,0.4911068082,0.7730315924,1
30.46066762,1.941013641,11.87091431,-2.160157928,-1.704765201,0.4911068082,0.7730315924,1
30.48070963,0.7475454712,10.35067566,-1.84760788,-3.028437376,-0.1486753523,0.09707975388,1
30.50075162,-2.585573273,7.743696899,-0.8102650452,-3.441122055,-0.2771401405,-0.4469592273,1
30.52079263,-3.063828735,7.051386566,0.6596781921,-3.207877636,-0.9335587025,-1.020467997,1
30.54083462,-4.201013947,9.354347534,2.479144592,-3.207877636,-0.9335587025,-1.020467997,1
30.56087563,-3.327280884,10.98879868,2.134561157,-2.572196245,-1.490900874,-0.8701735735,1
30.58091762,-0.8981323242,11.41136993,1.028062134,-1.725361943,-0.6372967958,-0.3522442877,1
30.60095863,0.9083111572,11.79277679,-1.443598022,-1.112333775,1.517591,0.2467107922,1
30.62100062,2.633623352,11.44774429,-3.148253174,-1.672930837,2.414988279,0.3166559637,1
30.64104263,2.699486389,10.76231964,-1.638792114,-2.422957182,1.948576212,-0.1027940512,1
30.66108362,1.661694489,10.34408936,0.02829116821,-2.422957182,1.948576212,-0.1027940512,1
30.68112563,0.060025177,9.608219604,2.129621429,-2.269917011,2.217636824,-0.3086588681,1
30.70116662,-1.7796492,8.87863678,3.929029541,-2.269917011,2.217636824,-0.3086588681,1
30.72120863,-2.982996826,7.984995117,3.523672485,-1.372132182,1.590635061,0.1227526218,1
30.74124962,-4.04848114,6.95618454,2.715952148,-1.372132182,1.590635061,0.1227526218,1
30.76129163,-3.88352417,5.905669098,2.229613495,-0.6628319025,1.371612191,0.7393091321,1
30.78133362,-1.974244537,5.433101807,2.170636139,-0.2297209799,1.245813251,0.6480911374,1
30.80137462,-0.9653425598,5.304818573,2.386487274,-0.2297209799,1.245813251,0.6480911374,1
30.82141662,-1.355281677,5.226231995,2.25236618,0.180510968,0.93220222,0.4444487989,1
30.84145762,-2.33200058,5.321134644,3.04107605,0.5664823055,0.4586496353,0.339135766,1
30.86149962,-2.227218475,5.352269897,4.063450012,0.9840923548,0.1493426114,0.2677877247,1
30.88154162,-1.809137878,5.771098938,5.234315186,1.629650593,-0.01047283784,-0.1318977624,1
30.90158262,-1.551224213,7.328759766,6.209986267,1.629650593,-0.01047283784,-0.1318977624,1
30.92162462,-1.411564636,10.33166519,6.332431641,1.396211624,0.1696439981,-0.2542280257,1
30.94166563,-1.989662476,13.76986542,6.900500336,0.704229176,0.6191546917,-0.1709594131,1
30.96170762,-4.140240326,14.16070267,6.437213745,-0.04231286421,1.243451715,0.09471863508,1
30.98174863,-4.205354919,10.42686722,7.307803345,-0.8056659102,1.380536795,0.3091855049,1
31.00179062,-3.004402313,8.073760529,8.987310791,-0.9175738096,0.6989992857,0.3802219927,1
31.02183263,-0.9818083191,6.513105927,8.979976044,0.4854301214,-0.1292541325,0.5893013477,1
31.04187362,0.1407073975,7.627538452,6.353687439,0.4854301214,-0.1292541325,0.5893013477,1
31.06191563,-0.8593629456,12.54316635,3.381019135,0.5796663761,0.6118074059,-0.4669324756,1
31.08195662,-2.997067566,14.78086304,-0.2282752991,0.5796663761,0.6118074059,-0.4669324756,1
31.10199863,-7.875422974,10.5199736,-4.679419098,0.5298549533,-0.5391741395,0.451192379,1
31.12204062,-5.043761444,7.904312897,-0.01317260742,0.2239619642,0.7624207139,-0.3310584724,1
