time,seconds_elapsed,z,y,x
1780525275901426200,0.18742626953125,0.9193734526634216,-0.4357447028160095,0.7134721279144287
1780525275941892400,0.227892333984375,0.8068459630012512,-0.29209262132644653,0.6871358752250671
1780525275952024300,0.2380244140625,0.7829039692878723,-0.033518824726343155,0.3926490843296051
1780525275962125600,0.24812548828125,0.44771572947502136,-0.035913024097681046,0.2944868206977844
1780525275982358800,0.26835888671875,0.19632454216480255,0.2992752194404602,0.4381389021873474
1780525275992490500,0.278490478515625,0.48602294921875,0.28730419278144836,0.42377370595932007
1780525276002592000,0.288592041015625,0.5626373887062073,0.3232172429561615,0.5722141861915588
1780525276012693200,0.298693359375,0.586579442024231,0.3064578175544739,0.586579442024231
1780525276042997200,0.328997314453125,0.5602431893348694,0.4668693244457245,0.9888052940368652
1780525276063230500,0.34923046875,0.5793967843055725,-0.21547815203666687,0.6775590777397156
1780525276083402500,0.369402587890625,0.43095630407333374,-0.13168109953403473,0.6224924325942993
1780525276093503700,0.379503662109375,0.4213795065879822,-0.21547815203666687,0.33518823981285095
1780525276194364400,0.480364501953125,0.7829039692878723,-0.4572925269603729,-0.011971008032560349
1780525276204435200,0.490435302734375,0.8355764150619507,0.5386953949928284,-0.17956513166427612
1780525276213506000,0.499506103515625,0.021547814831137657,3.201047658920288,-1.0821791887283325
1780525276223607300,0.509607177734375,0.3232172429561615,2.056619167327881,-1.721431016921997
1780525276243779300,0.529779296875,0.3232172429561615,2.056619167327881,-1.721431016921997
1780525276258763500,0.544763427734375,1.1420341730117798,-1.0127472877502441,-0.2537853717803955
1780525276289006600,0.575006591796875,0.17477671802043915,0.07661445438861847,-0.2944868206977844
1780525276309209000,0.595208984375,-0.18914192914962769,-0.5530605912208557,-0.272938996553421
1780525276319279900,0.60527978515625,-0.22505496442317963,-0.6560112833976746,-0.27054479718208313
1780525276329381000,0.615381103515625,-0.40222588181495667,-0.5195417404174805,-0.24181437492370605
1780525276339482600,0.625482666015625,-0.4118026793003082,-0.40462008118629456,-0.1364694982767105
1780525276349523000,0.63552294921875,-0.22266076505184174,-0.2298433631658554,0.035913024097681046
1780525276359624200,0.645624267578125,-0.33279404044151306,-0.17238251864910126,0.21308395266532898
1780525276369695000,0.655695068359375,-0.5578489899635315,0.16759411990642548,0.3998316824436188
1780525276379765800,0.665765869140625,-0.7757213711738586,0.33039984107017517,0.36152446269989014
1780525276389867000,0.675866943359375,-0.9768342971801758,0.3208230137825012,0.17477671802043915
1780525276399937800,0.685937744140625,-1.2545616626739502,0.5003881454467773,-0.021547814831137657
1780525276410039300,0.696039306640625,-1.0630255937576294,0.8044517636299133,-0.2801215946674347
1780525276420140500,0.706140625,-1.0965443849563599,0.3256114423274994,-0.3064578175544739
1780525276430211300,0.71621142578125,-0.9600749015808105,-1.0199298858642578,-0.43335050344467163
1780525276440312600,0.7263125,-0.47165772318840027,-1.1516109704971313,-0.31842881441116333
1780525276450413800,0.736413818359375,-0.5339069962501526,-1.0773907899856567,-0.33518823981285095
1780525276460515300,0.746515380859375,-0.35913026332855225,-0.9768342971801758,-0.3663128614425659
1780525276480748300,0.766748291015625,-0.07182604819536209,-0.15083470940589905,-0.22505496442317963
1780525276490849800,0.776849853515625,0.08140286058187485,0.19632454216480255,-0.1412578970193863
1780525276500951000,0.786950927734375,0.08619125932455063,0.48602294921875,-0.16998831927776337
1780525276511021800,0.797021728515625,0.3926490843296051,0.6991068720817566,-0.08858546614646912
1780525276521092600,0.807092529296875,0.014365210197865963,0.2106897532939911,0.07422025501728058
1780525276531163400,0.817163330078125,0.22026655077934265,-0.4812345504760742,0.28969839215278625
1780525276561406500,0.847406494140625,0.8307880163192749,-0.7398083209991455,0.33039984107017517
1780525276571538200,0.8575380859375,0.9361328482627869,-0.5051765441894531,0.05027823522686958
1780525276581639400,0.867639404296875,0.6033388376235962,0.1843535304069519,-0.16519992053508759
1780525276591710200,0.877710205078125,0.08140286058187485,1.316810965538025,-0.2322375625371933
1780525276601811700,0.887811767578125,-0.07900865375995636,1.644816517829895,-0.42377370595932007
1780525276611882500,0.897882568359375,-1.039083480834961,1.0893617868423462,-0.3519476354122162
1780525276621983700,0.907983642578125,-0.17477671802043915,0.29209262132644653,-0.2992752194404602
1780525276662328000,0.948328125,1.5610195398330688,-1.0749965906143188,-0.5961562395095825
1780525276672429300,0.95842919921875,1.2090718746185303,-0.8020575642585754,-1.0055646896362305
1780525276682500000,0.9685,2.274491548538208,-0.3734954595565796,-0.5195417404174805
1780525276692601300,0.978601318359375,2.8203697204589844,-0.9074024558067322,-0.3064578175544739
1780525276712773600,0.998773681640625,2.7222073078155518,-0.24899697303771973,0.3902548849582672
1780525276722844400,1.008844482421875,2.8131868839263916,0.4405331015586853,0.38307225704193115
1780525276732945700,1.018945556640625,2.964021682739258,0.7469909191131592,0.363918662071228
1780525276743047000,1.029046875,2.786850690841675,1.0845733880996704,0.363918662071228
1780525276753148400,1.0391484375,2.43011474609375,1.4269442558288574,0.4668693244457245
1780525276763280100,1.049280029296875,2.609679937362671,1.5849615335464478,0.6248866319656372
1780525276773351000,1.059350830078125,2.765302896499634,1.3000515699386597,0.7565677165985107
1780525276783452200,1.0694521484375,2.580949544906616,1.4413094520568848,0.9911994934082031
1780525276803685400,1.089685302734375,2.7078421115875244,1.5825673341751099,2.0661959648132324
1780525276813786600,1.09978662109375,2.698265314102173,1.6831238269805908,2.5689783096313477
1780525276823888100,1.10988818359375,2.7054479122161865,1.9704279899597168,2.7700912952423096
1780525276833989400,1.1199892578125,2.2697031497955322,1.821987509727478,2.851494312286377
1780525276864201700,1.15020166015625,1.4437036514282227,1.1827356815338135,3.3686418533325195
1780525276874364200,1.1603642578125,1.137245774269104,0.8236053586006165,3.6104562282562256
1780525276884435000,1.17043505859375,0.6536170840263367,0.5482721924781799,3.8355112075805664
1780525276894566700,1.180566650390625,0.13407529890537262,0.0933738648891449,3.9240965843200684
1780525276904576500,1.190576416015625,-0.7924807667732239,0.08379705995321274,4.2951979637146
1780525276914769400,1.200769287109375,-1.2521674633026123,0.524330198764801,4.546588897705078
1780525276924870700,1.21087060546875,-1.1755530834197998,0.43095630407333374,4.606443881988525
1780525276934941400,1.22094140625,-0.7876923680305481,0.22266076505184174,4.479551315307617
1780525276944981800,1.230981689453125,-0.5626373887062073,0.026336219161748886,4.230554580688477
1780525276955113700,1.24111376953125,-0.4429273009300232,0.11013327538967133,4.0078935623168945
1780525276965215000,1.251215087890625,-0.4812345504760742,0.0071826050989329815,3.6990416049957275
1780525276975316200,1.261316162109375,-0.3734954595565796,-0.6584054827690125,3.1076738834381104
1780525276985356500,1.2713564453125,-0.8738836050033569,-1.4676456451416016,2.7676970958709717
1780525276995488500,1.281488525390625,-1.5275006294250488,-1.9297266006469727,2.715024709701538
1780525277005589800,1.29158984375,-2.0805611610412598,-2.1380221843719482,2.6791117191314697
1780525277015691000,1.30169091796875,-2.513911724090576,-2.1763293743133545,2.5258827209472656
1780525277025761800,1.31176171875,-2.561795711517334,-1.922544002532959,2.1811177730560303
1780525277035863000,1.321863037109375,-2.38462495803833,-1.5825673341751099,1.5179238319396973
1780525277045995000,1.3319951171875,-1.920149803161621,-1.3072341680526733,0.7015010714530945
1780525277056096300,1.34209619140625,-1.5466543436050415,-1.2641384601593018,-0.14365209639072418
1780525277066136600,1.352136474609375,-1.5107412338256836,-0.8834604024887085,-0.790086567401886
1780525277076237800,1.36223779296875,-1.6639702320098877,-0.2992752194404602,-0.9169792532920837
1780525277086339300,1.37233935546875,-2.540247917175293,0.6512228846549988,-0.6560112833976746
1780525277096440600,1.382440673828125,-3.778050184249878,1.259350061416626,-0.48602294921875
1780525277106511400,1.392511474609375,-4.8051629066467285,0.9744400978088379,-0.44771572947502136
1780525277116643000,1.40264306640625,-5.408501625061035,-0.09576806426048279,-0.7422025203704834
1780525277126744600,1.41274462890625,-5.1116204261779785,-0.7422025203704834,-1.7693150043487549
1780525277136815400,1.4228154296875,-4.062960147857666,-0.6057330369949341,-3.0861260890960693
1780525277146886100,1.43288623046875,-3.1220390796661377,-0.3232172429561615,-4.235342979431152
1780525277156987400,1.4429873046875,-2.5713725090026855,-0.09816227108240128,-4.927267074584961
1780525277167088600,1.453088623046875,-2.1045033931732178,-0.07900865375995636,-5.0876784324646
1780525277177190100,1.463190185546875,-1.9369091987609863,-0.28969839215278625,-5.099649429321289
1780525277187321900,1.47332177734375,-2.9472622871398926,-0.2585737705230713,-4.829104900360107
1780525277237889500,1.5238896484375,-2.360682964324951,-1.678335428237915,-6.248866558074951
1780525277258092000,1.544092041015625,-1.1803414821624756,-0.40462008118629456,-6.4595561027526855
1780525277278294800,1.564294677734375,-1.4891934394836426,-0.023942016065120697,-5.580883979797363
1780525277328953900,1.614953857421875,0.4405331015586853,-0.5793967843055725,-5.616796970367432
1780525277339055400,1.625055419921875,0.6775590777397156,0.2801215946674347,-4.819528102874756
1780525277349156600,1.635156494140625,1.113303780555725,0.9959878921508789,-4.177882194519043
1780525277409825500,1.695825439453125,2.7102363109588623,0.9289502501487732,-0.8403648138046265
1780525277450230800,1.736230712890625,0.3878606855869293,3.093308687210083,0.15801730751991272
1780525277500768000,1.78676806640625,-4.771644115447998,1.5945383310317993,1.745373010635376
1780525277561437000,1.84743701171875,1.1468225717544556,-4.462791919708252,-3.7852327823638916
1780525277571538200,1.8575380859375,0.2322375625371933,0.2106897532939911,-1.3958195447921753
1780525277581639400,1.867639404296875,-0.7613561153411865,3.093308687210083,2.2601263523101807
1780525277612004600,1.898004638671875,-1.577778935432434,3.050212860107422,4.967968463897705
1780525277622105900,1.90810595703125,-0.6057330369949341,0.629675030708313,4.6734819412231445
1780525277632207000,1.91820703125,0.2561795711517334,-2.27209734916687,5.803544998168945
1780525277642308400,1.928308349609375,0.026336219161748886,-2.1811177730560303,5.961562156677246
1780525277652409900,1.938409912109375,-0.730231523513794,-1.6711528301239014,5.940014362335205
1780525277662511000,1.948510986328125,-1.1037269830703735,-1.1037269830703735,5.688623428344727
1780525277672642800,1.958642822265625,-0.8331822156906128,-0.5363011956214905,5.331887245178223
1780525277743443700,2.029443603515625,2.0925323963165283,-0.2537853717803955,3.8546648025512695
1780525277753545000,2.039544921875,1.965639591217041,-0.6919242739677429,3.0358476638793945
1780525277763615700,2.04961572265625,2.032677173614502,-1.0079588890075684,2.4013843536376953
1780525277773747700,2.059747802734375,2.4181437492370605,-1.623268723487854,2.360682964324951
1780525277783818500,2.069818603515625,2.676717519760132,-1.5322890281677246,2.6886885166168213
1780525277874852400,2.160852294921875,1.6304513216018677,-0.5841852426528931,4.95120906829834
1780525277955541000,2.241541015625,1.2258312702178955,-2.873042106628418,5.054159641265869
1780525277985783800,2.27178369140625,0.7852981686592102,-0.13407529890537262,4.982333660125732
1780525277995854600,2.2818544921875,0.4141969084739685,0.24420857429504395,4.874594688415527
1780525278005925400,2.29192529296875,-0.047884032130241394,-0.16759411990642548,4.613626480102539
1780525278015996200,2.30199609375,-0.4141969084739685,-0.9744400978088379,4.383783340454102
1780525278026097400,2.312097412109375,-0.5267243981361389,-1.1228805780410767,3.890577793121338
1780525278036168400,2.32216845703125,-0.16759411990642548,-0.21547815203666687,3.469198226928711
1780525278106755600,2.392755615234375,-1.0558429956436157,0.0071826050989329815,2.762908697128296
1780525278167272000,2.45327197265625,0.2059013396501541,1.0319008827209473,0.6584054827690125
1780525278217656300,2.50365625,0.4189853072166443,-0.5889736413955688,-1.723825216293335
1780525278227727000,2.51372705078125,0.4429273009300232,-0.7565677165985107,-1.9752163887023926
1780525278237798000,2.5237978515625,0.4572925269603729,-0.6512228846549988,-2.2385785579681396
1780525278247868700,2.53386865234375,0.5722141861915588,-0.48602294921875,-2.516305923461914
1780525278257970200,2.54397021484375,0.18914192914962769,-0.10534487664699554,-2.516305923461914
1780525278268041000,2.554041015625,0.15322890877723694,0.40940847992897034,-2.6192567348480225
1780525278278142200,2.56414208984375,0.21308395266532898,0.47644615173339844,-2.4013843536376953
1780525278298283800,2.58428369140625,0.33518823981285095,-0.11252748221158981,-2.518700122833252
1780525278308354600,2.5943544921875,-0.15322890877723694,-0.6847416758537292,-2.3798365592956543
1780525278318425300,2.60442529296875,-0.44771572947502136,-0.8906430602073669,-2.2649147510528564
1780525278328526800,2.61452685546875,-0.2777273952960968,-1.0630255937576294,-2.2146365642547607
1780525278338567000,2.62456689453125,-0.31124621629714966,-1.5634137392044067,-2.169146776199341
1780525278348637700,2.6346376953125,0.28969839215278625,-1.4772224426269531,-2.5474305152893066
1780525278358739200,2.6447392578125,0.4596867263317108,-1.1180921792984009,-2.8562827110290527
1780525278459508200,2.74550830078125,1.2306196689605713,-3.098097085952759,-1.0414776802062988
1780525278540135700,2.8261357421875,0.38546648621559143,1.7549498081207275,-1.9991583824157715
1780525278550206500,2.83620654296875,-0.08140286058187485,1.9967641830444336,-1.5945383310317993
1780525278560307700,2.8463076171875,0.26575639843940735,2.1356279850006104,-1.4101848602294922
1780525278570409000,2.856408935546875,0.933738648891449,2.1356279850006104,-1.5921441316604614
1780525278580510500,2.866510498046875,1.0342950820922852,2.229001760482788,-1.9393033981323242
1780525278590611700,2.87661181640625,-0.33279404044151306,2.296039342880249,-1.7525556087493896
1780525278600682500,2.8866826171875,-0.5793967843055725,2.363077163696289,-0.7948749661445618
1780525278610753300,2.896753173828125,0.18914192914962769,1.0319008827209473,0.24660277366638184
1780525278620824000,2.906823974609375,1.0869675874710083,0.06464344263076782,0.7206547260284424
1780525278630956000,2.9169560546875,1.4844050407409668,-1.4772224426269531,0.586579442024231
1780525278641026800,2.92702685546875,1.6280571222305298,-2.0207061767578125,-0.07182604819536209
1780525278651097600,2.93709765625,1.3287819623947144,-1.6903064250946045,-0.5985504388809204
1780525278661198800,2.94719873046875,0.7805097699165344,-0.4692635238170624,-0.8403648138046265
1780525278671269600,2.95726953125,-0.21308395266532898,0.5554547905921936,-0.24420857429504395
1780525278681371000,2.967370849609375,-0.689530074596405,0.9744400978088379,0.7445967197418213
1780525278691441700,2.977441650390625,-0.6177040338516235,0.5913678407669067,1.8387469053268433
1780525278701512400,2.987512451171875,-0.1412578970193863,-0.5530605912208557,2.229001760482788
1780525278711614000,2.997614013671875,0.40701428055763245,-1.6304513216018677,1.9776105880737305
1780525278721684700,3.007684814453125,0.7565677165985107,-2.296039342880249,1.5203180313110352
1780525278731755500,3.017755615234375,0.9552865028381348,-1.7142484188079834,0.8786720037460327
1780525278741826300,3.027826416015625,0.7493851184844971,-0.7015010714530945,0.4644751250743866
1780525278751927600,3.037927490234375,0.363918662071228,0.40222588181495667,0.6991068720817566
1780525278761967900,3.0479677734375,-0.1628057211637497,0.8523358106613159,1.237802267074585
1780525278772008200,3.05800830078125,-0.6344634294509888,0.9481038451194763,1.764526605606079
1780525278802251000,3.0882509765625,-0.6224924325942993,-1.113303780555725,1.3120225667953491
1780525278842564900,3.12856494140625,-0.8092401623725891,0.4189853072166443,1.4700398445129395
1780525278933263000,3.21926318359375,-0.950498104095459,0.5099649429321289,3.380612850189209
1780525279023991800,3.30999169921875,-0.08140286058187485,-0.5530605912208557,4.707000732421875
1780525279054295800,3.3402958984375,0.6703764796257019,-0.3016694188117981,3.6822822093963623
1780525279064336100,3.350336181640625,0.6727706789970398,-0.45250412821769714,3.4404678344726562
1780525279074407000,3.360406982421875,0.6560112833976746,-0.6751648783683777,3.201047658920288
1780525279114781700,3.40078173828125,0.36152446269989014,-1.86508309841156,3.3231520652770996
1780525279185277200,3.471277099609375,1.5705963373184204,-0.304063618183136,2.1332337856292725
1780525279255864300,3.5418642578125,-1.0319008827209473,0.8523358106613159,4.010287761688232
1780525279265904600,3.551904541015625,-0.4836287498474121,1.357512354850769,2.652775526046753
1780525279276006000,3.562005859375,0.2992752194404602,1.601720929145813,2.473210334777832
1780525279286076700,3.57207666015625,1.3958195447921753,1.015141487121582,2.980781078338623
1780525279296147500,3.5821474609375,1.4628572463989258,-0.6488286852836609,5.195417881011963
1780525279306218500,3.592218505859375,0.6057330369949341,-1.7884687185287476,5.178658485412598
1780525279316258600,3.602258544921875,0.1412578970193863,-2.094926595687866,4.6255974769592285
1780525279326360000,3.612360107421875,0.12449848651885986,-1.9393033981323242,4.031835556030273
1780525279336430800,3.622430908203125,0.16519992053508759,-1.1492167711257935,3.687070608139038
1780525279346501600,3.632501708984375,0.3711012601852417,-0.06703764945268631,3.3494882583618164
1780525279356603000,3.642602783203125,1.1851298809051514,-0.031124621629714966,3.24414324760437
1780525279366673700,3.652673583984375,0.6248866319656372,-0.9624691009521484,3.622427225112915
1780525279376744400,3.662744384765625,-0.17477671802043915,-2.123656988143921,3.512293815612793
1780525279386845700,3.672845703125,-0.5410895943641663,-2.561795711517334,2.8419175148010254
1780525279396916700,3.682916748046875,0.16998831927776337,-1.721431016921997,2.432508945465088
1780525279406987500,3.692987548828125,0.8475474119186401,0.2777273952960968,2.5091233253479004
1780525279417058300,3.703058349609375,0.7110779285430908,0.9840168952941895,3.2561142444610596
1780525279427129000,3.713129150390625,0.7182605266571045,0.9145850539207458,4.101267337799072
1780525279437200000,3.723199951171875,0.028730420395731926,-0.06464344263076782,4.568136692047119
1780525279517888300,3.80388818359375,-1.455674648284912,-1.0223240852355957,2.518700122833252
1780525279558263000,3.844262939453125,-1.0893617868423462,1.2282254695892334,1.6927006244659424
1780525279639012600,3.9250126953125,-0.05506663769483566,-0.5482721924781799,-1.8986018896102905
1780525279719701000,4.005700927734375,0.3758896589279175,-0.9313444495201111,-2.6216509342193604
1780525279750005000,4.0360048828125,0.21547815203666687,-1.6543933153152466,-1.9321208000183105
1780525279800481000,4.08648095703125,0.4668693244457245,-0.6224924325942993,-2.9688100814819336
1780525279861089000,4.147089111328125,0.5530605912208557,-1.381454348564148,1.7405846118927002
1780525279901524700,4.187524658203125,-0.026336219161748886,-0.9552865028381348,-4.091690540313721
1780525279941991200,4.2279912109375,0.4381389021873474,2.762908697128296,-0.9169792532920837
1780525279972234000,4.25823388671875,0.16998831927776337,0.023942016065120697,-2.406172752380371
1780525280073338600,4.359338623046875,1.3120225667953491,-1.1276689767837524,-0.035913024097681046
1780525280103673000,4.389673095703125,-0.8667010068893433,0.849941611289978,0.7589619159698486
1780525280164372700,4.450372802734375,1.0630255937576294,-0.6440402865409851,-0.3016694188117981
1780525280265507800,4.5515078125,-0.45489832758903503,0.4596867263317108,0.6416460275650024
1780525280356572400,4.642572509765625,-0.8547300100326538,-0.7661445140838623,3.3303346633911133
1780525280417241300,4.703241455078125,-1.2186486721038818,-0.6009446382522583,4.496310710906982
1780525280457677000,4.743677001953125,-0.363918662071228,-0.23702596127986908,3.670311212539673
1780525280498143500,4.7841435546875,0.9241618514060974,-1.1468225717544556,3.35667085647583
1780525280548680400,4.834680419921875,1.436521053314209,-1.1779472827911377,2.4827871322631836
1780525280558782000,4.844781982421875,1.335964560508728,-0.9672574996948242,2.3702597618103027
1780525280639683800,4.925683837890625,1.8076223134994507,-1.091755986213684,2.6623523235321045
1780525280669987800,4.95598779296875,0.06464344263076782,0.43095630407333374,4.3622355461120605
1780525280680089300,4.96608935546875,-1.3503297567367554,-1.2425906658172607,3.071760892868042
1780525280690221000,4.976220947265625,-2.3127987384796143,-1.0103530883789062,2.0398597717285156
1780525280700322300,4.986322265625,-1.6903064250946045,-0.1173158809542656,1.4532804489135742
1780525280710423800,4.996423828125,-0.6703764796257019,0.6057330369949341,1.7357962131500244
1780525280720525000,5.006525146484375,-0.12928688526153564,0.6272808313369751,2.7772738933563232
1780525280730687500,5.0166875,0.09816227108240128,-0.5817909836769104,3.2632968425750732
1780525280740788700,5.026788818359375,-0.40701428055763245,-1.5897499322891235,2.827552318572998
1780525280750890000,5.036889892578125,-0.10055647045373917,-2.647987127304077,1.7166426181793213
1780525280771062000,5.05706201171875,0.7661445140838623,-0.12928688526153564,0.304063618183136
1780525280781133000,5.067133056640625,0.950498104095459,0.8906430602073669,0.2753331959247589
1780525280791203800,5.077203857421875,1.1779472827911377,0.43335050344467163,0.507570743560791
1780525280801274600,5.087274658203125,1.1420341730117798,-1.3263877630233765,1.3072341680526733
1780525280811345400,5.097345458984375,1.2521674633026123,-2.2002713680267334,1.6759412288665771
1780525280821355000,5.10735498046875,1.290474772453308,-1.9488801956176758,1.3742717504501343
1780525280831456500,5.11745654296875,1.2737152576446533,-1.0438719987869263,1.259350061416626
1780525280841527300,5.12752734375,1.0678139925003052,0.1412578970193863,1.3742717504501343
1780525280851628500,5.137628662109375,1.235408067703247,0.7254431247711182,1.6543933153152466
1780525280861668900,5.1476689453125,0.8690952062606812,0.7996633648872375,2.075772762298584
1780525280891911700,5.17791162109375,0.5267243981361389,-0.19153612852096558,2.542642116546631
1780525280922124000,5.2081240234375,0.8068459630012512,1.0271124839782715,1.764526605606079
1780525280932225500,5.2182255859375,0.9552865028381348,1.0247182846069336,1.8507179021835327
1780525280942296300,5.22829638671875,0.8667010068893433,0.43095630407333374,1.9847931861877441
1780525280952397600,5.2383974609375,1.0749965906143188,-0.3423708379268646,1.9249382019042969
1780525280962498800,5.248498779296875,1.1779472827911377,-0.43095630407333374,1.599326729774475
1780525280972569600,5.258569580078125,1.2737152576446533,-0.17477671802043915,1.0319008827209473
1780525280992680700,5.2786806640625,0.7038952708244324,0.019153613597154617,-0.1412578970193863
1780525281002782200,5.2887822265625,0.7398083209991455,0.043095629662275314,-0.7829039692878723
1780525281012853000,5.29885302734375,0.6991068720817566,0,-1.3335703611373901
1780525281073338600,5.359338623046875,-0.14604631066322327,-0.7805097699165344,-2.956839084625244
1780525281153966000,5.439966064453125,-0.5554547905921936,-0.2585737705230713,-3.0358476638793945
1780525281244603400,5.530603271484375,-0.3495534360408783,0.9026140570640564,-3.093308687210083
1780525281254735000,5.540735107421875,-0.3902548849582672,1.1492167711257935,-1.8339585065841675
1780525281264806100,5.55080615234375,0.3519476354122162,0.7972691655158997,0.06224924325942993
1780525281274877000,5.560876953125,0.9145850539207458,-0.4165911078453064,1.766920804977417
1780525281285008600,5.571008544921875,1.4173674583435059,-0.8643068075180054,2.051830768585205
1780525281325291800,5.611291748046875,0.019153613597154617,1.2545616626739502,-4.292803764343262
1780525281335332000,5.62133203125,-1.2473790645599365,2.2888567447662354,-4.311957359313965
1780525281345433300,5.631433349609375,-1.3431471586227417,3.2178070545196533,-3.4596214294433594
1780525281355504400,5.64150439453125,-0.26575639843940735,2.7940332889556885,-2.4684219360351562
1780525281365605600,5.651605712890625,-0.07900865375995636,1.9823989868164062,-1.742978811264038
1780525281375676400,5.661676513671875,0.011971008032560349,1.256955862045288,-1.1252747774124146
1780525281385777700,5.671777587890625,0.48602294921875,0.790086567401886,-1.0199298858642578
1780525281395879000,5.68187890625,-0.47644615173339844,-0.9145850539207458,-0.5746083855628967
1780525281426091500,5.712091552734375,1.525106430053711,0.8834604024887085,-1.1420341730117798
1780525281436162300,5.722162353515625,0.15322890877723694,1.534683346748352,-1.3958195447921753
1780525281486577200,5.7725771484375,2.3989901542663574,-0.7637503147125244,1.3431471586227417
1780525281516820200,5.8028203125,-0.8475474119186401,-0.272938996553421,-0.6536170840263367
1780525281526891000,5.81289111328125,-0.8092401623725891,-1.4293384552001953,0.019153613597154617
1780525281536992300,5.8229921875,-1.0103530883789062,-2.4899697303771973,1.048660397529602
1780525281547063000,5.83306298828125,-0.26815059781074524,-2.9496564865112305,1.213860273361206
1780525281557164500,5.84316455078125,-0.3016694188117981,-2.8179752826690674,0.6967126727104187
1780525281567235300,5.8532353515625,0.6512228846549988,-2.0446481704711914,-0.4357447028160095
1780525281577336600,5.863336669921875,-0.395043283700943,-0.8762778043746948,-1.0558429956436157
1780525281587437800,5.873437744140625,-0.05027823522686958,0.790086567401886,-1.0103530883789062
1780525281607640600,5.893640625,0.4405331015586853,1.3024457693099976,1.5849615335464478
1780525281617741800,5.903741943359375,-0.1364694982767105,0.7445967197418213,2.5977089405059814
1780525281627812600,5.9138125,0.7661445140838623,0.5793967843055725,2.456450939178467
1780525281637913900,5.923913818359375,0.8236053586006165,-0.33997663855552673,1.9776105880737305
1780525281648015400,5.934015380859375,-0.272938996553421,-0.9265560507774353,1.216254472732544
1780525281658116600,5.94411669921875,-0.8092401623725891,-0.9624691009521484,0.8355764150619507
1780525281668157000,5.954156982421875,-0.42377370595932007,-0.38307225704193115,0.7924807667732239
1780525281678227700,5.964227783203125,-0.629675030708313,-0.21787235140800476,1.1276689767837524
1780525281688329000,5.974328857421875,-1.3934253454208374,0.2561795711517334,1.290474772453308
1780525281698399700,5.984399658203125,-0.7326257228851318,0.38067805767059326,1.680729627609253
1780525281779027200,6.065027099609375,-1.1276689767837524,0.44532153010368347,2.5091233253479004
1780525281809300700,6.09530078125,-1.4293384552001953,-0.790086567401886,3.998316764831543
1780525281819371500,6.10537158203125,-1.0199298858642578,-0.2777273952960968,3.993528366088867
1780525281829472800,6.11547265625,-0.1843535304069519,0.5889736413955688,4.168305397033691
1780525281849614300,6.1356142578125,-0.16759411990642548,1.1899182796478271,4.256890773773193
1780525281859715600,6.145715576171875,-0.040701430290937424,0.9840168952941895,4.292803764343262
1780525281869817000,6.155817138671875,0.090979665517807,0.047884032130241394,4.596867084503174
1780525281879888000,6.165887939453125,0.18914192914962769,-1.3670891523361206,4.680664539337158
1780525281890019600,6.17601953125,0.031124621629714966,-2.3271639347076416,4.273650169372559
1780525281900121000,6.18612109375,0.3711012601852417,-2.0685901641845703,3.2585084438323975
1780525281910252800,6.196252685546875,0.40222588181495667,-1.8794482946395874,2.315192937850952
1780525281920354000,6.20635400390625,0.6655880808830261,-1.3311761617660522,1.4915876388549805
1780525281930424800,6.2164248046875,0.5961562395095825,-1.2258312702178955,1.1444283723831177
1780525281940526300,6.2265263671875,0.8379706144332886,-1.2234370708465576,1.6184803247451782
1780525281950536000,6.236535888671875,1.015141487121582,-1.5682021379470825,2.6001031398773193
1780525281970738700,6.25673876953125,1.1899182796478271,-1.7286136150360107,3.5482068061828613
1780525281980779000,6.266779052734375,1.3000515699386597,-1.4628572463989258,3.5673606395721436
1780525281990880300,6.27688037109375,1.161187767982483,-1.048660397529602,3.2561142444610596
1780525282000951000,6.286950927734375,1.2042834758758545,-0.43095630407333374,2.738966703414917
1780525282011021800,6.297021728515625,1.381454348564148,-0.016759412363171577,2.3319525718688965
1780525282021031700,6.30703173828125,1.599326729774475,0.2968810200691223,2.2002713680267334
1780525282031133000,6.3171328125,1.9249382019042969,0.15562310814857483,2.1571757793426514
1780525282041203700,6.32720361328125,2.0614075660705566,-0.2082955539226532,2.3989901542663574
1780525282051305000,6.337304931640625,1.6735470294952393,-0.33279404044151306,2.6216509342193604
1780525282061345300,6.34734521484375,1.2617442607879639,-0.6224924325942993,2.786850690841675
1780525282071446500,6.357446533203125,0.8858546018600464,-0.4572925269603729,2.868253707885742
1780525282081517600,6.367517578125,1.5849615335464478,-0.7015010714530945,3.2800562381744385
1780525282091588400,6.37758837890625,2.2888567447662354,-0.8786720037460327,4.0078935623168945
1780525282101659100,6.3876591796875,2.3343467712402344,-1.7717092037200928,5.377377033233643
1780525282111760400,6.397760498046875,1.7932571172714233,-1.015141487121582,6.04775333404541
1780525282121831200,6.4078310546875,0.8906430602073669,0.2298433631658554,6.157886981964111
1780525282162144800,6.448144775390625,0.5267243981361389,-0.7493851184844971,3.471592426300049
1780525282182255900,6.468255859375,0.6536170840263367,-2.1787235736846924,4.790797710418701
1780525282222600200,6.50860009765625,0.7805097699165344,-0.3471592366695404,2.477998733520508
1780525282232671000,6.5186708984375,1.1013327836990356,0.3208230137825012,3.2800562381744385
1780525282242772200,6.528772216796875,1.534683346748352,-0.2944868206977844,3.8714241981506348
1780525282262914000,6.5489140625,0.6105214357376099,-2.231395959854126,3.6152446269989014
1780525282272984800,6.55898486328125,0.6799532771110535,-2.051830768585205,2.7078421115875244
1780525282303319300,6.5893193359375,1.7860745191574097,0.6320692300796509,3.0597896575927734
1780525282383916000,6.669916015625,-0.40701428055763245,0.5219359993934631,3.1962592601776123
1780525282424260400,6.71026025390625,-0.33997663855552673,0.5674257874488831,1.094150185585022
1780525282444432400,6.730432373046875,-0.2753331959247589,0.7589619159698486,0.3711012601852417
1780525282464635100,6.75063525390625,-0.15083470940589905,0.3902548849582672,-0.05506663769483566
1780525282474736400,6.760736328125,0.16519992053508759,0.5291185975074768,-0.6392518281936646
1780525282484776700,6.770776611328125,0.2298433631658554,0.5602431893348694,-1.0007762908935547
1780525282494908700,6.78090869140625,0.5530605912208557,0.05506663769483566,-1.50355863571167
1780525282504979500,6.7909794921875,-0.27054479718208313,-0.27054479718208313,-2.1739351749420166
1780525282515080700,6.801080810546875,0.0454898327589035,-0.28969839215278625,-2.8419175148010254
1780525282525151500,6.8111513671875,-0.6200982332229614,-0.545877993106842,-3.066972494125366
1780525282535252700,6.821252685546875,-0.3232172429561615,-0.8834604024887085,-3.0095114707946777
1780525282545293000,6.83129296875,-0.13407529890537262,-0.8667010068893433,-2.7724854946136475
1780525282555394300,6.841394287109375,-0.031124621629714966,-0.5554547905921936,-2.5761611461639404
1780525282565495800,6.851495849609375,0.13407529890537262,-0.3902548849582672,-2.3798365592956543
1780525282595738600,6.881738525390625,0,-0.2059013396501541,-2.209848165512085
1780525282605840000,6.89183984375,-0.06703764945268631,0.2561795711517334,-2.607285737991333
1780525282656346600,6.9423466796875,-0.20350714027881622,-1.3503297567367554,-2.6599581241607666
1780525282737096200,7.02309619140625,1.4676456451416016,0.9696516990661621,0.6727706789970398
1780525282767400000,7.05339990234375,-1.3263877630233765,-0.47884035110473633,-3.5051112174987793
1780525282787663600,7.07366357421875,-2.2864625453948975,0.14365209639072418,-3.93367338180542
1780525282817967600,7.103967529296875,1.194706678390503,2.5522189140319824,-1.8555063009262085
1780525282878606000,7.164606201171875,1.5442601442337036,-0.586579442024231,-0.8379706144332886
1780525282888707300,7.174707275390625,0.08379705995321274,0.1412578970193863,-1.3718775510787964
1780525282949345800,7.235345703125,0.768538773059845,-0.7613561153411865,-0.42856210470199585
1780525282959447000,7.245447021484375,0.993593692779541,0.7158663272857666,-1.3407529592514038
1780525283020024600,7.306024658203125,-0.26575639843940735,-1.4269442558288574,1.5275006294250488
1780525283050359000,7.336359130859375,-0.2992752194404602,1.338358759880066,0.5554547905921936
1780525283100896000,7.38689599609375,-0.4405331015586853,-0.4668693244457245,3.0789434909820557
1780525283111028000,7.397028076171875,-0.7134721279144287,-1.2952631711959839,2.8562827110290527
1780525283121159700,7.40715966796875,-1.113303780555725,-0.9289502501487732,1.9536685943603516
1780525283131261200,7.41726123046875,-1.1827356815338135,-0.3998316824436188,1.1348515748977661
1780525283141332000,7.42733203125,-1.256955862045288,0.40222588181495667,1.194706678390503
1780525283181767700,7.467767578125,-0.8978256583213806,0.45010992884635925,4.244919776916504
1780525283252568600,7.538568603515625,-0.395043283700943,0.17477671802043915,4.398148536682129
1780525283323369200,7.609369140625,0.3447650372982025,-0.1364694982767105,1.821987509727478
1780525283343572000,7.629572021484375,1.0103530883789062,-1.0630255937576294,2.030282974243164
1780525283353673200,7.639673095703125,1.5873557329177856,-1.6639702320098877,3.023876667022705
1780525283414311700,7.700311767578125,0.22505496442317963,-1.2114660739898682,1.3311761617660522
1780525283485112300,7.7711123046875,1.1228805780410767,-1.6496049165725708,3.5386300086975098
1780525283535680000,7.821679931640625,-0.5027823448181152,-0.040701430290937424,2.892195701599121
1780525283606358800,7.89235888671875,0.031124621629714966,-1.6112977266311646,2.779668092727661
1780525283636601600,7.9226015625,0.727837324142456,-0.15801730751991272,2.2194249629974365
1780525283646703000,7.932703125,0.8307880163192749,-1.113303780555725,2.5498247146606445
1780525283656774000,7.94277392578125,0.4668693244457245,-2.2002713680267334,2.3942017555236816
1780525283676976400,7.962976318359375,0.7924807667732239,-2.9257144927978516,1.1851298809051514
1780525283687077600,7.97307763671875,1.1037269830703735,-1.9919757843017578,1.1803414821624756
1780525283697179100,7.98317919921875,1.599326729774475,-1.2449848651885986,1.359906554222107
1780525283707280400,7.9932802734375,1.1779472827911377,-0.9744400978088379,1.7717092037200928
1780525283717412400,8.003412353515625,0.5506663918495178,-0.9169792532920837,2.3295583724975586
1780525283727483100,8.013483154296875,-0.1173158809542656,-0.7230489253997803,2.8610711097717285
1780525283737554000,8.023553955078125,-0.7445967197418213,0.1173158809542656,2.7772738933563232
1780525283747624700,8.033624755859375,-0.043095629662275314,1.1851298809051514,2.209848165512085
1780525283757695500,8.043695556640625,0.24660277366638184,1.721431016921997,2.051830768585205
1780525283767766300,8.053766357421875,0.1388636976480484,1.7860745191574097,2.4612393379211426
1780525283777867500,8.063867431640626,-0.002394201699644327,1.6639702320098877,3.0190882682800293
1780525283787968800,8.07396875,-0.43095630407333374,1.335964560508728,3.2345664501190186
1780525283798070300,8.0840703125,-0.47405192255973816,-0.6368576288223267,3.265691041946411
1780525283808141000,8.09414111328125,-0.4572925269603729,-2.276885747909546,2.5761611461639404
1780525283818242300,8.1042421875,0.021547814831137657,-2.535459518432617,1.0845733880996704
1780525283838383900,8.1243837890625,-0.011971008032560349,-0.5937620401382446,-1.4173674583435059
1780525283858586600,8.144586669921875,-0.689530074596405,-0.05267243832349777,-1.2449848651885986
1780525283868627000,8.154626953125,-0.3519476354122162,0.586579442024231,-1.0534487962722778
1780525283878728200,8.164728271484375,0.28969839215278625,1.0199298858642578,-1.1109095811843872
1780525283888799000,8.174799072265625,0.17956513166427612,0.7038952708244324,-1.1109095811843872
1780525283969548500,8.255548583984375,-0.304063618183136,-0.8523358106613159,-2.1571757793426514
1780525284050206500,8.33620654296875,0.05027823522686958,-0.9217676520347595,-2.365471363067627
1780525284140996000,8.42699609375,1.37906014919281,-1.2018892765045166,1.4197616577148438
1780525284211614000,8.497614013671875,0.8571242094039917,2.6815059185028076,-1.9560627937316895
1780525284221684700,8.507684814453125,1.314416766166687,1.9273324012756348,-1.5658079385757446
1780525284231786000,8.517785888671876,0.5650315880775452,1.9943699836730957,-1.556231141090393
1780525284241918000,8.52791796875,-0.047884032130241394,1.7286136150360107,-1.3479355573654175
1780525284262059500,8.5480595703125,-0.17238251864910126,-0.035913024097681046,-0.5554547905921936
1780525284272191200,8.558191162109376,0.706289529800415,0.21787235140800476,-1.0342950820922852
1780525284282262000,8.568261962890626,0.47165772318840027,0.8307880163192749,-1.867477297782898
1780525284312566000,8.59856591796875,0.09816227108240128,0.2801215946674347,0.38067805767059326
1780525284322636800,8.60863671875,1.0821791887283325,-1.845929503440857,1.5107412338256836
1780525284342808800,8.628808837890626,1.0199298858642578,-2.1763293743133545,0.9696516990661621
1780525284362981000,8.648981201171875,0.727837324142456,1.091755986213684,-0.3711012601852417
1780525284373052000,8.659052001953125,-0.10295066982507706,2.1571757793426514,0.3064578175544739
1780525284383153200,8.669153076171876,-0.05506663769483566,0.871489405632019,1.623268723487854
1780525284393224000,8.679223876953126,-0.4692635238170624,-2.056619167327881,2.894589900970459
1780525284403294700,8.689294677734376,-0.608127236366272,-3.885789394378662,2.911349296569824
1780525284423405800,8.70940576171875,0.545877993106842,-2.8203697204589844,0.3519476354122162
1780525284433507000,8.719507080078126,0.9648633003234863,-1.316810965538025,-0.730231523513794
1780525284443608600,8.729608642578125,0.9050082564353943,0.4141969084739685,-0.9313444495201111
1780525284463780600,8.749780517578126,0.5889736413955688,2.9041666984558105,1.4915876388549805
1780525284483952600,8.76995263671875,-0.7134721279144287,0.7422025203704834,3.0358476638793945
1780525284494054100,8.78005419921875,-1.2497732639312744,-1.2210428714752197,2.8395233154296875
1780525284504125000,8.790125,-1.173158884048462,-2.075772762298584,2.367865562438965
1780525284514226200,8.80022607421875,-0.43335050344467163,-2.8131868839263916,2.166752576828003
1780525284524327400,8.810327392578126,-0.706289529800415,-1.8531121015548706,1.6352397203445435
1780525284534398200,8.820398193359376,-0.6488286852836609,-0.3280056416988373,0.8667010068893433
1780525284544438500,8.8304384765625,-0.5315127968788147,1.4532804489135742,1.0271124839782715
1780525284554540000,8.8405400390625,-0.6248866319656372,1.4939818382263184,2.1787235736846924
1780525284564610800,8.85061083984375,-1.3646949529647827,1.3718775510787964,3.2585084438323975
1780525284584752400,8.87075244140625,-0.7589619159698486,0.6823474764823914,3.270479440689087
1780525284594853600,8.880853515625,-0.9481038451194763,-0.08858546614646912,3.687070608139038
1780525284604924400,8.89092431640625,-0.7829039692878723,-0.26336219906806946,3.5697548389434814
1780525284615025700,8.901025634765626,-0.9265560507774353,-0.14844051003456116,3.071760892868042
1780525284625096400,8.911096435546876,-0.9648633003234863,-0.011971008032560349,2.8371291160583496
1780525284635198000,8.921197998046875,-1.2641384601593018,0.20111294090747833,3.1914708614349365
1780525284645299200,8.93129931640625,-1.1779472827911377,0.11013327538967133,3.998316764831543
1780525284665532400,8.951532470703125,-0.5051765441894531,0.5602431893348694,4.355052947998047
1780525284675603200,8.961603271484375,0.3232172429561615,0.5793967843055725,4.357447147369385
1780525284695775200,8.981775146484376,0.6224924325942993,0.7326257228851318,2.8778305053710938
1780525284705846000,8.991845947265626,0.40222588181495667,-0.10773907601833344,2.2194249629974365
1780525284715947300,9.001947265625,0.3495534360408783,-1.3551181554794312,1.9967641830444336
1780525284736089000,9.022089111328125,0.2753331959247589,-2.142810583114624,1.7597382068634033
1780525284746159900,9.032159912109375,1.213860273361206,-1.8602946996688843,1.9776105880737305
1780525284756261000,9.04226123046875,1.2401964664459229,-1.8986018896102905,2.691082715988159
1780525284806676200,9.09267626953125,0.8475474119186401,-1.4628572463989258,1.414973258972168
1780525284846929000,9.132928955078125,2.027888774871826,0.24181437492370605,1.41257905960083
1780525284857030100,9.143030029296876,1.9584569931030273,0.0933738648891449,1.5131354331970215
1780525284867101000,9.153100830078126,1.6424223184585571,-0.4165911078453064,1.5466543436050415
1780525284877202200,9.1632021484375,1.2306196689605713,-0.7709329724311829,1.5322890281677246
1780525284887303700,9.1733037109375,0.6392518281936646,-0.9145850539207458,1.5322890281677246
1780525284897374500,9.18337451171875,0.9313444495201111,-0.2298433631658554,1.5298948287963867
1780525284917546500,9.20354638671875,1.7549498081207275,-1.3000515699386597,4.062960147857666
1780525284927617300,9.2136171875,1.2545616626739502,-1.5298948287963867,5.506663799285889
1780525284937749200,9.223749267578125,0.21547815203666687,-0.06224924325942993,6.102819919586182
1780525284947820000,9.233820068359375,-1.094150185585022,0.2346317619085312,5.789179801940918
1780525284957921300,9.24392138671875,-1.5634137392044067,-0.42856210470199585,3.8786067962646484
1780525284968022500,9.2540224609375,-1.6496049165725708,0.5386953949928284,2.499546527862549
1780525284978123800,9.264123779296876,-0.1628057211637497,0.9696516990661621,1.41257905960083
1780525285008397300,9.294397216796876,0.035913024097681046,-2.631227731704712,3.3231520652770996
1780525285058690300,9.344690185546876,1.5442601442337036,0.2801215946674347,0.8619126081466675
1780525285088994300,9.374994384765625,1.6543933153152466,-2.6671407222747803,0.7709329724311829
1780525285099065000,9.385065185546875,1.7286136150360107,-1.4245500564575195,0.47165772318840027
1780525285109166300,9.395166259765626,1.7501614093780518,-0.20350714027881622,0.49559974670410156
1780525285119206700,9.40520654296875,1.7717092037200928,-0.06464344263076782,1.072602391242981
1780525285189824300,9.47582421875,0.8619126081466675,-0.08140286058187485,1.2401964664459229
1780525285199895000,9.48589501953125,0.37828385829925537,0.4165911078453064,1.158793568611145
1780525285209996500,9.49599658203125,-0.009576806798577309,0.06703764945268631,1.158793568611145
1780525285220067300,9.5060673828125,-0.28969839215278625,-0.3663128614425659,0.950498104095459
1780525285230168600,9.51616845703125,0.10773907601833344,-0.31124621629714966,0.3734954595565796
1780525285240269800,9.526269775390626,0.15562310814857483,-0.15083470940589905,-0.021547814831137657
1780525285250340600,9.536340576171876,-0.07422025501728058,-0.2561795711517334,-0.3016694188117981
1780525285260411400,9.546411376953126,-0.3423708379268646,-0.24660277366638184,-0.5051765441894531
1780525285270482200,9.556482177734376,-0.5123591423034668,-0.12449848651885986,-0.8427590131759644
1780525285280553200,9.56655322265625,-0.8212111592292786,-0.22505496442317963,-1.0749965906143188
1780525285300725200,9.586725341796875,-0.07182604819536209,-0.17956513166427612,-1.455674648284912
1780525285310796000,9.596796142578125,-0.15801730751991272,-0.3734954595565796,-1.8818424940109253
1780525285320897300,9.606897216796876,0.06224924325942993,-0.31364041566848755,-2.564189910888672
1780525285330968000,9.616968017578126,0.09816227108240128,-0.1843535304069519,-3.1220390796661377
1780525285351170800,9.6371708984375,-0.40222588181495667,-0.0694318488240242,-3.6846764087677
1780525285361272000,9.64727197265625,-0.016759412363171577,0.22266076505184174,-3.7445313930511475
1780525285371312400,9.6573125,0.009576806798577309,0.1364694982767105,-3.5889084339141846
1780525285431828700,9.717828857421875,0.7781155705451965,-0.47644615173339844,-2.161964178085327
1780525285441899500,9.7278994140625,0.24181437492370605,-0.3447650372982025,-2.011129379272461
1780525285522679600,9.808679443359376,-0.3208230137825012,0.8020575642585754,-1.4053963422775269
1780525285532750300,9.818750244140626,0.40462008118629456,0.2753331959247589,0.5147533416748047
1780525285623570700,9.90957080078125,1.4867992401123047,0.933738648891449,-1.8531121015548706
1780525285633672000,9.919671875,0.7589619159698486,1.2042834758758545,-1.8914192914962769
1780525285653874700,9.939874755859375,-0.5746083855628967,0.3495534360408783,-1.290474772453308
1780525285674046700,9.960046630859376,1.6903064250946045,-1.0893617868423462,0.1412578970193863
1780525285684148000,9.97014794921875,1.4676456451416016,0.38067805767059326,-0.912190854549408
1780525285694249500,9.98024951171875,-0.33758243918418884,1.7860745191574097,-1.968033790588379
1780525285704350700,9.990350830078125,-1.4724340438842773,1.2066776752471924,-1.886630892753601
1780525285714421500,10.00042138671875,-1.0558429956436157,-0.20350714027881622,-0.7757213711738586
1780525285724492300,10.0104921875,0.1628057211637497,-1.3096283674240112,0.2992752194404602
1780525285785008600,10.071008544921876,-0.42856210470199585,1.2737152576446533,0.629675030708313
1780525285805211400,10.09121142578125,-0.22744916379451752,-1.7956513166427612,2.1284453868865967
1780525285865880300,10.15188037109375,0.21787235140800476,1.460463047027588,2.051830768585205
1780525285896214800,10.18221484375,-0.9552865028381348,-0.8475474119186401,2.650381326675415
1780525285977147400,10.2631474609375,-1.5705963373184204,0.6200982332229614,3.7684733867645264
1780525286027684400,10.313684326171876,-0.6871358752250671,0.06703764945268631,2.27209734916687
1780525286078160600,10.36416064453125,-0.3663128614425659,1.0654197931289673,5.621585369110107
1780525286088292400,10.374292236328126,-0.5602431893348694,0.6727706789970398,4.9152960777282715
1780525286098393600,10.3843935546875,-0.27054479718208313,0.17956513166427612,3.7229835987091064
1780525286108495000,10.3944951171875,-0.33279404044151306,-0.8451532125473022,2.7054479122161865
1780525286118596400,10.404596435546875,-0.33279404044151306,-1.8698714971542358,2.2194249629974365
1780525286128728000,10.41472802734375,-0.12928688526153564,-2.274491548538208,2.2026655673980713
1780525286138798800,10.424798828125,0.26575639843940735,-1.8483237028121948,2.0638017654418945
1780525286148930800,10.434930908203125,0.9169792532920837,-1.0582371950149536,1.889025092124939
1780525286159032000,10.445031982421876,1.216254472732544,-0.47884035110473633,2.032677173614502
1780525286169164000,10.4551640625,1.237802267074585,-0.272938996553421,2.406172752380371
1780525286179234800,10.46523486328125,1.2210428714752197,-0.6607996821403503,2.557007312774658
1780525286189366500,10.475366455078126,1.280897855758667,-1.5442601442337036,2.456450939178467
1780525286199467800,10.4854677734375,1.6112977266311646,-1.987187385559082,2.2218191623687744
1780525286209599700,10.495599853515625,1.5753847360610962,-1.778891921043396,2.1787235736846924
1780525286219701000,10.505700927734376,1.6496049165725708,-1.1348515748977661,2.3056161403656006
1780525286229833000,10.5158330078125,1.5825673341751099,-0.5602431893348694,2.0398597717285156
1780525286239964700,10.525964599609376,1.7166426181793213,-0.3974374830722809,1.843535304069519
1780525286250066000,10.53606591796875,1.9608511924743652,-0.6009446382522583,0.9720458984375
1780525286260167400,10.54616748046875,1.8794482946395874,-0.49799394607543945,0.4644751250743866
1780525286270299100,10.556299072265626,1.3048399686813354,-0.27054479718208313,0.14604631066322327
1780525286280400400,10.566400390625,0.4908113479614258,0.17238251864910126,0.3232172429561615
1780525286300603100,10.58660302734375,1.2880805730819702,-0.8930372595787048,3.6942532062530518
1780525286310704400,10.596704345703126,1.0247182846069336,-0.727837324142456,5.324704647064209
1780525286320806000,10.606805908203125,0.6536170840263367,-0.05267243832349777,6.313509941101074
1780525286329889300,10.61588916015625,-0.33518823981285095,-0.3902548849582672,6.342240333557129
1780525286339990500,10.625990478515625,-1.45806884765625,-0.9864110946655273,4.113238334655762
1780525286350061300,10.636061279296875,-1.139639973640442,0.19393034279346466,2.3702597618103027
1780525286360162800,10.646162841796874,0.2585737705230713,0.9768342971801758,1.3407529592514038
1780525286420770600,10.7067705078125,-0.8451532125473022,-0.7110779285430908,1.6759412288665771
1780525286451105000,10.73710498046875,1.5705963373184204,-1.0606313943862915,1.0247182846069336
1780525286501611800,10.78761181640625,1.1348515748977661,0.9050082564353943,1.5729905366897583
1780525286531946200,10.8179462890625,0.7422025203704834,-1.3072341680526733,3.421314239501953
1780525286542047500,10.828047607421874,0.48602294921875,-1.8363527059555054,3.141192674636841
1780525286622919200,10.908919189453124,-0.304063618183136,-0.7709329724311829,1.50355863571167
1780525286673486600,10.959486572265625,-0.8906430602073669,-0.363918662071228,-1.5610195398330688
1780525286744318000,11.03031787109375,-0.19871874153614044,-0.7158663272857666,-2.940079689025879
1780525286754419200,11.040419189453125,-0.5291185975074768,-0.5889736413955688,-2.918531894683838
1780525286764520700,11.050520751953124,-0.36152446269989014,-0.016759412363171577,-3.071760892868042
1780525286774622000,11.0606220703125,-0.06464344263076782,0.035913024097681046,-2.935291290283203
1780525286784753700,11.070753662109375,-0.27054479718208313,-0.29209262132644653,-2.7964274883270264
1780525286794885600,11.0808857421875,0.3208230137825012,-0.5554547905921936,-2.806004285812378
1780525286804987000,11.09098681640625,0.5793967843055725,-1.0582371950149536,-2.894589900970459
1780525286835260400,11.121260498046874,0.5003881454467773,-0.8906430602073669,-3.7181951999664307
1780525286845361700,11.131361572265625,0.5506663918495178,-0.7326257228851318,-3.4787750244140625
1780525286855402000,11.141402099609374,0.9576807022094727,-0.9409212470054626,-3.2776620388031006
1780525286875635200,11.16163525390625,2.073378562927246,-1.3766659498214722,-2.9688100814819336
1780525286885767000,11.171766845703125,2.4013843536376953,-1.4676456451416016,-2.7317841053009033
1780525286895837700,11.181837646484375,2.3726539611816406,-1.4748282432556152,-1.2856862545013428
1780525286905969700,11.1919697265625,1.778891921043396,-1.015141487121582,0.5219359993934631
1780525286916101400,11.202101318359375,1.6208745241165161,-1.1037269830703735,1.6376339197158813
1780525286926233300,11.2122333984375,-3.0334534645080566,-1.6927006244659424,2.0183119773864746
1780525286936304000,11.22230419921875,-0.7374141216278076,-2.0638017654418945,0.2968810200691223
1780525286946435800,11.232435791015625,2.2002713680267334,-0.14844051003456116,-2.233790159225464
1780525286956537300,11.242537353515624,1.900996208190918,-0.13407529890537262,-3.35667085647583
1780525286966669000,11.2526689453125,1.4676456451416016,-0.4644751250743866,-3.1316158771514893
1780525286976739800,11.26273974609375,0.8020575642585754,-0.05506663769483566,-2.1332337856292725
1780525286986871800,11.272871826171874,0.5003881454467773,1.3479355573654175,-1.072602391242981
1780525286997003500,11.28300341796875,0.8954314589500427,3.2178070545196533,-0.4572925269603729
1780525287007104800,11.293104736328125,0.031124621629714966,4.108449935913086,-0.44532153010368347
1780525287017175600,11.303175537109375,-0.8858546018600464,3.883395195007324,-0.8690952062606812
1780525287027307500,11.3133076171875,-1.3311761617660522,4.0964789390563965,-1.3407529592514038
1780525287037408800,11.32340869140625,-2.0446481704711914,4.182670593261719,-1.9823989868164062
1780525287067712800,11.353712646484375,-1.3742717504501343,1.170764684677124,-4.022258758544922
1780525287077844500,11.363844482421875,-0.26336219906806946,0.5506663918495178,-4.692635536193848
1780525287138391600,11.4243916015625,0.8978256583213806,0.004788403399288654,0.24420857429504395
1780525287219049500,11.505049560546874,0.45489832758903503,-4.501099109649658,2.9065608978271484
1780525287229150700,11.515150634765625,1.8602946996688843,-5.504269599914551,2.4157495498657227
1780525287239221500,11.525221435546875,2.456450939178467,-4.378994941711426,1.479616641998291
1780525287319849000,11.605848876953125,-1.0199298858642578,-0.4405331015586853,0.9648633003234863
1780525287370203000,11.656202880859375,-0.7445967197418213,1.3407529592514038,2.3989901542663574
1780525287380304400,11.666304443359374,-0.16519992053508759,1.7357962131500244,2.497152328491211
1780525287450922000,11.736921875,-1.8100165128707886,0.043095629662275314,4.307168960571289
1780525287460992800,11.74699267578125,-1.1635819673538208,0.28969839215278625,4.335899353027344
1780525287471063600,11.7570634765625,-1.01753568649292,0.37828385829925537,4.596867084503174
1780525287481134300,11.76713427734375,-1.1899182796478271,0.3064578175544739,4.702212333679199
1780525287491174700,11.777174560546875,-1.0247182846069336,0.07900865375995636,4.764461517333984
1780525287501245400,11.787245361328125,-0.689530074596405,-0.19871874153614044,4.78122091293335
1780525287511346700,11.7973466796875,-0.6775590777397156,-0.545877993106842,4.884171485900879
1780525287521417700,11.807417724609374,-0.8044517636299133,-0.9313444495201111,5.063736438751221
1780525287531519000,11.81751904296875,-0.9361328482627869,-1.0079588890075684,5.032611846923828
1780525287541589800,11.82758984375,-1.0654197931289673,-0.9816226959228516,4.912901878356934
1780525287551691000,11.83769091796875,-1.1516109704971313,-0.8331822156906128,4.49870491027832
1780525287561761800,11.84776171875,-1.1180921792984009,-0.6320692300796509,3.8355112075805664
1780525287602136600,11.888136474609375,0.8667010068893433,-1.45806884765625,3.050212860107422
1780525287622278100,11.908278076171875,0.9911994934082031,-1.7405846118927002,3.021482467651367
1780525287642419700,11.928419677734375,2.7102363109588623,-2.940079689025879,3.93367338180542
1780525287652490500,11.938490478515625,3.1483752727508545,-3.318363666534424,4.699818134307861
1780525287662592000,11.948592041015624,2.7485435009002686,-2.695871114730835,5.504269599914551
1780525287672662800,11.958662841796874,0.8475474119186401,-1.4867992401123047,5.894524574279785
1780525287682733600,11.968733642578124,-0.8690952062606812,-0.5099649429321289,4.891354084014893
1780525287712946000,11.99894580078125,2.7293899059295654,1.3239935636520386,2.343923568725586
1780525287723047200,12.009047119140625,2.8658595085144043,0.6655880808830261,3.4739866256713867
1780525287743158300,12.029158203125,1.0893617868423462,-1.0438719987869263,4.395754337310791
1780525287773401300,12.0594013671875,0.6536170840263367,-0.6823474764823914,4.527435302734375
1780525287793573400,12.079573486328124,-0.016759412363171577,-0.36152446269989014,5.453991413116455
1780525287833887000,12.119886962890625,0.6392518281936646,-1.7980455160140991,3.737348794937134
1780525287884302000,12.170302001953125,-0.4118026793003082,-0.9528923034667969,3.9456443786621094
1780525287924585200,12.210585205078125,0.023942016065120697,1.0438719987869263,4.1180267333984375
1780525287934595000,12.220594970703125,-0.6799532771110535,0.7469909191131592,4.896142482757568
1780525287944696300,12.2306962890625,-0.9768342971801758,0.011971008032560349,4.98472785949707
1780525287964838000,12.250837890625,0.13168109953403473,-0.33758243918418884,3.600879430770874
1780525287984949000,12.270948974609375,-0.20350714027881622,0.6105214357376099,2.183511972427368
1780525287995050500,12.281050537109374,-1.091755986213684,0.24660277366638184,2.2840683460235596
1780525288005090800,12.2910908203125,-1.3455413579940796,0.20350714027881622,2.497152328491211
1780525288015161600,12.30116162109375,-0.10295066982507706,0.38307225704193115,2.3367409706115723
1780525288025262800,12.311262939453124,-0.7829039692878723,0.2968810200691223,2.6599581241607666
1780525288035394600,12.32139453125,-0.7829039692878723,0.5003881454467773,2.513911724090576
1780525288045435000,12.331434814453125,-0.26336219906806946,0.9528923034667969,1.7525556087493896
1780525288055475200,12.34147509765625,-0.019153613597154617,0.7422025203704834,0.7996633648872375
1780525288085748700,12.371748779296874,0.5650315880775452,0.16998831927776337,-1.4652514457702637
1780525288095789000,12.3817890625,0.5674257874488831,0.08619125932455063,-1.7717092037200928
1780525288105920800,12.391920654296875,0.6823474764823914,0.004788403399288654,-2.1140801906585693
1780525288146234400,12.432234375,-0.10295066982507706,0.17238251864910126,-2.609679937362671
1780525288166376200,12.452376220703124,0.35434186458587646,-0.8140285611152649,-2.691082715988159
1780525288176477400,12.4624775390625,0.21308395266532898,-0.9528923034667969,-2.9688100814819336
1780525288186548200,12.47254833984375,-0.16759411990642548,-0.8259995579719543,-3.134010076522827
1780525288226861800,12.51286181640625,0.24420857429504395,-1.0749965906143188,-2.580949544906616
1780525288247034000,12.5330341796875,-0.24660277366638184,-1.338358759880066,-2.5115175247192383
1780525288317590800,12.6035908203125,0.8427590131759644,-1.0007762908935547,-0.9864110946655273
1780525288327661600,12.61366162109375,1.8818424940109253,-0.27054479718208313,-0.8906430602073669
1780525288337793300,12.623793212890625,1.3455413579940796,0.1364694982767105,-0.9911994934082031
1780525288347864000,12.633864013671875,0.47884035110473633,0.33039984107017517,-1.259350061416626
1780525288357934800,12.643934814453125,-0.2944868206977844,0.6703764796257019,-1.6519991159439087
1780525288378076400,12.664076416015625,-0.43335050344467163,0.9074024558067322,-0.47644615173339844
1780525288398279200,12.684279052734375,1.4077905416488647,0.7541735172271729,-0.5506663918495178
1780525288408350000,12.694349853515625,1.479616641998291,1.4413094520568848,-1.1563993692398071
1780525288418420700,12.704420654296875,-0.26096799969673157,1.216254472732544,-1.2234370708465576
1780525288428491500,12.714491455078125,-0.272938996553421,1.4963760375976562,-1.2952631711959839
1780525288438562300,12.724562255859375,-0.22266076505184174,1.235408067703247,-1.403002142906189
1780525288448663800,12.734663818359374,0.8762778043746948,1.3958195447921753,-1.8698714971542358
1780525288458765000,12.74476513671875,1.4987702369689941,1.6280571222305298,-2.425326347351074
1780525288468866300,12.7548662109375,1.0271124839782715,1.4652514457702637,-2.647987127304077
1780525288478967600,12.764967529296875,-0.9074024558067322,-0.090979665517807,-1.821987509727478
1780525288489069000,12.775069091796874,-0.545877993106842,-0.5123591423034668,-1.2641384601593018
1780525288499170300,12.78517041015625,0.21787235140800476,-0.6224924325942993,-0.8690952062606812
1780525288529413000,12.8154130859375,0.9481038451194763,0.9409212470054626,-0.9983820915222168
1780525288539453400,12.825453369140625,0.26815059781074524,1.534683346748352,-0.8882488012313843
1780525288549554700,12.8355546875,-1.070208191871643,1.2761094570159912,-0.3232172429561615
1780525288559625700,12.845625732421874,-2.387019157409668,0.5386953949928284,0.24420857429504395
1780525288569696500,12.855696533203124,-3.179499864578247,-0.5291185975074768,0.9074024558067322
1780525288579736600,12.865736572265625,-2.889801502227783,-0.9026140570640564,1.036689281463623
1780525288589868500,12.87586865234375,-3.3518824577331543,-1.3742717504501343,1.2976573705673218
1780525288599939300,12.885939208984375,-2.8850131034851074,-1.7286136150360107,1.479616641998291
1780525288610010000,12.896010009765625,-2.7293899059295654,-1.7812861204147339,1.6974890232086182
1780525288620081000,12.906080810546875,-1.7836803197860718,-2.212242364883423,1.7764976024627686
1780525288670404400,12.956404296875,0.9959878921508789,0.26815059781074524,4.240131378173828
1780525288740900000,13.026900146484374,-0.730231523513794,0.950498104095459,-0.14844051003456116
1780525288750971000,13.036970947265624,-0.26336219906806946,1.647210717201233,-0.1604115068912506
1780525288761102600,13.0471025390625,0.047884032130241394,2.382230758666992,0.1843535304069519
1780525288771173400,13.05717333984375,-0.22505496442317963,1.9560627937316895,1.292868971824646
1780525288781244200,13.067244140625,-0.7206547260284424,1.7381904125213623,2.3750481605529785
1780525288791315000,13.07731494140625,-1.3623007535934448,1.2737152576446533,3.179499864578247
1780525288801416400,13.08741650390625,-1.3239935636520386,1.2114660739898682,3.3231520652770996
1780525288811487200,13.0974873046875,-0.7134721279144287,1.5514427423477173,3.4787750244140625
1780525288821588500,13.10758837890625,-0.5291185975074768,1.6376339197158813,3.799597978591919
1780525288851862000,13.137862060546874,-0.4381389021873474,0.849941611289978,4.288015365600586
1780525288872095000,13.158094970703125,-0.7996633648872375,0.047884032130241394,4.513070106506348
1780525288902368500,13.188368408203125,-0.3447650372982025,0.15562310814857483,5.013458251953125
1780525288922510000,13.208510009765625,-0.44532153010368347,-0.5961562395095825,3.2297780513763428
1780525288942743300,13.228743408203124,0.33758243918418884,-1.1109095811843872,1.764526605606079
1780525288952814000,13.23881396484375,0.14844051003456116,-1.656787633895874,2.2170307636260986
1780525288962915300,13.248915283203125,0.3734954595565796,-1.7573440074920654,3.268085241317749
1780525288993188900,13.27918896484375,-0.24899697303771973,-1.3623007535934448,5.260061264038086
1780525289063806500,13.349806396484375,3.2082302570343018,-0.9864110946655273,1.7908629179000854
1780525289073907700,13.35990771484375,2.9257144927978516,-1.7884687185287476,3.4332852363586426
1780525289084009200,13.37000927734375,3.292027235031128,-2.164358377456665,4.963180065155029
1780525289094049500,13.380049560546874,1.3120225667953491,-1.5442601442337036,6.205770969390869
1780525289104150800,13.39015087890625,-1.8148049116134644,-1.1779472827911377,5.894524574279785
1780525289114282500,13.400282470703125,-2.827552318572998,-0.6057330369949341,3.9647979736328125
1780525289124384000,13.410384033203124,-1.843535304069519,0.304063618183136,2.1763293743133545
1780525289134454800,13.420454833984374,2.3487119674682617,1.2497732639312744,2.8179752826690674
1780525289144586500,13.43058642578125,2.7293899059295654,1.4867992401123047,4.3622355461120605
1780525289164758800,13.4507587890625,-0.9672574996948242,-1.1468225717544556,4.908113479614258
1780525289174829600,13.46082958984375,-1.0007762908935547,-2.497152328491211,3.8355112075805664
1780525289184930800,13.470930908203124,0.26815059781074524,-2.293645143508911,2.8179752826690674
1780525289205133300,13.49113330078125,1.6879122257232666,-0.21308395266532898,3.134010076522827
1780525289215265300,13.501265380859374,1.0319008827209473,-0.07182604819536209,3.9193081855773926
1780525289225366500,13.511366455078125,-0.2082955539226532,-0.8954314589500427,4.288015365600586
1780525289235498500,13.52149853515625,-0.8786720037460327,-1.6903064250946045,3.6990416049957275
1780525289245630200,13.531630126953125,0.8954314589500427,-1.5083470344543457,2.669534921646118
1780525289306268700,13.5922685546875,-0.2561795711517334,-0.5841852426528931,3.998316764831543
1780525289316370000,13.602369873046875,0.9768342971801758,0.06464344263076782,2.760514497756958
1780525289326502000,13.612501953125,1.3239935636520386,0.828393816947937,2.252943754196167
1780525289336603100,13.62260302734375,1.6424223184585571,1.4077905416488647,2.7030537128448486
1780525289346735000,13.632735107421874,0.933738648891449,0.9457096457481384,3.866635799407959
1780525289356836400,13.64283642578125,-0.2059013396501541,0.15083470940589905,4.364629745483398
1780525289366968000,13.652968017578125,-0.14365209639072418,-0.20111294090747833,4.134786128997803
1780525289387170800,13.6731708984375,0.3734954595565796,0.42616790533065796,2.169146776199341
1780525289397272000,13.68327197265625,0.14604631066322327,0.8882488012313843,1.2497732639312744
1780525289407404000,13.693404052734374,-0.08858546614646912,1.1875240802764893,0.5386953949928284
1780525289417535700,13.70353564453125,-0.6751648783683777,1.0127472877502441,0.36152446269989014
1780525289427637000,13.713636962890625,-1.036689281463623,0.6536170840263367,0.4692635238170624
1780525289437738500,13.723738525390624,-0.8571242094039917,0.3974374830722809,0.45489832758903503
1780525289447839700,13.73383984375,-0.5482721924781799,0.6607996821403503,0.33758243918418884
1780525289457941000,13.74394091796875,-0.06703764945268631,0.8619126081466675,0.15322890877723694
1780525289468042200,13.754042236328125,-0.272938996553421,0.4884171485900879,-0.20111294090747833
1780525289478143700,13.764143798828124,-0.16759411990642548,0.38307225704193115,-0.9002198576927185
1780525289488245000,13.774244873046875,-0.5339069962501526,-0.15801730751991272,-1.534683346748352
1780525289498346200,13.78434619140625,-0.15562310814857483,-0.08619125932455063,-2.1140801906585693
1780525289508447700,13.79444775390625,0.1364694982767105,-0.5674257874488831,-2.427720546722412
1780525289518579500,13.804579345703125,0.5051765441894531,-0.6320692300796509,-2.7437551021575928
1780525289528619800,13.814619873046874,0.6943184733390808,-0.15562310814857483,-3.2154128551483154
1780525289548853000,13.83485302734375,-0.2537853717803955,-0.15083470940589905,-2.913743495941162
1780525289558954200,13.844954345703124,-0.15083470940589905,0.11971008777618408,-2.5546131134033203
1780525289569116700,13.85511669921875,-0.15801730751991272,0.10534487664699554,-2.121262788772583
1780525289579218000,13.865218017578124,0.4357447028160095,-0.4118026793003082,-2.145204782485962
1780525289589319200,13.875319091796875,0.608127236366272,-0.4357447028160095,-2.4827871322631836
1780525289599420400,13.88542041015625,0.871489405632019,-1.05105459690094,-2.9089550971984863
1780525289609522000,13.89552197265625,0.6919242739677429,-0.608127236366272,-3.4332852363586426
1780525289670129700,13.956129638671875,-0.09816227108240128,-1.1659762859344482,-2.5689783096313477
1780525289720514300,14.006514404296874,0.828393816947937,-1.3958195447921753,0.6919242739677429
1780525289760828000,14.046827880859375,-0.5578489899635315,-0.6799532771110535,-3.3518824577331543
1780525289801141800,14.087141845703124,0.8044517636299133,0.4381389021873474,-1.0845733880996704
1780525289871789800,14.157789794921875,0.5291185975074768,1.53707754611969,-1.623268723487854
1780525289942407700,14.22840771484375,0.5722141861915588,-0.19393034279346466,0.038307227194309235
1780525289952509000,14.238509033203124,-0.031124621629714966,0.7182605266571045,0.05985504388809204
1780525289962579700,14.248579833984374,-0.19632454216480255,0.8355764150619507,0.8523358106613159
1780525289972620000,14.2586201171875,-0.3974374830722809,-0.31603461503982544,1.968033790588379
1780525289982721300,14.26872119140625,-0.7445967197418213,-2.0015525817871094,2.9257144927978516
1780525289992792000,14.2787919921875,-1.0606313943862915,-3.138798475265503,3.3518824577331543
1780525290002893300,14.288893310546875,-0.629675030708313,-3.361459255218506,3.265691041946411
1780525290012933600,14.29893359375,-0.22744916379451752,-2.8107926845550537,2.6623523235321045
1780525290023004400,14.30900439453125,0.07182604819536209,-2.006340980529785,1.5921441316604614
1780525290033106000,14.31910595703125,0.8523358106613159,-1.0654197931289673,0.7469909191131592
1780525290043207200,14.329207275390624,1.359906554222107,0.05506663769483566,0.7254431247711182
1780525290053247500,14.33924755859375,0.8667010068893433,0.4596867263317108,1.3527239561080933
1780525290063348700,14.3493486328125,0.05985504388809204,0.7230489253997803,1.8483237028121948
1780525290073450000,14.359449951171875,-0.5195417404174805,0.8690952062606812,1.6687586307525635
1780525290083520800,14.369520751953125,-0.790086567401886,0.5674257874488831,1.4891934394836426
1780525290113763800,14.399763916015624,-1.0797849893569946,-0.7637503147125244,1.2042834758758545
1780525290184259300,14.47025927734375,-1.170764684677124,1.072602391242981,3.404554843902588
1780525290254755000,14.540755126953124,-0.30885201692581177,1.37906014919281,4.134786128997803
1780525290325403100,14.611403076171875,-0.047884032130241394,-0.6129156351089478,3.1004912853240967
1780525290365717000,14.651717041015624,-0.35913026332855225,-1.4963760375976562,4.027047157287598
1780525290395929300,14.681929443359374,0.2801215946674347,-0.5889736413955688,3.8522706031799316
1780525290406000000,14.692000244140624,0.17477671802043915,-0.5099649429321289,3.8546648025512695
1780525290416040400,14.70204052734375,0.2059013396501541,-0.8140285611152649,3.5936968326568604
1780525290506738700,14.79273876953125,0.9888052940368652,0.06464344263076782,1.41257905960083
1780525290547083000,14.8330830078125,-0.5027823448181152,-1.338358759880066,5.073313236236572
1780525290557153800,14.84315380859375,-0.7613561153411865,-1.623268723487854,4.728548526763916
1780525290567224600,14.853224609375,-0.7445967197418213,-0.9313444495201111,4.170699596405029
1780525290577295400,14.86329541015625,-0.24420857429504395,-0.40462008118629456,3.885789394378662
1780525290587335700,14.873335693359374,0.29209262132644653,-0.27054479718208313,4.194641590118408
1780525290597437000,14.88343701171875,0.22266076505184174,-0.40222588181495667,4.797980308532715
1780525290607507700,14.8935078125,-0.15801730751991272,-0.7038952708244324,4.654327869415283
1780525290617578500,14.90357861328125,-0.05985504388809204,-1.4844050407409668,3.670311212539673
1780525290627649300,14.913649169921875,0.272938996553421,-2.164358377456665,2.8371291160583496
1780525290637720000,14.923719970703125,1.522712230682373,-2.1595699787139893,2.4803929328918457
1780525290647790800,14.933790771484375,2.169146776199341,-0.7733271718025208,3.023876667022705
1780525290677972700,14.96397265625,-0.36152446269989014,-0.2968810200691223,4.841075897216797
1780525290688074000,14.974073974609375,-0.6871358752250671,-0.36152446269989014,4.594472885131836
1780525290698144800,14.984144775390625,0.5123591423034668,0.31124621629714966,3.8283286094665527
1780525290708215800,14.9942158203125,1.192312479019165,0.5171475410461426,4.46518611907959
1780525290718286600,15.00428662109375,0.7350199222564697,0.545877993106842,5.264849662780762
1780525290728357400,15.014357421875,-0.3447650372982025,-0.033518824726343155,5.6910176277160645
1780525290738458600,15.024458740234374,-0.47405192255973816,-0.1843535304069519,5.272032260894775
1780525290748529400,15.034529296875,0.1364694982767105,0.48602294921875,4.199429988861084
1780525290758661400,15.044661376953124,0.2537853717803955,0.6560112833976746,3.2800562381744385
1780525290778803000,15.064802978515624,0.12928688526153564,1.7884687185287476,2.3295583724975586
1780525290788904200,15.074904296875,-0.7158663272857666,1.4508862495422363,2.7916390895843506
1780525290798975000,15.08497509765625,-1.8938134908676147,0.5578489899635315,3.19865345954895
1780525290839288600,15.12528857421875,-0.18914192914962769,0.727837324142456,0.6392518281936646
1780525290849359600,15.135359619140624,-0.40462008118629456,0.35673606395721436,-0.033518824726343155
1780525290869501200,15.155501220703124,-0.7924807667732239,0.31603461503982544,-1.0749965906143188
1780525290879572000,15.165572021484374,-0.2298433631658554,0.12928688526153564,-1.3934253454208374
1780525290919855000,15.205855224609374,0.3423708379268646,-0.272938996553421,-3.1316158771514893
1780525290929926000,15.21592578125,0.12210428714752197,-0.40701428055763245,-3.3901896476745605
1780525290939996700,15.22599658203125,0.2801215946674347,-0.2106897532939911,-3.5170822143554688
1780525290950067500,15.2360673828125,0.5674257874488831,0.3447650372982025,-3.337517261505127
1780525290960138200,15.24613818359375,0.6823474764823914,0.15801730751991272,-2.851494312286377
1780525290970239700,15.25623974609375,0.4381389021873474,0.05027823522686958,-2.252943754196167
1780525290990442200,15.276442138671875,-0.1867477297782898,-1.1659762859344482,-1.7908629179000854
1780525291000513000,15.286512939453125,-0.11013327538967133,-1.8579005002975464,-1.941697597503662
1780525291010614300,15.2966142578125,0.363918662071228,-1.7549498081207275,-2.5522189140319824
1780525291020654600,15.306654541015625,0.9864110946655273,-1.7142484188079834,-2.9520506858825684
1780525291030756000,15.316756103515624,1.278503656387329,-1.2689268589019775,-3.3039982318878174
1780525291040827000,15.326826904296874,1.2449848651885986,-1.0079588890075684,-3.3710360527038574
1780525291050897700,15.336897705078124,0.9050082564353943,-0.6272808313369751,-3.531447410583496
1780525291060968400,15.346968505859374,0.3711012601852417,-0.2944868206977844,-3.5482068061828613
1780525291081171000,15.3671708984375,-0.18914192914962769,0.5817909836769104,-2.8802247047424316
1780525291091241700,15.37724169921875,0.22744916379451752,0.8906430602073669,-1.5729905366897583
1780525291151727600,15.4377275390625,0.4213795065879822,-0.9409212470054626,-3.292027235031128
1780525291161768000,15.447767822265625,0.40222588181495667,0.2059013396501541,-4.278438568115234
1780525291222223400,15.508223388671874,0.6991068720817566,1.170764684677124,-1.1037269830703735
1780525291232324600,15.51832470703125,0.23702596127986908,0.8810662031173706,-1.4987702369689941
1780525291242395400,15.5283955078125,0.17717093229293823,0.9720458984375,-1.7262194156646729
1780525291252435700,15.538435791015624,0.29209262132644653,1.3958195447921753,-1.9273324012756348
1780525291262537000,15.548536865234375,0.7230489253997803,1.766920804977417,-2.1811177730560303
1780525291272607700,15.558607666015625,0,2.0877439975738525,-2.250549554824829
1780525291282709000,15.568708984375,-1.0845733880996704,2.1045033931732178,-2.073378562927246
1780525291292749300,15.578749267578125,-1.6424223184585571,2.027888774871826,-1.7860745191574097
1780525291302850800,15.588850830078124,-1.1348515748977661,1.5634137392044067,-1.3718775510787964
1780525291323053300,15.60905322265625,0.5674257874488831,0.304063618183136,-0.3208230137825012
1780525291333093600,15.61909375,1.2330138683319092,0.17238251864910126,-0.10055647045373917
1780525291343195000,15.62919482421875,1.4460978507995605,0.19393034279346466,-0.06224924325942993
1780525291353265700,15.639265625,1.9273324012756348,0.9265560507774353,0.07661445438861847
1780525291363367200,15.6493671875,2.1332337856292725,1.0558429956436157,0.7972691655158997
1780525291373438000,15.65943798828125,1.3527239561080933,-0.06224924325942993,2.0901381969451904
1780525291383539200,15.669539306640624,-0.38307225704193115,-1.9943699836730957,3.406949043273926
1780525291393640400,15.679640380859375,-1.4867992401123047,-3.6798880100250244,3.7014358043670654
1780525291403711200,15.689711181640625,-1.4077905416488647,-4.326322555541992,3.155557870864868
1780525291433923600,15.719923583984375,0.6105214357376099,-0.4620809257030487,1.9536685943603516
1780525291444055600,15.7300556640625,-0.45250412821769714,-0.12210428714752197,2.999934673309326
1780525291454126300,15.740126220703125,-1.1659762859344482,-0.23702596127986908,3.2609026432037354
1780525291464197000,15.750197021484375,-1.678335428237915,-0.40940847992897034,2.6240451335906982
1780525291474329000,15.7603291015625,-1.7908629179000854,-0.4596867263317108,1.5945383310317993
1780525291494501000,15.780501220703124,-1.460463047027588,-0.12449848651885986,0.6248866319656372
1780525291534876000,15.8208759765625,-0.2777273952960968,1.6160861253738403,0.9696516990661621
1780525291555078400,15.841078369140625,-0.5267243981361389,1.53707754611969,1.6041151285171509
1780525291565180000,15.851179931640624,-0.5554547905921936,1.6831238269805908,1.9560627937316895
1780525291575281200,15.86128125,-0.7398083209991455,1.316810965538025,2.5330653190612793
1780525291585382400,15.87138232421875,-0.9433154463768005,0.9720458984375,2.978386878967285
1780525291605585200,15.891585205078124,-0.5889736413955688,0.871489405632019,3.5027170181274414
1780525291676294400,15.96229443359375,-1.8986018896102905,-0.07422025501728058,5.157110691070557
1780525291716730000,16.002730224609376,-0.8906430602073669,-0.9433154463768005,5.1331682205200195
1780525291726831400,16.012831298828125,-1.0223240852355957,-1.039083480834961,4.845864295959473
1780525291767267300,16.053267333984376,0.047884032130241394,-1.922544002532959,3.9049429893493652
1780525291787500300,16.073500244140625,0.45010992884635925,-1.7932571172714233,4.273650169372559
1780525291817834800,16.103834716796875,1.534683346748352,-1.2689268589019775,4.165910720825195
1780525291827936300,16.113936279296876,1.7094600200653076,-1.0965443849563599,4.230554580688477
1780525291838037500,16.12403759765625,1.8986018896102905,-1.292868971824646,4.606443881988525
1780525291848138800,16.134138671875,1.9393033981323242,-1.9488801956176758,4.994304656982422
1780525291868402400,16.15440234375,1.2186486721038818,-1.4101848602294922,5.4659624099731445
1780525291878503700,16.164503662109375,-0.3064578175544739,-0.689530074596405,4.659116744995117
1780525291888605200,16.174605224609376,-0.5650315880775452,-0.26575639843940735,3.3470940589904785
1780525291898706400,16.18470654296875,0.014365210197865963,-0.21547815203666687,2.387019157409668
1780525291908807700,16.1948076171875,1.0630255937576294,-0.6033388376235962,2.5977089405059814
1780525291918939600,16.204939697265626,1.9105730056762695,-0.12449848651885986,3.4955344200134277
1780525291929041000,16.215041015625,1.742978811264038,0.2753331959247589,4.702212333679199
1780525291939142100,16.22514208984375,1.0295066833496094,0.05985504388809204,5.3582234382629395
1780525291949243600,16.23524365234375,0.0071826050989329815,-0.42377370595932007,5.549759387969971
1780525291979578000,16.265578125,-0.4141969084739685,-0.2777273952960968,5.475539207458496
1780525291989679400,16.275679443359376,-0.27054479718208313,-0.24899697303771973,5.719748020172119
1780525291999780600,16.285780517578125,-1.05105459690094,-1.314416766166687,5.884947776794434
1780525292009912600,16.29591259765625,-0.8331822156906128,-2.0470423698425293,4.941632270812988
1780525292040247000,16.3262470703125,1.946485996246338,-1.1683704853057861,3.5266590118408203
1780525292050348300,16.336348388671876,1.7118542194366455,-0.8427590131759644,3.971980571746826
1780525292060449500,16.346449462890625,1.3072341680526733,-0.5554547905921936,4.709394931793213
1780525292090814500,16.376814453125,-0.2059013396501541,1.216254472732544,4.836287498474121
1780525292161554400,16.447554443359376,-0.4118026793003082,0.6607996821403503,3.581725835800171
1780525292171655700,16.45765576171875,-0.8571242094039917,1.2018892765045166,2.849100112915039
1780525292181787400,16.467787353515625,-1.1492167711257935,1.4748282432556152,2.2002713680267334
1780525292191889000,16.477888916015626,-1.6615760326385498,1.2234370708465576,1.946485996246338
1780525292202020600,16.4880205078125,-1.8339585065841675,0.9552865028381348,1.5753847360610962
1780525292212091400,16.49809130859375,-1.9081788063049316,0.6440402865409851,1.213860273361206
1780525292222223400,16.508223388671876,-1.170764684677124,0.790086567401886,0.7733271718025208
1780525292232324600,16.51832470703125,-0.524330198764801,0.4836287498474121,0.6057330369949341
1780525292242456300,16.528456298828125,-0.24181437492370605,0.44532153010368347,0.5339069962501526
1780525292252527000,16.538527099609375,-0.07661445438861847,0.6057330369949341,0.12689268589019775
1780525292262628600,16.548628662109376,-0.2322375625371933,0.6655880808830261,-0.07182604819536209
1780525292272760300,16.55876025390625,0.05027823522686958,0.4357447028160095,-0.23942017555236816
1780525292282861600,16.568861572265625,0.28969839215278625,-0.42616790533065796,-0.2825157940387726
1780525292303094800,16.5890947265625,1.2761094570159912,-0.35434186458587646,-1.5849615335464478
1780525292313226800,16.599226806640626,1.5825673341751099,-0.24420857429504395,-2.161964178085327
1780525292323328000,16.609327880859375,1.4772224426269531,-0.26096799969673157,-2.382230758666992
1780525292333429200,16.61942919921875,1.6663644313812256,-0.05027823522686958,-2.827552318572998
1780525292343530800,16.62953076171875,1.2689268589019775,0.090979665517807,-3.098097085952759
1780525292363763700,16.649763671875,0.5315127968788147,-0.1604115068912506,-2.983175277709961
1780525292414270500,16.7002705078125,0.37828385829925537,-1.5897499322891235,-1.8195933103561401
1780525292444574500,16.730574462890626,0.7829039692878723,-1.599326729774475,-2.913743495941162
1780525292535242000,16.821241943359375,-1.1851298809051514,-1.6208745241165161,-2.363077163696289
1780525292585687600,16.8716875,0.363918662071228,1.9321208000183105,-1.9297266006469727
1780525292595758300,16.88175830078125,0.19393034279346466,1.460463047027588,-0.6775590777397156
1780525292605859800,16.89185986328125,0.3423708379268646,1.4101848602294922,-0.3519476354122162
1780525292626001400,16.91200146484375,-0.48602294921875,0.7757213711738586,-1.5298948287963867
1780525292676355300,16.962355224609375,-0.019153613597154617,2.346317768096924,-2.7269957065582275
1780525292686456600,16.97245654296875,-0.33279404044151306,2.4875755310058594,-1.7262194156646729
1780525292706628900,16.99262890625,0.8427590131759644,1.256955862045288,-0.09576806426048279
1780525292716699600,17.00269970703125,1.5921441316604614,0.2082955539226532,0.021547814831137657
1780525292757013200,17.04301318359375,0.5291185975074768,0.7829039692878723,1.0007762908935547
1780525292827570000,17.11356982421875,-0.1412578970193863,-1.0223240852355957,0.9385270476341248
1780525292837640700,17.123640625,-0.9169792532920837,-0.19393034279346466,2.1547815799713135
1780525292847711500,17.13371142578125,-1.5203180313110352,0.3471592366695404,2.406172752380371
1780525292857782300,17.1437822265625,-1.9919757843017578,0.05027823522686958,2.054224967956543
1780525292898065700,17.184065673828126,-0.19393034279346466,0.19871874153614044,0.6248866319656372
1780525292908136400,17.194136474609376,0.2801215946674347,1.0247182846069336,0.6512228846549988
1780525292918207200,17.204207275390626,0.2322375625371933,1.6759412288665771,0.993593692779541
1780525292938379300,17.224379150390625,-1.192312479019165,1.5682021379470825,2.094926595687866
1780525292948450000,17.234449951171875,-1.3742717504501343,1.5107412338256836,2.3582887649536133
1780525293009027600,17.295027587890626,-0.4884171485900879,0.10055647045373917,4.0533833503723145
1780525293029230000,17.31522998046875,-1.886630892753601,0.2059013396501541,4.838681697845459
1780525293099847700,17.38584765625,-0.849941611289978,-1.1803414821624756,3.9384617805480957
1780525293180444700,17.466444580078125,1.0271124839782715,-1.920149803161621,3.536235809326172
1780525293220697300,17.506697265625,0.9983820915222168,-0.8762778043746948,3.1890766620635986
1780525293311273500,17.5972734375,-1.2617442607879639,1.3694833517074585,2.497152328491211
1780525293341516500,17.6275166015625,1.6735470294952393,0.790086567401886,3.8307228088378906
1780525293351617800,17.63761767578125,1.1013327836990356,0.4572925269603729,4.738125324249268
1780525293361688600,17.6476884765625,0.2944868206977844,-0.6200982332229614,4.496310710906982
1780525293371759400,17.65775927734375,-0.3016694188117981,-1.8531121015548706,3.8786067962646484
1780525293381860600,17.667860595703125,0.31842881441116333,-2.279279947280884,3.428496837615967
1780525293391931400,17.677931396484375,0.5506663918495178,-1.766920804977417,3.3279404640197754
1780525293402002400,17.68800244140625,1.158793568611145,-1.1109095811843872,3.557783842086792
1780525293412073200,17.6980732421875,1.139639973640442,-0.8355764150619507,3.9408559799194336
1780525293422174500,17.708174560546876,0.5315127968788147,-1.4293384552001953,3.995922565460205
1780525293432275700,17.718275634765625,-0.1388636976480484,-2.207453966140747,3.442862033843994
1780525293442377000,17.728376953125,0.26815059781074524,-2.806004285812378,2.4181437492370605
1780525293452417300,17.738417236328125,1.0630255937576294,-2.1523873805999756,1.7860745191574097
1780525293462518800,17.748518798828126,1.290474772453308,-1.2090718746185303,1.8148049116134644
1780525293472589600,17.758589599609376,1.1180921792984009,-0.08379705995321274,2.4013843536376953
1780525293482690800,17.76869091796875,0.8020575642585754,0.9552865028381348,3.184288263320923
1780525293502802000,17.788802001953126,-1.1252747774124146,0.689530074596405,3.9863457679748535
1780525293512872700,17.798872802734376,-0.8834604024887085,0.9576807022094727,3.335123062133789
1780525293522974000,17.808973876953125,0.2968810200691223,1.2186486721038818,2.5546131134033203
1780525293533075200,17.8190751953125,1.0797849893569946,0.7757213711738586,2.3726539611816406
1780525293543146200,17.829146240234376,0.8236053586006165,-0.3974374830722809,2.6575639247894287
1780525293553186300,17.839186279296875,0.1867477297782898,-1.0749965906143188,2.8993782997131348
1780525293563287800,17.849287841796876,-0.3232172429561615,-1.2641384601593018,2.892195701599121
1780525293583459800,17.8694599609375,-1.1013327836990356,0.2777273952960968,1.8626888990402222
1780525293593561000,17.87956103515625,-1.3742717504501343,0.8331822156906128,1.216254472732544
1780525293603631900,17.8896318359375,-1.3048399686813354,1.070208191871643,0.7876923680305481
1780525293613702700,17.89970263671875,-1.292868971824646,0.6584054827690125,0.6033388376235962
1780525293623804200,17.90980419921875,-1.070208191871643,0.17956513166427612,0.9409212470054626
1780525293643945700,17.92994580078125,0.18914192914962769,0.0454898327589035,0.40701428055763245
1780525293654016500,17.9400166015625,0.3232172429561615,-0.08379705995321274,-0.1412578970193863
1780525293674219000,17.960218994140625,0.5722141861915588,0.09576806426048279,-0.9911994934082031
1780525293684320500,17.970320556640626,0.49559974670410156,0.0454898327589035,-1.2258312702178955
1780525293694421800,17.980421875,0.7805097699165344,-0.2968810200691223,-1.4700398445129395
1780525293704462000,17.990462158203126,0.8954314589500427,-0.2346317619085312,-1.843535304069519
1780525293714563300,18.000563232421875,1.0247182846069336,0.009576806798577309,-2.2912509441375732
1780525293724634000,18.010634033203125,1.0271124839782715,0.10055647045373917,-2.499546527862549
1780525293734705000,18.020704833984375,0.7709329724311829,0.21787235140800476,-2.6575639247894287
1780525293744775700,18.030775634765625,0.6703764796257019,0.09576806426048279,-2.7293899059295654
1780525293754846500,18.040846435546875,0.4596867263317108,-0.272938996553421,-2.7054479122161865
1780525293774957600,18.06095751953125,0.6871358752250671,-0.6799532771110535,-2.477998733520508
1780525293785028400,18.0710283203125,0.4381389021873474,-0.8858546018600464,-2.233790159225464
1780525293795099100,18.08109912109375,0.5315127968788147,-0.751779317855835,-2.3295583724975586
1780525293805200600,18.09120068359375,0.3663128614425659,-1.1013327836990356,-2.078166961669922
1780525293885797400,18.17179736328125,-0.8858546018600464,0.5123591423034668,-1.4293384552001953
1780525293976404200,18.262404296875,-0.8786720037460327,2.0685901641845703,-2.715024709701538
1780525293996545800,18.2825458984375,0.6488286852836609,0.790086567401886,-0.8547300100326538
1780525294077142800,18.363142822265626,-0.7613561153411865,1.436521053314209,-1.4867992401123047
1780525294137628400,18.42362841796875,2.9065608978271484,-0.7398083209991455,-0.2106897532939911
1780525294167871500,18.45387158203125,0.5410895943641663,0.751779317855835,3.0334534645080566
1780525294177972700,18.46397265625,-1.2641384601593018,-0.5530605912208557,3.9049429893493652
1780525294188074000,18.474073974609375,-2.1811177730560303,-2.008735179901123,3.7493197917938232
1780525294198175500,18.484175537109376,-1.7046716213226318,-2.9257144927978516,2.719813108444214
1780525294218347500,18.504347412109375,0.06224924325942993,-2.3989901542663574,0.31603461503982544
1780525294228418300,18.514418212890625,0.7852981686592102,-1.3407529592514038,0.14844051003456116
1780525294238519600,18.52451953125,0.8020575642585754,-0.26815059781074524,0.8619126081466675
1780525294248590300,18.53459033203125,0.026336219161748886,0.5434837937355042,1.7501614093780518
1780525294258661400,18.544661376953126,-0.6344634294509888,0.9026140570640564,2.207453966140747
1780525294288904200,18.574904296875,-1.0845733880996704,0.4812345504760742,0.47644615173339844
1780525294299005400,18.58500537109375,-1.3551181554794312,-0.33279404044151306,0.5147533416748047
1780525294309106700,18.595106689453125,-1.3263877630233765,-0.37828385829925537,0.545877993106842
1780525294369653800,18.65565380859375,-0.6607996821403503,1.4532804489135742,3.28963303565979
1780525294420190700,18.706190673828125,-1.8986018896102905,0.9959878921508789,3.794809579849243
1780525294430292200,18.716292236328126,-1.8291701078414917,0.9792284965515137,4.1180267333984375
1780525294440393500,18.7263935546875,-1.5658079385757446,0.7110779285430908,4.58968448638916
1780525294490869500,18.776869384765625,-0.5530605912208557,-1.1779472827911377,5.2672438621521
1780525294501001200,18.787001220703125,-0.5363011956214905,-0.8571242094039917,5.284003257751465
1780525294511102700,18.797102783203126,-0.49799394607543945,-0.5195417404174805,5.324704647064209
1780525294541437200,18.827437255859376,-0.06703764945268631,-0.47405192255973816,5.109226226806641
1780525294581873000,18.867872802734375,1.0438719987869263,-1.987187385559082,4.170699596405029
1780525294591974100,18.87797412109375,1.1348515748977661,-1.946485996246338,3.9456443786621094
1780525294602075600,18.88807568359375,1.072602391242981,-1.8076223134994507,3.754108190536499
1780525294612177000,18.898177001953126,0.828393816947937,-1.6304513216018677,3.622427225112915
1780525294622278100,18.908278076171875,0.8834604024887085,-1.0103530883789062,3.4548330307006836
1780525294632379400,18.91837939453125,0.6823474764823914,-0.5147533416748047,3.3279404640197754
1780525294642481000,18.92848095703125,1.0462661981582642,-0.8882488012313843,3.581725835800171
1780525294652551700,18.9385517578125,1.3407529592514038,-2.1475989818573,4.692635536193848
1780525294662683400,18.948683349609375,2.3989901542663574,-2.403778553009033,5.985504150390625
1780525294672815400,18.9588154296875,1.8387469053268433,-1.647210717201233,7.094019412994385
1780525294682916600,18.96891650390625,-0.5626373887062073,-0.9864110946655273,6.988674640655518
1780525294713251000,18.9992509765625,-0.5841852426528931,0.5363011956214905,3.2321722507476807
1780525294723383000,19.009383056640626,0.9074024558067322,0.9983820915222168,3.936067581176758
1780525294733514800,19.0195146484375,1.3982137441635132,1.2473790645599365,5.509057998657227
1780525294743616000,19.029615966796875,0.811634361743927,0.5027823448181152,6.5912370681762695
1780525294753717500,19.039717529296876,-0.21308395266532898,-0.9672574996948242,6.256049156188965
1780525294763818800,19.04981884765625,-0.6488286852836609,-2.9065608978271484,5.485116004943848
1780525294773950500,19.059950439453125,-0.13407529890537262,-3.445256233215332,4.8482584953308105
1780525294784052000,19.070052001953126,0.569819986820221,-2.477998733520508,4.335899353027344
1780525294804315600,19.090315673828126,1.0007762908935547,0.004788403399288654,4.8267107009887695
1780525294834650000,19.120650146484376,-0.38307225704193115,-1.9847931861877441,3.6080620288848877
1780525294844751400,19.13075146484375,0.5722141861915588,-1.941697597503662,2.6671407222747803
1780525294854883000,19.140883056640625,1.5825673341751099,-1.0582371950149536,2.5689783096313477
1780525294864984600,19.150984619140626,1.4245500564575195,-0.22266076505184174,3.4596214294433594
1780525294925684000,19.21168408203125,-0.040701430290937424,1.3287819623947144,4.838681697845459
1780525294935785200,19.22178515625,-0.3256114423274994,0.5913678407669067,5.114014625549316
1780525294945886700,19.23188671875,-0.3232172429561615,0.19393034279346466,5.094861030578613
1780525294956018400,19.242018310546875,-0.14365209639072418,0.2585737705230713,4.563348293304443
1780525294966119700,19.25211962890625,-0.18914192914962769,0.7781155705451965,3.5745432376861572
1780525294976221200,19.26222119140625,-0.47165772318840027,1.259350061416626,2.8155810832977295
1780525294986322400,19.272322509765626,-0.8906430602073669,1.3527239561080933,2.406172752380371
1780525294996423700,19.282423583984375,-1.314416766166687,1.2425906658172607,2.248155355453491
1780525295016657000,19.302656982421876,-1.091755986213684,0.38067805767059326,1.8914192914962769
1780525295026788600,19.31278857421875,-0.5746083855628967,0.10773907601833344,1.3910311460494995
1780525295036890000,19.32289013671875,0.06464344263076782,0.33758243918418884,0.730231523513794
1780525295047021800,19.333021728515625,0.4692635238170624,0.20111294090747833,-0.26096799969673157
1780525295057123000,19.343123046875,0.3280056416988373,-0.07900865375995636,-1.0582371950149536
1780525295067224600,19.353224609375,0.33039984107017517,0.0071826050989329815,-1.8770540952682495
1780525295077356300,19.363356201171875,0.22026655077934265,-0.038307227194309235,-2.31758713722229
1780525295087457500,19.37345751953125,0.07182604819536209,0.07182604819536209,-2.4851813316345215
1780525295127924000,19.413924072265626,0.20350714027881622,-0.13407529890537262,-2.628833532333374
1780525295208642800,19.494642822265625,0.23702596127986908,-1.403002142906189,-2.140416383743286
1780525295228815000,19.514815185546876,0.7972691655158997,-0.7781155705451965,-3.1483752727508545
1780525295238916400,19.524916259765625,0.5267243981361389,-0.43095630407333374,-3.2561142444610596
1780525295248956700,19.534956787109376,0.3687070608139038,0.06703764945268631,-3.1651346683502197
1780525295259058000,19.545057861328125,0.10534487664699554,0.5578489899635315,-2.188300371170044
1780525295269159400,19.555159423828126,0.043095629662275314,0.545877993106842,-0.48602294921875
1780525295279260700,19.5652607421875,0.07422025501728058,-0.26815059781074524,1.2976573705673218
1780525295289301000,19.575301025390626,0,-0.751779317855835,2.0207061767578125
1780525295299402200,19.58540234375,0.26575639843940735,-1.278503656387329,1.280897855758667
1780525295309503500,19.59550341796875,-0.26096799969673157,-1.9919757843017578,-0.586579442024231
1780525295339777000,19.625777099609376,-0.30885201692581177,-0.4812345504760742,-4.345476150512695
1780525295349847800,19.635847900390626,0.009576806798577309,0.9289502501487732,-3.773261785507202
1780525295369959000,19.655958984375,0.40701428055763245,1.7693150043487549,-1.4484920501708984
1780525295380029700,19.66602978515625,0.6919242739677429,1.7046716213226318,-0.706289529800415
1780525295390070000,19.676070068359376,0.8547300100326538,1.625662922859192,-0.7972691655158997
1780525295430383600,19.716383544921875,0.7924807667732239,0.8954314589500427,-2.499546527862549
1780525295440454400,19.726454345703125,0.1867477297782898,0.9361328482627869,-2.8610711097717285
1780525295500970800,19.786970703125,2.118868589401245,-0.22744916379451752,0.090979665517807
1780525295531183000,19.81718310546875,0.2968810200691223,1.5394717454910278,0.42377370595932007
1780525295541284600,19.82728466796875,-0.28730419278144836,0.6512228846549988,1.745373010635376
1780525295551355400,19.83735546875,-0.5434837937355042,-0.8762778043746948,2.9879636764526367
1780525295561426200,19.84742626953125,-0.44532153010368347,-2.473210334777832,3.778050184249878
1780525295571527400,19.85752734375,-0.07661445438861847,-3.512293815612793,3.5960910320281982
1780525295581598200,19.86759814453125,0.011971008032560349,-3.93367338180542,2.9975404739379883
1780525295591669000,19.8776689453125,0.06464344263076782,-3.222595453262329,1.8818424940109253
1780525295601739800,19.88773974609375,0.4118026793003082,-1.6735470294952393,0.9648633003234863
1780525295611841300,19.89784130859375,0.5602431893348694,-0.23942017555236816,0.8044517636299133
1780525295631982800,19.91798291015625,-0.14365209639072418,0.9552865028381348,2.10210919380188
1780525295642053600,19.9280537109375,-0.21787235140800476,0.9074024558067322,2.3247697353363037
1780525295652124400,19.93812451171875,-0.6823474764823914,0.13168109953403473,2.1763293743133545
1780525295662225700,19.9482255859375,-0.4812345504760742,-0.13168109953403473,1.5442601442337036
1780525295672327000,19.958326904296875,-0.26815059781074524,-0.12689268589019775,0.8882488012313843
1780525295682397700,19.968397705078125,-0.3232172429561615,-0.1364694982767105,0.8523358106613159
1780525295692468700,19.97846875,-0.9528923034667969,-0.2968810200691223,1.0438719987869263
1780525295702539500,19.98853955078125,-1.2761094570159912,0.1867477297782898,1.2665326595306396
1780525295712610300,19.9986103515625,-1.3000515699386597,0.6607996821403503,1.4676456451416016
1780525295722681000,20.00868115234375,-1.235408067703247,0.8451532125473022,1.766920804977417
1780525295783167000,20.0691669921875,-1.6280571222305298,0.5099649429321289,2.695871114730835
1780525295793268200,20.079268310546876,-1.5897499322891235,0.29209262132644653,3.1651346683502197
1780525295803369500,20.089369384765625,-1.6400281190872192,0.27054479718208313,3.7397429943084717
1780525295813440300,20.099440185546875,-1.2856862545013428,0.5099649429321289,4.314351558685303
1780525295823541500,20.10954150390625,-1.1540051698684692,0.35913026332855225,5.006275653839111
1780525295833612500,20.119612548828126,-1.1180921792984009,0.15083470940589905,5.530605792999268
1780525295843652600,20.129652587890625,-1.3503297567367554,-0.15083470940589905,5.676652431488037
1780525295853723400,20.139723388671875,-1.2617442607879639,-0.4644751250743866,5.413290023803711
1780525295914239700,20.20023974609375,-0.20350714027881622,-0.3711012601852417,3.6320040225982666
1780525295924310800,20.210310791015626,-0.1364694982767105,-0.5219359993934631,3.845088005065918
1780525295934350800,20.220350830078125,0.002394201699644327,-1.137245774269104,4.098873138427734
1780525295944421600,20.230421630859375,0.27054479718208313,-1.7118542194366455,4.2760443687438965
1780525295954523100,20.240523193359376,0.47405192255973816,-2.097320795059204,4.572925090789795
1780525295974725600,20.2607255859375,0.4644751250743866,-1.8267759084701538,4.378994941711426
1780525295984827100,20.2708271484375,0.4908113479614258,-1.4532804489135742,3.9911341667175293
1780525295994898000,20.28089794921875,0.5674257874488831,-1.2042834758758545,3.732560396194458
1780525296004968700,20.29096875,0.7038952708244324,-0.7326257228851318,3.2345664501190186
1780525296025110300,20.3111103515625,0.727837324142456,0.24420857429504395,2.3056161403656006
1780525296035181000,20.32118115234375,0.706289529800415,0.08379705995321274,2.121262788772583
1780525296045282300,20.3312822265625,1.158793568611145,-0.7374141216278076,2.5306711196899414
1780525296055322600,20.341322509765625,1.4867992401123047,-2.1739351749420166,4.113238334655762
1780525296095636200,20.38163623046875,-2.22660756111145,0.20350714027881622,4.5154643058776855
1780525296105707300,20.391707275390626,-1.680729627609253,0.811634361743927,2.607285737991333
1780525296115778000,20.401778076171876,-0.24660277366638184,0.9433154463768005,1.8626888990402222
1780525296125879300,20.41187939453125,1.6112977266311646,0.545877993106842,2.693476915359497
1780525296135980500,20.42198046875,2.6240451335906982,0.9361328482627869,4.146757125854492
1780525296146051300,20.43205126953125,2.0039467811584473,0.3471592366695404,5.195417881011963
1780525296156152800,20.44215283203125,0.35913026332855225,-0.7493851184844971,5.195417881011963
1780525296166254000,20.452254150390626,-0.304063618183136,-1.8938134908676147,4.568136692047119
1780525296176324900,20.462324951171876,-0.33997663855552673,-2.4636335372924805,4.048594951629639
1780525296186365200,20.472365234375,-0.24181437492370605,-2.0638017654418945,3.643975019454956
1780525296196466400,20.482466552734376,0.36152446269989014,-1.845929503440857,3.5936968326568604
1780525296206537200,20.492537109375,0.524330198764801,-1.580173134803772,3.7900211811065674
1780525296216638500,20.502638427734375,0.24420857429504395,-1.8626888990402222,4.048594951629639
1780525296226740000,20.512739990234376,-0.1364694982767105,-2.7461493015289307,3.883395195007324
1780525296317499100,20.6034990234375,-0.7852981686592102,0.49320554733276367,3.3518824577331543
1780525296367822600,20.653822509765625,-1.4508862495422363,-0.15801730751991272,3.2321722507476807
1780525296377923800,20.663923828125,-1.4293384552001953,0.26815059781074524,2.497152328491211
1780525296387994600,20.67399462890625,-1.5298948287963867,0.5410895943641663,1.5705963373184204
1780525296418268200,20.70426806640625,-0.8523358106613159,0.40701428055763245,0.0071826050989329815
1780525296428339000,20.7143388671875,-0.5386953949928284,0.10534487664699554,-0.023942016065120697
1780525296438440200,20.724440185546875,-0.3926490843296051,0.07422025501728058,-0.0071826050989329815
1780525296448480500,20.73448046875,0.10295066982507706,0.35673606395721436,-0.1364694982767105
1780525296458551300,20.74455126953125,0.4644751250743866,0.07422025501728058,-0.5195417404174805
1780525296468652800,20.75465283203125,0.5482721924781799,-0.15322890877723694,-0.9672574996948242
1780525296478754000,20.764754150390626,0.5602431893348694,-0.10773907601833344,-1.6136919260025024
1780525296488794400,20.77479443359375,0.751779317855835,0.1843535304069519,-2.2912509441375732
1780525296498895600,20.7848955078125,1.091755986213684,0.15083470940589905,-2.5785553455352783
1780525296508996900,20.794996826171875,1.5059528350830078,0.043095629662275314,-2.7054479122161865
1780525296529169200,20.815169189453126,1.4221558570861816,0.4644751250743866,-3.1507694721221924
1780525296539270400,20.8252705078125,1.113303780555725,0.22266076505184174,-3.265691041946411
1780525296549341200,20.835341064453125,0.667982280254364,-0.24420857429504395,-3.466804027557373
1780525296559412000,20.845411865234375,0.26575639843940735,-0.6440402865409851,-3.1100680828094482
1780525296569452300,20.855452392578126,0.17477671802043915,-0.9528923034667969,-2.920926094055176
1780525296579523000,20.865523193359376,0.06464344263076782,-0.730231523513794,-2.6384103298187256
1780525296589624300,20.875624267578125,0.16759411990642548,-1.0630255937576294,-2.3989901542663574
1780525296609766000,20.895765869140625,0.40940847992897034,-1.2282254695892334,-2.341529369354248
1780525296619836700,20.905836669921875,0.4836287498474121,-1.53707754611969,-2.559401512145996
1780525296629938200,20.915938232421876,0.5722141861915588,-1.4724340438842773,-2.9903578758239746
1780525296640009000,20.926009033203126,0.4692635238170624,-1.5490485429763794,-3.287238836288452
1780525296660181000,20.946180908203125,0.026336219161748886,0.10773907601833344,-2.346317768096924
1780525296690393300,20.976393310546875,-0.7206547260284424,-0.6224924325942993,2.233790159225464
1780525296710596000,20.99659619140625,-0.6727706789970398,-1.821987509727478,-0.8738836050033569
1780525296720697300,21.006697265625,-0.17477671802043915,-1.721431016921997,-3.064578056335449
1780525296730798600,21.016798583984375,0.38067805767059326,-0.9265560507774353,-4.836287498474121
1780525296761072000,21.047072021484375,0.7182605266571045,2.363077163696289,-3.0095114707946777
1780525296791284500,21.077284423828125,1.6424223184585571,1.8076223134994507,-1.1540051698684692
1780525296811426000,21.097426025390625,-0.05746084079146385,1.1659762859344482,-1.742978811264038
1780525296841699600,21.127699462890625,-0.40462008118629456,0.3734954595565796,-2.9688100814819336
1780525296851800800,21.13780078125,-1.3742717504501343,1.0414776802062988,-3.0789434909820557
1780525296902216000,21.1882158203125,1.7764976024627686,-0.7445967197418213,0.6823474764823914
1780525296912286700,21.19828662109375,1.7741034030914307,0.028730420395731926,-0.08619125932455063
1780525296922327000,21.2083271484375,0.9696516990661621,0.5171475410461426,-0.15801730751991272
1780525296952569900,21.23856982421875,-1.0534487962722778,-0.9744400978088379,2.7054479122161865
1780525296962640600,21.248640625,-1.2832920551300049,-2.9735984802246094,3.2178070545196533
1780525296972742100,21.2587421875,-0.9313444495201111,-3.6296098232269287,3.095702886581421
1780525296982813000,21.26881298828125,-0.3423708379268646,-3.2082302570343018,2.499546527862549
1780525296992914200,21.2789140625,0.038307227194309235,-2.3127987384796143,1.7525556087493896
1780525297002985000,21.28898486328125,-0.24420857429504395,-1.4197616577148438,1.4269442558288574
1780525297013086200,21.299086181640625,0.05746084079146385,-0.08140286058187485,1.3718775510787964
1780525297023187700,21.309187744140626,0.706289529800415,0.9720458984375,1.6663644313812256
1780525297033289000,21.3192890625,0.6751648783683777,0.8212111592292786,2.3319525718688965
1780525297043359700,21.32935986328125,0.07900865375995636,0.2801215946674347,2.5977089405059814
1780525297063501300,21.349501220703125,-0.3280056416988373,0.1867477297782898,1.2210428714752197
1780525297114007800,21.4000078125,-0.5482721924781799,1.6280571222305298,1.9776105880737305
1780525297144311800,21.430311767578125,-0.40222588181495667,1.580173134803772,3.1651346683502197
1780525297154382600,21.440382568359375,-0.5626373887062073,1.0965443849563599,3.134010076522827
1780525297164484000,21.450484130859376,-1.259350061416626,0.3926490843296051,3.1483752727508545
1780525297174585300,21.46058544921875,-1.7477672100067139,0.4429273009300232,3.002328872680664
1780525297184625700,21.470625732421876,-1.6927006244659424,0.8140285611152649,2.7293899059295654
1780525297194757400,21.48075732421875,-1.3096283674240112,1.1540051698684692,2.9257144927978516
1780525297204859000,21.49085888671875,-1.3934253454208374,0.8762778043746948,3.555389642715454
1780525297214960000,21.500960205078126,-1.1085153818130493,0.4908113479614258,4.8267107009887695
1780525297225061400,21.511061279296875,-0.9241618514060974,-0.043095629662275314,5.456385612487793
1780525297285730300,21.571730224609375,-1.139639973640442,-0.8619126081466675,3.44765043258667
1780525297305933000,21.59193310546875,-0.4357447028160095,-0.9241618514060974,3.2130186557769775
1780525297356470000,21.642469970703125,0.6009446382522583,-1.8698714971542358,3.622427225112915
1780525297366571500,21.652571533203126,0.6057330369949341,-1.9752163887023926,3.6750996112823486
1780525297447382000,21.733382080078126,1.4053963422775269,-2.695871114730835,3.9671921730041504
1780525297457513700,21.743513671875,2.432508945465088,-3.066972494125366,5.475539207458496
1780525297467615200,21.753615234375,1.6855180263519287,-1.9129672050476074,6.694188117980957
1780525297477747000,21.763746826171875,-0.8954314589500427,-0.3519476354122162,6.428431510925293
1780525297487817700,21.773817626953125,-2.403778553009033,0.4429273009300232,4.314351558685303
1780525297497949700,21.78394970703125,-1.6424223184585571,1.048660397529602,2.3750481605529785
1780525297508051000,21.794051025390626,0.12210428714752197,0.730231523513794,1.5969325304031372
1780525297518152200,21.804152099609375,2.513911724090576,0.6488286852836609,2.6455929279327393
1780525297588892000,21.874891845703125,-0.2849099934101105,-1.9967641830444336,3.8115692138671875
1780525297598993400,21.884993408203126,0.5171475410461426,-0.5291185975074768,4.182670593261719
1780525297609094700,21.8950947265625,-0.5219359993934631,-0.35434186458587646,4.522646903991699
1780525297619196000,21.90519580078125,-1.3120225667953491,-1.1013327836990356,3.780444383621216
1780525297629328000,21.915327880859376,-0.35913026332855225,-1.6974890232086182,2.5522189140319824
1780525297639459600,21.92545947265625,1.2856862545013428,-2.0446481704711914,1.98958158493042
1780525297659692800,21.94569287109375,2.942473888397217,-0.26096799969673157,3.603273630142212
1780525297669824500,21.955824462890625,1.072602391242981,-0.07422025501728058,4.754884719848633
1780525297679926000,21.965926025390626,-0.8259995579719543,-0.6584054827690125,5.135562419891357
1780525297690027300,21.97602734375,-1.482010841369629,-0.7637503147125244,4.592078685760498
1780525297700128500,21.98612841796875,-0.5267243981361389,-0.26336219906806946,2.956839084625244
1780525297710229800,21.996229736328125,0.933738648891449,0.828393816947937,1.778891921043396
1780525297720331300,22.006331298828126,0.9313444495201111,1.3431471586227417,1.6519991159439087
1780525297730432500,22.0164326171875,0.17956513166427612,1.1516109704971313,2.432508945465088
1780525297740533800,22.02653369140625,-0.912190854549408,0.7757213711738586,3.4356794357299805
1780525297750635000,22.036635009765625,-1.7046716213226318,0.17477671802043915,3.5936968326568604
1780525297760736500,22.046736572265626,-1.2713210582733154,0.4884171485900879,2.964021682739258
1780525297770837800,22.056837646484375,-0.6392518281936646,0.8882488012313843,2.073378562927246
1780525297780969700,22.0669697265625,-0.21547815203666687,1.1492167711257935,1.3670891523361206
1780525297801172200,22.087172119140625,-0.9481038451194763,0.043095629662275314,0.730231523513794
1780525297871912000,22.157911865234375,-0.5793967843055725,0.20111294090747833,-2.7772738933563232
1780525297912317200,22.198317138671875,0.646434485912323,0.12210428714752197,-2.96162748336792
1780525297922418700,22.208418701171876,0.19153612852096558,-0.06224924325942993,-2.9544448852539062
1780525297993005800,22.279005859375,0.7565677165985107,-1.4915876388549805,-2.96162748336792
1780525298063623400,22.34962353515625,0.047884032130241394,0.19153612852096558,-0.031124621629714966
1780525298093835800,22.379835693359375,1.4700398445129395,-1.039083480834961,-0.2849099934101105
1780525298114007800,22.4000078125,0.21547815203666687,-1.137245774269104,-3.287238836288452
1780525298124078800,22.410078857421876,-0.21787235140800476,-0.31842881441116333,-4.07014274597168
1780525298164392400,22.450392333984375,0.33997663855552673,1.0295066833496094,-0.6272808313369751
1780525298214868500,22.500868408203125,0.933738648891449,1.8315643072128296,-1.8842366933822632
1780525298275446000,22.561446044921876,0.13168109953403473,-0.040701430290937424,0.5147533416748047
1780525298285577700,22.57157763671875,0.8810662031173706,-1.173158884048462,1.0295066833496094
1780525298295648500,22.5816484375,1.50355863571167,-1.2330138683319092,0.6392518281936646
1780525298305719300,22.59171923828125,2.827552318572998,0.17238251864910126,-0.047884032130241394
1780525298315790000,22.6017900390625,1.8124107122421265,0.9600749015808105,0.6153098344802856
1780525298325860900,22.61186083984375,0.021547814831137657,0.706289529800415,1.965639591217041
1780525298346002700,22.632002685546876,-2.9903578758239746,-2.2864625453948975,3.361459255218506
1780525298356073500,22.642073486328126,-2.911349296569824,-4.264073371887207,3.0382418632507324
1780525298366144300,22.652144287109376,-1.7142484188079834,-5.161899089813232,1.9991583824157715
1780525298376215000,22.662215087890626,0.023942016065120697,-3.9671921730041504,0.6488286852836609
1780525298386316300,22.67231640625,1.1228805780410767,-2.190694570541382,0.0694318488240242
1780525298396417500,22.68241748046875,1.3527239561080933,-0.4141969084739685,0.5147533416748047
1780525298406427400,22.692427490234376,0.7541735172271729,0.7469909191131592,1.403002142906189
1780525298416528600,22.702528564453125,0.004788403399288654,1.745373010635376,2.166752576828003
1780525298426630000,22.7126298828125,-0.7422025203704834,1.7357962131500244,2.4612393379211426
1780525298436761900,22.722761962890626,-1.479616641998291,0.7589619159698486,2.3774423599243164
1780525298446832600,22.73283251953125,-1.6519991159439087,-0.06224924325942993,1.9847931861877441
1780525298477075500,22.763075439453125,-1.015141487121582,-1.1827356815338135,1.5825673341751099
1780525298547723800,22.833723876953126,-0.9050082564353943,1.742978811264038,3.3949780464172363
1780525298598077700,22.88407763671875,-1.4389152526855469,-0.031124621629714966,4.019864559173584
1780525298608148500,22.8941484375,-1.3862427473068237,-0.24899697303771973,3.8283286094665527
1780525298618219300,22.90421923828125,-0.9481038451194763,-0.22744916379451752,3.974374771118164
1780525298628290000,22.9142900390625,-1.1516109704971313,-0.24181437492370605,4.424484729766846
1780525298638391600,22.9243916015625,-1.1468225717544556,-0.10295066982507706,4.745307922363281
1780525298648492800,22.934492919921876,-0.9265560507774353,-0.13407529890537262,4.910507678985596
1780525298658563600,22.9445634765625,-0.5746083855628967,-0.035913024097681046,4.8051629066467285
1780525298668664800,22.954664794921875,-0.48602294921875,-0.44771572947502136,4.716577529907227
1780525298678735600,22.964735595703125,-0.790086567401886,-0.4644751250743866,4.553771495819092
1780525298688806400,22.974806396484375,-0.6727706789970398,-0.7182605266571045,4.146757125854492
1780525298698908000,22.984907958984376,-0.22505496442317963,-0.7422025203704834,3.0406360626220703
1780525298708978700,22.994978759765626,-0.2777273952960968,-0.9265560507774353,2.9712042808532715
1780525298719049500,23.005049560546876,0.009576806798577309,-1.4293384552001953,2.985569477081299
1780525298729120300,23.015120361328126,0.3734954595565796,-1.9704279899597168,3.0406360626220703
1780525298739221500,23.025221435546875,1.091755986213684,-2.1811177730560303,3.1268274784088135
1780525298749292300,23.035292236328125,1.0031704902648926,-2.279279947280884,3.222595453262329
1780525298759393800,23.045393798828126,1.0342950820922852,-1.9847931861877441,2.9759926795959473
1780525298829981000,23.11598095703125,2.073378562927246,-1.5753847360610962,3.205836057662964
1780525298890466600,23.176466552734375,0.6823474764823914,-0.009576806798577309,2.940079689025879
1780525298940881700,23.226881591796875,-0.043095629662275314,-1.0031704902648926,3.529053211212158
1780525298971094000,23.257093994140625,1.137245774269104,-1.987187385559082,4.491522312164307
1780525298981195500,23.267195556640626,0.9433154463768005,-2.296039342880249,4.5825018882751465
1780525299051813000,23.337813232421876,1.0007762908935547,0.22744916379451752,3.0550012588500977
1780525299102289200,23.3882890625,-0.667982280254364,1.9823989868164062,3.466804027557373
1780525299132501500,23.41850146484375,-0.09576806426048279,-0.43335050344467163,3.2393548488616943
1780525299162744600,23.44874462890625,-0.6416460275650024,0.15562310814857483,1.6663644313812256
1780525299172785000,23.458784912109376,-0.6177040338516235,0.6368576288223267,1.4053963422775269
1780525299182886100,23.46888623046875,-0.3878606855869293,0.8690952062606812,0.9528923034667969
1780525299192987400,23.4789873046875,0.21308395266532898,0.6751648783683777,0.5674257874488831
1780525299203058200,23.48905810546875,0.6272808313369751,0.4141969084739685,0.19153612852096558
1780525299223230500,23.50923046875,0.31364041566848755,-0.12449848651885986,-0.6153098344802856
1780525299253503700,23.539503662109375,-0.2968810200691223,-0.16519992053508759,-2.2385785579681396
1780525299263574500,23.549574462890625,-0.17477671802043915,-0.40940847992897034,-2.6001031398773193
1780525299273645300,23.559645263671875,0.4620809257030487,-0.1412578970193863,-3.0334534645080566
1780525299283716000,23.569716064453125,0.5913678407669067,-0.31364041566848755,-3.1531636714935303
1780525299293817600,23.579817626953126,0.4118026793003082,-0.363918662071228,-2.8993782997131348
1780525299303918800,23.5899189453125,0.6009446382522583,-0.19871874153614044,-2.8586769104003906
1780525299313989600,23.59998974609375,0.16759411990642548,-0.016759412363171577,-2.7700912952423096
1780525299334100700,23.620100830078126,0.2298433631658554,0.08619125932455063,-2.6144683361053467
1780525299344171500,23.630171630859376,0.5674257874488831,-0.1628057211637497,-2.387019157409668
1780525299354242300,23.6402421875,-0.10055647045373917,-0.8547300100326538,-2.1954829692840576
1780525299364313000,23.65031298828125,-0.035913024097681046,-1.0319008827209473,-2.2673089504241943
1780525299374414300,23.660414306640625,0,-1.1563993692398071,-2.47560453414917
1780525299384515800,23.670515869140626,0.016759412363171577,-1.5514427423477173,-2.3798365592956543
1780525299394586600,23.680586669921876,0.4141969084739685,-1.1037269830703735,-2.650381326675415
1780525299404688000,23.69068798828125,0.6584054827690125,-0.8906430602073669,-2.9233202934265137
1780525299414758700,23.700758544921875,0.2777273952960968,-0.6703764796257019,-3.2297780513763428
1780525299424860000,23.71085986328125,0.016759412363171577,-0.395043283700943,-3.337517261505127
1780525299434930700,23.7209306640625,-0.27054479718208313,0.12689268589019775,-3.2178070545196533
1780525299445032200,23.7310322265625,-0.4165911078453064,0.5434837937355042,-2.782062292098999
1780525299455103000,23.74110302734375,-0.17956513166427612,0.4213795065879822,-0.8954314589500427
1780525299465173800,23.751173828125,0.4692635238170624,-0.7182605266571045,0.2513911724090576
1780525299475275000,23.76127490234375,1.0630255937576294,-1.656787633895874,0.3495534360408783
1780525299485315300,23.7713154296875,1.357512354850769,-1.8411411046981812,-0.5434837937355042
1780525299495447000,23.781447021484375,0.6607996821403503,-2.3702597618103027,-1.8315643072128296
1780525299505517800,23.791517822265625,0.1149216815829277,-0.8619126081466675,-3.2321722507476807
1780525299515588900,23.8015888671875,-0.2585737705230713,0.49559974670410156,-3.9695863723754883
1780525299535730400,23.82173046875,-0.3878606855869293,2.3127987384796143,-2.5905263423919678
1780525299555841500,23.841841552734376,0.7852981686592102,0.5315127968788147,-1.3048399686813354
1780525299575952400,23.861952392578125,1.1994950771331787,1.4532804489135742,-2.5522189140319824
1780525299626337000,23.9123369140625,0.4812345504760742,1.6184803247451782,-1.7549498081207275
1780525299676752100,23.962752197265626,0.9289502501487732,-2.782062292098999,1.158793568611145
1780525299686792400,23.97279248046875,0.7829039692878723,-2.4612393379211426,0.395043283700943
1780525299727167200,24.013167236328126,-0.6847416758537292,0.47405192255973816,2.1763293743133545
1780525299797845800,24.083845703125,0.6943184733390808,0.8930372595787048,1.7549498081207275
1780525299878473200,24.16447314453125,-0.5051765441894531,0.7876923680305481,0.9672574996948242
1780525299898645500,24.1846455078125,-0.5578489899635315,2.0901381969451904,2.319981336593628
1780525299959253200,24.245253173828125,-1.2856862545013428,0.17238251864910126,3.512293815612793
1780525300009729300,24.295729248046875,-1.0438719987869263,0.9074024558067322,5.489904403686523
1780525300019830800,24.305830810546876,-1.6831238269805908,0.16759411990642548,5.609614372253418
1780525300029932000,24.31593212890625,-1.9752163887023926,-0.6655880808830261,5.276820659637451
1780525300050073600,24.336073486328125,-0.7134721279144287,-1.173158884048462,4.127603530883789
1780525300080377600,24.366377685546876,-0.24181437492370605,-0.646434485912323,4.393360137939453
1780525300090478800,24.376478759765625,-0.38546648621559143,-0.9289502501487732,4.460397720336914
1780525300100580000,24.386580078125,-0.2322375625371933,-0.9576807022094727,4.2329487800598145
1780525300110681600,24.396681640625,0.047884032130241394,-0.9864110946655273,3.450044631958008
1780525300120813300,24.406813232421875,0.7541735172271729,-0.9768342971801758,3.2345664501190186
1780525300130914600,24.41691455078125,0.8403648138046265,-0.9983820915222168,3.378218650817871
1780525300141016000,24.42701611328125,0.3687070608139038,-0.9744400978088379,3.579331636428833
