time,seconds_elapsed,z,y,x
1780525275901426200,0.18742626953125,8.953177452087402,-0.845031201839447,-3.9111289978027344
1780525275911558000,0.197557861328125,9.02883243560791,-0.8391403555870056,-3.734489679336548
1780525275952024300,0.2380244140625,9.176207542419434,-0.8963611721992493,-3.3412795066833496
1780525275962125600,0.24812548828125,9.229394912719727,-0.9141091108322144,-3.1863887310028076
1780525275977292800,0.263292724609375,9.280667304992676,-0.9198062419891357,-3.0320894718170166
1780525275982358800,0.26835888671875,9.296384811401367,-0.9199727177619934,-2.9834978580474854
1780525275992490500,0.278490478515625,9.326001167297363,-0.9248481392860413,-2.888036012649536
1780525276002592000,0.288592041015625,9.341064453125,-0.9246425032615662,-2.839003562927246
1780525276012693200,0.298693359375,9.380157470703125,-0.9301013350486755,-2.7051706314086914
1780525276042997200,0.328997314453125,9.446487426757812,-0.9883090257644653,-2.4408011436462402
1780525276063230500,0.34923046875,9.469503402709961,-1.0685577392578125,-2.3145365715026855
1780525276073331700,0.359331787109375,9.485055923461914,-1.1650326251983643,-2.201545000076294
1780525276083402500,0.369402587890625,9.489602088928223,-1.1966145038604736,-2.1647045612335205
1780525276093503700,0.379503662109375,9.496418952941895,-1.2996376752853394,-2.0734899044036865
1780525276113675800,0.39967578125,9.495235443115234,-1.4638164043426514,-1.9667584896087646
1780525276194364400,0.480364501953125,9.437704086303711,-1.7529696226119995,-2.0067975521087646
1780525276204435200,0.490435302734375,9.421113014221191,-1.7253203392028809,-2.1062495708465576
1780525276213506000,0.499506103515625,9.414170265197754,-1.711099624633789,-2.1484687328338623
1780525276223607300,0.509607177734375,9.393949508666992,-1.7568604946136475,-2.19944429397583
1780525276233708500,0.51970849609375,9.354394912719727,-1.8889575004577637,-2.257769823074341
1780525276268834300,0.554834228515625,9.368961334228516,-1.5536140203475952,-2.445249557495117
1780525276289006600,0.575006591796875,9.316293716430664,-1.668692708015442,-2.5675888061523438
1780525276309209000,0.595208984375,9.261869430541992,-1.8072270154953003,-2.6687240600585938
1780525276319279900,0.60527978515625,9.220877647399902,-1.9134482145309448,-2.7357864379882812
1780525276329381000,0.615381103515625,9.20747184753418,-1.9473129510879517,-2.75696063041687
1780525276339482600,0.625482666015625,9.171963691711426,-2.0303943157196045,-2.8147780895233154
1780525276349523000,0.63552294921875,9.161022186279297,-2.05548095703125,-2.8321456909179688
1780525276359624200,0.645624267578125,9.141139030456543,-2.1014251708984375,-2.8625128269195557
1780525276369695000,0.655695068359375,9.123495101928711,-2.145953893661499,-2.8856735229492188
1780525276379765800,0.665765869140625,9.107442855834961,-2.190375328063965,-2.902951955795288
1780525276389867000,0.675866943359375,9.093908309936523,-2.233041524887085,-2.9128599166870117
1780525276399937800,0.685937744140625,9.079012870788574,-2.2938573360443115,-2.9120678901672363
1780525276410039300,0.696039306640625,9.074715614318848,-2.3141307830810547,-2.9094200134277344
1780525276420140500,0.706140625,9.070418357849121,-2.372762680053711,-2.875394105911255
1780525276430211300,0.71621142578125,9.070016860961914,-2.39825439453125,-2.855442762374878
1780525276440312600,0.7263125,9.08120346069336,-2.4466326236724854,-2.7777907848358154
1780525276450413800,0.736413818359375,9.09246826171875,-2.4714772701263428,-2.718311309814453
1780525276460515300,0.746515380859375,9.107165336608887,-2.488715171813965,-2.652588129043579
1780525276480748300,0.766748291015625,9.134441375732422,-2.5024890899658203,-2.543604850769043
1780525276490849800,0.776849853515625,9.166583061218262,-2.509136915206909,-2.418341636657715
1780525276500951000,0.786950927734375,9.189269065856934,-2.5146608352661133,-2.324692964553833
1780525276511021800,0.797021728515625,9.211769104003906,-2.524108409881592,-2.2231900691986084
1780525276521092600,0.807092529296875,9.233922958374023,-2.5376529693603516,-2.1131398677825928
1780525276531163400,0.817163330078125,9.244565963745117,-2.545801877975464,-2.056032657623291
1780525276561406500,0.847406494140625,9.316561698913574,-2.595919132232666,-1.6227397918701172
1780525276571538200,0.8575380859375,9.327531814575195,-2.5947742462158203,-1.560350775718689
1780525276581639400,0.867639404296875,9.36594009399414,-2.565054416656494,-1.3674956560134888
1780525276591710200,0.877710205078125,9.378931999206543,-2.5497171878814697,-1.30574631690979
1780525276601811700,0.887811767578125,9.40054988861084,-2.534176826477051,-1.1738829612731934
1780525276611882500,0.897882568359375,9.415641784667969,-2.5375618934631348,-1.0377192497253418
1780525276621983700,0.907983642578125,9.419629096984863,-2.57790470123291,-0.8918342590332031
1780525276632085000,0.9180849609375,9.409492492675781,-2.662782907485962,-0.735826849937439
1780525276662328000,0.948328125,9.340235710144043,-2.980207920074463,-0.2207861840724945
1780525276672429300,0.95842919921875,9.31712532043457,-3.059204339981079,-0.053155142813920975
1780525276682500000,0.9685,9.285271644592285,-3.152763843536377,0.11919555813074112
1780525276692601300,0.978601318359375,9.226085662841797,-3.2997519969940186,0.40169256925582886
1780525276712773600,0.998773681640625,9.157158851623535,-3.423143148422241,0.7738919258117676
1780525276722844400,1.008844482421875,9.133742332458496,-3.4433438777923584,0.942615270614624
1780525276732945700,1.018945556640625,9.123653411865234,-3.446715831756592,1.0244415998458862
1780525276743047000,1.029046875,9.104828834533691,-3.444934368133545,1.185288667678833
1780525276753148400,1.0391484375,9.084066390991211,-3.441866636276245,1.3430132865905762
1780525276763280100,1.049280029296875,9.060670852661133,-3.440438985824585,1.4959980249404907
1780525276773351000,1.059350830078125,9.035881042480469,-3.4367470741271973,1.6468207836151123
1780525276783452200,1.0694521484375,9.01298999786377,-3.4235143661499023,1.7933053970336914
1780525276803685400,1.089685302734375,8.979484558105469,-3.360098361968994,2.061307907104492
1780525276813786600,1.09978662109375,8.969453811645508,-3.3099067211151123,2.1826162338256836
1780525276823888100,1.10988818359375,8.963203430175781,-3.2521746158599854,2.2923214435577393
1780525276833989400,1.1199892578125,8.960174560546875,-3.190391778945923,2.388944149017334
1780525276864201700,1.15020166015625,8.9617919921875,-2.9989898204803467,2.619680404663086
1780525276874364200,1.1603642578125,8.964868545532227,-2.957716703414917,2.655829906463623
1780525276884435000,1.17043505859375,8.965563774108887,-2.939357042312622,2.6738059520721436
1780525276894566700,1.180566650390625,8.965509414672852,-2.9220454692840576,2.692894458770752
1780525276904576500,1.190576416015625,8.959716796875,-2.9282727241516113,2.7053792476654053
1780525276914769400,1.200769287109375,8.949423789978027,-2.9672839641571045,2.6969306468963623
1780525276924870700,1.21087060546875,8.935102462768555,-3.0400123596191406,2.663200616836548
1780525276934941400,1.22094140625,8.915502548217773,-3.1405253410339355,2.611764907836914
1780525276944981800,1.230981689453125,8.892081260681152,-3.258803129196167,2.5458767414093018
1780525276955113700,1.24111376953125,8.868782043457031,-3.391570568084717,2.452005624771118
1780525276965215000,1.251215087890625,8.830782890319824,-3.598175048828125,2.2892818450927734
1780525276975316200,1.261316162109375,8.794088363647461,-3.756451368331909,2.173352003097534
1780525276985356500,1.2713564453125,8.738804817199707,-3.944324016571045,2.0605790615081787
1780525276995488500,1.281488525390625,8.65151596069336,-4.181061744689941,1.9596887826919556
1780525277005589800,1.29158984375,8.601059913635254,-4.307351589202881,1.9075857400894165
1780525277015691000,1.30169091796875,8.494402885437012,-4.566795349121094,1.7776068449020386
1780525277025761800,1.31176171875,8.359821319580078,-4.8567728996276855,1.64180588722229
1780525277035863000,1.321863037109375,8.191418647766113,-5.17727518081665,1.505611538887024
1780525277045995000,1.3319951171875,7.9868998527526855,-5.522822856903076,1.3704921007156372
1780525277056096300,1.34209619140625,7.6358747482299805,-6.038072109222412,1.1855380535125732
1780525277066136600,1.352136474609375,7.516198635101318,-6.197591781616211,1.1256133317947388
1780525277076237800,1.36223779296875,7.2983317375183105,-6.472135543823242,1.008069634437561
1780525277086339300,1.37233935546875,7.1094651222229,-6.69559907913208,0.8915403485298157
1780525277096440600,1.382440673828125,6.958006858825684,-6.867060661315918,0.7746074795722961
1780525277106511400,1.392511474609375,6.8446736335754395,-6.992019176483154,0.6576507687568665
1780525277116643000,1.40264306640625,6.768028736114502,-7.076074600219727,0.5415997505187988
1780525277126744600,1.41274462890625,6.7226128578186035,-7.127058982849121,0.4265003502368927
1780525277136815400,1.4228154296875,6.723812103271484,-7.133718490600586,0.2660822570323944
1780525277146886100,1.43288623046875,6.769784927368164,-7.093339443206787,0.15790244936943054
1780525277156987400,1.4429873046875,6.801032066345215,-7.064527988433838,0.09384747594594955
1780525277167088600,1.453088623046875,6.901283264160156,-6.9672369956970215,-0.016785714775323868
1780525277177190100,1.463190185546875,7.106228351593018,-6.756977081298828,-0.12315423786640167
1780525277197423000,1.483423095703125,7.340875148773193,-6.499667167663574,-0.1904425024986267
1780525277247990800,1.53399072265625,8.012001991271973,-5.6456217765808105,-0.32429033517837524
1780525277278294800,1.564294677734375,8.332307815551758,-5.165380954742432,-0.24873927235603333
1780525277339055400,1.625055419921875,8.664623260498047,-4.5816473960876465,0.32123637199401855
1780525277349156600,1.635156494140625,8.688974380493164,-4.5319719314575195,0.36515045166015625
1780525277409825500,1.695825439453125,8.757201194763184,-4.277141571044922,1.0898945331573486
1780525277430028300,1.7160283203125,8.826820373535156,-4.088496208190918,1.2416976690292358
1780525277500768000,1.78676806640625,8.29335880279541,-4.946971893310547,1.7082339525222778
1780525277551335700,1.837335693359375,7.265429973602295,-6.323194980621338,1.844211459159851
1780525277571538200,1.8575380859375,7.399787902832031,-6.188422679901123,1.76549232006073
1780525277581639400,1.867639404296875,7.638682842254639,-5.914058685302734,1.686660647392273
1780525277596837400,1.88283740234375,7.856917858123779,-5.643486976623535,1.6094399690628052
1780525277612004600,1.898004638671875,7.8466267585754395,-5.657863140106201,1.6091663837432861
1780525277622105900,1.90810595703125,7.769452095031738,-5.782632350921631,1.5385589599609375
1780525277632207000,1.91820703125,7.6427154541015625,-5.973511219024658,1.440989375114441
1780525277642308400,1.928308349609375,7.484116554260254,-6.207071781158447,1.276969313621521
1780525277652409900,1.938409912109375,7.436126232147217,-6.273728847503662,1.2307426929473877
1780525277662511000,1.948510986328125,7.364425182342529,-6.393713474273682,1.0276461839675903
1780525277672642800,1.958642822265625,7.347531318664551,-6.422903537750244,0.9646113514900208
1780525277753545000,2.039544921875,7.444084644317627,-6.366818428039551,-0.46862873435020447
1780525277763615700,2.04961572265625,7.415170192718506,-6.377772808074951,-0.7139052152633667
1780525277773747700,2.059747802734375,7.388386249542236,-6.391103267669678,-0.8578694462776184
1780525277783818500,2.069818603515625,7.373372554779053,-6.3998260498046875,-0.9197713732719421
1780525277874852400,2.160852294921875,7.363612174987793,-6.339903354644775,-1.3240920305252075
1780525277884923100,2.170923095703125,7.354361534118652,-6.365188121795654,-1.252254843711853
1780525277985783800,2.27178369140625,7.732664108276367,-6.003607273101807,0.5770594477653503
1780525277995854600,2.2818544921875,7.800541877746582,-5.862766742706299,0.9746304750442505
1780525278005925400,2.29192529296875,7.819715976715088,-5.782303333282471,1.2599165439605713
1780525278015996200,2.30199609375,7.8188934326171875,-5.711169242858887,1.5549391508102417
1780525278026097400,2.312097412109375,7.802077293395996,-5.643733024597168,1.8564090728759766
1780525278036168400,2.32216845703125,7.788477897644043,-5.608153820037842,2.014599084854126
1780525278086644500,2.37264453125,7.425004959106445,-5.297149658203125,3.6027605533599854
1780525278157201200,2.443201171875,6.625339031219482,-5.34877872467041,4.864755153656006
1780525278217656300,2.50365625,6.302572250366211,-5.764249324798584,4.818858623504639
1780525278227727000,2.51372705078125,6.310810089111328,-5.808652400970459,4.754327297210693
1780525278237798000,2.5237978515625,6.3347039222717285,-5.88625955581665,4.6253509521484375
1780525278247868700,2.53386865234375,6.389551639556885,-5.986037731170654,4.4171671867370605
1780525278257970200,2.54397021484375,6.417644023895264,-6.015894889831543,4.335117340087891
1780525278268041000,2.554041015625,6.508644104003906,-6.101884365081787,4.071234226226807
1780525278278142200,2.56414208984375,6.576643466949463,-6.160660743713379,3.868386745452881
1780525278288213000,2.574212890625,6.651755332946777,-6.222990989685059,3.633030891418457
1780525278298283800,2.58428369140625,6.718905448913574,-6.295551776885986,3.375311851501465
1780525278308354600,2.5943544921875,6.75404167175293,-6.338921546936035,3.220463752746582
1780525278318425300,2.60442529296875,6.807580471038818,-6.410445213317871,2.9552385807037354
1780525278328526800,2.61452685546875,6.877138137817383,-6.506155967712402,2.5583789348602295
1780525278338567000,2.62456689453125,6.922735214233398,-6.560151100158691,2.2826621532440186
1780525278348637700,2.6346376953125,6.971856117248535,-6.6009626388549805,1.9977256059646606
1780525278358739200,2.6447392578125,7.030727386474609,-6.620369911193848,1.7058610916137695
1780525278459508200,2.74550830078125,7.38178014755249,-6.3714823722839355,-1.041115641593933
1780525278540135700,2.8261357421875,7.731314659118652,-5.527152061462402,-2.418212652206421
1780525278550206500,2.83620654296875,7.777839183807373,-5.422454357147217,-2.5045158863067627
1780525278560307700,2.8463076171875,7.813401222229004,-5.35347318649292,-2.5419442653656006
1780525278570409000,2.856408935546875,7.831019401550293,-5.319427490234375,-2.5591444969177246
1780525278580510500,2.866510498046875,7.869751453399658,-5.262499809265137,-2.5580265522003174
1780525278590611700,2.87661181640625,7.89750337600708,-5.233523845672607,-2.5318098068237305
1780525278600682500,2.8866826171875,7.926223278045654,-5.204125881195068,-2.502487897872925
1780525278610753300,2.896753173828125,7.941232681274414,-5.188032150268555,-2.488279342651367
1780525278620824000,2.906823974609375,7.934957027435303,-5.262396812438965,-2.3481955528259277
1780525278630956000,2.9169560546875,7.925881385803223,-5.300591945648193,-2.2922747135162354
1780525278641026800,2.92702685546875,7.901017665863037,-5.413517951965332,-2.106689691543579
1780525278651097600,2.93709765625,7.907782077789307,-5.4464569091796875,-1.9933565855026245
1780525278661198800,2.94719873046875,7.92179536819458,-5.4395670890808105,-1.9561833143234253
1780525278671269600,2.95726953125,7.988331317901611,-5.404562950134277,-1.774161458015442
1780525278681371000,2.967370849609375,8.012750625610352,-5.38859224319458,-1.7115159034729004
1780525278691441700,2.977441650390625,8.04199504852295,-5.41087007522583,-1.489696741104126
1780525278701512400,2.987512451171875,8.029448509216309,-5.471293926239014,-1.3278906345367432
1780525278711614000,2.997614013671875,8.004118919372559,-5.545528888702393,-1.1625782251358032
1780525278721684700,3.007684814453125,7.9830851554870605,-5.6060051918029785,-1.0067025423049927
1780525278731755500,3.017755615234375,7.979905605316162,-5.634032249450684,-0.8655443787574768
1780525278741826300,3.027826416015625,8.005146980285645,-5.615240573883057,-0.7463846206665039
1780525278751927600,3.037927490234375,8.020453453063965,-5.601672172546387,-0.6811612248420715
1780525278761967900,3.0479677734375,8.054532051086426,-5.567519664764404,-0.5455551743507385
1780525278772008200,3.05800830078125,8.079105377197266,-5.543515682220459,-0.40972617268562317
1780525278802251000,3.0882509765625,8.026113510131836,-5.634668350219727,-0.04911153018474579
1780525278842564900,3.12856494140625,7.947691440582275,-5.732362270355225,0.38027679920196533
1780525278933263000,3.21926318359375,7.729146480560303,-5.939133167266846,1.0758166313171387
1780525279023991800,3.30999169921875,7.242465972900391,-6.497342586517334,1.2254046201705933
1780525279054295800,3.3402958984375,7.12298583984375,-6.65814208984375,1.0500497817993164
1780525279064336100,3.350336181640625,7.081532001495361,-6.715097904205322,0.9642331600189209
1780525279074407000,3.360406982421875,7.058436393737793,-6.745655059814453,0.9192472100257874
1780525279114781700,3.40078173828125,6.777322769165039,-7.07750940322876,0.38360506296157837
1780525279175206400,3.461206298828125,6.311963081359863,-7.487762928009033,-0.512753427028656
1780525279255864300,3.5418642578125,6.181833267211914,-7.501402378082275,-1.2978051900863647
1780525279265904600,3.551904541015625,6.199133396148682,-7.479729175567627,-1.3396999835968018
1780525279276006000,3.562005859375,6.235522270202637,-7.447465896606445,-1.3505150079727173
1780525279286076700,3.57207666015625,6.242046356201172,-7.445816516876221,-1.329308032989502
1780525279296147500,3.5821474609375,6.236334323883057,-7.455911159515381,-1.2991969585418701
1780525279306218500,3.592218505859375,6.242466449737549,-7.472349166870117,-1.168766975402832
1780525279316258600,3.602258544921875,6.250621795654297,-7.4739508628845215,-1.113633155822754
1780525279326360000,3.612360107421875,6.34489631652832,-7.419125556945801,-0.9323399066925049
1780525279336430800,3.622430908203125,6.427269458770752,-7.365089416503906,-0.7848913073539734
1780525279346501600,3.632501708984375,6.472464561462402,-7.333376884460449,-0.7065163254737854
1780525279356603000,3.642602783203125,6.547818183898926,-7.2803802490234375,-0.5408560633659363
1780525279366673700,3.652673583984375,6.64332914352417,-7.209317684173584,-0.24962446093559265
1780525279376744400,3.662744384765625,6.698348045349121,-7.162537097930908,-0.024582069367170334
1780525279386845700,3.672845703125,6.751980781555176,-7.108686447143555,0.21845249831676483
1780525279396916700,3.682916748046875,6.806684970855713,-7.043771743774414,0.4740440547466278
1780525279406987500,3.692987548828125,6.855751037597656,-6.972686767578125,0.7420958280563354
1780525279417058300,3.703058349609375,6.877366542816162,-6.934985637664795,0.8821490406990051
1780525279427129000,3.713129150390625,6.904914379119873,-6.839925765991211,1.3068872690200806
1780525279437200000,3.723199951171875,6.8963727951049805,-6.783876895904541,1.6091762781143188
1780525279517888300,3.80388818359375,6.5654144287109375,-6.181712627410889,3.853848695755005
1780525279558263000,3.844262939453125,6.270301342010498,-5.984405517578125,4.587002754211426
1780525279639012600,3.9250126953125,5.871615886688232,-6.226206302642822,4.788409233093262
1780525279719701000,4.005700927734375,6.152296543121338,-6.747078895568848,3.577228546142578
1780525279750005000,4.0360048828125,6.325230121612549,-6.982182025909424,2.7223141193389893
1780525279800481000,4.08648095703125,6.62408971786499,-7.093444347381592,1.4053020477294922
1780525279861089000,4.147089111328125,6.949385166168213,-6.9004902839660645,-0.5095779895782471
1780525279901524700,4.187524658203125,7.101762771606445,-6.583387851715088,-1.547375202178955
1780525279962132700,4.2481328125,7.384685039520264,-5.9730963706970215,-2.4410946369171143
1780525279972234000,4.25823388671875,7.385989665985107,-5.950753211975098,-2.4912006855010986
1780525280083470600,4.369470703125,7.490732669830322,-5.945877552032471,-2.1692967414855957
1780525280103673000,4.389673095703125,7.566614151000977,-5.933394908905029,-1.9265422821044922
1780525280164372700,4.450372802734375,7.4860053062438965,-6.270504951477051,-0.9004939794540405
1780525280265507800,4.5515078125,7.387352466583252,-6.4450154304504395,0.24329788982868195
1780525280366704000,4.6527041015625,6.93538761138916,-6.845783710479736,1.0982015132904053
1780525280427342600,4.713342529296875,6.5265727043151855,-7.21726131439209,1.2187600135803223
1780525280488011500,4.774011474609375,6.221026420593262,-7.543227672576904,0.7542822360992432
1780525280508244700,4.79424462890625,6.191468715667725,-7.592349052429199,0.4385650157928467
1780525280548680400,4.834680419921875,6.227697849273682,-7.574189186096191,-0.13346242904663086
1780525280558782000,4.844781982421875,6.2682085037231445,-7.536553382873535,-0.28338879346847534
1780525280639683800,4.925683837890625,6.933919906616211,-6.819007873535156,-1.26185941696167
1780525280669987800,4.95598779296875,7.176619529724121,-6.567569255828857,-1.2383671998977661
1780525280680089300,4.96608935546875,7.268291473388672,-6.470760345458984,-1.2130913734436035
1780525280690221000,4.976220947265625,7.321663856506348,-6.413212776184082,-1.1976318359375
1780525280700322300,4.986322265625,7.491828918457031,-6.222801208496094,-1.148753046989441
1780525280710423800,4.996423828125,7.576779842376709,-6.135824680328369,-1.0556766986846924
1780525280720525000,5.006525146484375,7.606520652770996,-6.115142822265625,-0.9572148323059082
1780525280730687500,5.0166875,7.60504150390625,-6.126750469207764,-0.8925614356994629
1780525280740788700,5.026788818359375,7.576206207275391,-6.191051483154297,-0.6651028990745544
1780525280760991200,5.0469912109375,7.584497451782227,-6.207800388336182,-0.3301622271537781
1780525280781133000,5.067133056640625,7.625369548797607,-6.166282653808594,0.03311871737241745
1780525280791203800,5.077203857421875,7.612562656402588,-6.17777681350708,0.23314796388149261
1780525280801274600,5.087274658203125,7.598245143890381,-6.190402507781982,0.3405582308769226
1780525280811345400,5.097345458984375,7.548345565795898,-6.233861923217773,0.5760562419891357
1780525280821355000,5.10735498046875,7.464739799499512,-6.287759304046631,0.9550597071647644
1780525280831456500,5.11745654296875,7.440878391265869,-6.294217109680176,1.0892889499664307
1780525280841527300,5.12752734375,7.413217544555664,-6.280442237854004,1.3306533098220825
1780525280851628500,5.137628662109375,7.388071060180664,-6.255898952484131,1.565415382385254
1780525280861668900,5.1476689453125,7.348167896270752,-6.238917827606201,1.8029776811599731
1780525280891911700,5.17791162109375,7.0721306800842285,-6.247285842895508,2.6696009635925293
1780525280922124000,5.2081240234375,6.858855247497559,-6.161238193511963,3.3415024280548096
1780525280932225500,5.2182255859375,6.824880123138428,-6.141561031341553,3.445668935775757
1780525280942296300,5.22829638671875,6.729971408843994,-6.0911359786987305,3.7115964889526367
1780525280952397600,5.2383974609375,6.6740851402282715,-6.0568437576293945,3.8654403686523438
1780525280962498800,5.248498779296875,6.6481475830078125,-6.037890911102295,3.939086437225342
1780525280972569600,5.258569580078125,6.599635601043701,-5.979816913604736,4.105727195739746
1780525280982640400,5.268640380859375,6.584022521972656,-5.937565326690674,4.191224575042725
1780525281002782200,5.2887822265625,6.587009906768799,-5.8742146492004395,4.274960517883301
1780525281012853000,5.29885302734375,6.597963809967041,-5.86761999130249,4.267117023468018
1780525281073338600,5.359338623046875,6.789036750793457,-5.989525318145752,3.768946409225464
1780525281153966000,5.439966064453125,7.178466796875,-6.345445156097412,2.0917272567749023
1780525281244603400,5.530603271484375,7.36452579498291,-6.4604878425598145,-0.44298869371414185
1780525281254735000,5.540735107421875,7.400428771972656,-6.395997047424316,-0.7037506103515625
1780525281264806100,5.55080615234375,7.4243855476379395,-6.320967197418213,-1.0460697412490845
1780525281274877000,5.560876953125,7.426758289337158,-6.299740791320801,-1.1519193649291992
1780525281285008600,5.571008544921875,7.412185192108154,-6.254044055938721,-1.4549319744110107
1780525281325291800,5.611291748046875,7.4807868003845215,-5.915740013122559,-2.283031940460205
1780525281335332000,5.62133203125,7.525835037231445,-5.762819290161133,-2.514381170272827
1780525281345433300,5.631433349609375,7.574267387390137,-5.598429203033447,-2.731018304824829
1780525281355504400,5.64150439453125,7.604527473449707,-5.465924263000488,-2.9095044136047363
1780525281365605600,5.651605712890625,7.597585201263428,-5.384347915649414,-3.075042247772217
1780525281375676400,5.661676513671875,7.576022148132324,-5.378691673278809,-3.137507438659668
1780525281395879000,5.68187890625,7.523709297180176,-5.419216156005859,-3.1931631565093994
1780525281426091500,5.712091552734375,7.480952739715576,-5.518407344818115,-3.122964859008789
1780525281436162300,5.722162353515625,7.4885478019714355,-5.505864143371582,-3.1268999576568604
1780525281486577200,5.7725771484375,7.427974700927734,-5.871231555938721,-2.554258108139038
1780525281516820200,5.8028203125,7.446512699127197,-5.960622787475586,-2.278334856033325
1780525281526891000,5.81289111328125,7.435593605041504,-5.995495319366455,-2.221795082092285
1780525281536992300,5.8229921875,7.397267818450928,-6.1201171875,-1.9987459182739258
1780525281547063000,5.83306298828125,7.374055862426758,-6.173046112060547,-1.9202066659927368
1780525281557164500,5.84316455078125,7.337779998779297,-6.262722015380859,-1.7622981071472168
1780525281567235300,5.8532353515625,7.327993392944336,-6.32721471786499,-1.5611706972122192
1780525281577336600,5.863336669921875,7.349388122558594,-6.30810546875,-1.5377541780471802
1780525281587437800,5.873437744140625,7.397735595703125,-6.280977725982666,-1.4118131399154663
1780525281607640600,5.893640625,7.499445915222168,-6.219064235687256,-1.1189043521881104
1780525281617741800,5.903741943359375,7.532895565032959,-6.206357479095459,-0.9523664712905884
1780525281627812600,5.9138125,7.536500453948975,-6.225225925445557,-0.7862032651901245
1780525281637913900,5.923913818359375,7.520373344421387,-6.261073589324951,-0.6429013013839722
1780525281648015400,5.934015380859375,7.505608558654785,-6.29034423828125,-0.5174862742424011
1780525281658116600,5.94411669921875,7.50617790222168,-6.301985263824463,-0.33566609025001526
1780525281668157000,5.954156982421875,7.511414527893066,-6.300983428955078,-0.21593758463859558
1780525281678227700,5.964227783203125,7.514503002166748,-6.299081325531006,-0.15559738874435425
1780525281688329000,5.974328857421875,7.521903038024902,-6.292050838470459,-0.03830810263752937
1780525281698399700,5.984399658203125,7.5251593589782715,-6.28692102432251,0.1303706020116806
1780525281779027200,6.065027099609375,7.532318592071533,-6.244792461395264,0.6611521244049072
1780525281799199200,6.08519921875,7.4442291259765625,-6.3390703201293945,0.7550061941146851
1780525281809300700,6.09530078125,7.401357650756836,-6.385346412658691,0.7859086990356445
1780525281819371500,6.10537158203125,7.376620769500732,-6.410913467407227,0.8099617958068848
1780525281829472800,6.11547265625,7.360996723175049,-6.428744792938232,0.8107739686965942
1780525281849614300,6.1356142578125,7.3431830406188965,-6.449761867523193,0.8053706288337708
1780525281859715600,6.145715576171875,7.312198638916016,-6.490933418273926,0.7549293041229248
1780525281869817000,6.155817138671875,7.235047817230225,-6.587948322296143,0.650700032711029
1780525281879888000,6.165887939453125,7.202932357788086,-6.626370429992676,0.6159256100654602
1780525281890019600,6.17601953125,7.1322174072265625,-6.709661483764648,0.5313251614570618
1780525281900121000,6.18612109375,7.063018798828125,-6.7895426750183105,0.4315764904022217
1780525281910252800,6.196252685546875,7.013710021972656,-6.847202301025391,0.3067433536052704
1780525281920354000,6.20635400390625,6.983318328857422,-6.88323974609375,0.15703706443309784
1780525281930424800,6.2164248046875,6.960536003112793,-6.908056735992432,-0.00888940878212452
1780525281940526300,6.2265263671875,6.920982360839844,-6.9423441886901855,-0.27250614762306213
1780525281950536000,6.236535888671875,6.905325412750244,-6.954091548919678,-0.35703620314598083
1780525281970738700,6.25673876953125,6.816675662994385,-7.012863636016846,-0.7232373952865601
1780525281980779000,6.266779052734375,6.762401580810547,-7.042886734008789,-0.9154574275016785
1780525281990880300,6.27688037109375,6.704784870147705,-7.069550514221191,-1.1125266551971436
1780525282000951000,6.286950927734375,6.644237995147705,-7.092895030975342,-1.3097119331359863
1780525282011021800,6.297021728515625,6.5839924812316895,-7.109613418579102,-1.5082523822784424
1780525282021031700,6.30703173828125,6.495156288146973,-7.121591567993164,-1.807278037071228
1780525282031133000,6.3171328125,6.444145202636719,-7.116718292236328,-1.998926043510437
1780525282041203700,6.32720361328125,6.423402309417725,-7.110027313232422,-2.087536096572876
1780525282051305000,6.337304931640625,6.377974033355713,-7.069754600524902,-2.3474268913269043
1780525282061345300,6.34734521484375,6.371323585510254,-7.0511603355407715,-2.4202823638916016
1780525282071446500,6.357446533203125,6.363699436187744,-7.002886772155762,-2.575519561767578
1780525282081517600,6.367517578125,6.3631815910339355,-6.9477972984313965,-2.7218434810638428
1780525282091588400,6.37758837890625,6.367159843444824,-6.896905899047852,-2.839430093765259
1780525282101659100,6.3876591796875,6.382078170776367,-6.830610752105713,-2.9634816646575928
1780525282111760400,6.397760498046875,6.397061824798584,-6.812564849853516,-2.972700595855713
1780525282121831200,6.4078310546875,6.419923305511475,-6.787833213806152,-2.9799818992614746
1780525282172215800,6.4582158203125,6.597611427307129,-6.730930805206299,-2.7085962295532227
1780525282182255900,6.468255859375,6.593690872192383,-6.7621917724609375,-2.6393933296203613
1780525282222600200,6.50860009765625,6.726863384246826,-6.898510932922363,-1.8248940706253052
1780525282232671000,6.5186708984375,6.744856834411621,-6.937671661376953,-1.5956246852874756
1780525282252843000,6.538843017578125,6.752490520477295,-7.02950382232666,-1.0771979093551636
1780525282272984800,6.55898486328125,6.790960311889648,-7.056827545166016,-0.5044152140617371
1780525282303319300,6.5893193359375,6.87470006942749,-6.989528179168701,0.23534780740737915
1780525282383916000,6.669916015625,6.836278915405273,-6.43375825881958,2.835916519165039
1780525282424260400,6.71026025390625,6.705708980560303,-6.1758317947387695,3.6142706871032715
1780525282444432400,6.730432373046875,6.663760185241699,-6.113307476043701,3.7936999797821045
1780525282464635100,6.75063525390625,6.641800880432129,-6.103063106536865,3.8483097553253174
1780525282474736400,6.760736328125,6.643516540527344,-6.113762378692627,3.8283121585845947
1780525282484776700,6.770776611328125,6.663906097412109,-6.126732349395752,3.7717223167419434
1780525282494908700,6.78090869140625,6.687052249908447,-6.153070449829102,3.686929702758789
1780525282504979500,6.7909794921875,6.704739570617676,-6.166851997375488,3.631364583969116
1780525282515080700,6.801080810546875,6.74794864654541,-6.231900691986084,3.4349663257598877
1780525282525151500,6.8111513671875,6.764245986938477,-6.260392189025879,3.350053071975708
1780525282535252700,6.821252685546875,6.814937114715576,-6.346640586853027,3.0736260414123535
1780525282545293000,6.83129296875,6.821159362792969,-6.349352836608887,3.054159164428711
1780525282555394300,6.841394287109375,6.909216403961182,-6.4442009925842285,2.627809762954712
1780525282565495800,6.851495849609375,6.96067476272583,-6.480663776397705,2.3917343616485596
1780525282595738600,6.881738525390625,7.0997314453125,-6.546277046203613,1.7060054540634155
1780525282605840000,6.89183984375,7.174685955047607,-6.566078186035156,1.2573299407958984
1780525282656346600,6.9423466796875,7.2063117027282715,-6.6460065841674805,-0.26469576358795166
1780525282747197400,7.033197509765625,7.3136372566223145,-6.033781051635742,-2.504912853240967
1780525282757298700,7.043298583984375,7.264246463775635,-5.976881504058838,-2.7709202766418457
1780525282767400000,7.05339990234375,7.235992908477783,-5.963748931884766,-2.871323585510254
1780525282797734400,7.083734375,7.178170680999756,-5.8386549949646,-3.2487475872039795
1780525282817967600,7.103967529296875,7.21461296081543,-5.747727870941162,-3.329169511795044
1780525282828068900,7.11406884765625,7.228457450866699,-5.719298839569092,-3.348047971725464
1780525282888707300,7.174707275390625,7.194489002227783,-5.947445392608643,-3.006260395050049
1780525282949345800,7.235345703125,7.20873498916626,-6.27091646194458,-2.209101915359497
1780525282959447000,7.245447021484375,7.257861137390137,-6.250760078430176,-2.1028170585632324
1780525283030156300,7.31615625,7.278995037078857,-6.50547456741333,-0.93028324842453
1780525283050359000,7.336359130859375,7.329016208648682,-6.486724853515625,-0.6150786876678467
1780525283090825200,7.3768251953125,7.31239652633667,-6.534088611602783,0.07028583437204361
1780525283100896000,7.38689599609375,7.252322673797607,-6.596935749053955,0.23375147581100464
1780525283121159700,7.40715966796875,7.1425347328186035,-6.697915077209473,0.5408502221107483
1780525283131261200,7.41726123046875,7.128910541534424,-6.707986354827881,0.5932605266571045
1780525283141332000,7.42733203125,7.123401641845703,-6.700902938842773,0.7248769998550415
1780525283181767700,7.467767578125,7.070738315582275,-6.711658000946045,1.062403678894043
1780525283252568600,7.538568603515625,6.990944862365723,-6.782472610473633,1.1380436420440674
1780525283323369200,7.609369140625,6.936058521270752,-6.920326232910156,0.41300565004348755
1780525283343572000,7.629572021484375,6.914733409881592,-6.95173978805542,0.17367051541805267
1780525283353673200,7.639673095703125,6.880010604858398,-6.987746715545654,-0.08508680760860443
1780525283414311700,7.700311767578125,6.940725326538086,-6.832372665405273,-1.1469199657440186
1780525283485112300,7.7711123046875,6.824052810668945,-6.682313442230225,-2.2247202396392822
1780525283535680000,7.821679931640625,6.482332229614258,-6.985080718994141,-2.314822196960449
1780525283606358800,7.89235888671875,6.408829689025879,-7.2146172523498535,-1.7454499006271362
1780525283636601600,7.9226015625,6.520995140075684,-7.2194743156433105,-1.2353934049606323
1780525283646703000,7.932703125,6.527533531188965,-7.22988224029541,-1.1359989643096924
1780525283656774000,7.94277392578125,6.5448222160339355,-7.257558345794678,-0.8145788908004761
1780525283676976400,7.962976318359375,6.585258960723877,-7.251521587371826,-0.4692515432834625
1780525283687077600,7.97307763671875,6.629116535186768,-7.22266960144043,-0.2413444221019745
1780525283697179100,7.98317919921875,6.691886901855469,-7.167931079864502,0.09899374842643738
1780525283707280400,7.9932802734375,6.709695816040039,-7.148569583892822,0.21982143819332123
1780525283717412400,8.003412353515625,6.720818996429443,-7.132997512817383,0.34833472967147827
1780525283727483100,8.013483154296875,6.744730472564697,-7.080745220184326,0.7362532615661621
1780525283737554000,8.023553955078125,6.792726516723633,-6.979059219360352,1.149770975112915
1780525283747624700,8.033624755859375,6.842586994171143,-6.8823981285095215,1.407829999923706
1780525283757695500,8.043695556640625,6.89301061630249,-6.775320053100586,1.658861517906189
1780525283767766300,8.053766357421875,6.914788722991943,-6.720498561859131,1.7863342761993408
1780525283777867500,8.063867431640626,6.936067581176758,-6.63383150100708,2.01336407661438
1780525283787968800,8.07396875,6.927336692810059,-6.54221773147583,2.31986927986145
1780525283798070300,8.0840703125,6.915228366851807,-6.5184149742126465,2.4207987785339355
1780525283808141000,8.09414111328125,6.857143402099609,-6.481502056121826,2.6720986366271973
1780525283818242300,8.1042421875,6.8069281578063965,-6.472744941711426,2.8177480697631836
1780525283828313000,8.11431298828125,6.765621185302734,-6.4618706703186035,2.9395570755004883
1780525283848454700,8.13445458984375,6.705528736114502,-6.438099384307861,3.1236441135406494
1780525283868627000,8.154626953125,6.661120891571045,-6.433779716491699,3.2258846759796143
1780525283878728200,8.164728271484375,6.6418375968933105,-6.444133758544922,3.244924306869507
1780525283888799000,8.174799072265625,6.6233696937561035,-6.466670036315918,3.23783016204834
1780525283959386000,8.24538623046875,6.5088043212890625,-6.896213531494141,2.4996190071105957
1780525284030065000,8.31606494140625,6.655503749847412,-7.155224800109863,0.8230489492416382
1780525284120763100,8.40676318359375,6.9019598960876465,-6.805318355560303,-1.4902985095977783
1780525284201512400,8.487512451171876,7.1152167320251465,-5.941253185272217,-3.2008745670318604
1780525284211614000,8.497614013671875,7.14565372467041,-5.834850788116455,-3.326338291168213
1780525284221684700,8.507684814453125,7.163786888122559,-5.754175186157227,-3.426370859146118
1780525284231786000,8.517785888671876,7.169442176818848,-5.692783832550049,-3.515920639038086
1780525284241918000,8.52791796875,7.171962261199951,-5.64633321762085,-3.5850067138671875
1780525284262059500,8.5480595703125,7.165383815765381,-5.643913269042969,-3.601930856704712
1780525284272191200,8.558191162109376,7.160861015319824,-5.656554698944092,-3.5910794734954834
1780525284282262000,8.568261962890626,7.155375957489014,-5.678185939788818,-3.567798614501953
1780525284312566000,8.59856591796875,7.177600860595703,-5.744862079620361,-3.4130637645721436
1780525284322636800,8.60863671875,7.153648376464844,-5.894920825958252,-3.200878143310547
1780525284342808800,8.628808837890626,7.109189033508301,-6.102184295654297,-2.8970963954925537
1780525284362981000,8.648981201171875,7.154289245605469,-6.1376214027404785,-2.7048375606536865
1780525284373052000,8.659052001953125,7.203360080718994,-6.144623279571533,-2.5545244216918945
1780525284383153200,8.669153076171876,7.2153120040893555,-6.2013373374938965,-2.3776211738586426
1780525284393224000,8.679223876953126,7.173378944396973,-6.359110355377197,-2.0675415992736816
1780525284403294700,8.689294677734376,7.101201057434082,-6.506036281585693,-1.8479257822036743
1780525284423405800,8.70940576171875,6.995199203491211,-6.714803218841553,-1.4659464359283447
1780525284433507000,8.719507080078126,7.016302108764648,-6.723974704742432,-1.3153163194656372
1780525284443608600,8.729608642578125,7.089408874511719,-6.672799587249756,-1.1766036748886108
1780525284463780600,8.749780517578126,7.196456432342529,-6.608028411865234,-0.8457929491996765
1780525284483952600,8.76995263671875,7.17195463180542,-6.670832633972168,-0.48316726088523865
1780525284494054100,8.78005419921875,7.0726542472839355,-6.789079189300537,-0.2374117523431778
1780525284504125000,8.790125,7.040942668914795,-6.824113368988037,-0.164295956492424
1780525284514226200,8.80022607421875,7.005505561828613,-6.861813068389893,-0.09378712624311447
1780525284524327400,8.810327392578126,6.972362518310547,-6.896052360534668,0.03195084258913994
1780525284534398200,8.820398193359376,6.972277641296387,-6.894572734832764,0.150343120098114
1780525284544438500,8.8304384765625,7.012669563293457,-6.848498344421387,0.3015379011631012
1780525284554540000,8.8405400390625,7.037599086761475,-6.817739963531494,0.4012549817562103
1780525284564610800,8.85061083984375,7.042699337005615,-6.805617809295654,0.5043290257453918
1780525284584752400,8.87075244140625,7.007820129394531,-6.827705383300781,0.6657964587211609
1780525284594853600,8.880853515625,6.958215236663818,-6.865323066711426,0.7880167961120605
1780525284604924400,8.89092431640625,6.939727306365967,-6.8795647621154785,0.8259332180023193
1780525284615025700,8.901025634765626,6.919349670410156,-6.894131660461426,0.8740400075912476
1780525284625096400,8.911096435546876,6.908632755279541,-6.9005913734436035,0.9072051644325256
1780525284635198000,8.921197998046875,6.899916648864746,-6.906101703643799,0.9312912821769714
1780525284645299200,8.93129931640625,6.875919342041016,-6.925147533416748,0.9666709303855896
1780525284655400400,8.941400390625,6.852213382720947,-6.946691989898682,0.9803227186203003
1780525284675603200,8.961603271484375,6.819323539733887,-6.98712682723999,0.9204697012901306
1780525284695775200,8.981775146484376,6.787648677825928,-7.036335468292236,0.7669336199760437
1780525284705846000,8.991845947265626,6.755125045776367,-7.078451633453369,0.6589359045028687
1780525284715947300,9.001947265625,6.706486701965332,-7.134515285491943,0.5404720306396484
1780525284736089000,9.022089111328125,6.599926948547363,-7.248584270477295,0.2634241580963135
1780525284746159900,9.032159912109375,6.578384876251221,-7.27052640914917,0.1862342357635498
1780525284756261000,9.04226123046875,6.555896282196045,-7.292640209197998,-0.08950404077768326
1780525284796574700,9.08257470703125,6.579092025756836,-7.225691318511963,-0.8217816948890686
1780525284836888600,9.122888671875,6.591862201690674,-7.058024883270264,-1.7035365104675293
1780525284846929000,9.132928955078125,6.567543029785156,-7.0249457359313965,-1.9203940629959106
1780525284857030100,9.143030029296876,6.531752109527588,-6.998783588409424,-2.126885175704956
1780525284877202200,9.1632021484375,6.475457668304443,-6.894820213317871,-2.588491439819336
1780525284887303700,9.1733037109375,6.478474140167236,-6.862672328948975,-2.6652371883392334
1780525284897374500,9.18337451171875,6.490152835845947,-6.757040977478027,-2.8966732025146484
1780525284917546500,9.20354638671875,6.50178337097168,-6.664057731628418,-3.080186367034912
1780525284927617300,9.2136171875,6.497313499450684,-6.637953281402588,-3.1452977657318115
1780525284937749200,9.223749267578125,6.483818531036377,-6.639778137207031,-3.1692001819610596
1780525284947820000,9.233820068359375,6.480534553527832,-6.625948429107666,-3.2046639919281006
1780525284957921300,9.24392138671875,6.486489295959473,-6.616505146026611,-3.212120294570923
1780525284968022500,9.2540224609375,6.512691497802734,-6.6003193855285645,-3.19233775138855
1780525284978123800,9.264123779296876,6.501370429992676,-6.642813682556152,-3.1265947818756104
1780525285008397300,9.294397216796876,6.40802001953125,-6.865605354309082,-2.8233187198638916
1780525285058690300,9.344690185546876,6.482471942901611,-7.1233906745910645,-1.8453339338302612
1780525285088994300,9.374994384765625,6.400317668914795,-7.3539581298828125,-1.060953140258789
1780525285099065000,9.385065185546875,6.413165092468262,-7.390631675720215,-0.6482838988304138
1780525285109166300,9.395166259765626,6.443658828735352,-7.38339900970459,-0.36750003695487976
1780525285119206700,9.40520654296875,6.473121166229248,-7.366347312927246,-0.07752513885498047
1780525285189824300,9.47582421875,6.502414703369141,-7.107718467712402,1.8355729579925537
1780525285199895000,9.48589501953125,6.548300743103027,-6.9627790451049805,2.1931369304656982
1780525285209996500,9.49599658203125,6.56411600112915,-6.874022960662842,2.4146618843078613
1780525285220067300,9.5060673828125,6.5702972412109375,-6.7958292961120605,2.6111879348754883
1780525285230168600,9.51616845703125,6.572028636932373,-6.723913192749023,2.787081003189087
1780525285240269800,9.526269775390626,6.5737786293029785,-6.657497882843018,2.9382870197296143
1780525285250340600,9.536340576171876,6.5749192237854,-6.6268792152404785,3.0042145252227783
1780525285260411400,9.546411376953126,6.591854572296143,-6.55580997467041,3.1207706928253174
1780525285270482200,9.556482177734376,6.5943403244018555,-6.53794527053833,3.152829885482788
1780525285280553200,9.56655322265625,6.597737789154053,-6.517553806304932,3.1877503395080566
1780525285300725200,9.586725341796875,6.596682548522949,-6.5254950523376465,3.173656463623047
1780525285310796000,9.596796142578125,6.604706764221191,-6.542362689971924,3.1218154430389404
1780525285320897300,9.606897216796876,6.6262712478637695,-6.558648586273193,3.04089617729187
1780525285330968000,9.616968017578126,6.678377151489258,-6.580249309539795,2.875758409500122
1780525285341100000,9.62710009765625,6.719145774841309,-6.595998287200928,2.741581916809082
1780525285361272000,9.64727197265625,6.786201000213623,-6.622596740722656,2.5018136501312256
1780525285371312400,9.6573125,6.84066104888916,-6.662886619567871,2.2319674491882324
1780525285391454000,9.677453857421876,6.887299537658691,-6.71622896194458,1.9046690464019775
1780525285431828700,9.717828857421875,6.942145824432373,-6.874539852142334,0.8471724390983582
1780525285441899500,9.7278994140625,6.953858852386475,-6.877524375915527,0.7168596982955933
1780525285452000800,9.738000732421876,6.9898881912231445,-6.871364593505859,0.31013795733451843
1780525285522679600,9.808679443359376,7.0804243087768555,-6.597482204437256,-1.5846829414367676
1780525285532750300,9.818750244140626,7.083707332611084,-6.53835916519165,-1.8003743886947632
1780525285623570700,9.90957080078125,7.114406108856201,-5.851282596588135,-3.364237070083618
1780525285633672000,9.919671875,7.112110614776611,-5.831111907958984,-3.403881549835205
1780525285643773400,9.9297734375,7.094568729400635,-5.806247711181641,-3.482093334197998
1780525285663945500,9.949945556640625,7.089263439178467,-5.777946472167969,-3.5395004749298096
1780525285684148000,9.97014794921875,7.091675281524658,-5.810360431671143,-3.481125831604004
1780525285694249500,9.98024951171875,7.120503902435303,-5.779806137084961,-3.4731338024139404
1780525285704350700,9.990350830078125,7.149823188781738,-5.753670692443848,-3.456254720687866
1780525285714421500,10.00042138671875,7.170536994934082,-5.772133827209473,-3.3817520141601562
1780525285724492300,10.0104921875,7.166406154632568,-5.847362041473389,-3.2590436935424805
1780525285774907400,10.060907470703125,7.284238815307617,-6.041773796081543,-2.570451498031616
1780525285805211400,10.09121142578125,7.29546594619751,-6.200526237487793,-2.1213302612304688
1780525285865880300,10.15188037109375,7.234288692474365,-6.544367790222168,-1.0033494234085083
1780525285896214800,10.18221484375,7.1441779136657715,-6.705663204193115,-0.40643006563186646
1780525285956944600,10.242944580078126,6.995671272277832,-6.855376720428467,0.48454031348228455
1780525286017552600,10.303552734375,6.778010845184326,-7.011963367462158,1.0302119255065918
1780525286078160600,10.36416064453125,6.738919258117676,-7.033447742462158,1.1348872184753418
1780525286088292400,10.374292236328126,6.715785026550293,-7.062190055847168,1.0927420854568481
1780525286098393600,10.3843935546875,6.660614967346191,-7.131582260131836,0.9732023477554321
1780525286108495000,10.3944951171875,6.636913776397705,-7.159585475921631,0.928494930267334
1780525286118596400,10.404596435546875,6.584839820861816,-7.220776557922363,0.818939745426178
1780525286128728000,10.41472802734375,6.523794651031494,-7.2879815101623535,0.7041478157043457
1780525286138798800,10.424798828125,6.440465927124023,-7.377694129943848,0.5103174448013306
1780525286148930800,10.434930908203125,6.4188032150268555,-7.400808334350586,0.44427815079689026
1780525286159032000,10.445031982421876,6.391485214233398,-7.432180404663086,0.2863791882991791
1780525286169164000,10.4551640625,6.358981132507324,-7.465480327606201,0.01874970830976963
1780525286179234800,10.46523486328125,6.331963062286377,-7.486555099487305,-0.16769962012767792
1780525286189366500,10.475366455078126,6.301297664642334,-7.5053324699401855,-0.3661012649536133
1780525286199467800,10.4854677734375,6.271740436553955,-7.517098903656006,-0.5734753012657166
1780525286209599700,10.495599853515625,6.246410369873047,-7.518802165985107,-0.7876286506652832
1780525286219701000,10.505700927734376,6.236901760101318,-7.5150322914123535,-0.8920353651046753
1780525286229833000,10.5158330078125,6.217745304107666,-7.502133846282959,-1.1081620454788208
1780525286239964700,10.525964599609376,6.188179969787598,-7.471092224121094,-1.4351286888122559
1780525286250066000,10.53606591796875,6.18425178527832,-7.4318976402282715,-1.6408333778381348
1780525286260167400,10.54616748046875,6.205092906951904,-7.3676228523254395,-1.839933156967163
1780525286270299100,10.556299072265626,6.256011486053467,-7.275877475738525,-2.023444175720215
1780525286280400400,10.566400390625,6.3154730796813965,-7.172129154205322,-2.201307535171509
1780525286300603100,10.58660302734375,6.390243053436279,-7.008029460906982,-2.4945383071899414
1780525286310704400,10.596704345703126,6.387711048126221,-6.9763946533203125,-2.5879454612731934
1780525286320806000,10.606805908203125,6.368882656097412,-6.969302654266357,-2.652648687362671
1780525286329889300,10.61588916015625,6.3408427238464355,-7.002268314361572,-2.6329333782196045
1780525286339990500,10.625990478515625,6.342255115509033,-6.988300800323486,-2.666430711746216
1780525286350061300,10.636061279296875,6.384658336639404,-6.939271926879883,-2.693145513534546
1780525286360162800,10.646162841796874,6.495236396789551,-6.839941024780273,-2.6828155517578125
1780525286420770600,10.7067705078125,6.586224555969238,-7.0004119873046875,-1.9458363056182861
1780525286451105000,10.73710498046875,6.654012680053711,-7.059754848480225,-1.4333070516586304
1780525286491510300,10.77751025390625,6.711587905883789,-7.14719820022583,-0.20621787011623383
1780525286531946200,10.8179462890625,6.750264644622803,-7.0599846839904785,0.872316837310791
1780525286542047500,10.828047607421874,6.690454959869385,-7.039017200469971,1.3639777898788452
1780525286622919200,10.908919189453124,6.5909857749938965,-6.332152843475342,3.5543124675750732
1780525286673486600,10.959486572265625,6.574486255645752,-6.052306175231934,4.039320468902588
1780525286744318000,11.03031787109375,6.706954002380371,-6.189380645751953,3.588693857192993
1780525286754419200,11.040419189453125,6.7356438636779785,-6.241486072540283,3.441704750061035
1780525286764520700,11.050520751953124,6.7521586418151855,-6.268314838409424,3.3596079349517822
1780525286774622000,11.0606220703125,6.800063133239746,-6.354274272918701,3.090750217437744
1780525286784753700,11.070753662109375,6.8353705406188965,-6.427778244018555,2.8516252040863037
1780525286794885600,11.0808857421875,6.854809284210205,-6.501447677612305,2.629288911819458
1780525286804987000,11.09098681640625,6.862416744232178,-6.5400190353393555,2.5111303329467773
1780525286825159200,11.1111591796875,6.909384250640869,-6.663701057434082,2.006459951400757
1780525286835260400,11.121260498046874,6.9509077072143555,-6.69730806350708,1.732437014579773
1780525286845361700,11.131361572265625,6.991819858551025,-6.719810962677002,1.4591054916381836
1780525286855402000,11.141402099609374,7.0278239250183105,-6.736086368560791,1.1854192018508911
1780525286875635200,11.16163525390625,7.080103874206543,-6.765146732330322,0.5246955156326294
1780525286885767000,11.171766845703125,7.087841033935547,-6.76589822769165,0.39437341690063477
1780525286895837700,11.181837646484375,7.101881504058838,-6.76105260848999,0.1477794051170349
1780525286905969700,11.1919697265625,7.1079020500183105,-6.755761623382568,-0.08843611925840378
1780525286916101400,11.202101318359375,7.065495014190674,-6.787707805633545,-0.4197419583797455
1780525286926233300,11.2122333984375,7.03428840637207,-6.802075386047363,-0.6487926840782166
1780525286936304000,11.22230419921875,6.973100662231445,-6.83911657333374,-0.8790584206581116
1780525286946435800,11.232435791015625,6.869791030883789,-6.9118547439575195,-1.0966466665267944
1780525286966669000,11.2526689453125,6.715778350830078,-7.007048606872559,-1.4035615921020508
1780525286976739800,11.26273974609375,6.596349716186523,-7.060708522796631,-1.6748017072677612
1780525286986871800,11.272871826171874,6.518299102783203,-7.099381923675537,-1.811336874961853
1780525286997003500,11.28300341796875,6.443660259246826,-7.140038013458252,-1.9155917167663574
1780525287007104800,11.293104736328125,6.411386966705322,-7.156468391418457,-1.9620088338851929
1780525287017175600,11.303175537109375,6.345577239990234,-7.18057107925415,-2.084090232849121
1780525287027307500,11.3133076171875,6.32574462890625,-7.185882091522217,-2.125666379928589
1780525287037408800,11.32340869140625,6.263818740844727,-7.217889308929443,-2.199331045150757
1780525287057611500,11.343611572265624,5.942061901092529,-7.45145320892334,-2.3104407787323
1780525287077844500,11.363844482421875,5.6140570640563965,-7.712749004364014,-2.272937297821045
1780525287138391600,11.4243916015625,5.4028754234313965,-7.963573932647705,-1.8870190382003784
1780525287219049500,11.505049560546874,6.144227504730225,-7.611176490783691,-0.6991758942604065
1780525287229150700,11.515150634765625,6.157325744628906,-7.6140456199646,-0.5329597592353821
1780525287239221500,11.525221435546875,6.212103366851807,-7.58322811126709,-0.2735089063644409
1780525287319849000,11.605848876953125,6.2931294441223145,-7.460607051849365,0.9519789814949036
1780525287370203000,11.656202880859375,6.144299507141113,-7.466873645782471,1.6321061849594116
1780525287380304400,11.666304443359374,6.116258144378662,-7.450389862060547,1.803734302520752
1780525287450922000,11.736921875,5.814908981323242,-7.55310583114624,2.3038697242736816
1780525287460992800,11.74699267578125,5.727896213531494,-7.617300033569336,2.310483455657959
1780525287481134300,11.76713427734375,5.608790397644043,-7.719789028167725,2.2620177268981934
1780525287491174700,11.777174560546875,5.577724456787109,-7.748106002807617,2.2419276237487793
1780525287501245400,11.787245361328125,5.477837085723877,-7.850322723388672,2.1298224925994873
1780525287511346700,11.7973466796875,5.404820442199707,-7.924835681915283,2.0384514331817627
1780525287521417700,11.807417724609374,5.3316779136657715,-8.000633239746094,1.9322216510772705
1780525287531519000,11.81751904296875,5.29300594329834,-8.03895092010498,1.87876558303833
1780525287541589800,11.82758984375,5.191320896148682,-8.150222778320312,1.6716644763946533
1780525287551691000,11.83769091796875,5.153782844543457,-8.187460899353027,1.6044883728027344
1780525287561761800,11.84776171875,5.091744899749756,-8.255663871765137,1.4451783895492554
1780525287602136600,11.888136474609375,4.883195400238037,-8.479802131652832,0.6463400721549988
1780525287622278100,11.908278076171875,4.801512241363525,-8.544393539428711,0.3304799199104309
1780525287632318500,11.918318359375,4.7148542404174805,-8.598336219787598,-0.0956859439611435
1780525287642419700,11.928419677734375,4.675344944000244,-8.61518669128418,-0.30016252398490906
1780525287652490500,11.938490478515625,4.6552534103393555,-8.622151374816895,-0.3968772292137146
1780525287662592000,11.948592041015624,4.617591857910156,-8.632746696472168,-0.5691457390785217
1780525287672662800,11.958662841796874,4.593486785888672,-8.634746551513672,-0.715135931968689
1780525287682733600,11.968733642578124,4.595373153686523,-8.620155334472656,-0.8636378049850464
1780525287712946000,11.99894580078125,4.69396448135376,-8.517619132995605,-1.2598589658737183
1780525287723047200,12.009047119140625,4.688941955566406,-8.500836372375488,-1.3856439590454102
1780525287743158300,12.029158203125,4.6884894371032715,-8.494706153869629,-1.4242279529571533
1780525287783502600,12.069502685546874,4.920297145843506,-8.386972427368164,-1.2726961374282837
1780525287813715000,12.09971484375,5.145005702972412,-8.298079490661621,-0.917165994644165
1780525287884302000,12.170302001953125,5.702609062194824,-7.94539737701416,0.7220093607902527
1780525287924585200,12.210585205078125,5.825486660003662,-7.690135955810547,1.7595164775848389
1780525287934595000,12.220594970703125,5.818114280700684,-7.583876609802246,2.191978693008423
1780525287944696300,12.2306962890625,5.792844772338867,-7.515145301818848,2.477081298828125
1780525287954767000,12.24076708984375,5.776062965393066,-7.480262279510498,2.617854118347168
1780525287984949000,12.270948974609375,5.6652913093566895,-7.27182149887085,3.345963716506958
1780525287995050500,12.281050537109374,5.60237455368042,-7.183188438415527,3.6311964988708496
1780525288005090800,12.2910908203125,5.556198596954346,-7.136005878448486,3.7916297912597656
1780525288015161600,12.30116162109375,5.493771553039551,-7.103982925415039,3.9398350715637207
1780525288025262800,12.311262939453124,5.435085296630859,-7.076836585998535,4.067999362945557
1780525288035394600,12.32139453125,5.412682056427002,-7.053404808044434,4.13796329498291
1780525288045435000,12.331434814453125,5.385519504547119,-7.026489734649658,4.218411922454834
1780525288055475200,12.34147509765625,5.369189262390137,-7.013364791870117,4.260858535766602
1780525288075678000,12.361677978515624,5.359222888946533,-7.029303550720215,4.247117042541504
1780525288085748700,12.371748779296874,5.36631441116333,-7.037205696105957,4.225019454956055
1780525288095789000,12.3817890625,5.385887622833252,-7.083074569702148,4.1222147941589355
1780525288126062300,12.412062255859375,5.461222171783447,-7.179380893707275,3.8473284244537354
1780525288146234400,12.432234375,5.54016637802124,-7.278707027435303,3.5351614952087402
1780525288166376200,12.452376220703124,5.620457649230957,-7.446033477783203,3.022819757461548
1780525288176477400,12.4624775390625,5.639626502990723,-7.486177921295166,2.884813070297241
1780525288186548200,12.47254833984375,5.665147304534912,-7.557002544403076,2.6397359371185303
1780525288226861800,12.51286181640625,5.742254734039307,-7.793571949005127,1.5675278902053833
1780525288247034000,12.5330341796875,5.774064540863037,-7.865932464599609,0.9786109328269958
1780525288317590800,12.6035908203125,5.401203155517578,-8.116116523742676,-1.0611591339111328
1780525288327661600,12.61366162109375,5.380043029785156,-8.114697456359863,-1.1735527515411377
1780525288337793300,12.623793212890625,5.361816883087158,-8.091055870056152,-1.3986177444458008
1780525288347864000,12.633864013671875,5.363847732543945,-8.025181770324707,-1.7308908700942993
1780525288357934800,12.643934814453125,5.361627578735352,-7.9808878898620605,-1.931003212928772
1780525288368036400,12.654036376953124,5.363168239593506,-7.978216171264648,-1.9377552270889282
1780525288378076400,12.664076416015625,5.34730339050293,-7.921220779418945,-2.1979525089263916
1780525288398279200,12.684279052734375,5.293789386749268,-7.870895862579346,-2.489011764526367
1780525288408350000,12.694349853515625,5.264338493347168,-7.848467826843262,-2.618910551071167
1780525288418420700,12.704420654296875,5.252382755279541,-7.816768169403076,-2.7351410388946533
1780525288428491500,12.714491455078125,5.2461748123168945,-7.783177852630615,-2.840806484222412
1780525288438562300,12.724562255859375,5.234733581542969,-7.762005805969238,-2.918769121170044
1780525288448663800,12.734663818359374,5.210133075714111,-7.759277820587158,-2.9695944786071777
1780525288458765000,12.74476513671875,5.189051151275635,-7.760408401489258,-3.003364086151123
1780525288468866300,12.7548662109375,5.152844429016113,-7.7803955078125,-3.013972520828247
1780525288478967600,12.764967529296875,5.134257793426514,-7.7944512367248535,-3.009368658065796
1780525288489069000,12.775069091796874,5.066823959350586,-7.862518787384033,-2.945927619934082
1780525288499170300,12.78517041015625,4.982806205749512,-7.9508233070373535,-2.850689649581909
1780525288529413000,12.8154130859375,4.820335388183594,-8.16059684753418,-2.5178205966949463
1780525288539453400,12.825453369140625,4.752342700958252,-8.26694107055664,-2.2898271083831787
1780525288549554700,12.8355546875,4.729529857635498,-8.301490783691406,-2.2106966972351074
1780525288559625700,12.845625732421874,4.6779961585998535,-8.374433517456055,-2.038530111312866
1780525288569696500,12.855696533203124,4.613820552825928,-8.45285415649414,-1.8526524305343628
1780525288579736600,12.865736572265625,4.533499240875244,-8.536275863647461,-1.6582450866699219
1780525288589868500,12.87586865234375,4.443254470825195,-8.61918830871582,-1.4620134830474854
1780525288599939300,12.885939208984375,4.3593363761901855,-8.692171096801758,-1.2699381113052368
1780525288610010000,12.896010009765625,4.307079315185547,-8.744433403015137,-1.0744071006774902
1780525288620081000,12.906080810546875,4.274646282196045,-8.782320022583008,-0.8767170906066895
1780525288670404400,12.956404296875,4.491817474365234,-8.71425724029541,0.23602847754955292
1780525288740900000,13.026900146484374,4.893532752990723,-8.402548789978027,1.2731488943099976
1780525288750971000,13.036970947265624,4.953372001647949,-8.348953247070312,1.38905668258667
1780525288761102600,13.0471025390625,4.980902671813965,-8.32239818572998,1.4486829042434692
1780525288771173400,13.05717333984375,5.034758567810059,-8.270906448364258,1.5536086559295654
1780525288781244200,13.067244140625,5.07501220703125,-8.228610038757324,1.6445775032043457
1780525288791315000,13.07731494140625,5.099034786224365,-8.196257591247559,1.7296216487884521
1780525288801416400,13.08741650390625,5.109405517578125,-8.172550201416016,1.8093597888946533
1780525288811487200,13.0974873046875,5.102863311767578,-8.160478591918945,1.8808897733688354
1780525288821588500,13.10758837890625,5.082281589508057,-8.158514976501465,1.944075107574463
1780525288851862000,13.137862060546874,4.912517070770264,-8.230142593383789,2.074204921722412
1780525288872095000,13.158094970703125,4.753057956695557,-8.325126647949219,2.066669464111328
1780525288902368500,13.188368408203125,4.555149078369141,-8.459747314453125,1.963084101676941
1780525288922510000,13.208510009765625,4.3913373947143555,-8.582366943359375,1.7970904111862183
1780525288932642000,13.21864208984375,4.310752868652344,-8.645674705505371,1.6852655410766602
1780525288942743300,13.228743408203124,4.206220626831055,-8.734061241149902,1.4813088178634644
1780525288952814000,13.23881396484375,4.1409592628479,-8.788797378540039,1.3341230154037476
1780525288962915300,13.248915283203125,4.1079421043396,-8.815092086791992,1.26069974899292
1780525288973016800,13.259016845703124,4.038488864898682,-8.867834091186523,1.1056748628616333
1780525289043604000,13.32960400390625,3.760464668273926,-9.055624008178711,-0.15807020664215088
1780525289063806500,13.349806396484375,3.8101203441619873,-9.01306438446045,-0.6465694904327393
1780525289073907700,13.35990771484375,3.8156330585479736,-9.003826141357422,-0.7365177869796753
1780525289084009200,13.37000927734375,3.7873377799987793,-8.996343612670898,-0.9445967674255371
1780525289094049500,13.380049560546874,3.768376350402832,-8.999251365661621,-0.9915733337402344
1780525289104150800,13.39015087890625,3.741252899169922,-9.002904891967773,-1.0588202476501465
1780525289114282500,13.400282470703125,3.7800657749176025,-8.977309226989746,-1.1355153322219849
1780525289124384000,13.410384033203124,3.928844690322876,-8.903244972229004,-1.2111071348190308
1780525289134454800,13.420454833984374,4.060263156890869,-8.831147193908691,-1.3021184206008911
1780525289144586500,13.43058642578125,4.080435276031494,-8.822343826293945,-1.2987217903137207
1780525289164758800,13.4507587890625,4.051636695861816,-8.8464937210083,-1.2223773002624512
1780525289174829600,13.46082958984375,4.056604385375977,-8.853459358215332,-1.153521180152893
1780525289184930800,13.470930908203124,4.118301868438721,-8.839484214782715,-1.0360981225967407
1780525289195032000,13.481031982421875,4.181983470916748,-8.821795463562012,-0.925916314125061
1780525289215265300,13.501265380859374,4.294186592102051,-8.79582405090332,-0.6031962037086487
1780525289225366500,13.511366455078125,4.311823844909668,-8.793404579162598,-0.50457364320755
1780525289235498500,13.52149853515625,4.348341941833496,-8.784972190856934,-0.2942354679107666
1780525289245630200,13.531630126953125,4.423796653747559,-8.750503540039062,0.1706114262342453
1780525289316370000,13.602369873046875,4.63120698928833,-8.386786460876465,2.0938313007354736
1780525289326502000,13.612501953125,4.673344135284424,-8.284381866455078,2.3873114585876465
1780525289336603100,13.62260302734375,4.692892551422119,-8.229809761047363,2.5332562923431396
1780525289346735000,13.632735107421874,4.732886791229248,-8.069334030151367,2.942112684249878
1780525289356836400,13.64283642578125,4.739209175109863,-8.013630867004395,3.0809097290039062
1780525289366968000,13.652968017578125,4.742152690887451,-7.907594203948975,3.3395135402679443
1780525289377069600,13.663069580078124,4.741335868835449,-7.752549171447754,3.6862049102783203
1780525289397272000,13.68327197265625,4.754615306854248,-7.545168876647949,4.078535079956055
1780525289407404000,13.693404052734374,4.751232624053955,-7.468904972076416,4.2203850746154785
1780525289417535700,13.70353564453125,4.741813659667969,-7.43608283996582,4.288386344909668
1780525289427637000,13.713636962890625,4.71497917175293,-7.389543533325195,4.3970465660095215
1780525289437738500,13.723738525390624,4.680395603179932,-7.35940408706665,4.483687400817871
1780525289447839700,13.73383984375,4.635258197784424,-7.341064453125,4.559992790222168
1780525289457941000,13.74394091796875,4.614468574523926,-7.343407154083252,4.577274322509766
1780525289468042200,13.754042236328125,4.6042304039001465,-7.358997344970703,4.562522888183594
1780525289478143700,13.764143798828124,4.594107627868652,-7.390394687652588,4.52179479598999
1780525289488245000,13.774244873046875,4.591380596160889,-7.409385681152344,4.493396759033203
1780525289498346200,13.78434619140625,4.585294723510742,-7.461551666259766,4.412562370300293
1780525289508447700,13.79444775390625,4.587360858917236,-7.524341583251953,4.302418231964111
1780525289518579500,13.804579345703125,4.600578308105469,-7.625228404998779,4.106209754943848
1780525289528619800,13.814619873046874,4.62418794631958,-7.691983222961426,3.9522979259490967
1780525289538751500,13.82475146484375,4.6525349617004395,-7.761530876159668,3.7792794704437256
1780525289558954200,13.844954345703124,4.698399543762207,-7.868865013122559,3.4894683361053467
1780525289569116700,13.85511669921875,4.738982677459717,-7.990488052368164,3.1407840251922607
1780525289579218000,13.865218017578124,4.763014793395996,-8.071045875549316,2.8883047103881836
1780525289589319200,13.875319091796875,4.772727012634277,-8.110617637634277,2.7585055828094482
1780525289599420400,13.88542041015625,4.7938690185546875,-8.185295104980469,2.4880008697509766
1780525289609522000,13.89552197265625,4.819493770599365,-8.250800132751465,2.206165075302124
1780525289670129700,13.956129638671875,4.931568145751953,-8.469632148742676,0.33963000774383545
1780525289720514300,14.006514404296874,5.093783378601074,-8.2910795211792,-1.2172802686691284
1780525289760828000,14.046827880859375,5.320649147033691,-7.864721775054932,-2.450965166091919
1780525289801141800,14.087141845703124,5.681704044342041,-7.280525207519531,-3.2988736629486084
1780525289871789800,14.157789794921875,6.097204208374023,-6.622724533081055,-3.890245199203491
1780525289942407700,14.22840771484375,6.02174711227417,-7.088037490844727,-3.1094508171081543
1780525289952509000,14.238509033203124,6.014608860015869,-7.168822288513184,-2.93306303024292
1780525289962579700,14.248579833984374,6.004985809326172,-7.250530242919922,-2.7459704875946045
1780525289972620000,14.2586201171875,5.965625286102295,-7.357736110687256,-2.538782835006714
1780525289982721300,14.26872119140625,5.905107498168945,-7.477954864501953,-2.319545030593872
1780525289992792000,14.2787919921875,5.827574253082275,-7.605367183685303,-2.090014934539795
1780525290002893300,14.288893310546875,5.739657402038574,-7.730656147003174,-1.86109459400177
1780525290012933600,14.29893359375,5.62013578414917,-7.886077404022217,-1.5473355054855347
1780525290023004400,14.30900439453125,5.622780799865723,-7.883495330810547,-1.5508782863616943
1780525290033106000,14.31910595703125,5.537669658660889,-8.006380081176758,-1.1842577457427979
1780525290043207200,14.329207275390624,5.5484442710876465,-8.010310173034668,-1.104574203491211
1780525290053247500,14.33924755859375,5.543917655944824,-8.034743309020996,-0.9371660351753235
1780525290063348700,14.3493486328125,5.540397644042969,-8.061750411987305,-0.6946738958358765
1780525290073450000,14.359449951171875,5.527710914611816,-8.082306861877441,-0.5395563840866089
1780525290083520800,14.369520751953125,5.501514911651611,-8.108510971069336,-0.39467853307724
1780525290123804200,14.40980419921875,5.34246826171875,-8.22351360321045,0.04748158901929855
1780525290204370400,14.490370361328125,5.174764633178711,-8.282797813415527,0.8873901963233948
1780525290254755000,14.540755126953124,5.017364025115967,-8.350655555725098,1.1238356828689575
1780525290315302000,14.601302001953124,4.508839130401611,-8.642330169677734,1.0727906227111816
1780525290365717000,14.651717041015624,4.223300933837891,-8.831279754638672,0.5853294134140015
1780525290395929300,14.681929443359374,4.109438896179199,-8.899432182312012,0.2881000339984894
1780525290406000000,14.692000244140624,4.079550266265869,-8.916590690612793,0.14853227138519287
1780525290416040400,14.70204052734375,4.051587104797363,-8.930567741394043,-0.003393441904336214
1780525290506738700,14.79273876953125,4.100155830383301,-8.824362754821777,-1.2205389738082886
1780525290516840000,14.80283984375,4.12963342666626,-8.79971694946289,-1.2967288494110107
1780525290547083000,14.8330830078125,4.113772869110107,-8.800674438476562,-1.339924931526184
1780525290557153800,14.84315380859375,4.113739013671875,-8.803224563598633,-1.32317054271698
1780525290567224600,14.853224609375,4.158761501312256,-8.789266586303711,-1.2743147611618042
1780525290577295400,14.86329541015625,4.182934761047363,-8.782567024230957,-1.2409580945968628
1780525290587335700,14.873335693359374,4.2313127517700195,-8.768726348876953,-1.1729609966278076
1780525290597437000,14.88343701171875,4.263946533203125,-8.764993667602539,-1.0789108276367188
1780525290607507700,14.8935078125,4.297792434692383,-8.769947052001953,-0.8873527646064758
1780525290617578500,14.90357861328125,4.310018539428711,-8.77116870880127,-0.8128618597984314
1780525290627649300,14.913649169921875,4.381427764892578,-8.754680633544922,-0.5736343264579773
1780525290637720000,14.923719970703125,4.441778182983398,-8.73421573638916,-0.39302462339401245
1780525290647790800,14.933790771484375,4.472860813140869,-8.722365379333496,-0.29024580121040344
1780525290657861600,14.943861572265625,4.533888339996338,-8.695368766784668,-0.06930471211671829
1780525290677972700,14.96397265625,4.661384105682373,-8.608484268188477,0.5795490741729736
1780525290688074000,14.974073974609375,4.6805100440979,-8.586488723754883,0.7317442893981934
1780525290698144800,14.984144775390625,4.711172103881836,-8.540968894958496,1.0134636163711548
1780525290708215800,14.9942158203125,4.748264789581299,-8.461152076721191,1.4259291887283325
1780525290718286600,15.00428662109375,4.76234245300293,-8.401044845581055,1.706735610961914
1780525290728357400,15.014357421875,4.764997959136963,-8.36857795715332,1.8525950908660889
1780525290738458600,15.024458740234374,4.766780376434326,-8.299788475036621,2.1358137130737305
1780525290748529400,15.034529296875,4.760685443878174,-8.22680950164795,2.4136834144592285
1780525290758661400,15.044661376953124,4.767580509185791,-8.100265502929688,2.797546625137329
1780525290778803000,15.064802978515624,4.773702144622803,-7.90231466293335,3.306896924972534
1780525290788904200,15.074904296875,4.7531232833862305,-7.86494779586792,3.4235658645629883
1780525290798975000,15.08497509765625,4.716750144958496,-7.80176305770874,3.6131913661956787
1780525290809045800,15.095045654296875,4.644434928894043,-7.731008052825928,3.851118803024292
1780525290839288600,15.12528857421875,4.564930438995361,-7.638271331787109,4.1217241287231445
1780525290849359600,15.135359619140624,4.55890417098999,-7.63047981262207,4.142770767211914
1780525290869501200,15.155501220703124,4.533715724945068,-7.6385345458984375,4.155552864074707
1780525290879572000,15.165572021484374,4.521151065826416,-7.661955833435059,4.126018047332764
1780525290919855000,15.205855224609374,4.558562278747559,-7.795228958129883,3.8241758346557617
1780525290929926000,15.21592578125,4.5819411277771,-7.844673156738281,3.69287371635437
1780525290939996700,15.22599658203125,4.602035999298096,-7.898621082305908,3.5501325130462646
1780525290950067500,15.2360673828125,4.6313958168029785,-7.987226486206055,3.305265188217163
1780525290960138200,15.24613818359375,4.647761821746826,-8.015759468078613,3.2119016647338867
1780525290970239700,15.25623974609375,4.6728386878967285,-8.0829496383667,3.000149726867676
1780525290990442200,15.276442138671875,4.665250301361084,-8.273063659667969,2.441767692565918
1780525291000513000,15.286512939453125,4.655653953552246,-8.34731388092041,2.194911003112793
1780525291010614300,15.2966142578125,4.65315580368042,-8.381830215454102,2.0648138523101807
1780525291020654600,15.306654541015625,4.665894508361816,-8.436996459960938,1.7935802936553955
1780525291030756000,15.316756103515624,4.7052435874938965,-8.472251892089844,1.50068199634552
1780525291040827000,15.326826904296874,4.803115367889404,-8.486571311950684,1.0385469198226929
1780525291050897700,15.336897705078124,4.843169689178467,-8.482884407043457,0.8687737584114075
1780525291060968400,15.346968505859374,4.951718807220459,-8.45604133605957,0.3824138045310974
1780525291081171000,15.3671708984375,5.082920551300049,-8.381726264953613,-0.28461071848869324
1780525291091241700,15.37724169921875,5.132218360900879,-8.335909843444824,-0.5859370231628418
1780525291151727600,15.4377275390625,5.230284214019775,-8.020694732666016,-2.117306709289551
1780525291161768000,15.447767822265625,5.344699859619141,-7.822667121887207,-2.5318877696990967
1780525291222223400,15.508223388671874,5.733899116516113,-7.116205215454102,-3.557023763656616
1780525291232324600,15.51832470703125,5.771939754486084,-6.997989654541016,-3.7260231971740723
1780525291242395400,15.5283955078125,5.80392599105835,-6.919439792633057,-3.821805953979492
1780525291252435700,15.538435791015624,5.825621604919434,-6.875754356384277,-3.867366313934326
1780525291262537000,15.548536865234375,5.868396282196045,-6.803529739379883,-3.9299237728118896
1780525291272607700,15.558607666015625,5.916589736938477,-6.757126808166504,-3.937716245651245
1780525291282709000,15.568708984375,5.938076496124268,-6.747153282165527,-3.9224424362182617
1780525291292749300,15.578749267578125,5.941429138183594,-6.764865398406982,-3.8866958618164062
1780525291323053300,15.60905322265625,5.873526573181152,-6.9424824714660645,-3.670696496963501
1780525291333093600,15.61909375,5.817245960235596,-7.062500953674316,-3.5286154747009277
1780525291343195000,15.62919482421875,5.723212718963623,-7.253715515136719,-3.2861557006835938
1780525291353265700,15.639265625,5.713744163513184,-7.2963385581970215,-3.2073304653167725
1780525291363367200,15.6493671875,5.705196380615234,-7.381371974945068,-3.022660970687866
1780525291373438000,15.65943798828125,5.649291515350342,-7.507796287536621,-2.8087193965911865
1780525291383539200,15.669539306640624,5.58231782913208,-7.633991241455078,-2.594282865524292
1780525291393640400,15.679640380859375,5.465679168701172,-7.821750640869141,-2.262071132659912
1780525291403711200,15.689711181640625,5.370718955993652,-7.9459733963012695,-2.0462846755981445
1780525291433923600,15.719923583984375,5.243933200836182,-8.135052680969238,-1.5787559747695923
1780525291444055600,15.7300556640625,5.2547688484191895,-8.158661842346191,-1.4121015071868896
1780525291454126300,15.740126220703125,5.271681785583496,-8.173788070678711,-1.2525711059570312
1780525291464197000,15.750197021484375,5.278487682342529,-8.199633598327637,-1.0363210439682007
1780525291474329000,15.7603291015625,5.271608829498291,-8.212170600891113,-0.9699386954307556
1780525291494501000,15.780501220703124,5.234074592590332,-8.265594482421875,-0.6743839383125305
1780525291534876000,15.8208759765625,5.24574613571167,-8.282279968261719,-0.23743309080600739
1780525291555078400,15.841078369140625,5.280020713806152,-8.263463020324707,-0.08332563936710358
1780525291565180000,15.851179931640624,5.298671245574951,-8.251916885375977,0.018922727555036545
1780525291575281200,15.86128125,5.311728000640869,-8.242671012878418,0.11967530846595764
1780525291585382400,15.87138232421875,5.3159260749816895,-8.237916946411133,0.21917934715747833
1780525291605585200,15.891585205078124,5.297496318817139,-8.240402221679688,0.4502052068710327
1780525291615686400,15.901686279296875,5.289285659790039,-8.242215156555176,0.5096589922904968
1780525291686395600,15.972395751953124,4.93989372253418,-8.421140670776367,0.9231547117233276
1780525291716730000,16.002730224609376,4.643082141876221,-8.603779792785645,0.7662491798400879
1780525291726831400,16.012831298828125,4.595843315124512,-8.631516456604004,0.7386121153831482
1780525291767267300,16.053267333984376,4.274084091186523,-8.823115348815918,0.23504941165447235
1780525291817834800,16.103834716796875,4.136491298675537,-8.874982833862305,-0.5426800847053528
1780525291827936300,16.113936279296876,4.130093097686768,-8.8726167678833,-0.6240294575691223
1780525291838037500,16.12403759765625,4.110690593719482,-8.868047714233398,-0.7939388751983643
1780525291848138800,16.134138671875,4.069793701171875,-8.86184310913086,-1.036784291267395
1780525291868402400,16.15440234375,4.024094104766846,-8.856327056884766,-1.2419828176498413
1780525291878503700,16.164503662109375,4.003085613250732,-8.850016593933105,-1.3501461744308472
1780525291888605200,16.174605224609376,4.018331050872803,-8.812408447265625,-1.537807583808899
1780525291898706400,16.18470654296875,4.033752918243408,-8.79437255859375,-1.599456548690796
1780525291908807700,16.1948076171875,4.089942455291748,-8.730819702148438,-1.7931945323944092
1780525291918939600,16.204939697265626,4.115584850311279,-8.70942497253418,-1.838009238243103
1780525291929041000,16.215041015625,4.1349382400512695,-8.684781074523926,-1.9097800254821777
1780525291939142100,16.22514208984375,4.1357927322387695,-8.67601203918457,-1.947414517402649
1780525291949243600,16.23524365234375,4.131528854370117,-8.674245834350586,-1.9642612934112549
1780525291959345000,16.245344970703126,4.142230033874512,-8.66833782196045,-1.9678022861480713
1780525291979578000,16.265578125,4.1706461906433105,-8.670371055603027,-1.8975708484649658
1780525291989679400,16.275679443359376,4.195346832275391,-8.67095947265625,-1.8395415544509888
1780525291999780600,16.285780517578125,4.229230880737305,-8.690348625183105,-1.6618798971176147
1780525292009912600,16.29591259765625,4.242989540100098,-8.696932792663574,-1.5908479690551758
1780525292020013800,16.306013916015626,4.288188934326172,-8.702117919921875,-1.4335156679153442
1780525292040247000,16.3262470703125,4.479729175567627,-8.672893524169922,-0.9398530721664429
1780525292050348300,16.336348388671876,4.5811028480529785,-8.643169403076172,-0.6924728751182556
1780525292060449500,16.346449462890625,4.635422706604004,-8.624436378479004,-0.5498691201210022
1780525292090814500,16.376814453125,4.921098709106445,-8.468866348266602,0.4811258316040039
1780525292161554400,16.447554443359376,5.145954132080078,-7.804293632507324,2.9635374546051025
1780525292171655700,16.45765576171875,5.167216777801514,-7.666909694671631,3.2693681716918945
1780525292181787400,16.467787353515625,5.159049987792969,-7.490767478942871,3.6664698123931885
1780525292191889000,16.477888916015626,5.115310192108154,-7.401429176330566,3.901644706726074
1780525292202020600,16.4880205078125,5.039196968078613,-7.3396782875061035,4.111690998077393
1780525292212091400,16.49809130859375,4.992563247680664,-7.31428337097168,4.2125959396362305
1780525292222223400,16.508223388671876,4.840822219848633,-7.280564308166504,4.441871166229248
1780525292232324600,16.51832470703125,4.779672622680664,-7.272680282592773,4.520313739776611
1780525292242456300,16.528456298828125,4.6405229568481445,-7.285948753356934,4.642293930053711
1780525292252527000,16.538527099609375,4.55368185043335,-7.3106369972229,4.689238548278809
1780525292262628600,16.548628662109376,4.511467933654785,-7.324742317199707,4.7079949378967285
1780525292272760300,16.55876025390625,4.39938497543335,-7.398841857910156,4.698185443878174
1780525292282861600,16.568861572265625,4.348405838012695,-7.456030368804932,4.655038833618164
1780525292303094800,16.5890947265625,4.339153289794922,-7.579282760620117,4.460562229156494
1780525292313226800,16.599226806640626,4.3811726570129395,-7.604039192199707,4.37656307220459
1780525292323328000,16.609327880859375,4.44424295425415,-7.6990251541137695,4.140544891357422
1780525292333429200,16.61942919921875,4.47620153427124,-7.729531764984131,4.048253059387207
1780525292343530800,16.62953076171875,4.538445949554443,-7.832235336303711,3.7721340656280518
1780525292363763700,16.649763671875,4.624520301818848,-7.933850288391113,3.44067120552063
1780525292414270500,16.7002705078125,4.842116832733154,-8.255511283874512,2.137948751449585
1780525292444574500,16.730574462890626,5.0274977684021,-8.331685066223145,1.2156047821044922
1780525292535242000,16.821241943359375,5.340478420257568,-8.0819730758667,-1.5268948078155518
1780525292585687600,16.8716875,5.5978684425354,-7.506546974182129,-2.9130747318267822
1780525292595758300,16.88175830078125,5.662606716156006,-7.388808250427246,-3.083956718444824
1780525292605859800,16.89185986328125,5.697646617889404,-7.3002238273620605,-3.2270665168762207
1780525292626001400,16.91200146484375,5.650099754333496,-7.198994159698486,-3.524378776550293
1780525292676355300,16.962355224609375,5.394830226898193,-7.335611820220947,-3.640740156173706
1780525292686456600,16.97245654296875,5.343055725097656,-7.403346061706543,-3.579472064971924
1780525292706628900,16.99262890625,5.222153186798096,-7.588253974914551,-3.364208698272705
1780525292716699600,17.00269970703125,5.188559055328369,-7.640563011169434,-3.2971272468566895
1780525292767084000,17.053083984375,5.040706634521484,-8.0302152633667,-2.5054538249969482
1780525292827570000,17.11356982421875,4.726017475128174,-8.47103214263916,-1.4410995244979858
1780525292837640700,17.123640625,4.771499156951904,-8.468728065490723,-1.2976289987564087
1780525292847711500,17.13371142578125,4.839341163635254,-8.459884643554688,-1.0869804620742798
1780525292857782300,17.1437822265625,4.858136177062988,-8.457497596740723,-1.0196306705474854
1780525292898065700,17.184065673828126,4.916105270385742,-8.467205047607422,-0.5556371808052063
1780525292908136400,17.194136474609376,4.942471504211426,-8.458575248718262,-0.4414367973804474
1780525292918207200,17.204207275390626,4.999441623687744,-8.432228088378906,-0.2711161673069
1780525292938379300,17.224379150390625,5.063802242279053,-8.397454261779785,-0.10514964163303375
1780525292948450000,17.234449951171875,5.1008620262146,-8.375447273254395,0.05898936465382576
1780525293009027600,17.295027587890626,5.099393367767334,-8.349393844604492,0.6739391088485718
1780525293029230000,17.31522998046875,5.071529865264893,-8.351078033447266,0.8422960638999939
1780525293099847700,17.38584765625,4.731175899505615,-8.545116424560547,0.8759872913360596
1780525293180444700,17.466444580078125,4.189705848693848,-8.864875793457031,-0.1753174066543579
1780525293230768000,17.51676806640625,4.078370094299316,-8.843048095703125,-1.1566258668899536
1780525293311273500,17.5972734375,4.026350975036621,-8.675719261169434,-2.165823221206665
1780525293341516500,17.6275166015625,4.133886814117432,-8.58085823059082,-2.33457088470459
1780525293351617800,17.63761767578125,4.065236568450928,-8.622672080993652,-2.3008222579956055
1780525293361688600,17.6476884765625,4.019687652587891,-8.656940460205078,-2.2516424655914307
1780525293371759400,17.65775927734375,3.998845338821411,-8.681966781616211,-2.191594123840332
1780525293381860600,17.667860595703125,3.9956235885620117,-8.693077087402344,-2.1530895233154297
1780525293391931400,17.677931396484375,4.015860080718994,-8.705985069274902,-2.0613293647766113
1780525293402002400,17.68800244140625,4.080676555633545,-8.718979835510254,-1.87025785446167
1780525293412073200,17.6980732421875,4.1040730476379395,-8.724578857421875,-1.7912819385528564
1780525293422174500,17.708174560546876,4.19291877746582,-8.732129096984863,-1.5296193361282349
1780525293432275700,17.718275634765625,4.268152236938477,-8.728589057922363,-1.3285369873046875
1780525293442377000,17.728376953125,4.363085746765137,-8.712411880493164,-1.1080396175384521
1780525293452417300,17.738417236328125,4.478491306304932,-8.680724143981934,-0.8709449172019958
1780525293462518800,17.748518798828126,4.6118597984313965,-8.633087158203125,-0.6090551614761353
1780525293472589600,17.758589599609376,4.6875715255737305,-8.601920127868652,-0.4516972005367279
1780525293482690800,17.76869091796875,4.812603950500488,-8.543709754943848,-0.11939064413309097
1780525293492761600,17.77876171875,4.9051008224487305,-8.488651275634766,0.2305675894021988
1780525293512872700,17.798872802734376,5.034139156341553,-8.353372573852539,1.0242060422897339
1780525293522974000,17.808973876953125,5.070552349090576,-8.281559944152832,1.369547724723816
1780525293533075200,17.8190751953125,5.087389945983887,-8.210150718688965,1.6977286338806152
1780525293543146200,17.829146240234376,5.0897603034973145,-8.136401176452637,2.015862226486206
1780525293553186300,17.839186279296875,5.075669765472412,-8.059351921081543,2.335552215576172
1780525293563287800,17.849287841796876,5.045799255371094,-7.976884365081787,2.660755157470703
1780525293583459800,17.8694599609375,4.961742401123047,-7.785650730133057,3.3068344593048096
1780525293593561000,17.87956103515625,4.907679080963135,-7.640384674072266,3.7026479244232178
1780525293603631900,17.8896318359375,4.837912082672119,-7.57366418838501,3.9248721599578857
1780525293613702700,17.89970263671875,4.710535049438477,-7.539373397827148,4.1399383544921875
1780525293623804200,17.90980419921875,4.592123985290527,-7.516586780548096,4.310880184173584
1780525293643945700,17.92994580078125,4.394789695739746,-7.502151966094971,4.5358500480651855
1780525293664117800,17.95011767578125,4.27584981918335,-7.5240254402160645,4.6126508712768555
1780525293674219000,17.960218994140625,4.257169246673584,-7.533590793609619,4.614315032958984
1780525293684320500,17.970320556640626,4.236916542053223,-7.562926769256592,4.584876537322998
1780525293694421800,17.980421875,4.227311611175537,-7.602585315704346,4.527794361114502
1780525293704462000,17.990462158203126,4.2231059074401855,-7.679373264312744,4.4003400802612305
1780525293714563300,18.000563232421875,4.237084865570068,-7.704324722290039,4.342911720275879
1780525293724634000,18.010634033203125,4.261223316192627,-7.762452125549316,4.213871955871582
1780525293734705000,18.020704833984375,4.300533771514893,-7.823254585266113,4.058631896972656
1780525293744775700,18.030775634765625,4.3503193855285645,-7.887879848480225,3.876396894454956
1780525293764917200,18.050917236328125,4.489218711853027,-8.017754554748535,3.4253344535827637
1780525293774957600,18.06095751953125,4.552433967590332,-8.122705459594727,3.0769095420837402
1780525293785028400,18.0710283203125,4.601405143737793,-8.187909126281738,2.8205671310424805
1780525293795099100,18.08109912109375,4.645258903503418,-8.249757766723633,2.556061029434204
1780525293805200600,18.09120068359375,4.670407295227051,-8.278082847595215,2.414752960205078
1780525293885797400,18.17179736328125,5.012641906738281,-8.428297996520996,-0.08723405003547668
1780525293966333400,18.25233349609375,5.3191046714782715,-7.9015936851501465,-2.3328824043273926
1780525293996545800,18.2825458984375,5.567933082580566,-7.553740978240967,-2.847724437713623
1780525294016687400,18.302687255859375,5.635745048522949,-7.410539627075195,-3.081017255783081
1780525294087244000,18.373244140625,5.672186374664307,-7.3800201416015625,-3.0873937606811523
1780525294157800700,18.44380078125,5.365116596221924,-7.970992088317871,-1.961939811706543
1780525294167871500,18.45387158203125,5.384339809417725,-8.001344680786133,-1.7770109176635742
1780525294177972700,18.46397265625,5.3509368896484375,-8.067021369934082,-1.568765640258789
1780525294188074000,18.474073974609375,5.287532329559326,-8.144468307495117,-1.371139645576477
1780525294198175500,18.484175537109376,5.244336128234863,-8.188003540039062,-1.2743293046951294
1780525294208276700,18.49427685546875,5.107755661010742,-8.310114860534668,-1.0115385055541992
1780525294228418300,18.514418212890625,5.061176300048828,-8.370006561279297,-0.7055974006652832
1780525294238519600,18.52451953125,5.076808452606201,-8.36656379699707,-0.6300944685935974
1780525294248590300,18.53459033203125,5.15910005569458,-8.329930305480957,-0.40783584117889404
1780525294288904200,18.574904296875,5.227550029754639,-8.29630184173584,0.12042320519685745
1780525294299005400,18.58500537109375,5.1984992027282715,-8.312124252319336,0.23362113535404205
1780525294309106700,18.595106689453125,5.182475566864014,-8.318194389343262,0.3463718891143799
1780525294369653800,18.65565380859375,5.222884178161621,-8.24730110168457,0.9348223805427551
1780525294420190700,18.706190673828125,5.2183837890625,-8.216567993164062,1.1945254802703857
1780525294440393500,18.7263935546875,5.142648220062256,-8.252610206604004,1.271999478340149
1780525294490869500,18.776869384765625,4.794856548309326,-8.484082221984863,1.0954831838607788
1780525294501001200,18.787001220703125,4.71807861328125,-8.544629096984863,0.948395848274231
1780525294511102700,18.797102783203126,4.679394245147705,-8.577548027038574,0.8362602591514587
1780525294541437200,18.827437255859376,4.5911784172058105,-8.652339935302734,0.477996289730072
1780525294581873000,18.867872802734375,4.381170749664307,-8.766135215759277,-0.3613865077495575
1780525294591974100,18.87797412109375,4.363480091094971,-8.764387130737305,-0.562090277671814
1780525294602075600,18.88807568359375,4.360240936279297,-8.750757217407227,-0.7635176777839661
1780525294612177000,18.898177001953126,4.363422870635986,-8.740371704101562,-0.8583973050117493
1780525294622278100,18.908278076171875,4.378182888031006,-8.698979377746582,-1.1531199216842651
1780525294632379400,18.91837939453125,4.388960361480713,-8.666027069091797,-1.344398021697998
1780525294642481000,18.92848095703125,4.393001079559326,-8.648950576782227,-1.4379180669784546
1780525294652551700,18.9385517578125,4.391653537750244,-8.616504669189453,-1.624693512916565
1780525294662683400,18.948683349609375,4.3396196365356445,-8.596035957336426,-1.856410026550293
1780525294672815400,18.9588154296875,4.3126091957092285,-8.597954750061035,-1.9097046852111816
1780525294682916600,18.96891650390625,4.241143226623535,-8.604605674743652,-2.0356452465057373
1780525294713251000,18.9992509765625,4.305649757385254,-8.503006935119629,-2.3088183403015137
1780525294723383000,19.009383056640626,4.41179084777832,-8.45607852935791,-2.2806179523468018
1780525294733514800,19.0195146484375,4.4296555519104,-8.446898460388184,-2.2800111770629883
1780525294743616000,19.029615966796875,4.371062278747559,-8.482563972473145,-2.260601043701172
1780525294753717500,19.039717529296876,4.338532447814941,-8.5051851272583,-2.2381629943847656
1780525294763818800,19.04981884765625,4.285650253295898,-8.546607971191406,-2.1815359592437744
1780525294773950500,19.059950439453125,4.268803119659424,-8.571880340576172,-2.1143741607666016
1780525294784052000,19.070052001953126,4.295799732208252,-8.580141067504883,-2.0242724418640137
1780525294804315600,19.090315673828126,4.46720027923584,-8.572616577148438,-1.6506860256195068
1780525294834650000,19.120650146484376,4.62869119644165,-8.57297134399414,-1.1179399490356445
1780525294844751400,19.13075146484375,4.743659019470215,-8.550215721130371,-0.7495993375778198
1780525294854883000,19.140883056640625,4.788567066192627,-8.53591251373291,-0.6149824857711792
1780525294864984600,19.150984619140626,4.911324501037598,-8.485849380493164,-0.19912585616111755
1780525294925684000,19.21168408203125,5.096120357513428,-8.18446159362793,1.7929080724716187
1780525294935785200,19.22178515625,5.095988750457764,-8.148959159851074,1.94827401638031
1780525294945886700,19.23188671875,5.062723159790039,-8.053719520568848,2.3826088905334473
1780525294956018400,19.242018310546875,5.043778896331787,-8.018610954284668,2.5362541675567627
1780525294966119700,19.25211962890625,5.0032854080200195,-7.942592144012451,2.8377366065979004
1780525294976221200,19.26222119140625,4.969588756561279,-7.87066125869751,3.0864686965942383
1780525294986322400,19.272322509765626,4.937946319580078,-7.802578926086426,3.302550792694092
1780525294996423700,19.282423583984375,4.878770351409912,-7.722307205200195,3.5684685707092285
1780525295016657000,19.302656982421876,4.780606269836426,-7.67063045501709,3.8049471378326416
1780525295026788600,19.31278857421875,4.7071003913879395,-7.645637512207031,3.944340229034424
1780525295036890000,19.32289013671875,4.684024810791016,-7.630834102630615,4.000086307525635
1780525295047021800,19.333021728515625,4.675364017486572,-7.628072738647461,4.015452861785889
1780525295057123000,19.343123046875,4.669629096984863,-7.641854763031006,3.9958722591400146
1780525295067224600,19.353224609375,4.672762393951416,-7.661308765411377,3.9547488689422607
1780525295077356300,19.363356201171875,4.675948143005371,-7.673226356506348,3.9277851581573486
1780525295087457500,19.37345751953125,4.685719013214111,-7.724921226501465,3.813138008117676
1780525295127924000,19.413924072265626,4.758114814758301,-7.931141376495361,3.260016918182373
1780525295208642800,19.494642822265625,4.948462963104248,-8.335389137268066,1.484724760055542
1780525295228815000,19.514815185546876,5.053117752075195,-8.370288848876953,0.7580606341362
1780525295238916400,19.524916259765625,5.105649948120117,-8.360936164855957,0.44438278675079346
1780525295248956700,19.534956787109376,5.163738250732422,-8.33616828918457,0.12046236544847488
1780525295259058000,19.545057861328125,5.19035005569458,-8.320426940917969,-0.03397971764206886
1780525295269159400,19.555159423828126,5.219379425048828,-8.296514511108398,-0.31033962965011597
1780525295279260700,19.5652607421875,5.220794677734375,-8.281455993652344,-0.5754875540733337
1780525295289301000,19.575301025390626,5.1797332763671875,-8.270785331726074,-0.9668819308280945
1780525295299402200,19.58540234375,5.159090042114258,-8.267236709594727,-1.0986261367797852
1780525295309503500,19.59550341796875,5.138782024383545,-8.23945426940918,-1.3691980838775635
1780525295339777000,19.625777099609376,5.255657196044922,-7.947967529296875,-2.3191099166870117
1780525295349847800,19.635847900390626,5.351362228393555,-7.800600051879883,-2.5853323936462402
1780525295380029700,19.66602978515625,5.56525182723999,-7.468210697174072,-3.0698845386505127
1780525295390070000,19.676070068359376,5.608293056488037,-7.400412082672119,-3.1545753479003906
1780525295430383600,19.716383544921875,5.685002326965332,-7.18388032913208,-3.4990007877349854
1780525295440454400,19.726454345703125,5.686661720275879,-7.164566516876221,-3.535712242126465
1780525295500970800,19.786970703125,5.717535972595215,-7.321923732757568,-3.141591787338257
1780525295531183000,19.81718310546875,5.780796051025391,-7.450675964355469,-2.690765857696533
1780525295541284600,19.82728466796875,5.806832790374756,-7.531251907348633,-2.394016742706299
1780525295551355400,19.83735546875,5.802159786224365,-7.5703020095825195,-2.2794418334960938
1780525295561426200,19.84742626953125,5.760654449462891,-7.667013645172119,-2.049914836883545
1780525295571527400,19.85752734375,5.685934066772461,-7.782172679901123,-1.8106170892715454
1780525295581598200,19.86759814453125,5.576099395751953,-7.931939601898193,-1.4703201055526733
1780525295591669000,19.8776689453125,5.537690162658691,-7.993776321411133,-1.266458511352539
1780525295601739800,19.88773974609375,5.539645671844482,-8.006237030029297,-1.175962209701538
1780525295611841300,19.89784130859375,5.5922465324401855,-8.005123138427734,-0.9028630256652832
1780525295631982800,19.91798291015625,5.666038513183594,-7.979256629943848,-0.6307607889175415
1780525295642053600,19.9280537109375,5.690324306488037,-7.974205493927002,-0.4501818120479584
1780525295652124400,19.93812451171875,5.693718433380127,-7.979547023773193,-0.280671626329422
1780525295662225700,19.9482255859375,5.678978443145752,-7.993901252746582,-0.13089199364185333
1780525295672327000,19.958326904296875,5.654012680053711,-8.012643814086914,0.007646715268492699
1780525295682397700,19.968397705078125,5.626725673675537,-8.03060245513916,0.14064882695674896
1780525295692468700,19.97846875,5.608847618103027,-8.039875030517578,0.26763972640037537
1780525295702539500,19.98853955078125,5.587512493133545,-8.046656608581543,0.4487798511981964
1780525295712610300,19.9986103515625,5.579634666442871,-8.048542976379395,0.5089461207389832
1780525295722681000,20.00868115234375,5.564115047454834,-8.051496505737305,0.6200082302093506
1780525295783167000,20.0691669921875,5.417261123657227,-8.102373123168945,1.084075927734375
1780525295793268200,20.079268310546876,5.3911519050598145,-8.115084648132324,1.1186013221740723
1780525295803369500,20.089369384765625,5.331324100494385,-8.147377014160156,1.1694526672363281
1780525295813440300,20.099440185546875,5.288351535797119,-8.172136306762695,1.1916002035140991
1780525295823541500,20.10954150390625,5.265138149261475,-8.185413360595703,1.2032166719436646
1780525295833612500,20.119612548828126,5.22208309173584,-8.215998649597168,1.182203769683838
1780525295853723400,20.139723388671875,5.118209362030029,-8.295442581176758,1.0770137310028076
1780525295914239700,20.20023974609375,4.821529865264893,-8.533758163452148,0.31339403986930847
1780525295924310800,20.210310791015626,4.785323619842529,-8.558757781982422,0.1368669718503952
1780525295934350800,20.220350830078125,4.742059707641602,-8.58376693725586,-0.046989716589450836
1780525295944421600,20.230421630859375,4.685788631439209,-8.611544609069824,-0.23465105891227722
1780525295954523100,20.240523193359376,4.623578071594238,-8.638078689575195,-0.4201274514198303
1780525295974725600,20.2607255859375,4.504243850708008,-8.666729927062988,-0.8774892687797546
1780525295984827100,20.2708271484375,4.477700710296631,-8.66039752960205,-1.0574085712432861
1780525295994898000,20.28089794921875,4.468649864196777,-8.654627799987793,-1.1397289037704468
1780525296004968700,20.29096875,4.453740119934082,-8.638142585754395,-1.3103744983673096
1780525296025110300,20.3111103515625,4.441795349121094,-8.593120574951172,-1.6121827363967896
1780525296035181000,20.32118115234375,4.432627201080322,-8.566184043884277,-1.7727655172348022
1780525296045282300,20.3312822265625,4.420358180999756,-8.538454055786133,-1.9301892518997192
1780525296055322600,20.341322509765625,4.38012170791626,-8.511514663696289,-2.1305019855499268
1780525296065424000,20.351423828125,4.360515117645264,-8.508201599121094,-2.1832995414733887
1780525296095636200,20.38163623046875,4.224637508392334,-8.534421920776367,-2.342327117919922
1780525296105707300,20.391707275390626,4.247861385345459,-8.49702262878418,-2.4344735145568848
1780525296115778000,20.401778076171876,4.286279201507568,-8.476723670959473,-2.4379022121429443
1780525296125879300,20.41187939453125,4.308475971221924,-8.454943656921387,-2.474138021469116
1780525296135980500,20.42198046875,4.306171417236328,-8.459482192993164,-2.462608575820923
1780525296146051300,20.43205126953125,4.24675989151001,-8.505542755126953,-2.4064817428588867
1780525296156152800,20.44215283203125,4.179225921630859,-8.56209945678711,-2.3226964473724365
1780525296166254000,20.452254150390626,4.1357741355896,-8.608244895935059,-2.227980375289917
1780525296176324900,20.462324951171876,4.128819465637207,-8.637961387634277,-2.1234092712402344
1780525296186365200,20.472365234375,4.1784586906433105,-8.658822059631348,-1.9327938556671143
1780525296196466400,20.482466552734376,4.20257043838501,-8.664472579956055,-1.8535630702972412
1780525296206537200,20.492537109375,4.257836818695068,-8.672897338867188,-1.6799007654190063
1780525296216638500,20.502638427734375,4.316667556762695,-8.679388999938965,-1.4849218130111694
1780525296226740000,20.512739990234376,4.420779228210449,-8.677717208862305,-1.1507874727249146
1780525296297296400,20.58329638671875,5.142368793487549,-8.293557167053223,0.9712567925453186
1780525296367822600,20.653822509765625,5.192403316497803,-7.799400806427002,2.8945980072021484
1780525296377923800,20.663923828125,5.131009578704834,-7.705990314483643,3.2343239784240723
1780525296387994600,20.67399462890625,5.109633445739746,-7.675589084625244,3.3387668132781982
1780525296418268200,20.70426806640625,4.938394069671631,-7.563927173614502,3.8170218467712402
1780525296428339000,20.7143388671875,4.900151252746582,-7.559136390686035,3.875354528427124
1780525296438440200,20.724440185546875,4.842531681060791,-7.558553218841553,3.9482367038726807
1780525296448480500,20.73448046875,4.791811943054199,-7.566555976867676,3.994516611099243
1780525296458551300,20.74455126953125,4.754819869995117,-7.5837202072143555,4.006155490875244
1780525296468652800,20.75465283203125,4.724626064300537,-7.625691890716553,3.961958885192871
1780525296478754000,20.764754150390626,4.719710826873779,-7.65922212600708,3.9026987552642822
1780525296488794400,20.77479443359375,4.728790283203125,-7.695883274078369,3.8186793327331543
1780525296498895600,20.7848955078125,4.763145446777344,-7.731469631195068,3.7023258209228516
1780525296508996900,20.794996826171875,4.804543972015381,-7.770560264587402,3.5644261837005615
1780525296529169200,20.815169189453126,4.90033483505249,-7.85477352142334,3.234137773513794
1780525296539270400,20.8252705078125,4.940424919128418,-7.8750081062316895,3.1219937801361084
1780525296549341200,20.835341064453125,5.00529670715332,-7.960351467132568,2.783918857574463
1780525296559412000,20.845411865234375,5.036086559295654,-8.018375396728516,2.5522310733795166
1780525296569452300,20.855452392578126,5.056282997131348,-8.046442031860352,2.4205679893493652
1780525296579523000,20.865523193359376,5.083984375,-8.097779273986816,2.1793296337127686
1780525296589624300,20.875624267578125,5.112954139709473,-8.142911911010742,1.9290108680725098
1780525296599695000,20.885695068359375,5.154130458831787,-8.200136184692383,1.5372394323349
1780525296619836700,20.905836669921875,5.195480823516846,-8.241257667541504,1.1220695972442627
1780525296629938200,20.915938232421876,5.243253707885742,-8.258030891418457,0.6954305171966553
1780525296640009000,20.926009033203126,5.284799098968506,-8.251115798950195,0.40048694610595703
1780525296660181000,20.946180908203125,5.407154083251953,-8.178696632385254,-0.20492957532405853
1780525296690393300,20.976393310546875,5.4728617668151855,-8.094202041625977,-0.8379024863243103
1780525296710596000,20.99659619140625,5.467916965484619,-8.028268814086914,-1.3487626314163208
1780525296720697300,21.006697265625,5.4801130294799805,-7.942591190338135,-1.7475690841674805
1780525296730798600,21.016798583984375,5.505241870880127,-7.863450527191162,-2.007199764251709
1780525296761072000,21.047072021484375,5.715548515319824,-7.523418426513672,-2.6269898414611816
1780525296791284500,21.077284423828125,5.925360679626465,-7.205305099487305,-3.023916006088257
1780525296821527600,21.107527587890626,6.000123500823975,-7.026715278625488,-3.285452127456665
1780525296851800800,21.13780078125,6.001026630401611,-7.021838665008545,-3.2942135334014893
1780525296902216000,21.1882158203125,6.054179668426514,-7.218836307525635,-2.7213423252105713
1780525296912286700,21.19828662109375,6.063566207885742,-7.266134262084961,-2.5703744888305664
1780525296922327000,21.2083271484375,6.0694379806518555,-7.288711071014404,-2.4913864135742188
1780525296952569900,21.23856982421875,6.09340238571167,-7.443873405456543,-1.9051462411880493
1780525296962640600,21.248640625,6.035672187805176,-7.547024250030518,-1.6683769226074219
1780525296972742100,21.2587421875,5.940827369689941,-7.670732498168945,-1.4271721839904785
1780525296982813000,21.26881298828125,5.835521697998047,-7.790775775909424,-1.192009687423706
1780525296992914200,21.2789140625,5.737185478210449,-7.904660224914551,-0.8783227801322937
1780525297002985000,21.28898486328125,5.723525047302246,-7.924275875091553,-0.7858192324638367
1780525297013086200,21.299086181640625,5.732451915740967,-7.933988094329834,-0.601017415523529
1780525297023187700,21.309187744140626,5.7608184814453125,-7.929548263549805,-0.32499825954437256
1780525297033289000,21.3192890625,5.769902229309082,-7.92629337310791,-0.2290983945131302
1780525297043359700,21.32935986328125,5.749395370483398,-7.9444146156311035,0.03350421041250229
1780525297073602600,21.3596025390625,5.635201454162598,-8.012858390808105,0.4571686089038849
1780525297114007800,21.4000078125,5.576778411865234,-8.012292861938477,0.9343898296356201
1780525297144311800,21.430311767578125,5.549465656280518,-7.999580383300781,1.1749662160873413
1780525297164484000,21.450484130859376,5.504316329956055,-8.009950637817383,1.3090463876724243
1780525297174585300,21.46058544921875,5.4798784255981445,-8.01998233795166,1.3495234251022339
1780525297184625700,21.470625732421876,5.451937675476074,-8.033564567565918,1.3815195560455322
1780525297194757400,21.48075732421875,5.408271312713623,-8.060291290283203,1.3973782062530518
1780525297204859000,21.49085888671875,5.358933448791504,-8.090791702270508,1.4111372232437134
1780525297214960000,21.500960205078126,5.330350399017334,-8.110319137573242,1.4072996377944946
1780525297225061400,21.511061279296875,5.272192478179932,-8.155187606811523,1.3664941787719727
1780525297235162600,21.52116259765625,5.1757097244262695,-8.232950210571289,1.2652934789657593
1780525297305933000,21.59193310546875,4.7773213386535645,-8.554924964904785,0.40107467770576477
1780525297346338300,21.63233837890625,4.6001296043396,-8.658421516418457,-0.20233693718910217
1780525297366571500,21.652571533203126,4.529384136199951,-8.680042266845703,-0.5585141777992249
1780525297447382000,21.733382080078126,4.452849864959717,-8.531631469726562,-1.8851571083068848
1780525297457513700,21.743513671875,4.431138515472412,-8.531856536865234,-1.934638261795044
1780525297467615200,21.753615234375,4.3476667404174805,-8.555425643920898,-2.018134593963623
1780525297477747000,21.763746826171875,4.314211845397949,-8.562971115112305,-2.057542562484741
1780525297487817700,21.773817626953125,4.309580326080322,-8.559757232666016,-2.0804994106292725
1780525297497949700,21.78394970703125,4.353182792663574,-8.517687797546387,-2.16082501411438
1780525297508051000,21.794051025390626,4.398244857788086,-8.485137939453125,-2.197331428527832
1780525297518152200,21.804152099609375,4.41146183013916,-8.476800918579102,-2.2030069828033447
1780525297588892000,21.874891845703125,4.638845920562744,-8.516230583190918,-1.457846760749817
1780525297598993400,21.884993408203126,4.730602741241455,-8.498504638671875,-1.2518877983093262
1780525297609094700,21.8950947265625,4.7656097412109375,-8.495280265808105,-1.1355851888656616
1780525297619196000,21.90519580078125,4.837080001831055,-8.482453346252441,-0.9061077237129211
1780525297629328000,21.915327880859376,4.894711971282959,-8.471990585327148,-0.6614862084388733
1780525297639459600,21.92545947265625,4.984323024749756,-8.440698623657227,-0.2855088412761688
1780525297659692800,21.94569287109375,5.146335601806641,-8.344072341918945,0.24918168783187866
1780525297669824500,21.955824462890625,5.188090801239014,-8.312365531921387,0.398373007774353
1780525297690027300,21.97602734375,5.36266565322876,-8.12471866607666,1.1837018728256226
1780525297700128500,21.98612841796875,5.41597318649292,-8.037097930908203,1.4975608587265015
1780525297710229800,21.996229736328125,5.474550724029541,-7.934398651123047,1.8013883829116821
1780525297720331300,22.006331298828126,5.496511459350586,-7.880271911621094,1.9647032022476196
1780525297730432500,22.0164326171875,5.530231475830078,-7.744260311126709,2.369253158569336
1780525297750635000,22.036635009765625,5.498251438140869,-7.628669738769531,2.7826287746429443
1780525297760736500,22.046736572265626,5.430572986602783,-7.533536911010742,3.1504108905792236
1780525297770837800,22.056837646484375,5.3898820877075195,-7.4728827476501465,3.357915163040161
1780525297780969700,22.0669697265625,5.363485336303711,-7.443332672119141,3.4641306400299072
1780525297791071000,22.077071044921876,5.287243843078613,-7.411720275878906,3.644428253173828
1780525297811243000,22.097242919921875,5.193477153778076,-7.408369064331055,3.7834181785583496
1780525297882013200,22.16801318359375,5.175816535949707,-7.587461471557617,3.436824321746826
1780525297912317200,22.198317138671875,5.242677688598633,-7.7480363845825195,2.9415385723114014
1780525297972803000,22.258802978515625,5.294100284576416,-8.10678768157959,1.5565648078918457
1780525298033350000,22.319349853515625,5.650888442993164,-8.010553359985352,-0.2624678611755371
1780525298063623400,22.34962353515625,5.728078842163086,-7.900913715362549,-0.966995894908905
1780525298093835800,22.379835693359375,5.693789958953857,-7.795361518859863,-1.727277159690857
1780525298114007800,22.4000078125,5.693482875823975,-7.660242080688477,-2.2528488636016846
1780525298124078800,22.410078857421876,5.683302402496338,-7.588801860809326,-2.5061004161834717
1780525298144251000,22.4302509765625,5.6091790199279785,-7.467069625854492,-2.991715669631958
1780525298214868500,22.500868408203125,5.021220684051514,-7.660601615905762,-3.5032734870910645
1780525298275446000,22.561446044921876,5.0105767250061035,-7.777439117431641,-3.252070903778076
1780525298285577700,22.57157763671875,5.022109508514404,-7.8227739334106445,-3.1229801177978516
1780525298295648500,22.5816484375,5.037562847137451,-7.8663740158081055,-2.9855504035949707
1780525298305719300,22.59171923828125,5.089328289031982,-7.884171485900879,-2.847625494003296
1780525298315790000,22.6017900390625,5.133842468261719,-7.911391258239746,-2.6877386569976807
1780525298325860900,22.61186083984375,5.192814826965332,-7.927353858947754,-2.522324562072754
1780525298346002700,22.632002685546876,5.201079368591309,-8.033205032348633,-2.141674757003784
1780525298356073500,22.642073486328126,5.1488142013549805,-8.11821174621582,-1.93771493434906
1780525298366144300,22.652144287109376,5.0686421394348145,-8.213375091552734,-1.7377362251281738
1780525298376215000,22.662215087890626,4.997546672821045,-8.294852256774902,-1.546081781387329
1780525298386316300,22.67231640625,4.982113361358643,-8.335739135742188,-1.365435242652893
1780525298396417500,22.68241748046875,5.037810802459717,-8.328802108764648,-1.1924299001693726
1780525298406427400,22.692427490234376,5.126667022705078,-8.29726791381836,-1.0212868452072144
1780525298416528600,22.702528564453125,5.224109649658203,-8.255563735961914,-0.8513254523277283
1780525298426630000,22.7126298828125,5.299041748046875,-8.223450660705566,-0.682204008102417
1780525298436761900,22.722761962890626,5.338124752044678,-8.210055351257324,-0.5194318890571594
1780525298446832600,22.73283251953125,5.319980621337891,-8.232931137084961,-0.2950386106967926
1780525298487146200,22.773146240234375,5.236257076263428,-8.288531303405762,0.228623166680336
1780525298557764000,22.84376416015625,5.320888042449951,-8.191332817077637,0.8721256852149963
1780525298598077700,22.88407763671875,5.13773250579834,-8.279084205627441,1.109442114830017
1780525298608148500,22.8941484375,5.083111763000488,-8.309916496276855,1.1303387880325317
1780525298618219300,22.90421923828125,5.023446559906006,-8.34483528137207,1.1397770643234253
1780525298628290000,22.9142900390625,4.944814682006836,-8.395119667053223,1.1140809059143066
1780525298638391600,22.9243916015625,4.916026592254639,-8.412697792053223,1.1088687181472778
1780525298648492800,22.934492919921876,4.865926265716553,-8.447161674499512,1.067059874534607
1780525298658563600,22.9445634765625,4.8119354248046875,-8.485429763793945,1.0065586566925049
1780525298668664800,22.954664794921875,4.7194671630859375,-8.551268577575684,0.8791074752807617
1780525298678735600,22.964735595703125,4.6830949783325195,-8.575312614440918,0.8384662866592407
1780525298688806400,22.974806396484375,4.618026256561279,-8.621612548828125,0.7155532836914062
1780525298698908000,22.984907958984376,4.558650970458984,-8.663727760314941,0.5735287666320801
1780525298708978700,22.994978759765626,4.477123260498047,-8.718911170959473,0.32611995935440063
1780525298719049500,23.005049560546876,4.4186692237854,-8.753427505493164,0.15250906348228455
1780525298729120300,23.015120361328126,4.387702465057373,-8.770071983337402,0.06561579555273056
1780525298739221500,23.025221435546875,4.322545528411865,-8.801834106445312,-0.1170528456568718
1780525298749292300,23.035292236328125,4.242185115814209,-8.832688331604004,-0.3973284661769867
1780525298759393800,23.045393798828126,4.2203240394592285,-8.838582992553711,-0.48858168721199036
1780525298840082200,23.126082275390626,4.0288872718811035,-8.748119354248047,-1.8463146686553955
1780525298900568000,23.186568115234376,3.9961307048797607,-8.69875717163086,-2.1290786266326904
1780525298940881700,23.226881591796875,3.9243264198303223,-8.77769947052002,-1.9292627573013306
1780525298971094000,23.257093994140625,4.021063327789307,-8.812994956970215,-1.5272765159606934
1780525298981195500,23.267195556640626,4.043457508087158,-8.816926956176758,-1.443135142326355
1780525299051813000,23.337813232421876,4.890735626220703,-8.497493743896484,0.2090282440185547
1780525299102289200,23.3882890625,5.2462921142578125,-8.047955513000488,1.9690666198730469
1780525299122400300,23.408400146484375,5.208962440490723,-7.9222636222839355,2.504964828491211
1780525299132501500,23.41850146484375,5.157713890075684,-7.87211275100708,2.7564868927001953
1780525299162744600,23.44874462890625,4.988088130950928,-7.73795223236084,3.3783793449401855
1780525299172785000,23.458784912109376,4.9347052574157715,-7.684945583343506,3.5722126960754395
1780525299182886100,23.46888623046875,4.854064464569092,-7.619997024536133,3.813671112060547
1780525299192987400,23.4789873046875,4.83222770690918,-7.59391975402832,3.8926007747650146
1780525299203058200,23.48905810546875,4.757142066955566,-7.561600685119629,4.045019626617432
1780525299223230500,23.50923046875,4.681757926940918,-7.549465179443359,4.1541666984558105
1780525299253503700,23.539503662109375,4.639091491699219,-7.607273578643799,4.096170425415039
1780525299263574500,23.549574462890625,4.640916347503662,-7.646167755126953,4.020997524261475
1780525299273645300,23.559645263671875,4.6544623374938965,-7.691572666168213,3.917407989501953
1780525299283716000,23.569716064453125,4.678977012634277,-7.740954399108887,3.7888240814208984
1780525299293817600,23.579817626953126,4.703211307525635,-7.764846324920654,3.7090890407562256
1780525299303918800,23.5899189453125,4.736138820648193,-7.818093299865723,3.552013635635376
1780525299313989600,23.59998974609375,4.775045394897461,-7.872819900512695,3.374615430831909
1780525299334100700,23.620100830078126,4.882593154907227,-8.019495010375977,2.831674337387085
1780525299344171500,23.630171630859376,4.89909553527832,-8.053556442260742,2.7036032676696777
1780525299354242300,23.6402421875,4.923245429992676,-8.11864948272705,2.4534835815429688
1780525299364313000,23.65031298828125,4.9403581619262695,-8.182578086853027,2.1928627490997314
1780525299374414300,23.660414306640625,4.952099323272705,-8.242291450500488,1.926587700843811
1780525299384515800,23.670515869140626,4.970743656158447,-8.291783332824707,1.6457287073135376
1780525299394586600,23.680586669921876,5.0074238777160645,-8.344746589660645,1.2088500261306763
1780525299404688000,23.69068798828125,5.024541854858398,-8.355966567993164,1.0498559474945068
1780525299414758700,23.700758544921875,5.084073066711426,-8.365364074707031,0.5858718752861023
1780525299424860000,23.71085986328125,5.110219478607178,-8.360099792480469,0.4059273600578308
1780525299434930700,23.7209306640625,5.171248435974121,-8.331888198852539,-0.09064941108226776
1780525299445032200,23.7310322265625,5.206277370452881,-8.30126667022705,-0.392483651638031
1780525299455103000,23.74110302734375,5.237104415893555,-8.26379680633545,-0.6729039549827576
1780525299465173800,23.751173828125,5.250762462615967,-8.242762565612793,-0.8104048371315002
1780525299475275000,23.76127490234375,5.271401405334473,-8.18244457244873,-1.1959587335586548
1780525299485315300,23.7713154296875,5.275847434997559,-8.16014289855957,-1.3220757246017456
1780525299495447000,23.781447021484375,5.315153121948242,-8.066619873046875,-1.6879531145095825
1780525299505517800,23.791517822265625,5.358961582183838,-7.982985496520996,-1.9297306537628174
1780525299515588900,23.8015888671875,5.38652229309082,-7.9174041748046875,-2.1143455505371094
1780525299525629000,23.81162890625,5.50883150100708,-7.739867210388184,-2.4326159954071045
1780525299545770800,23.831770751953126,5.685818195343018,-7.489964962005615,-2.7824976444244385
1780525299565881600,23.851881591796875,5.787225723266602,-7.330996036529541,-2.9891304969787598
1780525299626337000,23.9123369140625,5.974743366241455,-7.094116687774658,-3.185331106185913
1780525299676752100,23.962752197265626,5.92180061340332,-7.334079265594482,-2.7044308185577393
1780525299686792400,23.97279248046875,5.862460613250732,-7.46439266204834,-2.4667370319366455
1780525299727167200,24.013167236328126,5.926657676696777,-7.589564323425293,-1.8557065725326538
1780525299797845800,24.083845703125,5.728456020355225,-7.951146602630615,-0.3666810989379883
1780525299868402400,24.15440234375,5.446925163269043,-8.126816749572754,0.6754565834999084
1780525299908777200,24.194777099609375,5.502995014190674,-8.04294490814209,1.094747543334961
1780525299959253200,24.245253173828125,5.336973667144775,-8.10100269317627,1.435575008392334
1780525300009729300,24.295729248046875,5.143945693969727,-8.206385612487793,1.5379952192306519
1780525300019830800,24.305830810546876,5.105735778808594,-8.231332778930664,1.532002329826355
1780525300029932000,24.31593212890625,4.986476421356201,-8.317659378051758,1.4567030668258667
1780525300050073600,24.336073486328125,4.856891632080078,-8.411643981933594,1.3510106801986694
1780525300070276400,24.3562763671875,4.702487945556641,-8.537191390991211,1.0832260847091675
1780525300080377600,24.366377685546876,4.676887512207031,-8.558162689208984,1.0271114110946655
1780525300090478800,24.376478759765625,4.630456447601318,-8.5978364944458,0.8980340361595154
1780525300100580000,24.386580078125,4.544658660888672,-8.6637544631958,0.6751423478126526
1780525300110681600,24.396681640625,4.5179443359375,-8.683160781860352,0.6010714769363403
1780525300120813300,24.406813232421875,4.470115661621094,-8.71768569946289,0.4363529086112976
1780525300130914600,24.41691455078125,4.397681713104248,-8.763517379760742,0.17766134440898895
1780525300141016000,24.42701611328125,4.344925880432129,-8.791584968566895,0.00844458770006895
1780525300171350500,24.4573505859375,4.18103551864624,-8.855029106140137,-0.5270780324935913
1780525300221918200,24.507918212890626,4.011924743652344,-8.858957290649414,-1.2624279260635376
1780525300232019500,24.51801953125,4.033193588256836,-8.827009201049805,-1.409836769104004
1780525300242120700,24.52812060546875,4.070838451385498,-8.798637390136719,-1.4773762226104736
1780525300252252700,24.538252685546876,4.122340679168701,-8.736106872558594,-1.690308690071106
1780525300262384400,24.54838427734375,4.131223201751709,-8.71298599243164,-1.7852871417999268
1780525300272485600,24.558485595703125,4.124918460845947,-8.710082054138184,-1.81381094455719
1780525300282556400,24.568556396484375,4.092231750488281,-8.715880393981934,-1.8594223260879517
1780525300292688400,24.5786884765625,4.081839084625244,-8.719806671142578,-1.863855004310608
1780525300302820000,24.588820068359375,4.112562656402588,-8.706918716430664,-1.8565540313720703
1780525300312921600,24.598921630859376,4.1576995849609375,-8.697826385498047,-1.7977023124694824
1780525300323053300,24.60905322265625,4.195899486541748,-8.692548751831055,-1.7333228588104248
1780525300343286500,24.62928662109375,4.290709495544434,-8.690605163574219,-1.4945183992385864
1780525300363489000,24.649489013671875,4.3590407371521,-8.70120906829834,-1.2075194120407104
1780525300383691800,24.66969189453125,4.4881439208984375,-8.677679061889648,-0.8513856530189514
1780525300403894500,24.68989453125,4.632666110992432,-8.636170387268066,-0.3540431559085846
1780525300414026200,24.700026123046875,4.667457580566406,-8.622068405151367,-0.21252456307411194
