time,seconds_elapsed,z,y,x
1781042276006775300,8.611775390625,-0.3225368559360504,0.0452040284872055,-0.4544837474822998
1781042276016846000,8.62184619140625,-0.4080579876899719,0.0806342139840126,-0.2626720666885376
1781042276026947300,8.631947265625,-0.3995058834552765,0.1527163088321685,-0.1185078546404838
1781042276037018000,8.64201806640625,-0.3127630054950714,0.1966986060142517,-0.1685988008975982
1781042276047058400,8.652058349609375,-0.271224170923233,0.1869247704744339,-0.171042263507843
1781042276107574800,8.71257470703125,0.1942551434040069,0.371406078338623,-0.4019493460655212
1781042276117645600,8.7226455078125,0.2272418737411499,0.4349360466003418,-0.4642575979232788
1781042276127686000,8.732685791015625,0.2590068578720093,0.4874704778194427,-0.442266434431076
1781042276137756700,8.742756591796875,0.3799581825733185,0.504574716091156,-0.3408628106117248
1781042276147827500,8.752827392578125,0.5314527750015259,0.5216789245605469,-0.2797762751579284
1781042276157898200,8.762898193359375,0.6743952035903931,0.6120869517326355,-0.2797762751579284
1781042276167969000,8.772968994140625,0.7318165898323059,0.7342600226402283,-0.3127630054950714
1781042276178039800,8.783039794921875,0.7244861721992493,0.8491026759147644,-0.1233947798609733
1781042276188110600,8.793110595703125,0.7867944240570068,0.9150761365890504,0.2638937830924988
1781042276198211800,8.8032119140625,0.9370672702789308,0.9321803450584412,0.4764748811721802
1781042276208282600,8.81328271484375,1.0751228332519531,0.9065240025520324,0.2968805134296417
1781042276218384100,8.823384033203125,1.1496484279632568,0.9382890462875366,-0.1380555480718612
1781042276228455000,8.833454833984375,1.235169529914856,1.065348982810974,-0.4740314185619354
1781042276238525700,8.843525634765625,1.629788517951965,0.979827880859375,-0.1661553531885147
1781042276248566000,8.85356591796875,1.7446311712265017,0.827111542224884,0.0952949747443199
1781042276258636800,8.86363671875,1.7275269031524658,0.7086036801338196,0.4312708675861358
1781042276288818700,8.893818603515625,2.009746551513672,0.6780604124069214,-0.197920337319374
1781042276319031000,8.924031005859375,2.3408355712890625,0.0855211317539215,-1.292590856552124
1781042276329101800,8.934101806640625,2.1148154735565186,-0.0378736443817615,-0.8735373020172119
1781042276339172600,8.944172607421875,1.80816113948822,0.0122173046693205,-0.1185078546404838
1781042276349243400,8.954243408203125,1.5919147729873655,0.0757472887635231,0.6218608021736145
1781042276359283700,8.96428369140625,1.5076154470443726,0.1160643994808197,1.0519099235534668
1781042276379455700,8.984455810546875,1.538158655166626,0.2541199326515198,0.3213151097297668
1781042276449951500,9.054951416015625,0.36529740691185,0.1466076523065567,1.3475687503814695
1781042276520477700,9.125477783203126,-0.4031710624694824,-0.0488692186772823,-0.1637118905782699
1781042276540588500,9.145588623046876,-0.8381071090698242,-0.1857030391693115,0.8491026759147644
1781042276570831600,9.17583154296875,-1.1911872625350952,-0.2638937830924988,0.2076941877603531
1781042276580902400,9.18590234375,-1.1899654865264893,-0.1759291887283325,-0.1502728462219238
1781042276590942700,9.195942626953125,-1.1484266519546509,-0.1490511149168014,-0.251676470041275
1781042276601044000,9.2060439453125,-1.1362093687057495,-0.1441642045974731,-0.3310889601707458
1781042276611114800,9.21611474609375,-1.302364706993103,-0.1539380401372909,-0.4056145250797272
1781042276621185500,9.226185546875,-1.5919147729873655,-0.171042263507843,-0.294437050819397
1781042276631286800,9.236286865234376,-1.7629570960998535,-0.2321287989616394,-0.0207694191485643
1781042276651398000,9.25639794921875,-1.7519614696502686,-0.4214970171451568,0.067195177078247
1781042276661499400,9.26649951171875,-1.7605136632919312,-0.5106833577156067,-0.051312681287527
1781042276671539500,9.27653955078125,-1.7763961553573608,-0.5974262356758118,-0.1820378452539444
1781042276681610500,9.286610595703126,-1.7409659624099731,-0.6426302194595337,-0.2382374405860901
1781042276691681300,9.296681396484376,-1.629788517951965,-0.6487388610839844,-0.3494149148464203
1781042276701752000,9.306751953125,-1.519832730293274,-0.5913175344467163,-0.5595525503158569
1781042276711822800,9.31682275390625,-1.4868459701538086,-0.4984660446643829,-0.5705481171607971
1781042276721893600,9.3268935546875,-1.4453071355819702,-0.5400048494338989,-0.3982841372489929
1781042276731995000,9.336994873046876,-1.3939944505691528,-0.6743952035903931,-0.180816113948822
1781042276742065700,9.347065673828125,-1.4074335098266602,-0.8087855577468872,0.0610865242779254
1781042276762237700,9.36723779296875,-1.4257594347000122,-0.8417723178863525,0.3909537494182586
1781042276772308700,9.377308837890626,-1.3573426008224487,-0.7367035150527954,0.4569272100925445
1781042276782379500,9.387379638671876,-1.187522053718567,-0.626747727394104,0.2284636050462722
1781042276832703000,9.437702880859376,-0.856433093547821,-0.5852088928222656,-0.4434881806373596
1781042276903259600,9.508259765625,0.0733038261532783,-0.3054326176643371,-0.7513642311096191
1781042276923431700,9.528431640625,-0.0427605658769607,-0.1209513172507286,0.2186897546052932
1781042276933502500,9.53850244140625,-0.1857030391693115,0.1429424732923507,1.047023057937622
1781042276973785600,9.57878564453125,0.197920337319374,-0.1233947798609733,-0.1771509200334549
1781042276983887000,9.58888720703125,0.261450320482254,-0.5143485069274902,-0.9663888216018676
1781042277014160400,9.619160400390625,0.3530801236629486,-0.2590068578720093,0.1820378452539444
1781042277034302000,9.639302001953125,0.5827654600143433,0.2113593816757202,1.1154398918151855
1781042277044342300,9.64934228515625,0.6157521605491638,0.0794124826788902,0.5681046843528748
1781042277064483800,9.66948388671875,0.618195652961731,-0.2602286040782928,-1.0714576244354248
1781042277074585300,9.67958544921875,0.5839871764183044,-0.2162462919950485,-1.0018190145492554
1781042277084625400,9.68962548828125,0.6401867866516113,0.0879645943641662,-0.2871066629886627
1781042277094727000,9.699726806640625,0.8356636762619019,0.5302310585975647,0.4141666293144226
1781042277104797700,9.709797607421876,0.912632703781128,0.6206390857696533,0.7855727076530457
1781042277114899000,9.71989892578125,0.7806857824325562,0.371406078338623,1.0934487581253052
1781042277124908800,9.72990869140625,0.6304129362106323,0.1490511149168014,0.9920451641082764
1781042277135010000,9.740010009765625,0.5571091175079346,-0.0048869219608604,0.2907718420028686
1781042277145080800,9.750080810546876,0.5021312236785889,-0.1612684279680252,-0.3726277947425842
1781042277175354400,9.780354248046876,0.6059783101081848,-0.1001818999648094,0.4056145250797272
1781042277195496000,9.800495849609376,0.6206390857696533,0.0769690200686454,0.9285151958465576
1781042277205536300,9.810536376953126,0.6010913848876953,-0.0366519130766391,0.8833111524581909
1781042277215637500,9.820637451171876,0.6792821288108826,-0.2736676335334778,0.4813618063926697
1781042277225738800,9.83073876953125,0.7464773058891296,-0.4593706727027893,-0.0183259565383195
1781042277235809500,9.8408095703125,0.7122688889503479,-0.4508185386657715,-0.2419026345014572
1781042277255981800,9.86098193359375,0.8185594081878662,-0.1001818999648094,0.1551597714424133
1781042277286316300,9.89131640625,0.5485569834709167,-0.361632227897644,0.6450737118721008
1781042277296417500,9.90141748046875,0.4825835525989532,-0.3164281845092773,0.5143485069274902
1781042277306518800,9.911518798828125,0.3995058834552765,-0.3274237811565399,0.4434881806373596
1781042277367126800,9.972126708984376,0.2101376503705978,-0.3469714522361755,0.461814135313034
1781042277447967700,10.0529677734375,0.3164281845092773,-0.5143485069274902,0.4495968222618103
1781042277518707500,10.12370751953125,0.2663372457027435,-0.2590068578720093,0.4056145250797272
1781042277528809000,10.13380908203125,0.3225368559360504,-0.2064724564552307,0.3200933933258056
1781042277538910200,10.14391015625,0.3604104816913605,-0.2345722615718841,0.2052507251501083
1781042277549011500,10.154011474609376,0.3836233615875244,-0.2968805134296417,0.1624901592731475
1781042277559112700,10.16411279296875,0.4153883755207062,-0.2956587672233581,0.1270599663257599
1781042277579315500,10.1843154296875,0.4764748811721802,-0.1649336218833923,0.0867428630590438
1781042277589416700,10.194416748046876,0.4984660446643829,-0.1441642045974731,0.1502728462219238
1781042277599518200,10.204518310546876,0.4801400899887085,-0.1026253625750541,0.2626720666885376
1781042277609619500,10.214619384765625,0.4581489264965057,-0.0268780700862407,0.3249803185462951
1781042277619720700,10.224720703125,0.4386012554168701,-0.0476474873721599,0.261450320482254
1781042277629852700,10.234852783203126,0.3872885704040527,-0.1050688251852989,0.1026253625750541
1781042277639954000,10.244953857421876,0.294437050819397,-0.1783726513385772,-0.221133217215538
1781042277650055200,10.25505517578125,0.2235766798257827,-0.1722639948129654,-0.294437050819397
1781042277660187100,10.265187255859376,0.1637118905782699,-0.1111774742603302,-0.221133217215538
1781042277670288400,10.275288330078125,0.1356120854616165,-0.0171042270958423,-0.0610865242779254
1781042277700653300,10.3056533203125,0.0073303831741213,0.1050688251852989,-0.0366519130766391
1781042277741058600,10.34605859375,0.0427605658769607,0.0171042270958423,-0.2028072625398636
1781042277751190500,10.3561904296875,0.0745255574584007,-0.0268780700862407,-0.1722639948129654
1781042277761291800,10.366291748046876,0.1221730485558509,-0.0293215326964855,-0.130725160241127
1781042277771393000,10.37639306640625,0.1600466966629028,0.0415388382971286,-0.1417207419872284
1781042277852203500,10.45720361328125,0.0109955742955207,0.2553416788578033,-0.0048869219608604
1781042277862305000,10.467304931640625,-0.0537561401724815,0.2956587672233581,0.1050688251852989
1781042277872406300,10.47740625,-0.0537561401724815,0.3433062732219696,0.1160643994808197
1781042277882507500,10.487507568359376,-0.0623082555830478,0.3078760802745819,0.0610865242779254
1781042277902740700,10.50774072265625,-0.0354301854968071,0.2370157092809677,-0.1466076523065567
1781042277912872700,10.517872802734376,-0.0146607663482427,0.2528982162475586,-0.1918116807937622
1781042277923004400,10.52800439453125,-0.0134390350431203,0.2736676335334778,-0.1331686228513717
1781042277933044700,10.538044677734376,-0.0158824957907199,0.280998021364212,-0.0867428630590438
1781042277943146000,10.54814599609375,-0.0439822971820831,0.2748893499374389,-0.0855211317539215
1781042277953247200,10.558247314453125,-0.0928515195846557,0.2993239760398865,-0.1099557429552078
1781042277963287600,10.56828759765625,-0.1038470938801765,0.3200933933258056,-0.1160643994808197
1781042277973419500,10.57841943359375,-0.0781907513737678,0.3323107063770294,-0.1099557429552078
1781042277983520800,10.588520751953125,-0.0965167060494422,0.3078760802745819,-0.0378736443817615
1781042278003723500,10.6087236328125,-0.2321287989616394,0.3139847218990326,0.0757472887635231
1781042278013855200,10.618855224609376,-0.3188716471195221,0.3310889601707458,0.0342084541916847
1781042278023987200,10.6289873046875,-0.3921754956245422,0.3689626157283783,-0.0965167060494422
1781042278034088400,10.63908837890625,-0.455705463886261,0.3738495409488678,-0.2284636050462722
1781042278044159200,10.6491591796875,-0.4911356568336487,0.3799581825733185,-0.2956587672233581
1781042278054291000,10.659291015625,-0.4862487316131592,0.3958406746387481,-0.3005456924438476
1781042278064392400,10.669392333984376,-0.475253164768219,0.4105014503002167,-0.2162462919950485
1781042278074524200,10.679524169921876,-0.4935791194438934,0.4214970171451568,-0.090408056974411
1781042278084595000,10.689594970703125,-0.5338962078094482,0.4337143301963806,-0.0012217304902151
1781042278094727000,10.699726806640625,-0.5400048494338989,0.4178318381309509,-0.0280998013913631
1781042278104828200,10.709828125,-0.5216789245605469,0.342084527015686,-0.1221730485558509
1781042278114929400,10.719929443359376,-0.5229006409645081,0.2345722615718841,-0.2480112910270691
1781042278125031000,10.730031005859376,-0.5473352670669556,0.1466076523065567,-0.4031710624694824
1781042278135101700,10.740101806640626,-0.608421802520752,0.1246165111660957,-0.455705463886261
1781042278145203000,10.750202880859376,-0.6719517707824707,0.1368338167667389,-0.4276056587696075
1781042278165405400,10.770405517578125,-0.7195992469787598,0.130725160241127,-0.3555235862731933
1781042278175476200,10.780476318359376,-0.7171558141708374,0.1514945775270462,-0.2932153046131134
1781042278185577700,10.79057763671875,-0.6927211880683899,0.2003637999296188,-0.2553416788578033
1781042278195709400,10.80070947265625,-0.6927211880683899,0.1832595765590667,-0.2724458873271942
1781042278205811000,10.81081103515625,-0.740368664264679,0.1368338167667389,-0.3200933933258056
1781042278215942700,10.820942626953125,-0.7806857824325562,0.1319468915462494,-0.4276056587696075
1781042278226044000,10.8310439453125,-0.7965682744979858,0.171042263507843,-0.5070181488990784
1781042278236145400,10.8411455078125,-0.797789990901947,0.2028072625398636,-0.4495968222618103
1781042278246246700,10.85124658203125,-0.7660250067710876,0.1930334120988845,-0.3799581825733185
1781042278256348000,10.861347900390625,-0.759916365146637,0.1429424732923507,-0.3359758853912353
1781042278266449200,10.87144921875,-0.7452555894851685,0.1160643994808197,-0.4373795092105865
1781042278276550700,10.881550537109376,-0.675616979598999,0.0879645943641662,-0.5070181488990784
1781042278286682400,10.891682373046876,-0.6145304441452026,0.0684169083833694,-0.485027015209198
1781042278296783600,10.90178369140625,-0.618195652961731,0.0390953756868839,-0.4312708675861358
1781042278306885000,10.911885009765625,-0.6499606370925903,0.0366519130766391,-0.3384193480014801
1781042278316986400,10.921986328125,-0.6499606370925903,0.0439822971820831,-0.3408628106117248
1781042278387695600,10.992695556640625,-0.5949827432632446,0.0623082555830478,-0.1380555480718612
1781042278397827300,11.002827392578125,-0.5155702829360962,0.0806342139840126,-0.2761110961437225
1781042278448395000,11.05339501953125,-0.3958406746387481,0.0256563406437635,0.0158824957907199
1781042278519165400,11.12416552734375,0.0891863256692886,0.1637118905782699,-0.4544837474822998
1781042278600036900,11.205036865234376,1.0152580738067627,0.3762930035591125,-0.0073303831741213
1781042278660675300,11.26567529296875,1.842369556427002,0.5510004758834839,-0.0549778714776039
1781042278670807000,11.27580712890625,1.8496999740600584,0.5925393104553223,-0.2333505302667617
1781042278680908500,11.285908447265625,1.940108060836792,0.6243042945861816,-0.2883284091949463
1781042278691040300,11.296040283203125,2.1258111000061035,0.588874101638794,-0.2736676335334778
1781042278701141500,11.3061416015625,2.320066213607788,0.5375614166259766,-0.3494149148464203
1781042278711243000,11.316242919921876,2.4165828227996826,0.5119050741195679,-0.5436700582504272
1781042278721344300,11.32634423828125,2.3994786739349365,0.5070181488990784,-0.5668829679489136
1781042278731476200,11.336476318359376,2.356718063354492,0.5400048494338989,-0.4495968222618103
1781042278741577500,11.346577392578125,2.3359487056732178,0.5424483418464661,-0.0561996027827262
1781042278751678700,11.3566787109375,2.409252643585205,0.5473352670669556,0.261450320482254
1781042278761780000,11.366780029296876,2.4410176277160645,0.6010913848876953,0.1722639948129654
1781042278781982700,11.386982666015625,2.0647244453430176,0.66584312915802,-0.4728097021579742
1781042278792084000,11.397083984375,1.8973474502563477,0.7843509912490845,-0.6328563690185547
1781042278802154800,11.40715478515625,1.7996090650558472,0.8417723178863525,-0.4630358517169952
1781042278832458800,11.437458740234376,1.0824532508850098,0.5595525503158569,0.4043927788734436
1781042278842499000,11.4474990234375,0.8222246170043945,0.4459316432476043,0.6145304441452026
1781042278862762800,11.4677626953125,0.5143485069274902,0.2333505302667617,0.1649336218833923
1781042278913269200,11.518269287109376,-0.608421802520752,-0.1600466966629028,0.3433062732219696
1781042278923370800,11.528370849609376,-0.8210029006004333,-0.2345722615718841,0.5094616413116455
1781042278933502500,11.53850244140625,-0.998153805732727,-0.3286454975605011,0.4312708675861358
1781042278943603700,11.548603759765625,-1.186300277709961,-0.4153883755207062,0.2113593816757202
1781042278953705200,11.558705322265626,-1.351233959197998,-0.4679227769374847,0.0061086523346602
1781042278963806500,11.568806396484376,-1.4685200452804563,-0.5167919993400574,-0.1148426681756973
1781042279054535200,11.65953515625,-1.9743164777755735,-0.4361577928066253,-0.608421802520752
1781042279084808700,11.68980859375,-1.9792033433914185,-0.7293730974197388,0.5326744914054871
1781042279094910000,11.699909912109376,-1.7886134386062622,-0.5900958180427551,0.616973876953125
1781042279155365400,11.760365478515626,-1.302364706993103,-0.6291912198066711,0.2040289938449859
1781042279165466600,11.770466552734376,-1.361007809638977,-0.6279694437980652,0.3982841372489929
1781042279215912200,11.820912109375,-0.6291912198066711,-0.5497786998748779,-0.5167919993400574
1781042279226013400,11.831013427734376,-0.6291912198066711,-0.5937610268592834,-0.280998021364212
1781042279256287000,11.861286865234376,-0.5302310585975647,-0.2028072625398636,1.2119566202163696
1781042279266357800,11.871357666015625,-0.2638937830924988,-0.0891863256692886,0.789237916469574
1781042279276428500,11.881428466796876,-0.1233947798609733,-0.0366519130766391,0.1014036312699318
1781042279286499300,11.891499267578125,0.0916297882795333,-0.0048869219608604,-0.3017674386501312
1781042279296631000,11.901631103515625,0.3982841372489929,-0.0891863256692886,-0.5827654600143433
1781042279306732500,11.911732666015626,0.5387831330299377,-0.2651155292987823,-0.6670648455619812
1781042279316803300,11.92180322265625,0.3860668241977691,-0.2321287989616394,-0.5143485069274902
1781042279326874000,11.9318740234375,0.0036651915870606,-0.1539380401372909,0.2724458873271942
1781042279336945000,11.94194482421875,-0.1209513172507286,0.0183259565383195,1.4379768371582031
1781042279347046100,11.952046142578125,0.1368338167667389,0.2907718420028686,1.8448129892349243
1781042279357147400,11.9621474609375,0.3726277947425842,0.3787364661693573,1.2522737979888916
1781042279367249000,11.972248779296876,0.4214970171451568,0.3078760802745819,0.3775147199630737
1781042279377319700,11.982319580078125,0.5216789245605469,0.1832595765590667,-0.2871066629886627
1781042279397491700,12.00249169921875,0.7391469478607178,-0.0415388382971286,-0.6438519954681396
1781042279407562500,12.0125625,0.5974262356758118,-0.0696386396884918,-0.0476474873721599
1781042279417633300,12.02263330078125,0.4667010605335235,0.0952949747443199,0.5827654600143433
1781042279427704000,12.0327041015625,0.4495968222618103,0.2761110961437225,1.0103710889816284
1781042279437774800,12.04277490234375,0.4911356568336487,0.2748893499374389,1.1630873680114746
1781042279447906800,12.05290673828125,0.5265658497810364,0.1612684279680252,0.9004153609275818
1781042279457977600,12.0629775390625,0.5766568183898926,0.0232128798961639,0.2663372457027435
1781042279468048400,12.07304833984375,0.6487388610839844,-0.0122173046693205,-0.361632227897644
1781042279508362000,12.113362060546876,0.5766568183898926,0.0488692186772823,0.7709119319915771
1781042279518402300,12.12340234375,0.5082398653030396,0.0452040284872055,0.8637634515762329
1781042279528503800,12.13350390625,0.504574716091156,0.0781907513737678,0.5387831330299377
1781042279578918700,12.183918701171876,0.970054030418396,0.1624901592731475,0.2138028293848037
1781042279589050600,12.194050537109376,0.8515461683273315,0.1649336218833923,0.5302310585975647
1781042279599121400,12.204121337890625,0.8051204085350037,0.0293215326964855,0.7513642311096191
1781042279609192200,12.214192138671876,0.8625417351722717,-0.1539380401372909,0.7318165898323059
1781042279619263000,12.224262939453125,0.8405506014823914,-0.2736676335334778,0.5436700582504272
1781042279629333800,12.234333740234376,0.7000515460968018,-0.384845107793808,0.4190535545349121
1781042279639374000,12.2443740234375,0.6279694437980652,-0.4495968222618103,0.3677408695220947
1781042279649414400,12.254414306640625,0.6487388610839844,-0.5057964324951172,0.271224170923233
1781042279679626800,12.284626708984376,0.3445279896259308,-0.5864306092262268,0.0171042270958423
1781042279689728000,12.29472802734375,0.3567453026771545,-0.5155702829360962,0.1356120854616165
1781042279770294500,12.37529443359375,0.4105014503002167,-0.3371976017951965,0.2883284091949463
1781042279850922000,12.455921875,0.1942551434040069,-0.3738495409488678,0.197920337319374
1781042279901276000,12.50627587890625,0.2785545587539673,-0.2247984111309051,0.3054326176643371
1781042279971741000,12.576740966796876,0.1258382350206375,-0.2419026345014572,-0.0403171069920063
1781042279981842400,12.586842529296876,0.1246165111660957,-0.1771509200334549,0.0036651915870606
1781042279991882500,12.596882568359376,0.1368338167667389,-0.1160643994808197,0.0659734457731247
1781042280001862000,12.60686181640625,0.1246165111660957,-0.0891863256692886,0.1319468915462494
1781042280011963100,12.616963134765625,0.0952949747443199,-0.051312681287527,0.1637118905782699
1781042280062317000,12.667317138671876,0.1148426681756973,0.0122173046693205,-0.1966986060142517
1781042280072388000,12.67738818359375,0.1295034289360046,0.0452040284872055,-0.1734857261180877
1781042280082428200,12.68742822265625,0.1197295859456062,0.1050688251852989,-0.1050688251852989
1781042280092529700,12.69752978515625,0.1014036312699318,0.1783726513385772,-0.0305432621389627
1781042280102600400,12.707600341796876,0.0867428630590438,0.1966986060142517,0.0097738439217209
1781042280122772500,12.7277724609375,0.1612684279680252,0.2076941877603531,-0.2272418737411499
1781042280132873700,12.737873779296876,0.1661553531885147,0.1637118905782699,-0.3701843321323395
1781042280153015300,12.758015380859376,0.1331686228513717,0.147829383611679,-0.4202753007411957
1781042280163025200,12.768025146484376,0.1062905490398407,0.2089159190654754,-0.3164281845092773
1781042280173126400,12.77812646484375,0.0708603709936142,0.2834414839744568,-0.1417207419872284
1781042280183197200,12.788197265625,0.0708603709936142,0.3237585723400116,-0.0109955742955207
1781042280193268000,12.79826806640625,0.0647517144680023,0.3359758853912353,0.0268780700862407
1781042280263763700,12.868763671875,-0.1588249653577804,0.3139847218990326,0.1380555480718612
1781042280294037200,12.899037353515626,-0.2651155292987823,0.1954768747091293,-0.1111774742603302
1781042280304138500,12.909138427734376,-0.271224170923233,0.1637118905782699,-0.3298672437667846
1781042280324310500,12.929310546875,-0.3115412890911102,0.1918116807937622,-0.4471533596515655
1781042280344482800,12.94948291015625,-0.4092797040939331,0.2846632003784179,-0.1563815027475357
1781042280354584000,12.959583984375,-0.4581489264965057,0.261450320482254,-0.058643065392971
1781042280364654800,12.96965478515625,-0.4703662395477295,0.2125810980796814,-0.0561996027827262
1781042280374725600,12.9797255859375,-0.4495968222618103,0.1893682330846786,-0.1331686228513717
1781042280384827000,12.989826904296876,-0.4569272100925445,0.2076941877603531,-0.1685988008975982
1781042280394897700,12.999897705078125,-0.4948008358478546,0.2406809031963348,-0.1392772793769836
1781042280425140700,13.030140625,-0.5827654600143433,0.1258382350206375,0.0354301854968071
1781042280435211500,13.04021142578125,-0.5791002511978149,0.1148426681756973,-0.0427605658769607
1781042280445282300,13.0502822265625,-0.5827654600143433,0.1295034289360046,-0.1527163088321685
1781042280455383600,13.060383544921876,-0.5925393104553223,0.1295034289360046,-0.2467895597219467
1781042280465484800,13.07048486328125,-0.6023131608963013,0.140499010682106,-0.2748893499374389
1781042280475525000,13.080525146484376,-0.6511823534965515,0.1759291887283325,-0.1991420686244964
1781042280485626400,13.09062646484375,-0.7623597979545593,0.2492330223321914,-0.0134390350431203
1781042280495697400,13.100697509765626,-0.8588765263557434,0.2736676335334778,0.0549778714776039
1781042280505768200,13.110768310546876,-0.8930850028991699,0.2101376503705978,-0.0537561401724815
1781042280535980500,13.14098046875,-0.8894197940826416,0.2028072625398636,-0.3176499307155609
1781042280546081800,13.151081787109376,-0.8478809595108032,0.2382374405860901,-0.2651155292987823
1781042280556152600,13.161152587890625,-0.7819074988365173,0.2357939779758453,-0.221133217215538
1781042280576294100,13.181294189453125,-0.6499606370925903,0.1258382350206375,-0.4300491213798523
1781042280596435700,13.201435791015625,-0.7061602473258972,0.0476474873721599,-0.675616979598999
1781042280606476000,13.21147607421875,-0.7147123217582703,0.0830776765942573,-0.5962044596672058
1781042280626587100,13.231587158203125,-0.6902777552604675,0.171042263507843,-0.3274237811565399
1781042280636688400,13.2416884765625,-0.6633996367454529,0.1637118905782699,-0.2968805134296417
1781042280646728700,13.251728759765625,-0.6304129362106323,0.1246165111660957,-0.3604104816913605
1781042280656738600,13.261738525390625,-0.6352998614311218,0.1050688251852989,-0.50335294008255
1781042280666839800,13.27183984375,-0.6499606370925903,0.1783726513385772,-0.685390830039978
1781042280676910600,13.28191064453125,-0.6414085030555725,0.2419026345014572,-0.7867944240570068
1781042280686981400,13.2919814453125,-0.607200026512146,0.2260201424360275,-0.6536257863044739
1781042280697052200,13.30205224609375,-0.6218608021736145,0.1918116807937622,-0.4202753007411957
1781042280707153700,13.312153564453125,-0.6316346526145935,0.1527163088321685,-0.0769690200686454
1781042280717255000,13.3222548828125,-0.607200026512146,0.1893682330846786,0.0842994004487991
1781042280727356200,13.332356201171876,-0.5473352670669556,0.2101376503705978,-0.0036651915870606
1781042280737427000,13.342427001953125,-0.4544837474822998,0.1551597714424133,-0.2822197377681732
1781042280747467300,13.35246728515625,-0.3555235862731933,0.0610865242779254,-0.5742133259773254
1781042280757538000,13.3625380859375,-0.2651155292987823,-0.0818559452891349,-0.6939429044723511
1781042280767639600,13.3726396484375,-0.1954768747091293,-0.1441642045974731,-0.750142514705658
1781042280777710300,13.38271044921875,-0.2199114859104156,-0.1185078546404838,-0.5619960427284241
1781042280787750400,13.39275048828125,-0.2186897546052932,0.0085521135479211,-0.1930334120988845
1781042280797852000,13.402851806640625,-0.140499010682106,0.1502728462219238,0.0439822971820831
1781042280807892200,13.412892333984376,-0.0036651915870606,0.1722639948129654,0.0891863256692886
1781042280828064300,13.433064208984376,0.167377084493637,0.2480112910270691,-0.3970624208450317
1781042280838104600,13.4431044921875,0.2345722615718841,0.3249803185462951,-0.5815436840057373
1781042280848145000,13.453144775390625,0.3836233615875244,0.342084527015686,-0.7147123217582703
1781042280858246100,13.46324609375,0.4960225820541382,0.3530801236629486,-0.7916813492774963
1781042280868317000,13.47331689453125,0.4935791194438934,0.4227187633514404,-0.5461135506629944
1781042280878387700,13.4833876953125,0.6145304441452026,0.5326744914054871,-0.0842994004487991
1781042280888458500,13.49345849609375,0.8894197940826416,0.5400048494338989,0.0256563406437635
1781042280898529300,13.503529296875,1.056796908378601,0.4239404797554016,-0.1734857261180877
1781042280908600000,13.51360009765625,1.1178834438323977,0.3506366610527038,-0.4312708675861358
1781042280918670800,13.5236708984375,1.243721604347229,0.3824016451835632,-0.8002334833145142
1781042280928711200,13.533711181640625,1.3744467496871948,0.3738495409488678,-1.1093312501907349
1781042280938812400,13.5438125,1.4746286869049072,0.2956587672233581,-1.045801281929016
1781042280948914000,13.553913818359376,1.5711454153060913,0.2235766798257827,-0.7342600226402283
1781042280958984700,13.563984619140625,1.585806131362915,0.2272418737411499,-0.3310889601707458
1781042280969055500,13.574055419921876,1.583362698554993,0.3029891550540924,0.0390953756868839
1781042280979156700,13.58415673828125,1.6713273525238037,0.3604104816913605,0.1148426681756973
1781042280989227500,13.5942275390625,1.7580702304840088,0.3506366610527038,-0.0855211317539215
1781042280999267800,13.604267822265625,1.842369556427002,0.3298672437667846,-0.4581489264965057
1781042281009369000,13.614369140625,1.9144517183303833,0.2968805134296417,-0.979827880859375
1781042281019439900,13.62443994140625,1.9938641786575315,0.2431243658065796,-1.2571606636047363
1781042281029541400,13.634541259765625,2.129476308822632,0.1160643994808197,-1.1129964590072632
1781042281039581700,13.644581787109376,2.166128158569336,0.1160643994808197,-0.6548475623130798
1781042281100128500,13.70512841796875,1.8374826908111572,0.3995058834552765,-0.4495968222618103
1781042281120209000,13.725208984375,1.6762142181396484,0.4373795092105865,-0.6291912198066711
1781042281130310400,13.735310302734376,1.4062118530273438,0.504574716091156,-0.1185078546404838
1781042281140381200,13.745381103515625,1.1533136367797852,0.6377432942390442,0.4471533596515655
1781042281160461800,13.7654619140625,0.7684684991836548,0.5791002511978149,1.036027431488037
1781042281170563000,13.77556298828125,0.6511823534965515,0.46547931432724,0.90408056974411
1781042281180633900,13.7856337890625,0.475253164768219,0.3469714522361755,0.6108652353286743
1781042281190704600,13.79570458984375,0.3115412890911102,0.3090978264808655,0.2406809031963348
1781042281200714500,13.805714599609376,0.1734857261180877,0.2638937830924988,-0.0317649915814399
1781042281210785300,13.815785400390626,0.0598647929728031,0.2015855312347412,-0.098960168659687
1781042281220886500,13.825886474609376,-0.0561996027827262,0.1551597714424133,-0.1062905490398407
1781042281230926800,13.8359267578125,-0.2541199326515198,0.0867428630590438,0.0085521135479211
1781042281240967200,13.84596728515625,-0.4838052690029144,-0.0122173046693205,0.2577851414680481
1781042281281311200,13.886311279296876,-0.759916365146637,-0.3921754956245422,0.1233947798609733
1781042281291412700,13.896412841796876,-0.8662069439888,-0.4483750760555267,-0.171042263507843
1781042281372040200,13.977040283203126,-1.7495180368423462,-0.4569272100925445,-0.2223549485206604
1781042281462891000,14.06789111328125,-1.6224581003189087,-0.7782423496246338,-0.1001818999648094
1781042281553680600,14.1586806640625,-0.8796459436416626,-0.2431243658065796,0.1954768747091293
1781042281654480100,14.259480224609376,-0.1148426681756973,-0.1319468915462494,0.8234463334083557
1781042281694824400,14.299824462890625,0.3481931984424591,0.2345722615718841,-0.1356120854616165
1781042281735229700,14.340229736328125,0.513126790523529,-0.1624901592731475,0.4337143301963806
1781042281826141700,14.4311416015625,0.5583308339118958,0.1014036312699318,0.6524040699005127
1781042281846344200,14.45134423828125,0.6291912198066711,-0.2223549485206604,0.0781907513737678
1781042281856445700,14.46144580078125,0.4667010605335235,-0.2125810980796814,0.1148426681756973
1781042281886749400,14.49174951171875,0.4764748811721802,-0.1319468915462494,0.3824016451835632
1781042281987793200,14.592793212890625,0.7562511563301086,-0.147829383611679,0.6487388610839844
1781042282058532900,14.663532958984376,0.3543018400669098,-0.485027015209198,0.5949827432632446
1781042282119140900,14.724140869140625,0.5057964324951172,-0.6096435189247131,0.2223549485206604
1781042282199890400,14.804890380859376,0.3481931984424591,-0.3909537494182586,0.1221730485558509
1781042282310944000,14.915944091796876,0.130725160241127,-0.0024434609804302,-0.2626720666885376
1781042282351349200,14.956349365234376,0.067195177078247,0.0952949747443199,-0.3066543638706207
1781042282371521300,14.976521240234376,0.0317649915814399,0.1795943826436996,-0.4043927788734436
1781042282391754500,14.99675439453125,0.0085521135479211,0.1649336218833923,-0.3543018400669098
1781042282401855700,15.006855712890625,0.0549778714776039,0.1637118905782699,-0.2956587672233581
1781042282411957000,15.01695703125,0.0720821022987365,0.1527163088321685,-0.2296853363513946
1781042282422058500,15.02705859375,0.0830776765942573,0.1588249653577804,-0.1930334120988845
1781042282432159700,15.03715966796875,0.1270599663257599,0.157603234052658,-0.2406809031963348
1781042282442291500,15.04729150390625,0.1661553531885147,0.1197295859456062,-0.3286454975605011
1781042282452393000,15.05739306640625,0.2028072625398636,0.0574213340878486,-0.4300491213798523
1781042282462494200,15.067494140625,0.2260201424360275,-0.0061086523346602,-0.4838052690029144
1781042282472595500,15.077595458984376,0.2174680233001709,-0.0073303831741213,-0.4544837474822998
1781042282482666200,15.087666259765625,0.197920337319374,0.0659734457731247,-0.3567453026771545
1781042282492798200,15.097798095703125,0.1588249653577804,0.1258382350206375,-0.2553416788578033
1781042282502899500,15.1078994140625,0.1087340116500854,0.1722639948129654,-0.1918116807937622
1781042282513000700,15.118000732421876,0.0720821022987365,0.2638937830924988,-0.1221730485558509
1781042282523102200,15.128102294921876,0.0366519130766391,0.3604104816913605,-0.067195177078247
1781042282533173000,15.138173095703126,-0.0171042270958423,0.3909537494182586,-0.0073303831741213
1781042282543274200,15.148274169921876,-0.0500909499824047,0.3860668241977691,0.0232128798961639
1781042282573486600,15.178486572265625,-0.0720821022987365,0.455705463886261,0.0476474873721599
1781042282593628200,15.198628173828125,-0.0134390350431203,0.4605923891067505,0.0366519130766391
1781042282603668500,15.20866845703125,-0.0390953756868839,0.4715879559516907,0.0036651915870606
1781042282674194700,15.279194580078125,-0.167377084493637,0.3188716471195221,-0.197920337319374
1781042282764801300,15.36980126953125,-0.3481931984424591,0.197920337319374,-0.3897320330142975
1781042282794983200,15.399983154296876,-0.4569272100925445,0.2834414839744568,-0.0549778714776039
1781042282805054000,15.410053955078125,-0.4886921942234039,0.2406809031963348,0.0109955742955207
1781042282815155200,15.4201552734375,-0.5021312236785889,0.2199114859104156,-0.0464257597923278
1781042282825256700,15.430256591796876,-0.5326744914054871,0.2125810980796814,-0.1563815027475357
1781042282835327500,15.440327392578125,-0.5681046843528748,0.2455678284168243,-0.2455678284168243
1781042282865539800,15.470539794921876,-0.5876523852348328,0.171042263507843,-0.2590068578720093
1781042282875610600,15.480610595703125,-0.6438519954681396,0.180816113948822,-0.2761110961437225
1781042282885681400,15.490681396484376,-0.6988298296928406,0.2064724564552307,-0.2761110961437225
1781042282895721700,15.5007216796875,-0.7086036801338196,0.2455678284168243,-0.2528982162475586
1781042282905823000,15.510822998046876,-0.6890559792518616,0.2480112910270691,-0.1637118905782699
1781042282915924200,15.52092431640625,-0.6866125464439392,0.1857030391693115,-0.0965167060494422
1781042282925995300,15.530995361328126,-0.7061602473258972,0.1343903541564941,-0.1661553531885147
1781042282936035300,15.541035400390625,-0.740368664264679,0.0977384373545646,-0.280998021364212
1781042282946106000,15.551106201171876,-0.7415903806686401,0.1001818999648094,-0.4276056587696075
1781042282956146400,15.561146484375,-0.6878342628479004,0.0696386396884918,-0.5314527750015259
1781042282966248000,15.571248046875,-0.720820963382721,-0.0061086523346602,-0.4703662395477295
1781042282996460300,15.601460205078125,-0.7831292152404785,-0.1356120854616165,-0.4776966273784637
1781042283016662800,15.621662841796876,-0.6499606370925903,-0.0439822971820831,-0.5864306092262268
1781042283026733600,15.631733642578125,-0.6499606370925903,-0.0537561401724815,-0.4667010605335235
1781042283036804400,15.641804443359376,-0.6731734871864319,-0.0769690200686454,-0.1783726513385772
1781042283046875400,15.65187548828125,-0.6548475623130798,-0.0195476878434419,0.0610865242779254
1781042283056946200,15.6619462890625,-0.626747727394104,0.0354301854968071,0.107512280344963
1781042283097259800,15.702259765625,-0.6194173693656921,-0.2003637999296188,-0.4801400899887085
1781042283107330600,15.71233056640625,-0.5962044596672058,-0.1661553531885147,-0.3408628106117248
1781042283117401300,15.7224013671875,-0.5778785347938538,-0.1380555480718612,-0.2296853363513946
1781042283127472000,15.73247216796875,-0.5900958180427551,-0.0916297882795333,-0.0867428630590438
1781042283137573600,15.74257373046875,-0.5937610268592834,-0.0610865242779254,0.0024434609804302
1781042283147644400,15.75264453125,-0.5803219676017761,-0.0073303831741213,-0.0806342139840126
1781042283157684500,15.7626845703125,-0.5546656250953674,0.067195177078247,-0.294437050819397
1781042283187866400,15.792866455078125,-0.2932153046131134,0.0329867228865623,-0.2871066629886627
1781042283197937400,15.8029375,-0.2321287989616394,0.0537561401724815,-0.261450320482254
1781042283208008200,15.81300830078125,-0.2406809031963348,0.0940732508897781,-0.221133217215538
1781042283218109400,15.823109375,-0.1930334120988845,0.2076941877603531,-0.2113593816757202
1781042283228180200,15.83318017578125,-0.0635299831628799,0.2700024247169494,-0.3127630054950714
1781042283238281500,15.843281494140625,0.1136209368705749,0.2174680233001709,-0.3787364661693573
1781042283248321800,15.85332177734375,0.2834414839744568,0.171042263507843,-0.4129449129104614
1781042283258392600,15.863392578125,0.3665191531181335,0.2675589919090271,-0.4141666293144226
1781042283308746500,15.91374658203125,1.016479730606079,0.1319468915462494,-0.4386012554168701
1781042283318817500,15.923817626953126,1.0983357429504397,0.0916297882795333,-0.807563841342926
1781042283328918800,15.933918701171876,1.2095131874084473,0.0073303831741213,-0.8820894360542297
1781042283349090800,15.9540908203125,1.49906325340271,-0.3762930035591125,-1.1020009517669678
1781042283369202000,15.974201904296876,1.7385225296020508,-0.6023131608963013,-0.5436700582504272
1781042283419555800,16.024555908203126,2.29440975189209,-0.067195177078247,-0.3555235862731933
1781042283429626600,16.034626708984376,2.2455406188964844,0.1295034289360046,-0.5021312236785889
1781042283439667000,16.0446669921875,2.1172590255737305,0.3481931984424591,-0.3591887652873993
1781042283459839200,16.064839111328126,2.037846565246582,0.6572909951210022,-0.1368338167667389
1781042283469910000,16.074909912109376,1.8020524978637695,0.7513642311096191,0.0403171069920063
1781042283479980800,16.084980712890626,1.5723671913146973,0.911410927772522,0.2858849465847015
1781042283490051600,16.095051513671876,1.5173892974853516,1.037249207496643,0.3310889601707458
1781042283500152800,16.10515283203125,1.5247195959091189,0.9908234477043152,0.2089159190654754
1781042283530396000,16.13539599609375,1.1423180103302002,0.4972442984580993,0.0097738439217209
1781042283580810800,16.185810791015626,0.2064724564552307,0.2113593816757202,0.5326744914054871
1781042283590912300,16.195912353515624,0.1221730485558509,0.1014036312699318,0.3054326176643371
1781042283600983000,16.205983154296874,-0.0085521135479211,-0.0048869219608604,0.0122173046693205
1781042283611023000,16.216023193359376,-0.2235766798257827,-0.1062905490398407,-0.1197295859456062
1781042283621063400,16.2260634765625,-0.4495968222618103,-0.1930334120988845,-0.0720821022987365
1781042283631103700,16.236103759765626,-0.618195652961731,-0.2590068578720093,0.0244346093386411
1781042283641235700,16.246235595703126,-0.7806857824325562,-0.3115412890911102,0.1050688251852989
1781042283651306500,16.256306396484376,-0.9443976879119872,-0.3176499307155609,0.1527163088321685
1781042283661377300,16.266377197265626,-1.0323622226715088,-0.2663372457027435,0.1050688251852989
1781042283671417600,16.27641748046875,-1.0531316995620728,-0.2101376503705978,-0.058643065392971
1781042283681458000,16.2864580078125,-1.0897835493087769,-0.1795943826436996,-0.1795943826436996
1781042283721802000,16.326802001953126,-1.6090190410614014,-0.2028072625398636,0.371406078338623
1781042283741943600,16.346943603515626,-1.7812830209732056,-0.3506366610527038,0.6609562039375305
1781042283752014300,16.357014404296876,-1.6420058012008667,-0.3237585723400116,0.4068362414836883
1781042283762085000,16.367085205078126,-1.4795156717300415,-0.3139847218990326,-0.1380555480718612
1781042283772156200,16.37715625,-1.7360789775848389,-0.513126790523529,-0.280998021364212
1781042283782227000,16.38722705078125,-1.7800613641738892,-0.50335294008255,0.1087340116500854
1781042283792297700,16.397297607421876,-1.6187928915023804,-0.4227187633514404,0.3335324227809906
1781042283893005600,16.498005615234376,-1.1068878173828125,0.0537561401724815,0.46547931432724
1781042283933289000,16.5382890625,-0.5094616413116455,-0.0928515195846557,-0.2577851414680481
1781042283943359700,16.54835986328125,-0.361632227897644,-0.0488692186772823,0.2125810980796814
1781042283953461000,16.5584609375,-0.3970624208450317,-0.0525344125926494,0.9028588533401488
1781042283963531800,16.56853173828125,-0.3677408695220947,0.0012217304902151,1.310916781425476
1781042283973633000,16.578633056640626,-0.3506366610527038,0.1087340116500854,0.9615018963813782
1781042283983703800,16.588703857421876,-0.3933972120285034,0.0794124826788902,0.5632177591323853
1781042283993744100,16.598744140625,-0.2394591718912124,-0.0500909499824047,0.2272418737411499
1781042284003784400,16.608784423828126,0.0745255574584007,-0.1539380401372909,-0.432492583990097
1781042284013885700,16.6188857421875,0.3152064681053161,-0.2907718420028686,-0.8723155856132507
1781042284023956500,16.62895654296875,0.3408628106117248,-0.3396410644054413,-0.7672467231750488
1781042284034027300,16.63902734375,0.1844813078641891,-0.3005456924438476,0.0647517144680023
1781042284044128800,16.649128662109376,0.0684169083833694,-0.2235766798257827,1.1154398918151855
1781042284054199600,16.659199462890626,0.0598647929728031,-0.0733038261532783,1.693318486213684
1781042284074310700,16.679310546875,0.2260201424360275,0.342084527015686,1.0543533563613892
1781042284134735400,16.7397353515625,0.3494149148464203,0.2150245606899261,0.5900958180427551
1781042284195129600,16.800129638671876,0.6194173693656921,-0.1857030391693115,-0.9590584635734558
1781042284205170000,16.810169921875,0.6719517707824707,-0.0940732508897781,-0.3481931984424591
1781042284215240700,16.82024072265625,0.759916365146637,0.1123992055654525,0.4410447180271148
1781042284225311500,16.8303115234375,0.8185594081878662,0.3359758853912353,0.8637634515762329
1781042284235382300,16.84038232421875,0.788016140460968,0.394618958234787,0.96883225440979
1781042284245453000,16.850453125,0.7183775305747986,0.3506366610527038,0.7122688889503479
1781042284255493400,16.860493408203126,0.7391469478607178,0.1099557429552078,0.1637118905782699
1781042284265595000,16.870594970703124,0.8381071090698242,-0.2150245606899261,-0.4923573732376098
1781042284275665700,16.880665771484374,0.8552113175392151,-0.3555235862731933,-0.7452555894851685
1781042284285736400,16.890736328125,0.779464066028595,-0.2553416788578033,-0.3371976017951965
1781042284295837700,16.900837646484376,0.7037167549133301,-0.107512280344963,0.3787364661693573
1781042284305878000,16.9108779296875,0.6194173693656921,-0.0879645943641662,0.979827880859375
1781042284315979300,16.920979248046876,0.5082398653030396,-0.0647517144680023,1.177748203277588
1781042284326019600,16.93101953125,0.3787364661693573,0.0024434609804302,1.0897835493087769
1781042284336090400,16.94109033203125,0.3262020349502563,-0.0378736443817615,0.8979719281196594
1781042284346161200,16.9511611328125,0.3640756905078888,-0.2223549485206604,0.5925393104553223
1781042284356232000,16.96123193359375,0.3995058834552765,-0.442266434431076,0.2284636050462722
1781042284366302700,16.971302734375,0.3701843321323395,-0.5717698931694031,-0.0439822971820831
1781042284386505500,16.99150537109375,0.2834414839744568,-0.4740314185619354,0.2663372457027435
1781042284396606700,17.001606689453126,0.3054326176643371,-0.3982841372489929,0.5497786998748779
1781042284406647000,17.01164697265625,0.3176499307155609,-0.3433062732219696,0.7379252314567566
1781042284416748300,17.021748291015626,0.3433062732219696,-0.3029891550540924,0.7648032903671265
1781042284426849500,17.031849609375,0.3995058834552765,-0.3225368559360504,0.6743952035903931
1781042284436920300,17.04192041015625,0.4923573732376098,-0.3323107063770294,0.4630358517169952
1781042284446930200,17.05193017578125,0.5693264007568359,-0.3543018400669098,0.2260201424360275
1781042284497314800,17.102314697265626,0.50335294008255,-0.3115412890911102,0.6487388610839844
1781042284507385600,17.112385498046876,0.5424483418464661,-0.2785545587539673,0.5681046843528748
1781042284517395200,17.122395263671876,0.5534439086914062,-0.2932153046131134,0.4178318381309509
1781042284527466000,17.132466064453126,0.5143485069274902,-0.3347541689872741,0.3164281845092773
1781042284537536800,17.142536865234376,0.5180137157440186,-0.3640756905078888,0.2565633952617645
1781042284557678600,17.1626787109375,0.5119050741195679,-0.3738495409488678,0.2553416788578033
1781042284577850600,17.1828505859375,0.4410447180271148,-0.1966986060142517,0.461814135313034
1781042284597961700,17.202961669921876,0.3152064681053161,-0.1869247704744339,0.3384193480014801
1781042284608063000,17.21306298828125,0.271224170923233,-0.2235766798257827,0.1136209368705749
1781042284618133800,17.2231337890625,0.2480112910270691,-0.2504547536373138,-0.1001818999648094
1781042284628204500,17.23320458984375,0.2382374405860901,-0.2492330223321914,-0.221133217215538
1781042284638244900,17.243244873046876,0.2260201424360275,-0.1759291887283325,-0.2113593816757202
1781042284648346000,17.25334619140625,0.2186897546052932,-0.0867428630590438,-0.0537561401724815
1781042284658417000,17.2634169921875,0.2113593816757202,-0.0659734457731247,0.140499010682106
1781042284668488000,17.273488037109374,0.1771509200334549,-0.0635299831628799,0.2455678284168243
1781042284678528000,17.283528076171876,0.140499010682106,-0.0342084541916847,0.2272418737411499
1781042284688629500,17.29362939453125,0.1282816976308822,-0.0122173046693205,0.1062905490398407
1781042284708771000,17.31377099609375,0.1160643994808197,-0.058643065392971,-0.2150245606899261
1781042284769287400,17.374287353515626,0.0574213340878486,0.0366519130766391,-0.0012217304902151
1781042284829773300,17.434773193359376,0.0940732508897781,0.0293215326964855,-0.0268780700862407
1781042284839844000,17.444843994140626,0.0928515195846557,0.0354301854968071,-0.0403171069920063
1781042284849945300,17.4549453125,0.0549778714776039,0.0268780700862407,-0.1185078546404838
1781042284860016000,17.46501611328125,0.0427605658769607,0.0268780700862407,-0.2467895597219467
1781042284870087000,17.4750869140625,0.0403171069920063,0.0452040284872055,-0.3567453026771545
1781042284880188200,17.485188232421876,0.0146607663482427,0.0647517144680023,-0.4007275998592376
1781042284890289700,17.49528955078125,-0.0109955742955207,0.1246165111660957,-0.342084527015686
1781042284900391000,17.505390869140626,-0.0195476878434419,0.1966986060142517,-0.2162462919950485
1781042284910492200,17.5154921875,-0.0342084541916847,0.2895501255989074,-0.0635299831628799
1781042284920593400,17.525593505859376,-0.0598647929728031,0.3811798989772796,0.0525344125926494
1781042284930695000,17.53569482421875,-0.0842994004487991,0.3982841372489929,0.0647517144680023
1781042284940796200,17.545796142578126,-0.1233947798609733,0.3677408695220947,-0.0476474873721599
1781042284950897400,17.5558974609375,-0.1356120854616165,0.3347541689872741,-0.1649336218833923
1781042284960999000,17.5659990234375,-0.0757472887635231,0.3433062732219696,-0.2284636050462722
1781042284971100200,17.57610009765625,-0.0427605658769607,0.3762930035591125,-0.1918116807937622
1781042284981201400,17.586201416015626,-0.0708603709936142,0.4227187633514404,-0.0757472887635231
1781042284991302700,17.596302734375,-0.090408056974411,0.4483750760555267,0.0280998013913631
1781042285051910700,17.65691064453125,-0.1246165111660957,0.3164281845092773,-0.1380555480718612
1781042285082245000,17.6872451171875,-0.2357939779758453,0.304210901260376,0.1001818999648094
1781042285102478300,17.707478271484376,-0.3090978264808655,0.2480112910270691,-0.0794124826788902
1781042285112610000,17.717610107421876,-0.3188716471195221,0.2394591718912124,-0.2296853363513946
1781042285122711600,17.727711669921874,-0.3298672437667846,0.230907067656517,-0.3384193480014801
1781042285142944500,17.747944580078126,-0.4263839423656463,0.1942551434040069,-0.261450320482254
1781042285153046000,17.7580458984375,-0.4373795092105865,0.2064724564552307,-0.1783726513385772
1781042285163147300,17.768147216796876,-0.4166100919246673,0.2357939779758453,-0.180816113948822
1781042285173248500,17.77824853515625,-0.4129449129104614,0.2443460971117019,-0.2028072625398636
1781042285183349800,17.788349853515626,-0.432492583990097,0.280998021364212,-0.1869247704744339
1781042285193451300,17.798451171875,-0.4544837474822998,0.2883284091949463,-0.1539380401372909
1781042285203552500,17.808552490234376,-0.461814135313034,0.2480112910270691,-0.1624901592731475
1781042285213653800,17.81865380859375,-0.5546656250953674,0.2504547536373138,-0.0207694191485643
1781042285223755300,17.82875537109375,-0.5839871764183044,0.3249803185462951,0.0244346093386411
1781042285233856500,17.8388564453125,-0.5913175344467163,0.3738495409488678,0.0073303831741213
1781042285243957800,17.848957763671876,-0.6340781450271606,0.3396410644054413,-0.0940732508897781
1781042285254028500,17.859028564453126,-0.7195992469787598,0.2687807083129883,-0.1319468915462494
1781042285264129800,17.8691298828125,-0.7709119319915771,0.2553416788578033,-0.1747074574232101
1781042285274261800,17.87926171875,-0.7611380815505981,0.2626720666885376,-0.221133217215538
1781042285304565800,17.909565673828126,-0.6682865619659424,0.2052507251501083,-0.2626720666885376
1781042285314667000,17.9196669921875,-0.626747727394104,0.1429424732923507,-0.271224170923233
1781042285324768300,17.929768310546876,-0.6597344875335693,0.1050688251852989,-0.2480112910270691
1781042285334869800,17.939869873046874,-0.6927211880683899,0.0916297882795333,-0.2040289938449859
1781042285344971000,17.949970947265626,-0.7293730974197388,0.1282816976308822,-0.167377084493637
1781042285365173500,17.970173583984376,-0.8100073337554932,0.1551597714424133,-0.1197295859456062
1781042285375275000,17.98027490234375,-0.788016140460968,0.0781907513737678,-0.2761110961437225
1781042285385376300,17.990376220703126,-0.7672467231750488,-0.0219911485910415,-0.4263839423656463
1781042285395447000,18.000447021484376,-0.740368664264679,-0.0928515195846557,-0.513126790523529
1781042285405579000,18.0105791015625,-0.7244861721992493,-0.1319468915462494,-0.5705481171607971
1781042285466248000,18.071248046875,-0.5326744914054871,-0.0012217304902151,-0.4838052690029144
1781042285516754400,18.12175439453125,-0.4434881806373596,0.0415388382971286,-0.4190535545349121
1781042285597534500,18.202534423828126,0.1539380401372909,-0.0476474873721599,-0.3726277947425842
1781042285668274200,18.273274169921876,0.7562511563301086,0.1185078546404838,-0.1881465017795562
1781042285688477000,18.293476806640623,0.978606104850769,0.2101376503705978,-0.3127630054950714
1781042285728882200,18.333882080078126,1.341460108757019,0.4386012554168701,0.0439822971820831
1781042285779388700,18.384388671875,1.7544050216674805,0.5803219676017761,-0.3408628106117248
1781042285789490000,18.394489990234376,1.7531832456588743,0.6010913848876953,-0.3359758853912353
1781042285809723100,18.41472314453125,1.8277088403701784,0.8014551997184753,-0.2406809031963348
1781042285860260400,18.46526025390625,1.0152580738067627,0.970054030418396,1.3231340646743774
1781042285870361600,18.475361572265623,0.7122688889503479,1.099557399749756,1.0201449394226074
1781042285880432400,18.485432373046876,0.4838052690029144,1.2510520219802856,0.5070181488990784
1781042285890533600,18.49553369140625,0.3445279896259308,1.4037683010101318,0.1185078546404838
1781042285900635100,18.50563525390625,0.3249803185462951,1.6236798763275146,0.058643065392971
1781042285910736400,18.515736328125,0.2907718420028686,1.8191566467285156,-0.2626720666885376
1781042285920837600,18.525837646484376,0.1380555480718612,1.977981686592102,-0.5363397002220154
1781042285930939000,18.53593896484375,0.0219911485910415,2.177123785018921,-0.6133087277412415
1781042285961243000,18.566242919921876,-0.1514945775270462,2.65726375579834,-0.9566149711608888
1781042285971344400,18.576344482421874,-0.0806342139840126,2.6401596069335938,-1.3353514671325684
1781042285981476000,18.58647607421875,0.1099557429552078,2.528982162475586,-1.6175711154937744
1781042286001678800,18.606678955078124,0.4068362414836883,2.5216517448425293,-1.784948229789734
1781042286011810600,18.616810546875,0.5290092825889587,2.6010642051696777,-1.645671010017395
1781042286021881300,18.62688134765625,0.4043927788734436,2.662150621414185,-1.266934514045715
1781042286032013300,18.637013427734377,0.2907718420028686,2.367713689804077,-0.4263839423656463
1781042286042114600,18.647114501953126,0.1954768747091293,2.185675859451294,1.4563027620315552
1781042286052215800,18.6572158203125,-0.1612684279680252,2.180788993835449,3.715282440185547
1781042286062317000,18.667317138671876,-0.4667010605335235,1.8154915571212769,4.852713584899902
1781042286072418600,18.67741845703125,-0.0598647929728031,1.3756685256958008,3.874107360839844
1781042286082519800,18.687519775390623,0.3090978264808655,0.8442157506942749,2.339613914489746
1781042286102753000,18.7077529296875,-1.5601497888565063,0.3543018400669098,-3.571118116378784
1781042286112823800,18.71782373046875,-0.6218608021736145,-0.140499010682106,-4.134335994720459
1781042286143127800,18.7481279296875,-2.4935519695281982,-1.3866641521453855,1.4575244188308716
1781042286153198600,18.758198486328126,-2.7904324531555176,-1.7189748287200928,1.8692476749420168
1781042286163330300,18.768330322265623,-2.1954495906829834,-1.6468926668167114,0.6768386960029602
1781042286173431600,18.778431640625,-1.4941763877868652,-1.673770785331726,-0.5302310585975647
1781042286193634300,18.79863427734375,-2.0231857299804688,-1.6004669666290283,-1.4306464195251465
1781042286203735600,18.808735595703126,-2.1038198471069336,-1.4135421514511108,-0.7635815739631653
1781042286213837000,18.818837158203124,-2.0671679973602295,-1.2877039909362793,-0.2003637999296188
1781042286223968800,18.82896875,-1.890017032623291,-1.2901474237442017,-0.2834414839744568
1781042286234070000,18.839070068359376,-1.7287486791610718,-1.4795156717300415,-0.9297369122505188
1781042286244171500,18.849171630859377,-1.4770721197128296,-1.7189748287200928,-0.4984660446643829
1781042286254272800,18.859272705078126,-1.4049900770187378,-1.6468926668167114,0.371406078338623
1781042286264343600,18.869343505859376,-1.5418238639831543,-1.431868076324463,1.0286970138549805
1781042286274444800,18.87944482421875,-1.2889256477355957,-1.2767083644866943,1.2498302459716797
1781042286284546000,18.889546142578126,-0.7855727076530457,-1.214400053024292,0.9260717034339904
1781042286294617000,18.8996171875,-0.598647952079773,-1.1606439352035522,0.4948008358478546
1781042286304687900,18.90968798828125,-0.9468411207199096,-1.1630873680114746,0.180816113948822
1781042286314758700,18.919758544921876,-0.9871582388877868,-1.2877039909362793,0.058643065392971
1781042286334930700,18.9399306640625,-0.2822197377681732,-1.5161675214767456,0.3090978264808655
1781042286345032000,18.950031982421876,-0.3555235862731933,-1.4465289115905762,0.2651155292987823
1781042286355133400,18.960133544921874,-0.4715879559516907,-1.236391305923462,0.4825835525989532
1781042286365204200,18.970204345703124,-0.3909537494182586,-1.0311405658721924,0.7195992469787598
1781042286375275000,18.98027490234375,-0.2370157092809677,-0.856433093547821,0.7672467231750488
1781042286385315300,18.9903154296875,-0.0940732508897781,-0.7745771408081055,0.5510004758834839
1781042286395386000,19.00038623046875,0.0965167060494422,-0.8161159753799438,0.2858849465847015
1781042286475982800,19.08098291015625,0.5070181488990784,-0.7061602473258972,-0.1527163088321685
1781042286486084400,19.09108447265625,0.5729916095733643,-0.7538077235221863,0.1429424732923507
1781042286496155100,19.101155029296876,0.618195652961731,-0.7281513810157776,0.3335324227809906
1781042286506286800,19.111286865234376,0.5754350423812866,-0.6499606370925903,0.5057964324951172
1781042286516266200,19.121266357421874,0.5681046843528748,-0.5974262356758118,0.6695083379745483
1781042286556579800,19.161579833984376,0.5913175344467163,-0.6866125464439392,0.1209513172507286
1781042286596893700,19.201893798828124,0.8552113175392151,-0.4227187633514404,0.6401867866516113
1781042286606933800,19.211933837890623,0.8649851679801941,-0.3689626157283783,0.7098253965377808
1781042286617035300,19.22203515625,0.7941248416900635,-0.3628539443016052,0.6255260109901428
1781042286627106000,19.23210595703125,0.7354817390441895,-0.4068362414836883,0.4605923891067505
1781042286637176800,19.2421767578125,0.7220427393913269,-0.4764748811721802,0.3323107063770294
1781042286647278000,19.252278076171876,0.7257078886032104,-0.5522221922874451,0.361632227897644
1781042286667450000,19.2724501953125,0.7061602473258972,-0.6377432942390442,0.6621779203414917
1781042286677521200,19.282521240234377,0.6133087277412415,-0.6572909951210022,0.6316346526145935
1781042286687622400,19.292622314453126,0.4923573732376098,-0.6414085030555725,0.5302310585975647
1781042286707764000,19.312763916015623,0.4263839423656463,-0.5644394755363464,0.3103195428848266
1781042286727905500,19.332905517578126,0.4911356568336487,-0.6023131608963013,0.4007275998592376
1781042286737976300,19.342976318359376,0.4825835525989532,-0.616973876953125,0.6414085030555725
1781042286748016600,19.3530166015625,0.4642575979232788,-0.598647952079773,0.6035348773002625
1781042286758118000,19.363117919921876,0.4593706727027893,-0.5876523852348328,0.5448917746543884
1781042286768188700,19.373188720703126,0.4227187633514404,-0.5803219676017761,0.4434881806373596
1781042286788330200,19.393330322265623,0.4410447180271148,-0.607200026512146,0.4166100919246673
1781042286798370600,19.40337060546875,0.442266434431076,-0.6426302194595337,0.4276056587696075
1781042286808472000,19.41347216796875,0.4117231667041778,-0.6805039048194885,0.4092797040939331
1781042286818573300,19.4235732421875,0.4105014503002167,-0.6805039048194885,0.3579670190811157
1781042286828644000,19.43364404296875,0.4483750760555267,-0.6646214127540588,0.3310889601707458
1781042286838745300,19.443745361328126,0.4471533596515655,-0.6255260109901428,0.3445279896259308
1781042286848816000,19.453816162109376,0.4349360466003418,-0.5778785347938538,0.3371976017951965
1781042286858917600,19.463917724609377,0.4386012554168701,-0.5387831330299377,0.3115412890911102
1781042286868988400,19.473988525390624,0.452040284872055,-0.5094616413116455,0.2822197377681732
1781042286879059200,19.48405908203125,0.4434881806373596,-0.4838052690029144,0.2076941877603531
1781042286889130000,19.4941298828125,0.4276056587696075,-0.4471533596515655,0.1869247704744339
1781042286909302000,19.514302001953126,0.3762930035591125,-0.3384193480014801,0.1820378452539444
1781042286919372800,19.524372802734376,0.3359758853912353,-0.2663372457027435,0.1747074574232101
1781042286929474000,19.53447412109375,0.2993239760398865,-0.2028072625398636,0.1795943826436996
1781042286949615900,19.554615966796874,0.2565633952617645,-0.0830776765942573,0.2040289938449859
1781042286959686700,19.564686767578124,0.2455678284168243,-0.051312681287527,0.1466076523065567
1781042286969757400,19.57475732421875,0.2333505302667617,-0.0390953756868839,0.0708603709936142
1781042286979828200,19.584828125,0.2150245606899261,-0.0366519130766391,0.0219911485910415
1781042286989899000,19.59489892578125,0.1918116807937622,-0.0244346093386411,-0.0097738439217209
1781042286999939300,19.604939208984376,0.1783726513385772,-0.0097738439217209,-0.0219911485910415
1781042287050385000,19.655385009765624,0.1417207419872284,-0.0036651915870606,-0.090408056974411
1781042287151123200,19.756123291015623,0.0134390350431203,-0.0488692186772823,-0.2455678284168243
1781042287241730000,19.84672998046875,-0.0329867228865623,0.3640756905078888,-0.5400048494338989
1781042287322357500,19.927357421875,-0.2553416788578033,0.3310889601707458,0.2626720666885376
1781042287372711400,19.97771142578125,-0.4373795092105865,0.1160643994808197,0.4251621961593628
1781042287402954500,20.00795458984375,-0.5803219676017761,0.0219911485910415,0.2431243658065796
1781042287463379200,20.068379150390623,-0.8332201838493347,0.2174680233001709,-0.1722639948129654
1781042287513763600,20.118763671875,-0.7843509912490845,0.1942551434040069,-0.4838052690029144
1781042287523865000,20.128864990234376,-0.7757988572120667,0.1698205322027206,-0.5693264007568359
1781042287533905400,20.138905517578124,-0.7929030656814575,0.1111774742603302,-0.4996877610683441
1781042287544006700,20.149006591796876,-0.7391469478607178,0.140499010682106,-0.0879645943641662
1781042287554077400,20.159077392578126,-0.8026769161224365,0.1563815027475357,-0.0537561401724815
1781042287564117800,20.16911767578125,-0.8381071090698242,0.1368338167667389,-0.2565633952617645
1781042287574188500,20.1791884765625,-0.8148942589759827,0.1282816976308822,-0.4691445231437683
1781042287584289800,20.189289794921876,-0.7929030656814575,0.1429424732923507,-0.6597344875335693
1781042287604431400,20.209431396484376,-0.759916365146637,0.0855211317539215,-0.8955284357070923
1781042287614502100,20.219502197265623,-0.7354817390441895,0.058643065392971,-0.7538077235221863
1781042287624603600,20.229603759765624,-0.6572909951210022,0.1368338167667389,-0.3909537494182586
1781042287634674400,20.23967431640625,-0.607200026512146,0.2174680233001709,0.0158824957907199
1781042287644745200,20.2497451171875,-0.5522221922874451,0.2345722615718841,0.1209513172507286
1781042287654816000,20.25981591796875,-0.4740314185619354,0.2296853363513946,-0.0842994004487991
1781042287664886800,20.26988671875,-0.4251621961593628,0.2089159190654754,-0.3481931984424591
1781042287674896600,20.279896728515624,-0.3860668241977691,0.2015855312347412,-0.5766568183898926
1781042287684998000,20.289997802734376,-0.3237585723400116,0.2028072625398636,-0.7220427393913269
1781042287695068700,20.300068603515623,-0.2553416788578033,0.1136209368705749,-0.7635815739631653
1781042287705139500,20.310139404296876,-0.1942551434040069,0.0244346093386411,-0.6511823534965515
1781042287715210200,20.320210205078126,-0.1453859210014343,-0.0366519130766391,-0.2700024247169494
1781042287745483800,20.35048388671875,0.0342084541916847,0.0305432621389627,0.1014036312699318
1781042287755493400,20.360493408203126,0.1441642045974731,0.0195476878434419,-0.3029891550540924
1781042287765595000,20.370594970703124,0.2113593816757202,0.0891863256692886,-0.4715879559516907
1781042287775665700,20.380665771484377,0.2419026345014572,0.1637118905782699,-0.4373795092105865
1781042287785736400,20.390736328125,0.271224170923233,0.2284636050462722,-0.2932153046131134
1781042287795776500,20.400776611328126,0.3591887652873993,0.3139847218990326,-0.0769690200686454
1781042287805878000,20.4108779296875,0.4813618063926697,0.4031710624694824,0.1343903541564941
1781042287825989000,20.430989013671876,0.5864306092262268,0.5461135506629944,0.0720821022987365
1781042287836060000,20.441059814453126,0.740368664264679,0.6340781450271606,0.0500909499824047
1781042287856232000,20.46123193359375,1.2192870378494265,0.7257078886032104,-0.0867428630590438
1781042287866333200,20.471333251953126,1.4269812107086182,0.797789990901947,-0.0024434609804302
1781042287906585900,20.5115859375,1.8179349899291992,1.547932505607605,0.5070181488990784
1781042287936829000,20.541828857421876,2.2968533039093018,1.7214182615280151,-0.3347541689872741
1781042288027588000,20.632588134765623,1.6969836950302124,0.7770205736160278,-0.90408056974411
1781042288037689600,20.642689697265624,1.4966198205947876,0.6328563690185547,-1.4245377779006958
1781042288047760400,20.652760498046874,1.2522737979888916,0.4825835525989532,-1.348790407180786
1781042288057861600,20.662861572265623,1.0580185651779177,0.4263839423656463,-1.026253581047058
1781042288067932400,20.672932373046876,0.8576548099517822,0.3054326176643371,-0.8943067193031311
1781042288077972700,20.68297265625,0.6145304441452026,0.157603234052658,-0.9419541954994202
1781042288088074000,20.693073974609376,0.4043927788734436,0.0256563406437635,-1.036027431488037
1781042288098175200,20.70317529296875,0.1881465017795562,-0.0122173046693205,-1.1166616678237915
1781042288108246000,20.71324609375,0.0036651915870606,-0.0134390350431203,-1.0299187898635864
1781042288118347500,20.723347412109376,-0.140499010682106,-0.0390953756868839,-0.8588765263557434
1781042288128418300,20.733418212890623,-0.2455678284168243,-0.0525344125926494,-0.7318165898323059
1781042288148560000,20.753559814453126,-0.361632227897644,-0.1844813078641891,-1.0629055500030518
1781042288158630700,20.763630615234376,-0.6059783101081848,-0.1563815027475357,-1.0787880420684814
1781042288168701400,20.773701416015623,-0.8710938692092896,-0.1001818999648094,-0.6939429044723511
1781042288178772200,20.783772216796876,-1.0433578491210938,-0.0830776765942573,-0.2565633952617645
1781042288188843000,20.793843017578126,-1.1007791757583618,-0.1270599663257599,0.0965167060494422
1781042288198913800,20.803913818359376,-1.1081095933914185,-0.1844813078641891,0.1453859210014343
1781042288208984600,20.813984619140623,-1.2779301404953003,-0.2040289938449859,0.0
1781042288249268000,20.85426806640625,-1.7886134386062622,-0.3017674386501312,-0.1759291887283325
1781042288339935500,20.944935546875,-1.566258430480957,-0.6988298296928406,-0.750142514705658
1781042288360107800,20.965107666015623,-1.6774359941482544,-0.475253164768219,0.5265658497810364
1781042288370209000,20.975208984375,-1.645671010017395,-0.4581489264965057,0.996932089328766
1781042288380279800,20.98527978515625,-1.4795156717300415,-0.3738495409488678,0.9065240025520324
1781042288390350600,20.9953505859375,-1.3231340646743774,-0.251676470041275,0.6279694437980652
1781042288400421400,21.00542138671875,-1.1423180103302002,-0.1600466966629028,0.4141666293144226
1781042288410492200,21.0154921875,-0.8991936445236206,-0.0183259565383195,-0.117286130785942
1781042288430603300,21.035603271484376,-0.8747590184211731,-0.0415388382971286,-0.2003637999296188
1781042288440704500,21.04570458984375,-0.8796459436416626,-0.1026253625750541,-0.0696386396884918
1781042288450806000,21.055805908203126,-0.8588765263557434,-0.0916297882795333,0.2064724564552307
1781042288460907300,21.0659072265625,-0.7733554244041443,-0.0219911485910415,0.5363397002220154
1781042288470978000,21.07597802734375,-0.6401867866516113,0.0647517144680023,0.7916813492774963
1781042288481079300,21.086079345703126,-0.4349360466003418,-0.0525344125926494,0.9590584635734558
1781042288491150000,21.096150146484376,-0.1881465017795562,-0.2932153046131134,0.911410927772522
1781042288501251600,21.10625146484375,-0.1136209368705749,-0.3384193480014801,0.5070181488990784
1781042288561768000,21.166767822265623,0.3433062732219696,-0.2186897546052932,1.4844025373458862
1781042288622284300,21.2272841796875,0.8478809595108032,-0.0647517144680023,-0.5143485069274902
1781042288662689500,21.267689453125,0.5448917746543884,0.0415388382971286,1.4440854787826538
1781042288672760300,21.27776025390625,0.6133087277412415,0.0305432621389627,0.7770205736160278
1781042288682861600,21.287861572265623,0.7122688889503479,-0.2260201424360275,0.0647517144680023
1781042288692962800,21.297962890625,0.7342600226402283,-0.4043927788734436,-0.5302310585975647
1781042288703033600,21.30803369140625,0.6487388610839844,-0.3677408695220947,-0.685390830039978
1781042288713135000,21.318135009765623,0.5473352670669556,-0.2321287989616394,-0.3506366610527038
1781042288733307100,21.33830712890625,0.5681046843528748,-0.0842994004487991,0.6963863968849182
1781042288743378000,21.3483779296875,0.6218608021736145,-0.0342084541916847,0.9358455538749696
1781042288763580700,21.36858056640625,0.6438519954681396,-0.0378736443817615,0.9297369122505188
1781042288803955500,21.40895556640625,0.66584312915802,-0.2357939779758453,-0.0403171069920063
1781042288884521700,21.489521728515623,0.3310889601707458,-0.3481931984424591,0.3139847218990326
1781042288945099300,21.550099365234377,0.3262020349502563,-0.4056145250797272,0.4373795092105865
1781042288955170000,21.560170166015624,0.3469714522361755,-0.3982841372489929,0.3494149148464203
1781042289015777800,21.62077783203125,0.3249803185462951,-0.3665191531181335,0.5057964324951172
1781042289056152600,21.661152587890623,0.3811798989772796,-0.3824016451835632,0.4728097021579742
1781042289066284500,21.671284423828126,0.4105014503002167,-0.4117231667041778,0.3628539443016052
1781042289076385800,21.6813857421875,0.3970624208450317,-0.4642575979232788,0.271224170923233
1781042289086487000,21.691487060546876,0.384845107793808,-0.4960225820541382,0.2602286040782928
1781042289157165800,21.762165771484376,0.2663372457027435,-0.3384193480014801,-0.0452040284872055
1781042289217804300,21.82280419921875,0.2113593816757202,0.0183259565383195,-0.0024434609804302
1781042289258209500,21.86320947265625,0.1282816976308822,0.0635299831628799,-0.1698205322027206
1781042289308716000,21.913716064453126,0.1624901592731475,0.0806342139840126,-0.2724458873271942
1781042289359222800,21.964222900390624,0.1441642045974731,0.0818559452891349,-0.1905899494886398
1781042289379425300,21.98442529296875,0.1502728462219238,0.1282816976308822,-0.2199114859104156
1781042289389526500,21.994526611328126,0.1563815027475357,0.1331686228513717,-0.1966986060142517
1781042289399628000,22.0046279296875,0.1148426681756973,0.1466076523065567,-0.2040289938449859
1781042289409729300,22.014729248046876,0.0329867228865623,0.1600466966629028,-0.1453859210014343
1781042289419830500,22.02483056640625,0.0109955742955207,0.2003637999296188,-0.107512280344963
1781042289429932000,22.03493212890625,0.0036651915870606,0.2626720666885376,-0.1160643994808197
1781042289440033300,22.045033203125,-0.0219911485910415,0.3164281845092773,-0.0769690200686454
1781042289450104000,22.05510400390625,-0.0452040284872055,0.351858377456665,0.0048869219608604
1781042289460235800,22.06523583984375,-0.1136209368705749,0.3567453026771545,0.1185078546404838
1781042289510742500,22.115742431640623,-0.6023131608963013,0.3298672437667846,0.3433062732219696
1781042289571350300,22.176350341796876,-0.2272418737411499,0.2687807083129883,0.0378736443817615
1781042289642090200,22.24709033203125,-0.5229006409645081,0.2834414839744568,-0.1527163088321685
1781042289712799200,22.31779931640625,-0.432492583990097,0.2150245606899261,-0.442266434431076
1781042289773376800,22.378376708984376,-0.4007275998592376,-0.0073303831741213,-0.6682865619659424
1781042289854156800,22.45915673828125,-0.797789990901947,0.0097738439217209,-0.171042263507843
1781042289914581500,22.51958154296875,-0.7086036801338196,-0.098960168659687,-0.5448917746543884
1781042289975006500,22.58000634765625,-0.4667010605335235,-0.0195476878434419,-0.4141666293144226
1781042290045593600,22.650593505859376,0.2761110961437225,0.432492583990097,-0.2040289938449859
1781042290085937700,22.690937744140623,0.5229006409645081,0.6243042945861816,-0.3640756905078888
1781042290136291800,22.741291748046876,1.2424999475479126,0.485027015209198,0.1551597714424133
1781042290166504200,22.771504150390623,1.3561208248138428,0.4019493460655212,-0.1734857261180877
1781042290176514000,22.78151416015625,1.3976596593856812,0.4178318381309509,-0.0061086523346602
1781042290186615300,22.791615234375,1.5027284622192385,0.4447098970413208,0.3152064681053161
1781042290196716500,22.801716552734376,1.6420058012008667,0.442266434431076,0.5400048494338989
1781042290267242800,22.87224267578125,1.854586839675903,0.2663372457027435,-0.3543018400669098
1781042290277344000,22.882343994140623,1.8154915571212769,0.3469714522361755,-0.0659734457731247
1781042290287414800,22.892414794921876,1.655444860458374,0.4874704778194427,0.3921754956245422
1781042290297485600,22.902485595703126,1.547932505607605,0.6157521605491638,0.7415903806686401
1781042290327759000,22.932759033203126,1.3158037662506104,0.3958406746387481,-0.1893682330846786
1781042290347931100,22.95293115234375,1.0494664907455444,0.2455678284168243,-0.8539896011352539
1781042290358002000,22.963001953125,0.9480628371238708,0.2492330223321914,-0.7220427393913269
1781042290368072700,22.97307275390625,0.8319984674453735,0.2773328125476837,-0.4605923891067505
1781042290378113000,22.983113037109376,0.6304129362106323,0.2357939779758453,-0.0733038261532783
1781042290388183800,22.993183837890623,0.394618958234787,0.1466076523065567,0.3359758853912353
1781042290398254600,23.003254638671876,0.2186897546052932,0.0623082555830478,0.50335294008255
1781042290408356000,23.013356201171874,0.0769690200686454,0.0109955742955207,0.4263839423656463
1781042290438599000,23.043598876953126,-0.3213151097297668,-0.1698205322027206,-0.051312681287527
1781042290448669700,23.053669677734376,-0.5729916095733643,-0.261450320482254,-0.0317649915814399
1781042290458740500,23.063740478515623,-0.8026769161224365,-0.3310889601707458,0.0293215326964855
1781042290468841700,23.073841796875,-0.9663888216018676,-0.3787364661693573,0.0427605658769607
1781042290478943200,23.083943115234376,-1.065348982810974,-0.3799581825733185,-0.0195476878434419
1781042290489044500,23.09404443359375,-1.1105530261993408,-0.3298672437667846,-0.130725160241127
1781042290499115300,23.104115234375,-1.156978726387024,-0.3115412890911102,-0.2345722615718841
1781042290509186000,23.11418603515625,-1.235169529914856,-0.3139847218990326,-0.3347541689872741
1781042290519256800,23.1242568359375,-1.3548991680145264,-0.3005456924438476,-0.3164281845092773
1781042290539428900,23.144428955078126,-1.5968017578125,-0.2871066629886627,-0.0109955742955207
1781042290549530400,23.1545302734375,-1.7165313959121704,-0.3213151097297668,-0.1062905490398407
1781042290559570700,23.16457080078125,-1.7385225296020508,-0.3555235862731933,-0.2040289938449859
1781042290569641500,23.174641357421876,-1.7324138879776,-0.4251621961593628,-0.1905899494886398
1781042290579681800,23.184681884765624,-1.7385225296020508,-0.4728097021579742,-0.0708603709936142
1781042290589783000,23.194782958984376,-1.7067575454711914,-0.4153883755207062,0.197920337319374
1781042290599853800,23.204853759765623,-1.5711454153060913,-0.304210901260376,0.3481931984424591
1781042290609924600,23.214924560546876,-1.389107584953308,-0.1918116807937622,0.1502728462219238
1781042290620025900,23.22502587890625,-1.310916781425476,-0.117286130785942,-0.1685988008975982
1781042290660309000,23.26530908203125,-1.3927727937698364,-0.2321287989616394,0.0293215326964855
1781042290670410500,23.275410400390623,-1.3585642576217651,-0.2553416788578033,0.3543018400669098
1781042290680481300,23.285481201171876,-1.2376129627227783,-0.2357939779758453,0.5668829679489136
1781042290690521600,23.295521484375,-1.0739010572433472,-0.157603234052658,0.3811798989772796
1781042290700622800,23.305622802734376,-0.970054030418396,-0.130725160241127,-0.0647517144680023
1781042290710724000,23.31572412109375,-0.901637077331543,-0.2565633952617645,-0.50335294008255
1781042290720825300,23.325825439453126,-0.7953465580940247,-0.4508185386657715,-0.797789990901947
1781042290730896400,23.335896484375,-0.6902777552604675,-0.588874101638794,-0.7855727076530457
1781042290751007200,23.35600732421875,-0.7660250067710876,-0.5338962078094482,0.4251621961593628
1781042290761108700,23.366108642578126,-0.7012733221054077,-0.4495968222618103,1.2082914113998413
1781042290771149000,23.376149169921874,-0.5229006409645081,-0.3775147199630737,1.3768903017044067
1781042290781219800,23.3862197265625,-0.4092797040939331,-0.2895501255989074,0.960280179977417
1781042290791321000,23.396321044921876,-0.2638937830924988,-0.2700024247169494,0.1527163088321685
1781042290801391900,23.406391845703126,-0.0879645943641662,-0.2968805134296417,-0.6352998614311218
1781042290811432200,23.41643212890625,0.0452040284872055,-0.3469714522361755,-1.0286970138549805
1781042290821503000,23.4265029296875,0.0415388382971286,-0.3995058834552765,-0.6389650702476501
1781042290831604200,23.436604248046876,-0.0085521135479211,-0.3176499307155609,0.2431243658065796
1781042290861877800,23.466877685546876,0.3225368559360504,0.2871066629886627,1.0812314748764038
1781042290871948500,23.476948486328126,0.504574716091156,0.1514945775270462,0.4605923891067505
1781042290882019300,23.487019287109376,0.5717698931694031,-0.0207694191485643,-0.1734857261180877
1781042290892090000,23.497090087890623,0.5253441333770752,-0.1111774742603302,-0.4801400899887085
1781042290902191400,23.50719140625,0.4190535545349121,-0.0855211317539215,-0.2663372457027435
1781042290912201200,23.517201171875,0.3017674386501312,0.0012217304902151,0.3359758853912353
1781042290922272000,23.52727197265625,0.3152064681053161,0.0684169083833694,1.007927656173706
1781042290932373200,23.537373291015623,0.4642575979232788,0.0232128798961639,1.321912407875061
1781042290952454000,23.557453857421876,0.5839871764183044,-0.2638937830924988,0.4825835525989532
1781042290962555100,23.56755517578125,0.5216789245605469,-0.2932153046131134,-0.0293215326964855
1781042290972656600,23.57765673828125,0.5229006409645081,-0.2125810980796814,-0.3640756905078888
1781042290982727400,23.5877275390625,0.5937610268592834,-0.0354301854968071,-0.3872885704040527
1781042290992767500,23.597767578125,0.636521577835083,0.140499010682106,-0.1942551434040069
1781042291002838500,23.607838623046874,0.6096435189247131,0.1795943826436996,0.1991420686244964
1781042291012909300,23.617909423828124,0.5485569834709167,0.1612684279680252,0.6230825781822205
1781042291022980000,23.62797998046875,0.5277875661849976,0.1466076523065567,0.7550294399261475
1781042291033020400,23.6380205078125,0.5326744914054871,0.1270599663257599,0.5363397002220154
1781042291063263200,23.66826318359375,0.5522221922874451,0.1698205322027206,0.2394591718912124
1781042291073303600,23.678303466796876,0.5632177591323853,0.2357939779758453,0.171042263507843
1781042291083404800,23.68840478515625,0.5094616413116455,0.1343903541564941,0.2993239760398865
1781042291093506000,23.698506103515623,0.4874704778194427,-0.0244346093386411,0.3677408695220947
1781042291103576800,23.708576904296876,0.5119050741195679,-0.1246165111660957,0.2186897546052932
1781042291113647600,23.718647705078126,0.5302310585975647,-0.1747074574232101,0.0317649915814399
1781042291123749000,23.7287490234375,0.5229006409645081,-0.2455678284168243,0.0219911485910415
1781042291133850400,23.738850341796876,0.5326744914054871,-0.2932153046131134,0.1698205322027206
1781042291164093200,23.76909326171875,0.4569272100925445,-0.2199114859104156,0.750142514705658
1781042291174133500,23.779133544921876,0.4129449129104614,-0.2467895597219467,0.5839871764183044
1781042291184235000,23.789235107421874,0.4068362414836883,-0.2871066629886627,0.2932153046131134
1781042291194305800,23.799305908203124,0.4337143301963806,-0.3457497358322143,0.0403171069920063
1781042291204376600,23.80937646484375,0.4434881806373596,-0.3872885704040527,-0.0268780700862407
1781042291214447400,23.819447265625,0.4410447180271148,-0.3811798989772796,0.0830776765942573
1781042291224548600,23.829548583984376,0.4276056587696075,-0.3371976017951965,0.2687807083129883
1781042291234619400,23.839619384765623,0.3982841372489929,-0.2883284091949463,0.4911356568336487
1781042291244720600,23.849720703125,0.3640756905078888,-0.2895501255989074,0.6389650702476501
1781042291274994200,23.879994140625,0.2883284091949463,-0.4434881806373596,0.4691445231437683
1781042291285065000,23.89006494140625,0.2895501255989074,-0.442266434431076,0.2883284091949463
1781042291295135700,23.9001357421875,0.2773328125476837,-0.4471533596515655,0.2003637999296188
1781042291305206500,23.91020654296875,0.2822197377681732,-0.4471533596515655,0.2076941877603531
1781042291315246800,23.920246826171876,0.3359758853912353,-0.4214970171451568,0.2455678284168243
1781042291325348000,23.93034814453125,0.3995058834552765,-0.3811798989772796,0.2651155292987823
1781042291335419000,23.9404189453125,0.4153883755207062,-0.3958406746387481,0.2296853363513946
1781042291355591200,23.960591064453126,0.4337143301963806,-0.452040284872055,0.0952949747443199
1781042291375732700,23.980732666015623,0.4679227769374847,-0.3958406746387481,0.2015855312347412
1781042291385834000,23.990833984375,0.452040284872055,-0.3665191531181335,0.2345722615718841
1781042291395904800,24.00090478515625,0.4715879559516907,-0.3323107063770294,0.2492330223321914
1781042291405975600,24.0109755859375,0.4642575979232788,-0.3237585723400116,0.1954768747091293
1781042291416046300,24.02104638671875,0.4105014503002167,-0.3139847218990326,0.1661553531885147
1781042291426117000,24.0311171875,0.3604104816913605,-0.3164281845092773,0.1893682330846786
1781042291436188000,24.04118798828125,0.3323107063770294,-0.3054326176643371,0.197920337319374
1781042291446289400,24.051289306640623,0.2846632003784179,-0.2834414839744568,0.1490511149168014
1781042291456360200,24.061360107421876,0.2150245606899261,-0.2553416788578033,0.0952949747443199
1781042291486572500,24.091572509765623,0.1600466966629028,-0.1270599663257599,-0.0696386396884918
1781042291496643300,24.101643310546876,0.1038470938801765,-0.0855211317539215,-0.0708603709936142
1781042291506714000,24.111714111328126,0.0952949747443199,-0.0232128798961639,-0.0733038261532783
1781042291516754400,24.12175439453125,0.0952949747443199,0.0293215326964855,-0.0769690200686454
1781042291526825200,24.1318251953125,0.0623082555830478,0.058643065392971,-0.0537561401724815
1781042291536865500,24.141865478515623,0.0464257597923278,0.0659734457731247,-0.051312681287527
1781042291546966800,24.151966796875,0.051312681287527,0.0733038261532783,-0.1038470938801765
1781042291557037600,24.16203759765625,0.0647517144680023,0.0769690200686454,-0.1869247704744339
1781042291577179100,24.18217919921875,0.1123992055654525,0.0830776765942573,-0.2981022298336029
1781042291597320700,24.20232080078125,0.1209513172507286,0.1319468915462494,-0.2590068578720093
1781042291607391700,24.212391845703124,0.1368338167667389,0.1685988008975982,-0.2284636050462722
1781042291617401300,24.2224013671875,0.1698205322027206,0.1881465017795562,-0.2480112910270691
1781042291627502600,24.232502685546876,0.1893682330846786,0.1747074574232101,-0.2455678284168243
1781042291637573600,24.24257373046875,0.2101376503705978,0.1417207419872284,-0.2492330223321914
1781042291647644400,24.25264453125,0.2138028293848037,0.1123992055654525,-0.2638937830924988
1781042291657715200,24.262715087890623,0.2174680233001709,0.0940732508897781,-0.2834414839744568
1781042291677856800,24.282856689453126,0.2040289938449859,0.1050688251852989,-0.2528982162475586
1781042291698028800,24.30302880859375,0.2076941877603531,0.1698205322027206,-0.294437050819397
1781042291708130000,24.313130126953126,0.1722639948129654,0.1820378452539444,-0.2748893499374389
1781042291718200800,24.323200927734376,0.130725160241127,0.1966986060142517,-0.2125810980796814
1781042291728272000,24.33327197265625,0.1001818999648094,0.2296853363513946,-0.1588249653577804
1781042291738342700,24.3433427734375,0.0342084541916847,0.2284636050462722,-0.0830776765942573
1781042291748444000,24.35344384765625,0.0012217304902151,0.2370157092809677,0.0207694191485643
1781042291758514700,24.3635146484375,0.0097738439217209,0.2541199326515198,0.0928515195846557
1781042291768616000,24.373615966796876,0.0146607663482427,0.2541199326515198,0.1123992055654525
1781042291798828300,24.403828369140623,-0.0488692186772823,0.280998021364212,-0.0610865242779254
1781042291808929800,24.4139296875,-0.0879645943641662,0.2907718420028686,-0.1185078546404838
1781042291818970000,24.42397021484375,-0.1111774742603302,0.3445279896259308,-0.0916297882795333
1781042291829071400,24.4340712890625,-0.130725160241127,0.4581489264965057,0.067195177078247
1781042291839111700,24.444111572265623,-0.1954768747091293,0.5962044596672058,0.4263839423656463
1781042291849213000,24.454212890625,-0.2932153046131134,0.6585127115249634,0.7721336483955383
1781042291859283700,24.46428369140625,-0.3359758853912353,0.6279694437980652,0.8124507665634155
1781042291869354500,24.4743544921875,-0.3115412890911102,0.5204572081565857,0.5717698931694031
1781042291889557200,24.49455712890625,-0.2565633952617645,0.2223549485206604,-0.1991420686244964
1781042291899658500,24.504658447265623,-0.294437050819397,0.1527163088321685,-0.3213151097297668
1781042291909729300,24.514729248046876,-0.3286454975605011,0.180816113948822,-0.1832595765590667
1781042291919800000,24.524800048828126,-0.3628539443016052,0.1734857261180877,-0.0403171069920063
1781042291929870800,24.534870849609376,-0.3640756905078888,0.1197295859456062,-0.0537561401724815
1781042291939941600,24.544941650390623,-0.394618958234787,0.0684169083833694,-0.0916297882795333
1781042291950043000,24.55504296875,-0.4495968222618103,0.0745255574584007,-0.1685988008975982
1781042291960114000,24.565114013671874,-0.50335294008255,0.1026253625750541,-0.2602286040782928
1781042291970184700,24.575184814453124,-0.5510004758834839,0.1417207419872284,-0.3237585723400116
1781042291980255500,24.58525537109375,-0.6133087277412415,0.1502728462219238,-0.3408628106117248
1781042291990326300,24.595326171875,-0.7134906053543091,0.1551597714424133,-0.3066543638706207
1781042292000397000,24.60539697265625,-0.779464066028595,0.1331686228513717,-0.3090978264808655
1781042292010467800,24.6154677734375,-0.8087855577468872,0.1148426681756973,-0.3933972120285034
1781042292020538600,24.62553857421875,-0.8148942589759827,0.1331686228513717,-0.4373795092105865
1781042292030609400,24.635609375,-0.7941248416900635,0.1783726513385772,-0.4178318381309509
1781042292040680200,24.64568017578125,-0.7965682744979858,0.2125810980796814,-0.4056145250797272
1781042292050751000,24.6557509765625,-0.827111542224884,0.2284636050462722,-0.3701843321323395
1781042292060821800,24.66582177734375,-0.8344419002532959,0.2626720666885376,-0.2956587672233581
1781042292070953700,24.67595361328125,-0.8100073337554932,0.2981022298336029,-0.251676470041275
1781042292081024500,24.6860244140625,-0.827111542224884,0.2822197377681732,-0.3017674386501312
1781042292091095300,24.69609521484375,-0.8319984674453735,0.2675589919090271,-0.3738495409488678
1781042292101196500,24.706196533203126,-0.7965682744979858,0.261450320482254,-0.4214970171451568
1781042292111236900,24.71623681640625,-0.7574729323387146,0.2455678284168243,-0.5412266254425049
1781042292131409000,24.736408935546876,-0.6988298296928406,0.1783726513385772,-0.7684684991836548
1781042292141510400,24.746510498046874,-0.7147123217582703,0.1759291887283325,-0.7110471725463867
1781042292151550500,24.756550537109376,-0.7489207983016968,0.0977384373545646,-0.6316346526145935
1781042292161652000,24.76665185546875,-0.7354817390441895,0.0708603709936142,-0.4471533596515655
1781042292171722800,24.77672265625,-0.7513642311096191,0.0684169083833694,-0.3164281845092773
1781042292201965600,24.806965576171876,-0.6450737118721008,0.0708603709936142,-0.8197811841964722
1781042292212066800,24.81706689453125,-0.5962044596672058,0.067195177078247,-0.7916813492774963
1781042292222198800,24.82719873046875,-0.5778785347938538,0.0317649915814399,-0.6902777552604675
1781042292232300000,24.837300048828126,-0.5400048494338989,0.0134390350431203,-0.4239404797554016
1781042292242401300,24.8474013671875,-0.4764748811721802,-0.0061086523346602,-0.1844813078641891
1781042292252502800,24.857502685546876,-0.4312708675861358,0.0268780700862407,-0.1062905490398407
1781042292262604000,24.86760400390625,-0.4007275998592376,0.0684169083833694,-0.3078760802745819
1781042292272674800,24.8776748046875,-0.36529740691185,0.0818559452891349,-0.5009095072746277
1781042292282806800,24.887806884765624,-0.3237585723400116,0.1050688251852989,-0.5204572081565857
1781042292292877600,24.897877685546874,-0.2638937830924988,0.1698205322027206,-0.4728097021579742
1781042292302978800,24.907978759765623,-0.2431243658065796,0.2235766798257827,-0.3982841372489929
1781042292313080000,24.918080078125,-0.2199114859104156,0.2504547536373138,-0.3066543638706207
1781042292323150800,24.92815087890625,-0.1136209368705749,0.2541199326515198,-0.1038470938801765
1781042292333191200,24.938191162109376,0.0500909499824047,0.2761110961437225,0.1001818999648094
1781042292343292400,24.94829248046875,0.2064724564552307,0.2858849465847015,0.0219911485910415
1781042292353394000,24.958393798828126,0.2956587672233581,0.2846632003784179,-0.0390953756868839
1781042292363464700,24.968464599609376,0.3885102868080139,0.3054326176643371,0.0781907513737678
1781042292373535500,24.978535400390623,0.461814135313034,0.3982841372489929,0.1637118905782699
1781042292383606300,24.988606201171876,0.5448917746543884,0.4691445231437683,0.1282816976308822
1781042292393677000,24.998677001953126,0.6450737118721008,0.4838052690029144,-0.1881465017795562
1781042292403747800,25.008747802734376,0.6963863968849182,0.5351179838180542,-0.3787364661693573
1781042292413849000,25.01884912109375,0.7965682744979858,0.5632177591323853,-0.2040289938449859
1781042292423950600,25.02895068359375,0.998153805732727,0.5681046843528748,-0.0830776765942573
1781042292434021400,25.039021484375,1.177748203277588,0.5778785347938538,-0.0427605658769607
1781042292444092200,25.049092041015623,1.359786033630371,0.6255260109901428,-0.0232128798961639
1781042292454163000,25.059162841796876,1.5552629232406616,0.740368664264679,-0.1942551434040069
1781042292464264200,25.06926416015625,1.7055357694625854,0.8344419002532959,-0.4764748811721802
1781042292474335000,25.0793349609375,1.8460347652435305,0.8405506014823914,-0.6707300543785095
1781042292494537700,25.099537841796874,2.065946340560913,0.6841690540313721,-0.4703662395477295
1781042292504608500,25.1096083984375,2.118480682373047,0.7171558141708374,-0.2186897546052932
1781042292514709800,25.119709716796876,2.1392500400543213,0.8222246170043945,-0.0659734457731247
1781042292524811000,25.12981103515625,2.2015583515167236,0.8759807348251343,-0.0427605658769607
1781042292534943000,25.13994287109375,2.302962064743042,0.8515461683273315,-0.1747074574232101
1781042292545044200,25.150044189453126,2.415361166000366,0.8332201838493347,-0.3921754956245422
1781042292555115000,25.160114990234376,2.498438835144043,0.8515461683273315,-0.7367035150527954
1781042292565216300,25.17021630859375,2.470339059829712,0.8527678847312927,-0.998153805732727
1781042292575287000,25.180287109375,2.395813465118408,0.8148942589759827,-0.9712757468223572
1781042292605621500,25.21062158203125,1.6908750534057615,0.6609562039375305,0.2345722615718841
1781042292615723000,25.220722900390623,1.431868076324463,0.7379252314567566,0.4740314185619354
1781042292625793800,25.230793701171876,1.3536773920059204,0.7953465580940247,0.3933972120285034
1781042292635834000,25.240834228515624,1.3267992734909058,0.7257078886032104,-0.0305432621389627
1781042292645965800,25.2509658203125,1.215621829032898,0.616973876953125,-0.2321287989616394
1781042292656067000,25.261067138671876,1.045801281929016,0.5094616413116455,-0.1062905490398407
1781042292666168600,25.27116845703125,0.7073819637298584,0.4508185386657715,0.4764748811721802
1781042292676269800,25.281269775390623,0.4801400899887085,0.5693264007568359,0.8588765263557434
1781042292696503000,25.3015029296875,0.2235766798257827,0.3799581825733185,0.1514945775270462
1781042292706604300,25.311604248046876,0.1734857261180877,0.1612684279680252,-0.485027015209198
1781042292716705500,25.32170556640625,0.0378736443817615,-0.0134390350431203,-0.7183775305747986
1781042292726807000,25.33180712890625,-0.1185078546404838,-0.1233947798609733,-0.4911356568336487
1781042292736877800,25.3418779296875,-0.3249803185462951,-0.0916297882795333,-0.0500909499824047
1781042292747009500,25.352009521484376,-0.5803219676017761,-0.0122173046693205,0.4972442984580993
1781042292757110800,25.36211083984375,-0.7464773058891296,-0.0158824957907199,0.8246681094169617
1781042292767242800,25.37224267578125,-1.0018190145492554,-0.0879645943641662,0.3543018400669098
1781042292777344000,25.382343994140623,-1.0335839986801147,-0.1539380401372909,-0.1502728462219238
1781042292787445200,25.3924453125,-1.0409144163131714,-0.2431243658065796,-0.5363397002220154
1781042292797577200,25.4025771484375,-1.1032226085662842,-0.3188716471195221,-0.7232644557952881
1781042292827881200,25.432881103515623,-1.5528194904327393,-0.3689626157283783,-0.4300491213798523
1781042292838013000,25.443012939453126,-1.693318486213684,-0.4972442984580993,-0.1612684279680252
1781042292848145000,25.453144775390623,-1.8374826908111572,-0.5681046843528748,0.0647517144680023
1781042292858246100,25.46324609375,-1.9633208513259888,-0.6719517707824707,0.2174680233001709
1781042292868347400,25.473347412109376,-2.001194477081299,-0.8014551997184753,0.1319468915462494
1781042292878479400,25.483479248046876,-1.995085835456848,-0.9395107626914978,-0.1148426681756973
1781042292888611000,25.493611083984376,-1.9999728202819824,-1.0958921909332275,-0.3396410644054413
1781042292918915000,25.5239150390625,-1.9315558671951296,-1.2718214988708496,-0.2871066629886627
1781042292928985900,25.53398583984375,-1.8484781980514529,-1.2131783962249756,0.0
1781042292939117800,25.544117919921874,-1.854586839675903,-1.1447614431381226,0.4984660446643829
1781042292949188600,25.554188720703124,-1.7983872890472412,-1.0824532508850098,0.9358455538749696
1781042292959320300,25.5643203125,-1.6566665172576904,-1.0433578491210938,1.0311405658721924
1781042292969421600,25.574421630859376,-1.5137240886688232,-0.9761626720428468,0.7648032903671265
1781042292979523000,25.584523193359377,-1.389107584953308,-0.8539896011352539,0.3176499307155609
1781042292989624300,25.594624267578126,-1.29381263256073,-0.7232644557952881,-0.1429424732923507
1781042293019928300,25.62492822265625,-1.2021827697753906,-0.3445279896259308,-0.1148426681756973
1781042293030029600,25.635029541015623,-1.1459832191467283,-0.2528982162475586,0.2089159190654754
1781042293040130800,25.645130859375,-1.0934487581253052,-0.1624901592731475,0.7476990818977356
1781042293050232300,25.655232421875,-0.9065240025520324,-0.0171042270958423,0.9346238374710084
1781042293060333600,25.66533349609375,-0.7293730974197388,0.0757472887635231,0.93095862865448
1781042293070404400,25.675404296875,-0.5729916095733643,0.0342084541916847,0.6829473376274109
1781042293080536000,25.6855361328125,-0.4728097021579742,-0.090408056974411,0.3933972120285034
1781042293090637600,25.695637451171876,-0.3958406746387481,-0.117286130785942,0.0891863256692886
1781042293100738800,25.70573876953125,-0.3738495409488678,-0.0855211317539215,-0.067195177078247
1781042293110809600,25.7158095703125,-0.2981022298336029,-0.0781907513737678,0.1233947798609733
1781042293131012400,25.736012451171874,-0.0757472887635231,-0.067195177078247,0.7379252314567566
1781042293141113600,25.746113525390623,-0.1502728462219238,-0.0390953756868839,1.119105100631714
1781042293151154000,25.75615380859375,-0.130725160241127,-0.0280998013913631,1.086118459701538
1781042293161285600,25.76628564453125,-0.0464257597923278,-0.0256563406437635,0.636521577835083
1781042293171387000,25.776386962890623,0.0952949747443199,-0.1062905490398407,0.2480112910270691
1781042293181488400,25.78648828125,0.3249803185462951,-0.2015855312347412,-0.0085521135479211
1781042293191559200,25.79655908203125,0.4801400899887085,-0.1747074574232101,0.1331686228513717
1781042293201691000,25.80669091796875,0.5375614166259766,0.1221730485558509,0.7257078886032104
1781042293211792400,25.81679248046875,0.6096435189247131,0.5253441333770752,1.5063936710357666
1781042293221893600,25.8268935546875,0.7220427393913269,0.7159340381622314,2.0806069374084473
1781042293231964400,25.83696435546875,0.8258898258209229,0.6499606370925903,2.1502456665039062
1781042293242096000,25.84709619140625,0.8991936445236206,0.432492583990097,1.7324138879776
1781042293252197600,25.85719775390625,0.9199630618095398,0.2223549485206604,0.9077457785606384
1781042293262299000,25.867298828125,0.9272934198379515,0.090408056974411,-0.0280998013913631
1781042293272400100,25.877400146484376,1.0335839986801147,0.067195177078247,-0.6133087277412415
1781042293282501400,25.88750146484375,1.15820050239563,0.1466076523065567,-0.5192354321479797
1781042293292572400,25.897572509765624,1.1423180103302002,0.1380555480718612,0.1038470938801765
1781042293302704000,25.9077041015625,0.996932089328766,0.0720821022987365,0.950506329536438
1781042293332977700,25.937977783203124,0.6157521605491638,-0.2638937830924988,0.9138544201850892
1781042293343079000,25.948078857421876,0.656069278717041,-0.3860668241977691,-0.0842994004487991
1781042293353180200,25.95818017578125,0.6792821288108826,-0.4337143301963806,-0.7452555894851685
1781042293363281400,25.968281494140623,0.6951646208763123,-0.3604104816913605,-0.9553932547569276
1781042293373352400,25.9783525390625,0.685390830039978,-0.2284636050462722,-0.8588765263557434
1781042293383453700,25.98845361328125,0.5778785347938538,-0.1759291887283325,-0.2883284091949463
1781042293393555000,25.998554931640623,0.4312708675861358,-0.1759291887283325,0.7440338730812073
1781042293403656200,26.00865625,0.4300491213798523,-0.2015855312347412,0.7770205736160278
1781042293413727000,26.01872705078125,0.50335294008255,-0.2321287989616394,0.5461135506629944
1781042293454132500,26.059132568359377,0.5595525503158569,-0.294437050819397,-0.1881465017795562
1781042293464233700,26.069233642578126,0.5143485069274902,-0.3103195428848266,0.147829383611679
1781042293474335000,26.0793349609375,0.4801400899887085,-0.3103195428848266,0.4410447180271148
1781042293484436200,26.089436279296876,0.3921754956245422,-0.3274237811565399,0.6230825781822205
1781042293494537700,26.099537841796874,0.3494149148464203,-0.3396410644054413,0.5962044596672058
1781042293504639000,26.109638916015623,0.3897320330142975,-0.3579670190811157,0.3396410644054413
1781042293514740200,26.119740234375,0.4300491213798523,-0.3628539443016052,-0.0109955742955207
1781042293524811000,26.12981103515625,0.4166100919246673,-0.3677408695220947,-0.1966986060142517
1781042293534912300,26.139912353515623,0.3970624208450317,-0.3445279896259308,-0.3139847218990326
1781042293545013800,26.150013671875,0.3799581825733185,-0.3054326176643371,-0.2553416788578033
1781042293555115000,26.160114990234376,0.3579670190811157,-0.2907718420028686,-0.0977384373545646
1781042293565277400,26.17027734375,0.3347541689872741,-0.3176499307155609,0.0647517144680023
1781042293575378700,26.180378662109376,0.3017674386501312,-0.3860668241977691,0.2052507251501083
1781042293585480000,26.19047998046875,0.3017674386501312,-0.4398229718208313,0.2028072625398636
1781042293595581400,26.20058154296875,0.304210901260376,-0.4789183437824249,0.1123992055654525
1781042293605682700,26.2106826171875,0.3200933933258056,-0.46547931432724,0.0549778714776039
1781042293625885200,26.23088525390625,0.4312708675861358,-0.4227187633514404,0.1466076523065567
1781042293635986700,26.240986572265623,0.3506366610527038,-0.4141666293144226,0.2626720666885376
1781042293646057500,26.251057373046876,0.3078760802745819,-0.342084527015686,0.384845107793808
1781042293656189200,26.261189208984376,0.3543018400669098,-0.2724458873271942,0.3958406746387481
1781042293666290400,26.27129052734375,0.3555235862731933,-0.3188716471195221,0.3836233615875244
1781042293676392000,26.281391845703126,0.3384193480014801,-0.4031710624694824,0.3310889601707458
1781042293686493200,26.2914931640625,0.3371976017951965,-0.4166100919246673,0.2199114859104156
1781042293696594400,26.301594482421876,0.3469714522361755,-0.3396410644054413,0.1857030391693115
1781042293706696000,26.311696044921874,0.3775147199630737,-0.2370157092809677,0.2174680233001709
1781042293736999700,26.341999755859376,0.371406078338623,-0.1893682330846786,0.2015855312347412
1781042293747070500,26.352070556640623,0.3335324227809906,-0.1514945775270462,0.1759291887283325
1781042293757172000,26.362171875,0.2907718420028686,-0.1759291887283325,0.0696386396884918
1781042293767273200,26.372273193359376,0.221133217215538,-0.2089159190654754,-0.0745255574584007
1781042293777344000,26.382343994140623,0.1624901592731475,-0.1918116807937622,-0.1392772793769836
1781042293787384300,26.39238427734375,0.1588249653577804,-0.0977384373545646,-0.1539380401372909
1781042293797455000,26.402455078125,0.1319468915462494,-0.0500909499824047,-0.1637118905782699
1781042293807556400,26.412556396484376,0.0647517144680023,-0.0061086523346602,-0.1099557429552078
1781042293817596700,26.4225966796875,0.0195476878434419,0.0623082555830478,-0.0427605658769607
1781042293837738200,26.44273828125,0.0207694191485643,0.1001818999648094,-0.1514945775270462
1781042293857910500,26.46291064453125,0.0549778714776039,0.0464257597923278,-0.4263839423656463
1781042293868011800,26.47301171875,0.0757472887635231,0.0635299831628799,-0.4605923891067505
1781042293878082600,26.48308251953125,0.0598647929728031,0.1026253625750541,-0.3738495409488678
1781042293888153300,26.4931533203125,0.0390953756868839,0.167377084493637,-0.261450320482254
1781042293898254600,26.503254638671876,0.0268780700862407,0.1514945775270462,-0.2015855312347412
1781042293908325400,26.513325439453126,0.0097738439217209,0.1282816976308822,-0.2015855312347412
1781042293918365700,26.52336572265625,0.0146607663482427,0.1563815027475357,-0.2186897546052932
1781042293938538000,26.5435380859375,0.0647517144680023,0.2101376503705978,-0.2101376503705978
1781042293948608800,26.55360888671875,0.051312681287527,0.1429424732923507,-0.180816113948822
1781042293958679600,26.563679443359376,0.0390953756868839,0.1246165111660957,-0.1062905490398407
1781042293968750300,26.573750244140623,0.0525344125926494,0.167377084493637,-0.1099557429552078
1781042293978821000,26.583821044921876,0.0500909499824047,0.1832595765590667,-0.1356120854616165
1781042293988861400,26.593861328125,0.0623082555830478,0.1698205322027206,-0.1698205322027206
1781042293998962700,26.603962646484376,0.0696386396884918,0.1258382350206375,-0.1588249653577804
1781042294009064000,26.61406396484375,0.051312681287527,0.147829383611679,-0.0818559452891349
1781042294019134700,26.624134765625,0.0085521135479211,0.1722639948129654,-0.0403171069920063
1781042294029205500,26.63420556640625,-0.0061086523346602,0.1527163088321685,-0.0452040284872055
1781042294039307000,26.64430712890625,0.0561996027827262,0.1246165111660957,-0.1319468915462494
1781042294059448600,26.664448486328126,0.117286130785942,0.1209513172507286,-0.2687807083129883
1781042294069489000,26.674489013671874,0.1356120854616165,0.1050688251852989,-0.2724458873271942
1781042294079590100,26.684590087890623,0.1514945775270462,0.1087340116500854,-0.2626720666885376
1781042294089661000,26.694660888671876,0.1356120854616165,0.1343903541564941,-0.2260201424360275
1781042294099701200,26.704701171875,0.1111774742603302,0.1747074574232101,-0.2064724564552307
1781042294109741600,26.714741455078126,0.0464257597923278,0.2272418737411499,-0.2846632003784179
1781042294119842800,26.7248427734375,-0.0659734457731247,0.2773328125476837,-0.375071257352829
1781042294150055200,26.75505517578125,-0.2186897546052932,0.4996877610683441,-0.2443460971117019
1781042294160156400,26.765156494140623,-0.2247984111309051,0.5009095072746277,-0.0867428630590438
1781042294170227200,26.775227294921876,-0.2296853363513946,0.4508185386657715,-0.0293215326964855
1781042294180298200,26.78529833984375,-0.2785545587539673,0.4178318381309509,-0.0354301854968071
1781042294190338300,26.79533837890625,-0.3262020349502563,0.3982841372489929,-0.0977384373545646
1781042294200439800,26.805439697265623,-0.3555235862731933,0.3506366610527038,-0.1514945775270462
1781042294210510600,26.815510498046876,-0.4214970171451568,0.3262020349502563,-0.1551597714424133
1781042294220581400,26.825581298828126,-0.5155702829360962,0.2932153046131134,-0.1331686228513717
1781042294230621700,26.83562158203125,-0.5998696684837341,0.2724458873271942,-0.0842994004487991
1781042294240723000,26.845722900390623,-0.6352998614311218,0.2492330223321914,-0.0036651915870606
1781042294250793700,26.855793701171876,-0.636521577835083,0.2028072625398636,0.0500909499824047
1781042294260864500,26.865864501953126,-0.6414085030555725,0.1649336218833923,0.0464257597923278
1781042294270935300,26.875935302734376,-0.6963863968849182,0.1380555480718612,-0.0146607663482427
1781042294281006000,26.886006103515623,-0.7770205736160278,0.1356120854616165,-0.140499010682106
1781042294291107300,26.896107421875,-0.8478809595108032,0.1771509200334549,-0.3176499307155609
1781042294301178400,26.906178466796874,-0.9676105380058287,0.1466076523065567,-0.5302310585975647
1781042294311249200,26.916249267578124,-0.9676105380058287,0.1466076523065567,-0.5302310585975647
1781042294321350400,26.926350341796876,-0.8148942589759827,0.0879645943641662,-0.5326744914054871
1781042294331421200,26.936421142578126,-0.799011766910553,0.1099557429552078,-0.3323107063770294
1781042294361603000,26.96660302734375,-0.8478809595108032,0.0720821022987365,-0.66584312915802
1781042294371704300,26.976704345703126,-0.8710938692092896,0.0280998013913631,-0.8698720932006836
1781042294381775000,26.986775146484376,-0.8759807348251343,0.0720821022987365,-0.9285151958465576
1781042294401916700,27.006916748046876,-0.9859365224838256,0.1539380401372909,-0.4740314185619354
1781042294411987500,27.016987548828126,-1.0323622226715088,0.1331686228513717,-0.4178318381309509
1781042294422058500,27.02705859375,-1.06657075881958,0.0952949747443199,-0.3982841372489929
1781042294432129300,27.03712939453125,-1.0616837739944458,0.1148426681756973,-0.3640756905078888
1781042294442200000,27.047199951171876,-1.0042624473571775,0.0818559452891349,-0.4117231667041778
1781042294462372000,27.0673720703125,-0.8662069439888,-0.2528982162475586,-0.6450737118721008
1781042294472473300,27.077473388671876,-0.8307767510414124,-0.2981022298336029,-0.6743952035903931
1781042294482544000,27.087544189453126,-0.7819074988365173,-0.1832595765590667,-0.5070181488990784
1781042294492645600,27.097645751953124,-0.6976081132888794,-0.0659734457731247,-0.3359758853912353
1781042294502716400,27.10771630859375,-0.646295428276062,-0.0794124826788902,-0.1600466966629028
1781042294512756700,27.1177568359375,-0.5656611919403076,-0.1160643994808197,-0.1502728462219238
1781042294522858000,27.12785791015625,-0.4801400899887085,-0.1331686228513717,-0.3628539443016052
1781042294532928800,27.1379287109375,-0.4300491213798523,-0.1014036312699318,-0.6279694437980652
1781042294543030000,27.148030029296876,-0.3872885704040527,-0.0500909499824047,-0.7049384713172913
1781042294573273000,27.178273193359377,-0.0452040284872055,0.1270599663257599,-0.384845107793808
1781042294583343900,27.18834375,-0.0207694191485643,0.1966986060142517,-0.3213151097297668
1781042294593445000,27.198445068359376,-0.0464257597923278,0.2492330223321914,-0.1685988008975982
1781042294603516000,27.208515869140623,-0.0012217304902151,0.3225368559360504,-0.1417207419872284
1781042294613586700,27.218586669921876,0.117286130785942,0.3506366610527038,-0.2663372457027435
1781042294623657500,27.228657470703126,0.2113593816757202,0.4019493460655212,-0.5290092825889587
1781042294633728300,27.238728271484376,0.3103195428848266,0.4019493460655212,-0.779464066028595
1781042294643768600,27.2487685546875,0.432492583990097,0.3494149148464203,-0.8185594081878662
1781042294653839400,27.25883935546875,0.5668829679489136,0.361632227897644,-0.5436700582504272
1781042294684082200,27.289082275390623,0.996932089328766,0.5290092825889587,0.4312708675861358
1781042294694153200,27.2991533203125,1.156978726387024,0.4899139404296875,0.2467895597219467
1781042294704224000,27.30922412109375,1.348790407180786,0.4129449129104614,-0.2492330223321914
1781042294714264000,27.31926416015625,1.538158655166626,0.3555235862731933,-0.8637634515762329
1781042294724335000,27.329335205078124,1.673770785331726,0.2687807083129883,-1.1215485334396362
1781042294734406000,27.339406005859377,1.835039138793945,0.294437050819397,-0.9224064946174622
1781042294744507100,27.349507080078126,2.0024163722991943,0.432492583990097,-0.3555235862731933
1781042294754608400,27.3596083984375,2.1282544136047363,0.6047565937042236,0.2333505302667617
1781042294764679200,27.36967919921875,2.2040019035339355,0.7904596328735352,0.5070181488990784
1781042294784851500,27.3898515625,2.409252643585205,1.1337659358978271,-0.0085521135479211
1781042294794922200,27.399922119140623,2.604729413986206,1.1704177856445312,-0.8356636762619019
1781042294804993000,27.409992919921876,2.6670377254486084,1.076344609260559,-1.330464482307434
1781042294815094300,27.42009423828125,2.669481039047241,1.1374311447143557,-1.119105100631714
1781042294825165000,27.4301650390625,2.6926939487457275,1.3548991680145264,-0.6316346526145935
1781042294835235800,27.44023583984375,2.6145031452178955,1.538158655166626,-0.2064724564552307
1781042294845306600,27.450306640625,2.4043655395507812,1.5320500135421753,0.1771509200334549
1781042294855377400,27.46037744140625,2.211332082748413,1.3903292417526243,0.4031710624694824
1781042294895691300,27.500691162109376,1.6603317260742188,0.740368664264679,0.1490511149168014
1781042294905731600,27.510731689453124,1.510058879852295,0.608421802520752,0.3225368559360504
1781042294915802400,27.52080224609375,1.2950342893600464,0.5119050741195679,0.4838052690029144
1781042294925873200,27.530873046875,1.036027431488037,0.4703662395477295,0.5253441333770752
1781042294935944000,27.54094384765625,0.8087855577468872,0.4337143301963806,0.4178318381309509
1781042294946014700,27.5510146484375,0.6120869517326355,0.3359758853912353,0.2480112910270691
1781042294956116000,27.561115966796876,0.4447098970413208,0.1893682330846786,0.1185078546404838
1781042294966186800,27.571186767578126,0.2675589919090271,0.0488692186772823,0.0525344125926494
1781042294986359000,27.591359130859377,-0.2492330223321914,0.0171042270958423,0.2394591718912124
1781042294996429800,27.601429931640624,-0.4581489264965057,0.0684169083833694,0.4764748811721802
1781042295006500600,27.61150048828125,-0.6157521605491638,0.0280998013913631,0.6230825781822205
1781042295016541000,27.621541015625,-0.7611380815505981,-0.1038470938801765,0.5827654600143433
1781042295026642200,27.63164208984375,-0.9101892113685608,-0.2700024247169494,0.4373795092105865
1781042295036743400,27.641743408203126,-1.0580185651779177,-0.4043927788734436,0.2345722615718841
1781042295046875400,27.65187548828125,-1.186300277709961,-0.4801400899887085,0.0048869219608604
1781042295056946200,27.6619462890625,-1.2986994981765747,-0.5241223573684692,-0.171042263507843
1781042295087158500,27.692158447265623,-1.7580702304840088,-0.9358455538749696,0.3262020349502563
1781042295097229300,27.702229248046876,-2.018298864364624,-0.9810495972633362,0.5656611919403076
1781042295107300000,27.712300048828126,-2.135584831237793,-0.817337691783905,0.2492330223321914
1781042295117401300,27.7224013671875,-2.135584831237793,-0.817337691783905,0.2492330223321914
1781042295127472000,27.73247216796875,-1.8154915571212769,-0.720820963382721,-1.187522053718567
1781042295137543000,27.74254296875,-2.0256290435791016,-0.7953465580940247,-1.216843605041504
1781042295147644400,27.75264453125,-2.3432791233062744,-0.8820894360542297,-0.5925393104553223
1781042295157715200,27.762715087890623,-2.4055874347686768,-0.9395107626914978,0.2260201424360275
1781042295167786000,27.772785888671876,-2.105041742324829,-0.8979719281196594,0.5253441333770752
1781042295187958000,27.7929580078125,-1.6420058012008667,-1.0225883722305298,-0.1637118905782699
1781042295208130000,27.813130126953126,-1.7482963800430298,-0.9761626720428468,-0.2895501255989074
1781042295218170400,27.82317041015625,-1.6236798763275146,-0.8649851679801941,-0.0195476878434419
1781042295228302300,27.83330224609375,-1.441641926765442,-0.7330383062362671,0.261450320482254
1781042295238312000,27.84331201171875,-1.3475687503814695,-0.6548475623130798,0.4776966273784637
1781042295248413400,27.853413330078126,-1.3096951246261597,-0.6120869517326355,0.5656611919403076
1781042295258453800,27.863453857421874,-1.1789699792861938,-0.5619960427284241,0.1954768747091293
1781042295268463400,27.87346337890625,-1.080009698867798,-0.4813618063926697,-0.4703662395477295
1781042295288635600,27.8936357421875,-1.0714576244354248,-0.3836233615875244,-0.3249803185462951
1781042295298706400,27.90370654296875,-1.0213667154312134,-0.3628539443016052,0.3787364661693573
1781042295308746500,27.91374658203125,-0.9285151958465576,-0.3249803185462951,1.1142182350158691
1781042295318848000,27.923847900390623,-0.759916365146637,-0.221133217215538,1.3475687503814695
1781042295328918800,27.933918701171876,-0.6035348773002625,-0.1026253625750541,1.1728612184524536
1781042295339020000,27.94402001953125,-0.2846632003784179,-0.0830776765942573,0.6450737118721008
1781042295348999400,27.95399951171875,0.0036651915870606,-0.2370157092809677,-0.2834414839744568
1781042295359100700,27.9641005859375,0.0232128798961639,-0.4117231667041778,-0.5839871764183044
1781042295369171500,27.97417138671875,0.0,-0.4398229718208313,-0.4263839423656463
1781042295379272700,27.984272705078126,-0.0366519130766391,-0.4276056587696075,-0.171042263507843
1781042295389313000,27.99431298828125,-0.0684169083833694,-0.4251621961593628,0.3457497358322143
1781042295399414300,28.004414306640623,-0.0024434609804302,-0.3262020349502563,0.8552113175392151
1781042295409485000,28.014485107421876,0.1221730485558509,-0.1820378452539444,1.0983357429504397
1781042295419555800,28.024555908203126,0.2162462919950485,-0.1062905490398407,0.9871582388877868
1781042295429626600,28.034626708984376,0.3115412890911102,-0.1209513172507286,0.6010913848876953
1781042295449799000,28.054798828125,0.4214970171451568,-0.2528982162475586,-0.5180137157440186
1781042295459869700,28.06486962890625,0.4434881806373596,-0.2003637999296188,-0.6707300543785095
1781042295469940500,28.0749404296875,0.4105014503002167,-0.1600466966629028,-0.3005456924438476
1781042295480011300,28.08501123046875,0.3433062732219696,-0.1661553531885147,0.6206390857696533
1781042295520294400,28.12529443359375,0.4911356568336487,0.3555235862731933,1.428202986717224
1781042295530396000,28.13539599609375,0.6243042945861816,0.1429424732923507,0.3665191531181335
1781042295540466700,28.145466796875,0.7159340381622314,-0.090408056974411,-0.2406809031963348
1781042295550537500,28.155537353515623,0.7476990818977356,-0.1087340116500854,-0.2186897546052932
1781042295560638700,28.165638671875,0.6890559792518616,-0.0268780700862407,0.2040289938449859
1781042295570709500,28.17570947265625,0.5925393104553223,0.0134390350431203,0.8600982427597046
1781042295580780300,28.1857802734375,0.5729916095733643,0.0464257597923278,1.3744467496871948
1781042295600952300,28.205952392578126,0.7122688889503479,-0.0097738439217209,0.9370672702789308
1781042295611023000,28.216023193359376,0.7721336483955383,-0.1343903541564941,0.4214970171451568
1781042295621094100,28.22609423828125,0.8197811841964722,-0.1942551434040069,-0.0647517144680023
1781042295631165000,28.2361650390625,0.7660250067710876,-0.2431243658065796,-0.2895501255989074
1781042295641266200,28.24626611328125,0.6243042945861816,-0.3249803185462951,-0.1734857261180877
1781042295651367400,28.256367431640623,0.5070181488990784,-0.351858377456665,0.1026253625750541
1781042295661438200,28.266438232421876,0.4581489264965057,-0.3005456924438476,0.3982841372489929
1781042295671509000,28.276509033203126,0.4471533596515655,-0.2406809031963348,0.7110471725463867
1781042295681579800,28.286579833984376,0.4776966273784637,-0.2345722615718841,0.9370672702789308
1781042295701752000,28.306751953125,0.5436700582504272,-0.2834414839744568,0.7110471725463867
1781042295711822800,28.31682275390625,0.5265658497810364,-0.36529740691185,0.4581489264965057
1781042295721924000,28.326924072265623,0.5534439086914062,-0.3970624208450317,0.1966986060142517
1781042295732025300,28.337025390625,0.6133087277412415,-0.3689626157283783,-0.0195476878434419
1781042295742096100,28.34709619140625,0.6340781450271606,-0.3262020349502563,-0.0965167060494422
1781042295752136400,28.357136474609376,0.5962044596672058,-0.3127630054950714,-0.0207694191485643
1781042295762237700,28.36723779296875,0.5436700582504272,-0.3665191531181335,0.0696386396884918
1781042295772308700,28.377308837890624,0.4886921942234039,-0.4239404797554016,0.1490511149168014
1781042295782379500,28.387379638671874,0.4153883755207062,-0.4789183437824249,0.2981022298336029
1781042295802551600,28.407551513671876,0.3103195428848266,-0.442266434431076,0.5302310585975647
1781042295812652800,28.41765283203125,0.3567453026771545,-0.3628539443016052,0.4911356568336487
1781042295822693000,28.427693115234376,0.4361577928066253,-0.3310889601707458,0.394618958234787
1781042295832764000,28.437763916015623,0.4984660446643829,-0.3200933933258056,0.294437050819397
1781042295842865200,28.447865234375,0.5314527750015259,-0.3005456924438476,0.2504547536373138
1781042295852936200,28.457936279296874,0.5448917746543884,-0.2785545587539673,0.2883284091949463
1781042295863007000,28.468007080078124,0.5534439086914062,-0.2577851414680481,0.3811798989772796
1781042295873077800,28.478077880859377,0.5497786998748779,-0.2687807083129883,0.3958406746387481
1781042295883148500,28.4881484375,0.5253441333770752,-0.2761110961437225,0.3090978264808655
1781042295893219300,28.49821923828125,0.5277875661849976,-0.3115412890911102,0.1453859210014343
1781042295903320600,28.508320556640623,0.5522221922874451,-0.3604104816913605,0.0109955742955207
1781042295913361000,28.51836083984375,0.50335294008255,-0.3371976017951965,0.0415388382971286
1781042295923462100,28.528462158203126,0.50335294008255,-0.3371976017951965,0.0415388382971286
1781042295933502500,28.53850244140625,0.351858377456665,-0.2528982162475586,0.1918116807937622
1781042295963714800,28.56871484375,0.1343903541564941,-0.1539380401372909,0.0378736443817615
1781042295973816000,28.578816162109376,0.1185078546404838,-0.1209513172507286,-0.1490511149168014
1781042295983887000,28.58888720703125,0.1258382350206375,-0.1209513172507286,-0.304210901260376
1781042295993958000,28.5989580078125,0.1197295859456062,-0.1136209368705749,-0.3579670190811157
1781042296014099500,28.619099365234376,0.1148426681756973,0.0280998013913631,-0.167377084493637
1781042296024170200,28.629170166015623,0.107512280344963,0.107512280344963,-0.0733038261532783
1781042296034241000,28.639240966796876,0.1185078546404838,0.1417207419872284,-0.0415388382971286
1781042296044342300,28.64934228515625,0.1661553531885147,0.1319468915462494,-0.0855211317539215
1781042296054413000,28.6594130859375,0.2101376503705978,0.1001818999648094,-0.2296853363513946
1781042296064514600,28.6695146484375,0.1893682330846786,0.0378736443817615,-0.4019493460655212
1781042296074585300,28.67958544921875,0.1453859210014343,0.0415388382971286,-0.455705463886261
1781042296084656000,28.68965625,0.1624901592731475,0.1038470938801765,-0.394618958234787
1781042296094757400,28.69975732421875,0.1624901592731475,0.1588249653577804,-0.3103195428848266
1781042296124969700,28.7299697265625,0.107512280344963,0.3103195428848266,-0.1966986060142517
1781042296135040500,28.74004052734375,0.1246165111660957,0.3274237811565399,-0.2626720666885376
1781042296145111300,28.750111328125,0.0842994004487991,0.2382374405860901,-0.3286454975605011
1781042296155212800,28.760212890625,0.0378736443817615,0.1991420686244964,-0.361632227897644
1781042296165283600,28.77028369140625,0.0403171069920063,0.3408628106117248,-0.3787364661693573
1781042296175384800,28.780384765625,-0.0219911485910415,0.4838052690029144,-0.2761110961437225
1781042296185486000,28.790486083984376,-0.0635299831628799,0.5717698931694031,-0.1453859210014343
1781042296205688800,28.810688720703126,0.0219911485910415,0.5534439086914062,-0.1502728462219238
1781042296215790000,28.8207900390625,-0.0109955742955207,0.4789183437824249,-0.1747074574232101
