time,seconds_elapsed,z,y,x
1781030597971328300,0.485328369140625,9.313092231750488,-3.037998914718628,-0.27726298570632935
1781030597981091300,0.49509130859375,9.388069152832031,-2.800734043121338,-0.24501800537109375
1781030598000616200,0.5146162109375,9.471179962158203,-2.508903980255127,-0.20531900227069855
1781030598020138000,0.534137939453125,9.545808792114258,-2.211721897125244,-0.16069500148296356
1781030598039662600,0.55366259765625,9.611380577087402,-1.910262942314148,-0.11070600152015686
1781030598059188700,0.573188720703125,9.66740608215332,-1.6057080030441284,-0.05450199916958809
1781030598078720800,0.592720703125,9.713557243347168,-1.298745036125183,0.008085999637842178
1781030598098252300,0.612252197265625,9.749748229980469,-0.9882320165634155,0.07616899907588959
1781030598117778700,0.63177880859375,9.775764465332031,-0.6726750135421753,0.14813999831676483
1781030598137303000,0.651302978515625,9.791146278381348,-0.3517000079154968,0.22306600213050842
1781030598156823000,0.670822998046875,9.79537582397461,-0.025496000424027443,0.2999500036239624
1781030598176341500,0.690341552734375,9.787964820861816,0.3051280081272125,0.3776620030403137
1781030598195861500,0.709861572265625,9.768527030944824,0.6389899849891663,0.45561400055885315
1781030598215387600,0.7293876953125,9.736842155456543,0.9745129942893982,0.5331230163574219
1781030598234914800,0.748914794921875,9.692811965942383,1.3105679750442505,0.609749972820282
1781030598254438100,0.768438232421875,9.636457443237305,1.6460109949111938,0.6850849986076355
1781030598273967400,0.78796728515625,9.567878723144531,1.9798630475997925,0.7588409781455994
1781030598293492500,0.807492431640625,9.487275123596191,2.3112070560455322,0.8306210041046143
1781030598313012700,0.8270126953125,9.395137786865234,2.6384010314941406,0.9001230001449585
1781030598332536300,0.846536376953125,9.292132377624512,2.9598119258880615,0.9673629999160767
1781030598352054500,0.866054443359375,9.17889404296875,3.274535894393921,1.0321389436721802
1781030598371567600,0.885567626953125,9.055779457092285,3.582503080368042,1.0947730541229248
1781030598391086800,0.9050869140625,8.92331600189209,3.883270025253296,1.1552660465240479
1781030598410609700,0.924609619140625,8.782868385314941,4.174870014190674,1.2131270170211792
1781030598430133200,0.94413330078125,8.63691234588623,4.453752040863037,1.2680009603500366
1781030598449659100,0.9636591796875,8.488758087158203,4.715868949890137,1.3196829557418823
1781030598469180200,0.98318017578125,8.34223747253418,4.957244873046875,1.368499994277954
1781030598488697300,1.002697265625,8.229498863220215,5.129654884338379,1.4149179458618164
1781030598508214800,1.02221484375,8.154424667358398,5.235713958740234,1.4603559970855713
1781030598527734300,1.041734375,8.119314193725586,5.276976108551025,1.5067399740219116
1781030598547253000,1.0612529296875,8.124510765075684,5.254683971405029,1.5558290481567383
1781030598566774300,1.080774169921875,8.168048858642578,5.1708831787109375,1.6077790260314941
1781030598586299400,1.10029931640625,8.246739387512207,5.0269269943237305,1.6617159843444824
1781030598605819600,1.119819580078125,8.329879760742188,4.869081974029541,1.7161370515823364
1781030598625337000,1.139337158203125,8.415121078491211,4.7003397941589355,1.7699010372161865
1781030598644856300,1.158856201171875,8.415121078491211,4.7003397941589355,1.7699010372161865
1781030598664379600,1.178379638671875,8.415121078491211,4.7003397941589355,1.7699010372161865
1781030598683904800,1.19790478515625,8.569985389709473,4.367464065551758,1.8763270378112793
1781030598703426800,1.2174267578125,8.63731575012207,4.209212779998779,1.928547978401184
1781030598722952200,1.2369521484375,8.697504997253418,4.058063983917236,1.9812920093536377
1781030598742482200,1.256482177734375,8.751185417175293,3.9136180877685547,2.0347840785980225
1781030598762012200,1.27601220703125,8.799571990966797,3.7740089893341064,2.0891129970550537
1781030598781538600,1.29553857421875,8.847654342651367,3.629286050796509,2.1417980194091797
1781030598801060400,1.315060302734375,8.896180152893066,3.4774749279022217,2.192064046859741
1781030598820584400,1.33458447265625,8.94677734375,3.314361095428467,2.2383430004119873
1781030598840110300,1.3541103515625,9.000356674194336,3.136708974838257,2.279175043106079
1781030598859633700,1.373633544921875,9.05686092376709,2.942742109298706,2.3137710094451904
1781030598879158000,1.393157958984375,9.115609169006348,2.731657028198242,2.341736078262329
1781030598898684000,1.412683837890625,9.175607681274414,2.502906084060669,2.362982988357544
1781030598918209300,1.432209228515625,9.23575210571289,2.256027936935425,2.3772289752960205
1781030598937730600,1.45173046875,9.294816970825195,1.9905519485473633,2.384129047393799
1781030598957251800,1.471251953125,9.351158142089844,1.706516981124878,2.384036064147949
1781030598976773600,1.490773681640625,9.402754783630371,1.4053879976272583,2.377624988555908
1781030598996291300,1.510291259765625,9.44753646850586,1.090248942375183,2.3654611110687256
1781030599015806700,1.529806640625,9.483719825744629,0.765595018863678,2.347961902618408
1781030599035324200,1.54932421875,9.509939193725586,0.4375759959220886,2.325850009918213
1781030599054847700,1.56884765625,9.525585174560547,0.11402300000190735,2.300046920776367
1781030599074370300,1.588370361328125,9.530983924865723,-0.19604599475860596,2.2719810009002686
1781030599093888300,1.60788818359375,9.527400016784668,-0.4794580042362213,2.2447218894958496
1781030599113409800,1.627409912109375,9.51718521118164,-0.7317119836807251,2.2198588848114014
1781030599132934700,1.6469345703125,9.502867698669434,-0.9495109915733337,2.198622941970825
1781030599152460500,1.66646044921875,9.486834526062012,-1.1317780017852783,2.1815218925476074
1781030599171986700,1.685986572265625,9.471030235290527,-1.2799969911575317,2.1682209968566895
1781030599191509000,1.705509033203125,9.457009315490723,-1.3975470066070557,2.156809091567993
1781030599211032800,1.72503271484375,9.445345878601074,-1.4942330121994019,2.1430599689483643
1781030599230557200,1.74455712890625,9.436193466186523,-1.5764729976654053,2.124377965927124
1781030599250078500,1.764078369140625,9.429025650024414,-1.6553930044174194,2.0959858894348145
1781030599269595600,1.783595703125,9.422786712646484,-1.7370790243148804,2.0575830936431885
1781030599289108700,1.803108642578125,9.416245460510254,-1.8265819549560547,2.0094571113586426
1781030599308624100,1.8226240234375,9.408041000366211,-1.9270130395889282,1.9532979726791382
1781030599328145400,1.8421455078125,9.396892547607422,-2.039674997329712,1.8915929794311523
1781030599347669500,1.86166943359375,9.381913185119629,-2.1641879081726074,1.8264679908752441
1781030599367192300,1.8811923828125,9.362600326538086,-2.296976089477539,1.762274980545044
1781030599386713600,1.900713623046875,9.362600326538086,-2.296976089477539,1.762274980545044
1781030599406233600,1.920233642578125,9.337455749511719,-2.4414889812469482,1.700307011604309
1781030599425754000,1.939754150390625,9.305887222290039,-2.596752882003784,1.6423569917678833
1781030599445272300,1.959272216796875,9.26756763458252,-2.7615389823913574,1.5893679857254028
1781030599464791800,1.978791748046875,9.222304344177246,-2.934727907180786,1.5415829420089722
1781030599484313000,1.99831298828125,9.222304344177246,-2.934727907180786,1.5415829420089722
1781030599503833900,2.017833740234375,9.109526634216309,-3.304827928543091,1.461035966873169
1781030599523358000,2.03735791015625,9.043904304504395,-3.4937610626220703,1.4287830591201782
1781030599542882300,2.05688232421875,8.973365783691406,-3.681410074234009,1.4021090269088745
1781030599562406000,2.076406005859375,8.898810386657715,-3.8659090995788574,1.3805480003356934
1781030599581930800,2.0959306640625,8.821413040161133,-4.045461177825928,1.362686038017273
1781030599601457700,2.115457763671875,8.743020057678223,-4.217216968536377,1.3471020460128784
1781030599620986400,2.134986328125,8.663917541503906,-4.381964206695557,1.3322620391845703
1781030599640510000,2.154510009765625,8.585010528564453,-4.539206027984619,1.3165019750595093
1781030599660027000,2.17402685546875,8.506756782531738,-4.6892900466918945,1.2983180284500122
1781030599679547400,2.19354736328125,8.429499626159668,-4.8328328132629395,1.2756459712982178
1781030599699073000,2.213072998046875,8.354284286499023,-4.969225883483887,1.246080994606018
1781030599718600400,2.232600341796875,8.279693603515625,-5.1016459465026855,1.208251953125
1781030599738124000,2.2521240234375,8.203829765319824,-5.23338508605957,1.1613940000534058
1781030599757644000,2.27164404296875,8.124439239501953,-5.367539882659912,1.1058919429779053
1781030599777171200,2.291171142578125,8.039456367492676,-5.506147861480713,1.0437829494476318
1781030599796701200,2.310701171875,7.947463035583496,-5.649742126464844,0.9788979887962341
1781030599816228400,2.330228271484375,7.947463035583496,-5.649742126464844,0.9788979887962341
1781030599835755000,2.349755126953125,7.7402777671813965,-5.948378086090088,0.8630819916725159
1781030599855280400,2.3692802734375,7.628859043121338,-6.096847057342529,0.8179000020027161
1781030599874804200,2.38880419921875,7.5163397789001465,-6.239536762237549,0.7828260064125061
1781030599894330600,2.40833056640625,7.406624794006348,-6.372613906860352,0.756102979183197
1781030599913861000,2.427861083984375,7.303074836730957,-6.493447780609131,0.7349900007247925
1781030599933388300,2.44738818359375,7.2071380615234375,-6.6019158363342285,0.7154449820518494
1781030599952911000,2.4669111328125,7.120150089263916,-6.697604179382324,0.6968140006065369
1781030599972434400,2.486434326171875,7.042335033416748,-6.7812418937683105,0.6784420013427734
1781030599991958800,2.505958740234375,6.975421905517578,-6.85184907913208,0.6600300073623657
1781030600011483100,2.525483154296875,6.919188976287842,-6.910360813140869,0.6416739821434021
1781030600031006500,2.54500634765625,6.873280048370361,-6.9576568603515625,0.6237189769744873
1781030600050530800,2.56453076171875,6.837502956390381,-6.994311809539795,0.6067649722099304
1781030600070056400,2.584056396484375,6.8139801025390625,-7.018521785736084,0.5916159749031067
1781030600089581800,2.603581787109375,6.80257511138916,-7.030702114105225,0.578091025352478
1781030600109105000,2.62310498046875,6.801721096038818,-7.032536029815674,0.5657089948654175
1781030600128630800,2.642630859375,6.810210227966309,-7.025218963623047,0.5543739795684814
1781030600148153000,2.662153076171875,6.8262739181518555,-7.010412216186523,0.5441449880599976
1781030600167673900,2.681673828125,6.848293781280518,-6.989580154418945,0.5353829860687256
1781030600187200000,2.701199951171875,6.873589038848877,-6.965231895446777,0.5284990072250366
1781030600206724400,2.720724365234375,6.873589038848877,-6.965231895446777,0.5284990072250366
1781030600226250000,2.74025,6.927884101867676,-6.911577224731445,0.5239350199699402
1781030600245782500,2.759782470703125,6.952753067016602,-6.886232852935791,0.5282160043716431
1781030600265319700,2.779319580078125,6.952753067016602,-6.886232852935791,0.5282160043716431
1781030600284853200,2.798853271484375,6.973744869232178,-6.8642048835754395,0.5381069779396057
1781030600304383700,2.8183837890625,7.003232955932617,-6.830860137939453,0.577983021736145
1781030600323911200,2.8379111328125,7.003232955932617,-6.830860137939453,0.577983021736145
1781030600343438300,2.857438232421875,7.014036178588867,-6.8171892166137695,0.6076359748840332
1781030600362960600,2.876960693359375,7.025093078613281,-6.802614212036133,0.6422569751739502
1781030600382480100,2.896480224609375,7.039412975311279,-6.784138202667236,0.6797999739646912
1781030600402005800,2.916005859375,7.058870792388916,-6.759859085083008,0.7187790274620056
1781030600421534700,2.93553466796875,7.082551002502441,-6.730976104736328,0.7559260129928589
1781030600441065500,2.9550654296875,7.11016321182251,-6.697772026062012,0.7908310294151306
1781030600460594700,2.9745947265625,7.140548229217529,-6.661539077758789,0.8224719762802124
1781030600480123400,2.994123291015625,7.172093868255615,-6.62404203414917,0.8503760099411011
1781030600499653000,3.013653076171875,7.202140808105469,-6.5880231857299805,0.8758450150489807
1781030600519184000,3.033183837890625,7.2281928062438965,-6.556180953979492,0.8998429775238037
1781030600538713300,3.05271337890625,7.249838829040527,-6.528866767883301,0.9239689707756042
1781030600558240500,3.072240478515625,7.266191005706787,-6.5073652267456055,0.9469169974327087
1781030600577761000,3.091760986328125,7.277629852294922,-6.4914140701293945,0.968313992023468
1781030600597282600,3.111282470703125,7.284966945648193,-6.480175971984863,0.988211989402771
1781030600616808400,3.130808349609375,7.289272785186768,-6.472471237182617,1.0067850351333618
1781030600636331300,3.150331298828125,7.291563987731934,-6.467146873474121,1.0242539644241333
1781030600655853800,3.169853759765625,7.292544841766357,-6.463430881500244,1.0405980348587036
1781030600675380000,3.1893798828125,7.2921600341796875,-6.46140193939209,1.055783987045288
1781030600694907600,3.20890771484375,7.289873123168945,-6.461627006530762,1.0700980424880981
1781030600714437000,3.22843701171875,7.2855448722839355,-6.464180946350098,1.0840619802474976
1781030600733965000,3.247965087890625,7.279630184173584,-6.46857213973999,1.0975159406661987
1781030600753491000,3.267490966796875,7.273018836975098,-6.473880767822266,1.109974980354309
1781030600773014800,3.287014892578125,7.265822887420654,-6.479980945587158,1.1214519739151
1781030600792536800,3.306536865234375,7.2579569816589355,-6.48689079284668,1.132383942604065
1781030600812061400,3.3260615234375,7.250150203704834,-6.49369478225708,1.1433409452438354
1781030600831586000,3.3455859375,7.242159843444824,-6.500728130340576,1.153975009918213
1781030600851105800,3.365105712890625,7.23478889465332,-6.5071120262146,1.1641809940338135
1781030600870623000,3.384623046875,7.228099822998047,-6.5127739906311035,1.174028992652893
1781030600890143700,3.404143798828125,7.222064971923828,-6.517789840698242,1.183298945426941
1781030600909664000,3.4236640625,7.21730899810791,-6.521431922912598,1.1922060251235962
1781030600929180400,3.443180419921875,7.213493824005127,-6.524086952209473,1.2007499933242798
1781030600948695000,3.462695068359375,7.210550785064697,-6.525815010070801,1.2089990377426147
1781030600968210000,3.4822099609375,7.206852912902832,-6.528451919555664,1.2167960405349731
1781030600987726800,3.501726806640625,7.200776100158691,-6.533944129943848,1.223276972770691
1781030601007245600,3.52124560546875,7.191431999206543,-6.543362140655518,1.2278889417648315
1781030601026764300,3.540764404296875,7.191431999206543,-6.543362140655518,1.2278889417648315
1781030601046282000,3.560281982421875,7.161548137664795,-6.576079845428467,1.227763056755066
1781030601065799400,3.57979931640625,7.140865802764893,-6.599398136138916,1.2230939865112305
1781030601085316900,3.59931689453125,7.117216110229492,-6.626321792602539,1.2153520584106445
1781030601104835300,3.61883544921875,7.117216110229492,-6.626321792602539,1.2153520584106445
1781030601124355300,3.638355224609375,7.117216110229492,-6.626321792602539,1.2153520584106445
1781030601143873000,3.657873046875,7.062405109405518,-6.688042163848877,1.196876049041748
1781030601163392300,3.677392333984375,7.033947944641113,-6.7193779945373535,1.1889209747314453
1781030601182912000,3.696912109375,7.006367206573486,-6.7491679191589355,1.1830220222473145
1781030601202428700,3.7164287109375,6.980144023895264,-6.7768330574035645,1.1798779964447021
1781030601221944600,3.735944580078125,6.955537796020508,-6.801999092102051,1.180372953414917
1781030601241457200,3.75545703125,6.933990955352783,-6.823322772979736,1.1840729713439941
1781030601260970500,3.774970458984375,6.915689945220947,-6.840566158294678,1.191588044166565
1781030601280491000,3.794490966796875,6.9007158279418945,-6.853656768798828,1.2031199932098389
1781030601300012300,3.81401220703125,6.888636112213135,-6.863018989562988,1.218870997428894
1781030601319531800,3.83353173828125,6.878805160522461,-6.869372844696045,1.2384450435638428
1781030601339053600,3.853053466796875,6.870419979095459,-6.873587131500244,1.26139497756958
1781030601358578700,3.87257861328125,6.862741947174072,-6.87638521194458,1.2876700162887573
1781030601378104800,3.892104736328125,6.8551740646362305,-6.87827205657959,1.3175610303878784
1781030601397626600,3.911626708984375,6.847053050994873,-6.879724979400635,1.351755976676941
1781030601417145600,3.9311455078125,6.8379387855529785,-6.880834102630615,1.3916569948196411
1781030601436666600,3.95066650390625,6.827225208282471,-6.881720066070557,1.4390679597854614
1781030601456188700,3.970188720703125,6.814381122589111,-6.882506847381592,1.4950900077819824
1781030601475713000,3.989713134765625,6.799986839294434,-6.882140159606934,1.560871958732605
1781030601495238100,4.009238037109375,6.784249782562256,-6.88007116317749,1.636631965637207
1781030601514764500,4.0287646484375,6.767764091491699,-6.87551212310791,1.7218290567398071
1781030601534285300,4.048285400390625,6.750638961791992,-6.868218898773193,1.815608024597168
1781030601553801700,4.0678017578125,6.732396125793457,-6.858781814575195,1.9162310361862183
1781030601573320700,4.08732080078125,6.713125228881836,-6.847263813018799,2.0221059322357178
1781030601592840000,4.10683984375,6.692203044891357,-6.8346757888793945,2.131108045578003
1781030601612361200,4.126361328125,6.669740200042725,-6.821416854858398,2.2411649227142334
1781030601631884500,4.145884521484375,6.644769191741943,-6.808803081512451,2.351006031036377
1781030601651407400,4.165407470703125,6.6167497634887695,-6.798136234283447,2.458448886871338
1781030601670929700,4.1849296875,6.586263179779053,-6.789450168609619,2.5621259212493896
1781030601690453000,4.204452880859375,6.554065227508545,-6.782536029815674,2.6610920429229736
1781030601709979000,4.223978759765625,6.523237228393555,-6.775557041168213,2.7530319690704346
1781030601729503000,4.2435029296875,6.494563102722168,-6.768545150756836,2.836801052093506
1781030601749026300,4.2630263671875,6.46872091293335,-6.762077808380127,2.910317897796631
1781030601768553700,4.2825537109375,6.445693016052246,-6.757105827331543,2.972299098968506
1781030601788081000,4.302080810546875,6.425848007202148,-6.75439977645874,3.0210189819335938
1781030601807604200,4.321604248046875,6.409840106964111,-6.754556179046631,3.054490089416504
1781030601827128600,4.341128662109375,6.396576881408691,-6.759085178375244,3.0722250938415527
1781030601846651600,4.360651611328125,6.386887073516846,-6.767912864685059,3.0729479789733887
1781030601866175700,4.38017578125,6.381490230560303,-6.78065299987793,3.0560340881347656
1781030601885704400,4.399704345703125,6.381703853607178,-6.796210765838623,3.0208189487457275
1781030601905236200,4.419236328125,6.381703853607178,-6.796210765838623,3.0208189487457275
1781030601924766500,4.438766357421875,6.405220985412598,-6.830197811126709,2.891632080078125
1781030601944296200,4.458296142578125,6.405220985412598,-6.830197811126709,2.891632080078125
1781030601963827200,4.4778271484375,6.4303178787231445,-6.845757007598877,2.7976090908050537
1781030601983355400,4.49735546875,6.465453147888184,-6.858867168426514,2.682133913040161
1781030602002882800,4.5168828125,6.510952949523926,-6.868666172027588,2.543405055999756
1781030602022414300,4.536414306640625,6.566985130310059,-6.874081134796143,2.3794350624084473
1781030602041946000,4.555946044921875,6.632875919342041,-6.873383045196533,2.1912450790405273
1781030602061469700,4.5754697265625,6.708683967590332,-6.864916801452637,1.9764779806137085
1781030602080992800,4.59499267578125,6.789431095123291,-6.849908828735352,1.7384920120239258
1781030602100520400,4.6145205078125,6.8710198402404785,-6.829268932342529,1.479915976524353
1781030602120050200,4.63405029296875,6.949121952056885,-6.804241180419922,1.2049939632415771
1781030602139584000,4.653583984375,7.020349979400635,-6.775725841522217,0.9188079833984375
1781030602159118000,4.6731181640625,7.0829877853393555,-6.743714809417725,0.6273630261421204
1781030602178645000,4.69264501953125,7.135826110839844,-6.708707809448242,0.3364810049533844
1781030602198168600,4.71216845703125,7.179041862487793,-6.670735836029053,0.05120600014925003
1781030602217693000,4.73169287109375,7.21062707901001,-6.632994174957275,-0.2241480052471161
1781030602237217300,4.75121728515625,7.233551025390625,-6.593894004821777,-0.4861089885234833
1781030602256742400,4.770742431640625,7.250432968139648,-6.552506923675537,-0.732026994228363
1781030602276269600,4.79026953125,7.262308120727539,-6.509710788726807,-0.9604820013046265
1781030602295798000,4.809798095703125,7.270504951477051,-6.466054916381836,-1.1704210042953491
1781030602315327000,4.829326904296875,7.275807857513428,-6.42299222946167,-1.3593319654464722
1781030602334853600,4.848853515625,7.282124042510986,-6.378632068634033,-1.5243710279464722
1781030602354378800,4.868378662109375,7.290143966674805,-6.334413051605225,-1.6640349626541138
1781030602373903600,4.887903564453125,7.300903797149658,-6.291195869445801,-1.7769789695739746
1781030602393433900,4.907433837890625,7.314949989318848,-6.249773979187012,-1.8632839918136597
1781030602412966700,4.926966552734375,7.3317718505859375,-6.211857795715332,-1.9229979515075684
1781030602432489700,4.94648974609375,7.351489067077637,-6.178391933441162,-1.9552700519561768
1781030602452007700,4.966007568359375,7.373640060424805,-6.1506500244140625,-1.9593180418014526
1781030602471531300,4.98553125,7.397568225860596,-6.1297287940979,-1.9345250129699707
1781030602491059000,5.005058837890625,7.4225568771362305,-6.116558074951172,-1.8797229528427124
1781030602510585900,5.0245859375,7.447099208831787,-6.113874912261963,-1.7892030477523804
1781030602530112500,5.044112548828125,7.470063209533691,-6.12129020690918,-1.663714051246643
1781030602549641200,5.06364111328125,7.489134788513184,-6.140512943267822,-1.4989769458770752
1781030602569171000,5.0831708984375,7.502245903015137,-6.170932769775391,-1.2945549488067627
1781030602588696300,5.1026962890625,7.507019996643066,-6.211259841918945,-1.0511449575424194
1781030602608222200,5.12222216796875,7.500331878662109,-6.26019811630249,-0.7713260054588318
1781030602627746000,5.14174609375,7.479546070098877,-6.315291881561279,-0.4620260000228882
1781030602647267000,5.16126708984375,7.442311763763428,-6.3746337890625,-0.12660999596118927
1781030602666795000,5.180794921875,7.442311763763428,-6.3746337890625,-0.12660999596118927
1781030602686325200,5.2003251953125,7.3897600173950195,-6.432931900024414,0.22095799446105957
1781030602705853400,5.219853515625,7.2479071617126465,-6.532511234283447,0.9133189916610718
1781030602725380000,5.239380126953125,7.2479071617126465,-6.532511234283447,0.9133189916610718
1781030602744911000,5.2589111328125,7.164011001586914,-6.5711870193481445,1.2395349740982056
1781030602764445200,5.278445068359375,7.164011001586914,-6.5711870193481445,1.2395349740982056
1781030602783979800,5.297979736328125,6.9907097816467285,-6.624688148498535,1.8120360374450684
1781030602803512300,5.31751220703125,6.907234191894531,-6.640122890472412,2.058854103088379
1781030602823039200,5.337039306640625,6.830759048461914,-6.646574020385742,2.281179904937744
1781030602842566100,5.356566162109375,6.761716842651367,-6.646512985229492,2.4785149097442627
1781030602862096400,5.376096435546875,6.699615001678467,-6.640790939331055,2.6561319828033447
1781030602881626600,5.395626708984375,6.643281936645508,-6.6304612159729,2.8184709548950195
1781030602901155000,5.415155029296875,6.592860221862793,-6.616663932800293,2.965459108352661
1781030602920685800,5.434685791015625,6.547719955444336,-6.6008100509643555,3.0978500843048096
1781030602940216800,5.454216796875,6.504387855529785,-6.586610794067383,3.2170610427856445
1781030602959748600,5.47374853515625,6.463381767272949,-6.574145793914795,3.3234450817108154
1781030602979279400,5.493279296875,6.425282001495361,-6.563264846801758,3.4174959659576416
1781030602998809300,5.512809326171875,6.390193939208984,-6.553566932678223,3.5008819103240967
1781030603018337300,5.532337158203125,6.358609199523926,-6.543982028961182,3.575524091720581
1781030603037861400,5.551861328125,6.3299760818481445,-6.534300804138184,3.6433908939361572
1781030603057388500,5.571388427734375,6.3033270835876465,-6.524264812469482,3.707024097442627
1781030603076917000,5.5909169921875,6.278006076812744,-6.513844966888428,3.7678189277648926
1781030603096443600,5.610443603515625,6.253826141357422,-6.503477096557617,3.8254969120025635
1781030603115974700,5.629974609375,6.232593059539795,-6.4933390617370605,3.8770270347595215
1781030603135506700,5.649506591796875,6.216248989105225,-6.484047889709473,3.918592929840088
1781030603155036200,5.6690361328125,6.205571174621582,-6.476550102233887,3.9478070735931396
1781030603174566000,5.68856591796875,6.200934886932373,-6.471820831298828,3.962820053100586
1781030603194100000,5.708099853515625,6.202078819274902,-6.470512866973877,3.9631640911102295
1781030603213629000,5.72762890625,6.208977222442627,-6.472701072692871,3.948762893676758
1781030603233155800,5.74715576171875,6.2220540046691895,-6.477746963500977,3.919800043106079
1781030603252682200,5.76668212890625,6.241268157958984,-6.48458194732666,3.8777270317077637
1781030603272203800,5.786203857421875,6.265585899353027,-6.4921112060546875,3.825562000274658
1781030603291727400,5.805727294921875,6.295342922210693,-6.501625061035156,3.759990930557251
1781030603311251700,5.825251708984375,6.330799102783203,-6.512886047363281,3.6801199913024902
1781030603330774800,5.84477490234375,6.3718461990356445,-6.526730060577393,3.583482027053833
1781030603350294800,5.864294677734375,6.414539813995361,-6.5438737869262695,3.4743878841400146
1781030603369816000,5.883816162109375,6.461154937744141,-6.562431812286377,3.3508150577545166
1781030603389341200,5.903341064453125,6.511184215545654,-6.583286762237549,3.2101120948791504
1781030603408865000,5.922864990234375,6.564955234527588,-6.6039018630981445,3.0544800758361816
1781030603428389600,5.9423896484375,6.625148773193359,-6.623273849487305,2.8774330615997314
1781030603447914200,5.961914306640625,6.6923418045043945,-6.638479232788086,2.6801400184631348
1781030603467436300,5.981436279296875,6.768013954162598,-6.648171901702881,2.456782102584839
1781030603486958800,6.000958740234375,6.768013954162598,-6.648171901702881,2.456782102584839
1781030603506480400,6.02048046875,6.8490891456604,-6.653491020202637,2.2047739028930664
1781030603526005000,6.0400048828125,6.9345269203186035,-6.65247917175293,1.922719955444336
1781030603545534000,6.059533935546875,7.105560779571533,-6.6272687911987305,1.2768319845199585
1781030603565063700,6.079063720703125,7.105560779571533,-6.6272687911987305,1.2768319845199585
1781030603584593200,6.09859326171875,7.246801853179932,-6.57383394241333,0.5554779767990112
1781030603604123400,6.118123291015625,7.246801853179932,-6.57383394241333,0.5554779767990112
1781030603623655700,6.13765576171875,7.296541213989258,-6.539456844329834,0.18969200551509857
1781030603643188200,6.157188232421875,7.3299431800842285,-6.502579212188721,-0.16852499544620514
1781030603662724000,6.17672412109375,7.347751140594482,-6.464521884918213,-0.5103989839553833
1781030603682260000,6.196260009765625,7.350988864898682,-6.427090167999268,-0.8339449763298035
1781030603701790700,6.215790771484375,7.344754219055176,-6.388707160949707,-1.1309269666671753
1781030603721315800,6.23531591796875,7.332112789154053,-6.3503241539001465,-1.397678017616272
1781030603740838100,6.254838134765625,7.3164191246032715,-6.310348987579346,-1.6399660110473633
1781030603760362000,6.274362060546875,7.302425861358643,-6.2694220542907715,-1.8463209867477417
1781030603779887000,6.29388720703125,7.292697906494141,-6.227575778961182,-2.018378973007202
1781030603799412500,6.31341259765625,7.28920316696167,-6.187007904052734,-2.1513819694519043
1781030603818940200,6.332940185546875,7.29345703125,-6.149652004241943,-2.242155075073242
1781030603838472200,6.35247216796875,7.305453777313232,-6.1180548667907715,-2.289048910140991
1781030603858002000,6.372001953125,7.324117183685303,-6.094329833984375,-2.2926928997039795
1781030603877530600,6.391530517578125,7.347263813018799,-6.078805923461914,-2.259605884552002
1781030603897059300,6.411059326171875,7.375349998474121,-6.073307037353516,-2.1815450191497803
1781030603916585500,6.43058544921875,7.407113075256348,-6.077736854553223,-2.058100938796997
1781030603936112600,6.450112548828125,7.441361904144287,-6.090962886810303,-1.8884639739990234
1781030603955641900,6.469641845703125,7.476747035980225,-6.110550880432129,-1.673143982887268
1781030603975168800,6.489168701171875,7.508545875549316,-6.136814117431641,-1.4146519899368286
1781030603994697500,6.508697509765625,7.534120082855225,-6.166759967803955,-1.117190957069397
1781030604014227500,6.5282275390625,7.549976825714111,-6.197484016418457,-0.7931190133094788
1781030604033760300,6.54776025390625,7.554378986358643,-6.22645902633667,-0.4500490128993988
1781030604053288700,6.567288818359375,7.545642852783203,-6.252457141876221,-0.10023199766874313
1781030604072810200,6.586810302734375,7.522809982299805,-6.275577068328857,0.25387299060821533
1781030604092333000,6.6063330078125,7.486248016357422,-6.294396877288818,0.6137300133705139
1781030604111856000,6.625856201171875,7.4343719482421875,-6.309943199157715,0.9771010279655457
1781030604131377200,6.645377197265625,7.367217063903809,-6.321722984313965,1.3416130542755127
1781030604150899500,6.6648994140625,7.284962177276611,-6.328868865966797,1.707260012626648
1781030604170426600,6.684426513671875,7.191597938537598,-6.32778787612915,2.068816900253296
1781030604189952000,6.703951904296875,7.08882999420166,-6.317661762237549,2.423969030380249
1781030604209473500,6.7234736328125,6.9850969314575195,-6.296786785125732,2.7566049098968506
1781030604228994600,6.74299462890625,6.8858561515808105,-6.264717102050781,3.062401056289673
1781030604248516400,6.762516357421875,6.796527862548828,-6.223596096038818,3.333775043487549
1781030604268041000,6.782041015625,6.719703197479248,-6.17549991607666,3.570542097091675
1781030604287564800,6.801564697265625,6.654425144195557,-6.12803316116333,3.769062042236328
1781030604307085800,6.8210859375,6.5994181632995605,-6.085601806640625,3.9310479164123535
1781030604326609200,6.840609130859375,6.5994181632995605,-6.085601806640625,3.9310479164123535
1781030604346132700,6.8601328125,6.511108875274658,-6.025650978088379,4.163768768310547
1781030604365654800,6.87965478515625,6.511108875274658,-6.025650978088379,4.163768768310547
1781030604385179100,6.89917919921875,6.4774627685546875,-6.011373996734619,4.236252784729004
1781030604404701700,6.91870166015625,6.4774627685546875,-6.011373996734619,4.236252784729004
1781030604424222200,6.93822216796875,6.43639612197876,-6.013065814971924,4.296026229858398
1781030604443745000,6.9577451171875,6.431774139404297,-6.026555061340332,4.284029960632324
1781030604463269400,6.977269287109375,6.4358930587768555,-6.047310829162598,4.248448848724365
1781030604482795000,6.996794921875,6.446659088134766,-6.0731120109558105,4.1949849128723145
1781030604502321700,7.01632177734375,6.462553977966309,-6.10283899307251,4.126832962036133
1781030604521848600,7.0358486328125,6.484519958496094,-6.134737014770508,4.044254779815674
1781030604541375500,7.05537548828125,6.511455059051514,-6.167081832885742,3.950701951980591
1781030604560899300,7.0748994140625,6.543920993804932,-6.200250148773193,3.8436949253082275
1781030604580423000,7.0944228515625,6.582733154296875,-6.233729839324951,3.7213211059570312
1781030604599946800,7.11394677734375,6.627787113189697,-6.267023086547852,3.582854986190796
1781030604619465500,7.133465576171875,6.677555084228516,-6.300343036651611,3.428692102432251
1781030604638986800,7.15298681640625,6.7274627685546875,-6.33303689956665,3.2670910358428955
1781030604658517000,7.17251708984375,6.775646209716797,-6.365565776824951,3.1000280380249023
1781030604678046700,7.192046630859375,6.821249008178711,-6.397488117218018,2.929625988006592
1781030604697574400,7.211574462890625,6.8648810386657715,-6.42750883102417,2.7569079399108887
1781030604717099000,7.23109912109375,6.909380912780762,-6.452707767486572,2.581279993057251
1781030604736624400,7.250624267578125,6.960885047912598,-6.469482898712158,2.3941290378570557
1781030604756150000,7.27014990234375,7.021982192993164,-6.476994037628174,2.186392068862915
1781030604775676200,7.28967626953125,7.094222068786621,-6.474085807800293,1.9488999843597412
1781030604795210000,7.3092099609375,7.173241138458252,-6.462637901306152,1.6789610385894775
1781030604814742300,7.3287421875,7.256361961364746,-6.44193696975708,1.3735569715499878
1781030604834271000,7.34827099609375,7.337361812591553,-6.41362190246582,1.0337189435958862
1781030604853798400,7.36779833984375,7.407158851623535,-6.3816351890563965,0.6698729991912842
1781030604873324500,7.387324462890625,7.461485862731934,-6.346995830535889,0.28612399101257324
1781030604892852000,7.40685205078125,7.49766206741333,-6.309858798980713,-0.10366299748420715
1781030604912380200,7.426380126953125,7.518445014953613,-6.266777038574219,-0.49040400981903076
1781030604931907800,7.445907958984375,7.523940086364746,-6.220279216766357,-0.8593260049819946
1781030604951435300,7.465435302734375,7.517167091369629,-6.17095422744751,-1.204795002937317
1781030604970960100,7.484960205078125,7.50071907043457,-6.121617794036865,-1.5182249546051025
1781030604990478600,7.504478515625,7.478464126586914,-6.074009895324707,-1.7941479682922363
1781030605009997800,7.523997802734375,7.452942848205566,-6.029839992523193,-2.0333878993988037
1781030605029522400,7.5435224609375,7.42618989944458,-5.990872859954834,-2.236320972442627
1781030605049047000,7.563047119140625,7.40079402923584,-5.9555487632751465,-2.4082510471343994
1781030605068575200,7.5825751953125,7.3797478675842285,-5.9245219230651855,-2.545459032058716
1781030605088098000,7.60209814453125,7.365099906921387,-5.897435188293457,-2.6486880779266357
1781030605107620600,7.62162060546875,7.355710983276367,-5.874875068664551,-2.723849058151245
1781030605127142100,7.64114208984375,7.35389518737793,-5.858644008636475,-2.7634239196777344
1781030605146663200,7.6606630859375,7.35389518737793,-5.858644008636475,-2.7634239196777344
1781030605166188800,7.680188720703125,7.361439228057861,-5.851510047912598,-2.7584478855133057
1781030605185709800,7.699709716796875,7.400537014007568,-5.868178844451904,-2.6146740913391113
1781030605205229300,7.719229248046875,7.429144859313965,-5.890867233276367,-2.4790079593658447
1781030605224747300,7.738747314453125,7.429144859313965,-5.890867233276367,-2.4790079593658447
1781030605244266800,7.758266845703125,7.502009868621826,-5.963900089263916,-2.047373056411743
1781030605263787300,7.777787353515625,7.502009868621826,-5.963900089263916,-2.047373056411743
1781030605283309800,7.797309814453125,7.537539958953857,-6.009092807769775,-1.7653000354766846
1781030605302837500,7.81683740234375,7.56627082824707,-6.058570861816406,-1.4440369606018066
1781030605322363400,7.83636328125,7.582683086395264,-6.112383842468262,-1.087043046951294
1781030605341885400,7.855885498046875,7.579699993133545,-6.171975135803223,-0.7034639716148376
1781030605361412600,7.87541259765625,7.554622173309326,-6.234807014465332,-0.30799299478530884
1781030605380940300,7.894940185546875,7.5058770179748535,-6.3001861572265625,0.09730300307273865
1781030605400462800,7.914462890625,7.437908172607422,-6.360842227935791,0.507157027721405
1781030605419986200,7.933986083984375,7.351885795593262,-6.414722919464111,0.9171029925346375
1781030605439508200,7.95350830078125,7.250935077667236,-6.458628177642822,1.3228989839553833
1781030605459026000,7.97302587890625,7.14132022857666,-6.4872870445251465,1.7194889783859253
1781030605478549200,7.99254931640625,7.0268168449401855,-6.499619007110596,2.1020920276641846
1781030605498080300,8.012080322265625,6.91107177734375,-6.495703220367432,2.466360092163086
1781030605517604900,8.03160498046875,6.7928571701049805,-6.480264186859131,2.811271905899048
1781030605537122800,8.051122802734374,6.6739020347595215,-6.454885959625244,3.1358370780944824
1781030605556645600,8.070645751953125,6.555360794067383,-6.421309947967529,3.440058946609497
1781030605576170500,8.09017041015625,6.438766002655029,-6.381278991699219,3.7231130599975586
1781030605595696400,8.1096962890625,6.326016902923584,-6.3363800048828125,3.9839420318603516
1781030605615221800,8.1292216796875,6.219179153442383,-6.288658142089844,4.220733165740967
1781030605634743800,8.148743896484374,6.119303226470947,-6.240540027618408,4.432805061340332
1781030605654264000,8.16826416015625,6.02741813659668,-6.193894863128662,4.620162010192871
1781030605673790500,8.18779052734375,5.945859909057617,-6.152010917663574,4.779068946838379
1781030605693318000,8.20731787109375,5.877295017242432,-6.11759090423584,4.906371116638184
1781030605712846300,8.226846435546875,5.822256088256836,-6.091102123260498,5.0039777755737305
1781030605732374300,8.246374267578124,5.782336235046387,-6.075387001037598,5.068950176239014
1781030605751899400,8.2658994140625,5.760222911834717,-6.071904182434082,5.0982160568237305
1781030605771433500,8.28543359375,5.755537033081055,-6.079951763153076,5.093914031982422
1781030605790969600,8.304969482421875,5.765318870544434,-6.09734582901001,5.0619611740112305
1781030605810498000,8.324498046875,5.786258220672607,-6.122920036315918,5.006900787353516
1781030605830022700,8.344022705078125,5.820858001708984,-6.160700798034668,4.919692039489746
1781030605849545700,8.363545654296875,5.865975856781006,-6.20822286605835,4.805028915405273
1781030605869071600,8.383071533203125,5.921103000640869,-6.262095928192139,4.665478229522705
1781030605888596500,8.402596435546876,5.989750862121582,-6.322136878967285,4.493712902069092
1781030605908115700,8.42211572265625,6.072748184204102,-6.3852667808532715,4.288366794586182
1781030605927634400,8.441634521484374,6.168010234832764,-6.446245193481445,4.054821014404297
1781030605947155000,8.461155029296876,6.273342132568359,-6.50062894821167,3.7982869148254395
1781030605966681600,8.480681640625,6.273342132568359,-6.50062894821167,3.7982869148254395
1781030605986211600,8.500211669921875,6.390398025512695,-6.545166969299316,3.5161890983581543
1781030606005737200,8.5197373046875,6.645214080810547,-6.597099781036377,2.891263008117676
1781030606025259800,8.539259765625,6.7780680656433105,-6.600491046905518,2.555640935897827
1781030606044783900,8.558783935546876,6.7780680656433105,-6.600491046905518,2.555640935897827
1781030606064310500,8.578310546875,6.7780680656433105,-6.600491046905518,2.555640935897827
1781030606083833900,8.597833740234375,7.054110050201416,-6.5615010261535645,1.796172022819519
1781030606103354600,8.617354736328124,7.185939788818359,-6.51858377456665,1.3821450471878052
1781030606122877200,8.636877197265624,7.306410789489746,-6.460931777954102,0.9553530216217041
1781030606142404000,8.656404052734375,7.412740230560303,-6.388778209686279,0.5241889953613281
1781030606161930200,8.67593017578125,7.50105619430542,-6.305863857269287,0.10114599764347076
1781030606181454300,8.695454345703125,7.568985939025879,-6.217801094055176,-0.299001008272171
1781030606200980000,8.71497998046875,7.616908073425293,-6.130168914794922,-0.6661360263824463
1781030606220503300,8.73450341796875,7.647111892700195,-6.046891212463379,-0.9983900189399719
1781030606240026000,8.754026123046875,7.662402153015137,-5.969482898712158,-1.3011020421981812
1781030606259547400,8.77354736328125,7.666060924530029,-5.898863792419434,-1.5731829404830933
1781030606279064300,8.793064208984376,7.662018775939941,-5.835660934448242,-1.8106689453125
1781030606298585600,8.812585693359376,7.65337610244751,-5.7808427810668945,-2.0118870735168457
1781030606318113000,8.832113037109375,7.643097877502441,-5.73611307144165,-2.1725690364837646
1781030606337634800,8.851634765625,7.634378910064697,-5.702566146850586,-2.2884469032287598
1781030606357154800,8.87115478515625,7.6299262046813965,-5.68333101272583,-2.3503129482269287
1781030606376677000,8.890677001953126,7.63047981262207,-5.681166172027588,-2.3537468910217285
1781030606396205300,8.910205322265625,7.634731769561768,-5.696100234985352,-2.3033249378204346
1781030606415736000,8.929736083984375,7.64263391494751,-5.7286810874938965,-2.1937060356140137
1781030606435263200,8.94926318359375,7.6528000831604,-5.7782487869262695,-2.0215020179748535
1781030606454788900,8.968788818359375,7.662421226501465,-5.842112064361572,-1.7880220413208008
1781030606474312200,8.988312255859375,7.66743803024292,-5.9155449867248535,-1.5022380352020264
1781030606493834000,9.007833984375,7.663949012756348,-5.994384765625,-1.1709970235824585
1781030606513357300,9.027357421875,7.647402763366699,-6.074662208557129,-0.8097580075263977
1781030606532883700,9.0468837890625,7.615340232849121,-6.152804851531982,-0.4354250133037567
1781030606552411000,9.066410888671875,7.567101001739502,-6.227034091949463,-0.05489100143313408
1781030606571936800,9.085936767578126,7.500463008880615,-6.298389911651611,0.3366459906101227
1781030606591461400,9.10546142578125,7.414152145385742,-6.366377830505371,0.7345569729804993
1781030606610983400,9.1249833984375,7.3091139793396,-6.42995023727417,1.1280889511108398
1781030606630507500,9.144507568359375,7.18317985534668,-6.489283084869385,1.5268030166625977
1781030606650036000,9.164035888671876,7.032585144042969,-6.5419487953186035,1.9456729888916016
1781030606669562600,9.183562744140625,6.859631061553955,-6.584747791290283,2.3720309734344482
1781030606689085400,9.20308544921875,6.671544075012207,-6.613321781158447,2.7918529510498047
1781030606708607700,9.222607666015625,6.475037097930908,-6.626247882843018,3.194796085357666
1781030606728130600,9.242130615234375,6.275893211364746,-6.625,3.5724680423736572
1781030606747654100,9.261654052734375,6.081295967102051,-6.612358093261719,3.9159328937530518
1781030606767175400,9.281175537109375,5.8984198570251465,-6.592522144317627,4.217496871948242
1781030606786696000,9.300696044921875,5.8984198570251465,-6.592522144317627,4.217496871948242
1781030606806216400,9.320216552734376,5.590254783630371,-6.542805194854736,4.688362121582031
1781030606825738800,9.33973876953125,5.46676778793335,-6.515367031097412,4.868719100952148
1781030606845262600,9.3592626953125,5.363986015319824,-6.487826824188232,5.017543792724609
1781030606864781000,9.378781005859375,5.363986015319824,-6.487826824188232,5.017543792724609
1781030606884296200,9.398296142578126,5.2189202308654785,-6.44667911529541,5.219501972198486
1781030606903815700,9.417815673828125,5.2189202308654785,-6.44667911529541,5.219501972198486
1781030606923338500,9.43733837890625,5.182773113250732,-6.441408157348633,5.26185417175293
1781030606942858000,9.45685791015625,5.17385196685791,-6.44856595993042,5.261867046356201
1781030606962376700,9.476376708984375,5.1893310546875,-6.471743106842041,5.217986106872559
1781030606981895700,9.495895751953125,5.225965976715088,-6.512057781219482,5.1305341720581055
1781030607001417500,9.51541748046875,5.281583786010742,-6.564002990722656,5.005867004394531
1781030607020941800,9.53494189453125,5.3558831214904785,-6.626829147338867,4.841448783874512
1781030607040461800,9.5544619140625,5.441465854644775,-6.6926140785217285,4.65181303024292
1781030607059982600,9.573982666015626,5.538185119628906,-6.763692855834961,4.429553985595703
1781030607079500500,9.59350048828125,5.6440629959106445,-6.836763858795166,4.176505088806152
1781030607099018200,9.613018310546876,5.758019924163818,-6.907175064086914,3.8956539630889893
1781030607118538200,9.632538330078125,5.880467891693115,-6.97208309173584,3.5847089290618896
1781030607138057200,9.65205712890625,6.008533000946045,-7.0261077880859375,3.251358985900879
1781030607157580800,9.671580810546875,6.140137195587158,-7.066610813140869,2.898569107055664
1781030607177104000,9.691103759765625,6.272910118103027,-7.08978796005249,2.5348570346832275
1781030607196627200,9.710627197265625,6.40778923034668,-7.094339847564697,2.1565160751342773
1781030607216153300,9.7301533203125,6.544216156005859,-7.078364849090576,1.7635129690170288
1781030607235675600,9.749675537109376,6.680483818054199,-7.040960788726807,1.354990005493164
1781030607255200300,9.7692001953125,6.814272880554199,-6.982501029968262,0.9221500158309937
1781030607274728400,9.788728515625,6.939599990844727,-6.903839111328125,0.46793699264526367
1781030607294254800,9.8082548828125,7.049300193786621,-6.807886123657227,0.006821000017225742
1781030607313784800,9.827784912109376,7.138429164886475,-6.699329853057861,-0.44921499490737915
1781030607333316900,9.84731689453125,7.204290866851807,-6.584107875823975,-0.8875340223312378
1781030607352844500,9.866844482421875,7.2479729652404785,-6.466371059417725,-1.3011219501495361
1781030607372371200,9.88637109375,7.272601127624512,-6.349480152130127,-1.6832560300827026
1781030607391900700,9.905900634765626,7.277903079986572,-6.241314888000488,-2.029310941696167
1781030607411426000,9.925426025390625,7.268869876861572,-6.141623020172119,-2.3417909145355225
1781030607430948900,9.944948974609375,7.2497878074646,-6.0538330078125,-2.613745927810669
1781030607450472200,9.96447216796875,7.22357702255249,-5.976672172546387,-2.852947950363159
1781030607469993200,9.9839931640625,7.197360992431641,-5.90981388092041,-3.0515730381011963
1781030607489510000,10.003510009765625,7.174738883972168,-5.856276035308838,-3.2042388916015625
1781030607509026800,10.02302685546875,7.1668291091918945,-5.819250106811523,-3.2882940769195557
1781030607528548400,10.04254833984375,7.171682834625244,-5.802084922790527,-3.3079850673675537
1781030607548068000,10.062068115234375,7.1922078132629395,-5.802835941314697,-3.261784076690674
1781030607567591000,10.0815908203125,7.232357025146484,-5.821078777313232,-3.1381590366363525
1781030607587116000,10.101115966796876,7.285968780517578,-5.856040954589844,-2.9430301189422607
1781030607606635300,10.12063525390625,7.285968780517578,-5.856040954589844,-2.9430301189422607
1781030607626156300,10.14015625,7.407814025878906,-5.961208820343018,-2.372396945953369
1781030607645682200,10.15968212890625,7.466072082519531,-6.018619060516357,-2.0184099674224854
1781030607665211400,10.17921142578125,7.514953136444092,-6.0732598304748535,-1.637374997138977
1781030607684741000,10.1987412109375,7.514953136444092,-6.0732598304748535,-1.637374997138977
1781030607704272600,10.218272705078125,7.514953136444092,-6.0732598304748535,-1.637374997138977
1781030607723804700,10.2378046875,7.565028190612793,-6.169229984283447,-0.8665609955787659
1781030607743332900,10.257332763671876,7.562695026397705,-6.214384078979492,-0.476516991853714
1781030607762859800,10.27685986328125,7.539673805236816,-6.2598161697387695,-0.08942300081253052
1781030607782385200,10.29638525390625,7.4952239990234375,-6.3070220947265625,0.2882539927959442
1781030607801905400,10.315905517578125,7.4277238845825195,-6.357269763946533,0.6738200187683105
1781030607821418800,10.335418701171875,7.3340301513671875,-6.40949821472168,1.0818159580230713
1781030607840935700,10.354935791015626,7.214847087860107,-6.459467887878418,1.503743052482605
1781030607860461600,10.374461669921875,7.073133945465088,-6.50038480758667,1.9379769563674927
1781030607879990000,10.393989990234376,6.91386079788208,-6.52590799331665,2.3771920204162598
1781030607899520300,10.413520263671876,6.744793891906738,-6.5336737632751465,2.803363084793091
1781030607919051500,10.433051513671876,6.573166847229004,-6.524166107177734,3.2044858932495117
1781030607938578400,10.452578369140625,6.405881881713867,-6.499657154083252,3.5719940662384033
1781030607958100000,10.472099853515624,6.2473931312561035,-6.462623119354248,3.9044299125671387
1781030607977619200,10.491619140625,6.101261138916016,-6.416449069976807,4.200450897216797
1781030607997140000,10.511139892578125,5.973896026611328,-6.362442970275879,4.457788944244385
1781030608016665600,10.53066552734375,5.869082927703857,-6.305613040924072,4.67258882522583
1781030608036193000,10.550193115234375,5.789943218231201,-6.2516279220581055,4.8408379554748535
1781030608055721700,10.5697216796875,5.734357833862305,-6.202698230743408,4.96826696395874
1781030608075250700,10.589250732421876,5.702075958251953,-6.164419174194336,5.052351951599121
1781030608094777900,10.60877783203125,5.691387176513672,-6.141514778137207,5.092141151428223
1781030608114304000,10.628303955078126,5.697784900665283,-6.138040065765381,5.089173793792725
1781030608133826800,10.647826904296876,5.716923236846924,-6.1492838859558105,5.054017066955566
1781030608153349400,10.667349365234376,5.7486701011657715,-6.174642086029053,4.986640930175781
1781030608172870700,10.68687060546875,5.794620990753174,-6.216527938842773,4.8802809715271
1781030608192394000,10.70639404296875,5.848161220550537,-6.275051116943359,4.739487171173096
1781030608211918800,10.7259189453125,5.908498764038086,-6.347929000854492,4.564365863800049
1781030608231442400,10.7454423828125,5.973484992980957,-6.4327521324157715,4.3562798500061035
1781030608250966500,10.764966552734375,6.041635990142822,-6.52788782119751,4.114037990570068
1781030608270490400,10.784490478515625,6.111909866333008,-6.625083923339844,3.846143960952759
1781030608290012200,10.80401220703125,6.181243896484375,-6.718239784240723,3.5633509159088135
1781030608309535200,10.82353515625,6.256094932556152,-6.80086088180542,3.263366937637329
1781030608329057500,10.8430576171875,6.337766170501709,-6.869606018066406,2.9463911056518555
1781030608348579800,10.862579833984375,6.425932884216309,-6.921749114990234,2.6147210597991943
1781030608368102000,10.882101806640625,6.519229888916016,-6.95669412612915,2.2680490016937256
1781030608387621600,10.90162158203125,6.613836765289307,-6.977766036987305,1.899454951286316
1781030608407147500,10.9211474609375,6.708484172821045,-6.984107971191406,1.5028150081634521
1781030608426678800,10.9406787109375,6.708484172821045,-6.984107971191406,1.5028150081634521
1781030608446207700,10.960207763671875,6.8748650550842285,-6.954206943511963,0.6443809866905212
1781030608465735200,10.979735107421876,6.935554027557373,-6.9208879470825195,0.1984889954328537
1781030608485263600,10.999263671875,6.935554027557373,-6.9208879470825195,0.1984889954328537
1781030608504788500,11.01878857421875,6.974658966064453,-6.880212783813477,-0.23830699920654297
1781030608543840000,11.057840087890625,6.998898029327393,-6.780979156494141,-1.0362180471420288
1781030608563371500,11.07737158203125,6.990458965301514,-6.72540807723999,-1.393686056137085
1781030608582897200,11.096897216796876,6.97271203994751,-6.6701860427856445,-1.7116940021514893
1781030608602420700,11.116420654296874,6.948653221130371,-6.618110179901123,-1.9891799688339233
1781030608621944000,11.135944091796874,6.924524784088135,-6.5711469650268555,-2.2160720825195312
1781030608641465000,11.155465087890626,6.9018402099609375,-6.534843921661377,-2.3875539302825928
1781030608660984300,11.174984375,6.8828630447387695,-6.513735771179199,-2.4974820613861084
1781030608680504800,11.1945048828125,6.872066974639893,-6.510561943054199,-2.5352070331573486
1781030608700025000,11.214025146484374,6.871708869934082,-6.5248541831970215,-2.4991800785064697
1781030608719547100,11.233547119140624,6.881855010986328,-6.554903030395508,-2.390254020690918
1781030608739070700,11.25307080078125,6.900421142578125,-6.596874237060547,-2.214823007583618
1781030608758592300,11.27259228515625,6.923855781555176,-6.645047187805176,-1.9858440160751343
1781030608778109200,11.292109130859375,6.951196193695068,-6.693775177001953,-1.7071130275726318
1781030608797628000,11.3116279296875,6.9832000732421875,-6.734070777893066,-1.38823401927948
1781030608817152500,11.331152587890625,7.015566825866699,-6.762383937835693,-1.0449819564819336
1781030608836679400,11.350679443359375,7.0459089279174805,-6.777140140533447,-0.6822999715805054
1781030608856206000,11.3702060546875,7.0706939697265625,-6.777870178222656,-0.32520899176597595
1781030608875727000,11.38972705078125,7.0862717628479,-6.769364833831787,0.020997999235987663
1781030608895247400,11.409247314453125,7.090768814086914,-6.755064964294434,0.3606739938259125
1781030608914776000,11.428776123046875,7.077132225036621,-6.743492126464844,0.6924710273742676
1781030608934304300,11.44830419921875,7.043128967285156,-6.736386775970459,1.0273250341415405
1781030608953831200,11.4678310546875,6.988170146942139,-6.73295783996582,1.3684810400009155
1781030608973361400,11.487361328125,6.911574840545654,-6.729741096496582,1.7264729738235474
1781030608992889600,11.5068896484375,6.815739154815674,-6.720705032348633,2.1018590927124023
1781030609012416000,11.526416015625,6.702503204345703,-6.703061103820801,2.4870500564575195
1781030609031944200,11.545944091796875,6.575650215148926,-6.672037124633789,2.8783199787139893
1781030609051469800,11.5654697265625,6.439638137817383,-6.626242160797119,3.265573024749756
1781030609070996500,11.58499658203125,6.299706935882568,-6.56472110748291,3.6411690711975098
1781030609090524700,11.604524658203125,6.165703773498535,-6.490094184875488,3.9878270626068115
1781030609110050600,11.624050537109374,6.043788909912109,-6.410080909729004,4.292256832122803
1781030609129578500,11.64357861328125,5.936970233917236,-6.328269958496094,4.5547099113464355
1781030609149113300,11.66311328125,5.847262859344482,-6.248929977416992,4.774974822998047
1781030609168647400,11.6826474609375,5.779390811920166,-6.177341938018799,4.947634220123291
1781030609188178700,11.7021787109375,5.732412815093994,-6.116209030151367,5.076556205749512
1781030609207705900,11.721705810546876,5.69992208480835,-6.0688581466674805,5.169126033782959
1781030609227232800,11.741232666015625,5.680808067321777,-6.035924911499023,5.228386878967285
1781030609246763300,11.76076318359375,5.680808067321777,-6.035924911499023,5.228386878967285
1781030609266289200,11.7802890625,5.691718101501465,-6.026997089385986,5.226819038391113
1781030609285814800,11.799814697265624,5.691718101501465,-6.026997089385986,5.226819038391113
1781030609305343000,11.819343017578126,5.720841884613037,-6.053065776824951,5.16452693939209
1781030609324869400,11.838869384765625,5.7647480964660645,-6.099445819854736,5.060081958770752
1781030609344397600,11.8583974609375,5.7647480964660645,-6.099445819854736,5.060081958770752
1781030609363926500,11.877926513671875,5.904905796051025,-6.2521820068359375,4.699181079864502
1781030609383453000,11.897452880859374,5.992290019989014,-6.3488311767578125,4.4525041580200195
1781030609402977500,11.9169775390625,6.08650016784668,-6.453456878662109,4.165019989013672
1781030609422502000,11.936501953125,6.182697772979736,-6.5571088790893555,3.84948992729187
1781030609442028000,11.956028076171876,6.2825469970703125,-6.656914234161377,3.500727891921997
1781030609461554200,11.97555419921875,6.380090236663818,-6.742417812347412,3.142332077026367
1781030609481078500,11.99507861328125,6.478250980377197,-6.812063217163086,2.7691259384155273
1781030609500602400,12.014602294921875,6.577392101287842,-6.862924098968506,2.3828909397125244
1781030609520125200,12.034125244140625,6.678156852722168,-6.892261981964111,1.9846750497817993
1781030609539644700,12.053644775390625,6.780271053314209,-6.900156021118164,1.5670850276947021
1781030609559168800,12.073168701171875,6.879144191741943,-6.886291980743408,1.1385769844055176
1781030609578697200,12.092697265625,6.970303058624268,-6.8536200523376465,0.6948109865188599
1781030609598223600,12.1122236328125,7.048886775970459,-6.803616046905518,0.2529670000076294
1781030609617747500,12.13174755859375,7.111627101898193,-6.740231990814209,-0.1844799965620041
1781030609637268500,12.1512685546875,7.155447006225586,-6.668665885925293,-0.607010006904602
1781030609656790000,12.1707900390625,7.179643154144287,-6.593282222747803,-1.0106170177459717
1781030609676308000,12.190307861328124,7.186054229736328,-6.5167388916015625,-1.3902260065078735
1781030609695820000,12.209820068359376,7.178654193878174,-6.441321849822998,-1.7367459535598755
1781030609715340800,12.2293408203125,7.159319877624512,-6.368748188018799,-2.055039882659912
1781030609734865000,12.248864990234376,7.131521224975586,-6.303183078765869,-2.3347980976104736
1781030609754382600,12.268382568359375,7.097209930419922,-6.245670795440674,-2.58092999458313
1781030609773899300,12.287899169921875,7.061463832855225,-6.199195861816406,-2.7831079959869385
1781030609793415000,12.307414794921876,7.03008508682251,-6.165740013122559,-2.9328370094299316
1781030609812935200,12.32693505859375,7.00758695602417,-6.145713806152344,-3.0271968841552734
1781030609832464100,12.346464111328125,6.998085975646973,-6.141378879547119,-3.0578179359436035
1781030609851988500,12.365988525390625,7.005399227142334,-6.15498685836792,-3.013390064239502
1781030609871505000,12.3855048828125,7.0298171043396,-6.184910774230957,-2.8928420543670654
1781030609891021300,12.405021240234374,7.0298171043396,-6.184910774230957,-2.8928420543670654
1781030609910538800,12.424538818359375,7.125192165374756,-6.272613048553467,-2.434329032897949
1781030609930054400,12.444054443359375,7.185297012329102,-6.322696208953857,-2.1059460639953613
1781030609949567500,12.4635673828125,7.245534896850586,-6.369610786437988,-1.723446011543274
1781030609969081600,12.48308154296875,7.2979841232299805,-6.406508922576904,-1.3175920248031616
1781030609988602400,12.502602294921875,7.339489936828613,-6.431518077850342,-0.8985729813575745
1781030610008122400,12.522122314453124,7.364816188812256,-6.446859836578369,-0.48730799555778503
1781030610027636500,12.541636474609374,7.372945785522461,-6.455499172210693,-0.07876399904489517
1781030610047154400,12.561154541015625,7.361832141876221,-6.461022853851318,0.31402701139450073
1781030610066677500,12.580677490234375,7.361832141876221,-6.461022853851318,0.31402701139450073
1781030610086199600,12.600199462890625,7.326111793518066,-6.471181869506836,0.7013409733772278
1781030610105716200,12.61971630859375,7.173508167266846,-6.506838798522949,1.4972729682922363
1781030610125232000,12.639232177734375,7.173508167266846,-6.506838798522949,1.4972729682922363
1781030610144753400,12.65875341796875,6.923687934875488,-6.519796848297119,2.3653290271759033
1781030610174039000,12.6880390625,6.923687934875488,-6.519796848297119,2.3653290271759033
1781030610183800800,12.69780078125,6.769305229187012,-6.504364967346191,2.812424898147583
1781030610203324000,12.717323974609375,6.603516101837158,-6.473395824432373,3.24479603767395
1781030610222847500,12.736847412109375,6.433578014373779,-6.4265851974487305,3.6535000801086426
1781030610242366700,12.75636669921875,6.269921779632568,-6.365701198577881,4.0256571769714355
1781030610261888500,12.775888427734374,6.116416931152344,-6.294992923736572,4.359185218811035
1781030610281417700,12.795417724609376,5.976236820220947,-6.218523979187012,4.653443813323975
1781030610300947000,12.814947021484375,5.854907989501953,-6.146843910217285,4.896564960479736
1781030610320475000,12.834474853515625,5.7563018798828125,-6.0786519050598145,5.094602108001709
1781030610339997700,12.853997802734375,5.685809135437012,-6.020418167114258,5.240814208984375
1781030610359518500,12.8735185546875,5.639026165008545,-5.973462104797363,5.34407377243042
1781030610379037700,12.89303759765625,5.606243133544922,-5.949240207672119,5.405235767364502
1781030610398557200,12.91255712890625,5.585865020751953,-5.949940204620361,5.4255242347717285
1781030610418080000,12.932080078125,5.574538230895996,-5.9726948738098145,5.41215705871582
1781030610437603300,12.951603271484375,5.582773208618164,-6.0161027908325195,5.355291843414307
1781030610457124400,12.971124267578125,5.616644859313965,-6.074817180633545,5.25260591506958
1781030610496173300,13.01017333984375,5.768087863922119,-6.230567932128906,4.893791198730469
1781030610515694000,13.029694091796875,5.888932228088379,-6.320440769195557,4.6273651123046875
1781030610535213600,13.049213623046874,6.0379958152771,-6.413916110992432,4.294680118560791
1781030610554732800,13.06873291015625,6.201900005340576,-6.506394863128662,3.904262065887451
1781030610574252800,13.088252685546875,6.366106033325195,-6.592135906219482,3.4722371101379395
1781030610593773800,13.10777392578125,6.526597023010254,-6.664657115936279,3.004312038421631
1781030610613292800,13.127292724609376,6.6801371574401855,-6.713461875915527,2.5189669132232666
1781030610632809200,13.146809326171875,6.826343059539795,-6.734787940979004,2.0208089351654053
1781030610652326700,13.16632666015625,6.96431303024292,-6.724399089813232,1.5234160423278809
1781030610671848000,13.185847900390625,7.093482971191406,-6.682798862457275,1.0308769941329956
1781030610691369500,13.205369384765625,7.213291168212891,-6.611965179443359,0.5388320088386536
1781030610710887200,13.22488720703125,7.320094108581543,-6.5156779289245605,0.04642200097441673
1781030610730406100,13.24440625,7.404636859893799,-6.404163837432861,-0.44499701261520386
1781030610749928200,13.26392822265625,7.46577787399292,-6.281126976013184,-0.9217320084571838
1781030610769454600,13.28345458984375,7.503016948699951,-6.152952194213867,-1.3732800483703613
1781030610788983000,13.302983154296875,7.519835948944092,-6.0251688957214355,-1.7858879566192627
1781030610808507000,13.3225068359375,7.519552230834961,-5.90346622467041,-2.155323028564453
1781030610828023000,13.34202294921875,7.504800796508789,-5.793013095855713,-2.4817240238189697
1781030610847540200,13.361540283203125,7.478930950164795,-5.6967878341674805,-2.7662599086761475
1781030610867065000,13.381065185546875,7.44509220123291,-5.617692947387695,-3.008676052093506
1781030610886589200,13.400589111328125,7.44509220123291,-5.617692947387695,-3.008676052093506
1781030610906109400,13.420109375,7.3903422355651855,-5.5242838859558105,-3.302290916442871
1781030610925634000,13.439634033203125,7.3903422355651855,-5.5242838859558105,-3.302290916442871
1781030610945160400,13.459160400390624,7.37857723236084,-5.514212131500244,-3.345154047012329
1781030610964684500,13.4786845703125,7.37857723236084,-5.514212131500244,-3.345154047012329
1781030610984209400,13.49820947265625,7.411118030548096,-5.565464019775391,-3.184483051300049
1781030611003737600,13.517737548828125,7.459521770477295,-5.610330104827881,-2.9865870475769043
1781030611023267300,13.537267333984374,7.51685905456543,-5.657944202423096,-2.7430810928344727
1781030611042790100,13.5567900390625,7.575756072998047,-5.7140607833862305,-2.448965072631836
1781030611062311700,13.576311767578124,7.624610900878906,-5.77692985534668,-2.1289379596710205
1781030611081836300,13.595836181640625,7.660122871398926,-5.8437018394470215,-1.792667031288147
1781030611101361000,13.61536083984375,7.676808834075928,-5.91811990737915,-1.443071961402893
1781030611120884500,13.634884521484375,7.674536228179932,-5.9974589347839355,-1.082582950592041
1781030611140408000,13.654407958984375,7.6523308753967285,-6.081564903259277,-0.7045570015907288
1781030611159935700,13.673935791015625,7.6117730140686035,-6.164395809173584,-0.3180220127105713
1781030611179463400,13.69346337890625,7.555449962615967,-6.240908145904541,0.07894600182771683
1781030611198989600,13.712989501953125,7.480778217315674,-6.311809062957764,0.48887899518013
1781030611218515200,13.73251513671875,7.384191989898682,-6.377737998962402,0.9155110120773315
1781030611238043400,13.75204345703125,7.261692047119141,-6.438473224639893,1.361577033996582
1781030611257570800,13.77157080078125,7.112110137939453,-6.4922308921813965,1.819012999534607
1781030611277094000,13.791093994140626,6.939746856689453,-6.531880855560303,2.283513069152832
1781030611296614700,13.81061474609375,6.747941970825195,-6.554606914520264,2.7463440895080566
1781030611316135200,13.83013525390625,6.543711185455322,-6.558216094970703,3.19525408744812
1781030611335655200,13.8496552734375,6.337302207946777,-6.544040203094482,3.613049030303955
1781030611355173000,13.869173095703125,6.138040065765381,-6.515696048736572,3.988755941390991
1781030611374692400,13.8886923828125,5.954452991485596,-6.478028774261475,4.3150458335876465
1781030611394216000,13.9082158203125,5.792178153991699,-6.436701774597168,4.589066982269287
1781030611413744400,13.927744384765624,5.654106140136719,-6.39748477935791,4.810744762420654
1781030611433272000,13.94727197265625,5.543039798736572,-6.364700794219971,4.980490207672119
1781030611452797200,13.966797119140624,5.458265781402588,-6.336905002593994,5.107931137084961
1781030611472321800,13.98632177734375,5.400684833526611,-6.3183112144470215,5.191487789154053
1781030611491843800,14.00584375,5.372386932373047,-6.315042018890381,5.224719047546387
1781030611511370800,14.025370849609375,5.363203048706055,-6.327922821044922,5.218565940856934
1781030611530899500,14.0448994140625,5.370750904083252,-6.359106063842773,5.172698020935059
1781030611550426000,14.064426025390626,5.393159866333008,-6.406537055969238,5.090196132659912
1781030611569948700,14.08394873046875,5.432548999786377,-6.469071865081787,4.967748165130615
1781030611589471700,14.1034716796875,5.485680103302002,-6.543069839477539,4.809940814971924
1781030611608995000,14.1229951171875,5.546253204345703,-6.622807025909424,4.627904891967773
1781030611628521000,14.14252099609375,5.617903232574463,-6.706274032592773,4.416451930999756
1781030611648049700,14.162049560546874,5.704966068267822,-6.7816290855407715,4.183640956878662
1781030611667574000,14.181573974609375,5.807621002197266,-6.847531795501709,3.9271929264068604
1781030611687100700,14.2011005859375,5.9216461181640625,-6.902896881103516,3.650221109390259
1781030611706629600,14.220629638671875,5.9216461181640625,-6.902896881103516,3.650221109390259
1781030611726152700,14.240152587890625,6.178866863250732,-6.9761528968811035,3.032305955886841
1781030611745674200,14.25967431640625,6.178866863250732,-6.9761528968811035,3.032305955886841
1781030611765200100,14.2792001953125,6.3187079429626465,-6.98907995223999,2.6956799030303955
1781030611784725200,14.298725341796874,6.605724811553955,-6.971067905426025,1.9515659809112549
1781030611804245000,14.318244873046876,6.605724811553955,-6.971067905426025,1.9515659809112549
1781030611823766500,14.3377666015625,6.739664077758789,-6.9450578689575195,1.5437289476394653
1781030611843288300,14.357288330078125,6.859262943267822,-6.909801959991455,1.1158649921417236
1781030611862807300,14.376807373046875,6.961085796356201,-6.8650689125061035,0.6738700270652771
1781030611882328600,14.39632861328125,7.043300151824951,-6.810186862945557,0.2308019995689392
1781030611901853200,14.415853271484375,7.107667922973633,-6.743986129760742,-0.1992889940738678
1781030611921379600,14.435379638671876,7.1539201736450195,-6.67073392868042,-0.6022779941558838
1781030611940905500,14.454905517578124,7.183419227600098,-6.595578193664551,-0.9679030179977417
1781030611960429800,14.474429931640625,7.199607849121094,-6.5219597816467285,-1.2921630144119263
1781030611979951000,14.493951171875,7.205442905426025,-6.4517621994018555,-1.5799859762191772
1781030611999473400,14.513473388671875,7.2036309242248535,-6.386277198791504,-1.8338899612426758
1781030612018999300,14.532999267578125,7.1939377784729,-6.330248832702637,-2.053096055984497
1781030612038523000,14.55252294921875,7.180233955383301,-6.286855220794678,-2.227034091949463
1781030612058043100,14.572043212890625,7.1699137687683105,-6.256167888641357,-2.3436501026153564
1781030612077563000,14.59156298828125,7.169242858886719,-6.241858959197998,-2.383513927459717
1781030612097079300,14.611079345703125,7.182165145874023,-6.2441558837890625,-2.338165044784546
1781030612116596000,14.630595947265626,7.206920146942139,-6.261767864227295,-2.2114648818969727
1781030612136117000,14.650116943359375,7.242848873138428,-6.290974140167236,-2.0011909008026123
1781030612155642600,14.669642578125,7.282870769500732,-6.325987815856934,-1.7267550230026245
1781030612175165400,14.68916552734375,7.320507049560547,-6.363025188446045,-1.4007469415664673
1781030612194693000,14.708693115234375,7.350994110107422,-6.396300792694092,-1.0441370010375977
1781030612214221000,14.728220947265624,7.370883941650391,-6.42262601852417,-0.6781759858131409
1781030612233740000,14.747739990234376,7.377334117889404,-6.443692207336426,-0.306210994720459
1781030612253262300,14.767262451171876,7.361913204193115,-6.468357086181641,0.05075100064277649
1781030612272789800,14.786789794921875,7.325460910797119,-6.497492790222168,0.40025800466537476
1781030612292317400,14.8063173828125,7.270420074462891,-6.528457164764404,0.7484880089759827
1781030612311841500,14.825841552734374,7.196011066436768,-6.5608110427856445,1.1014430522918701
1781030612331367000,14.845366943359375,7.099697113037109,-6.594639778137207,1.4645860195159912
1781030612350891500,14.8648916015625,6.980879783630371,-6.627915859222412,1.8379449844360352
1781030612370412000,14.884412109375,6.841007232666016,-6.653700828552246,2.2290990352630615
1781030612389940000,14.90393994140625,6.683051109313965,-6.668760776519775,2.627631902694702
1781030612409463800,14.9234638671875,6.517049789428711,-6.6640119552612305,3.026384115219116
1781030612448505300,14.96250537109375,6.181482791900635,-6.597041130065918,3.7826321125030518
1781030612468027000,14.98202685546875,6.019543170928955,-6.542695999145508,4.122889041900635
1781030612487549700,15.0015498046875,5.863152980804443,-6.482858180999756,4.431248188018799
1781030612507075800,15.021075927734374,5.716814041137695,-6.420969009399414,4.704168796539307
1781030612526600000,15.040599853515625,5.716814041137695,-6.420969009399414,4.704168796539307
1781030612546121000,15.060120849609374,5.4700469970703125,-6.296076774597168,5.145676136016846
1781030612565644300,15.079644287109375,5.371461868286133,-6.235400199890137,5.3204498291015625
1781030612585168000,15.09916796875,5.371461868286133,-6.235400199890137,5.3204498291015625
1781030612604692000,15.11869189453125,5.221436023712158,-6.136387825012207,5.5786519050598145
1781030612624214000,15.138214111328125,5.221436023712158,-6.136387825012207,5.5786519050598145
1781030612643734000,15.157734130859374,5.169473171234131,-6.103032112121582,5.662998199462891
1781030612663254500,15.177254638671876,5.129004955291748,-6.09296178817749,5.710437774658203
1781030612682775000,15.196775146484375,5.109045028686523,-6.10618782043457,5.714201927185059
1781030612702297900,15.2162978515625,5.10908317565918,-6.145987033843994,5.6713409423828125
1781030612721824000,15.235823974609374,5.132181167602539,-6.2051191329956055,5.585444927215576
1781030612741345500,15.255345458984374,5.181187152862549,-6.285326957702637,5.448849201202393
1781030612760865000,15.274864990234375,5.265209197998047,-6.377466201782227,5.257897853851318
1781030612780387300,15.29438720703125,5.377702236175537,-6.473234176635742,5.021707057952881
1781030612799912200,15.313912109375,5.511213779449463,-6.5712480545043945,4.741856098175049
1781030612819438000,15.33343798828125,5.661128044128418,-6.661532878875732,4.428948879241943
1781030612838963700,15.352963623046875,5.826362133026123,-6.741858959197998,4.079317092895508
1781030612858486500,15.372486572265625,6.000072002410889,-6.8042521476745605,3.7069249153137207
1781030612878007300,15.39200732421875,6.17582893371582,-6.849341869354248,3.314460039138794
1781030612897526300,15.4115263671875,6.35112190246582,-6.876649856567383,2.900851011276245
1781030612917046000,15.4310458984375,6.520627021789551,-6.885100841522217,2.473217010498047
1781030612936568800,15.45056884765625,6.681734085083008,-6.877437114715576,2.023677110671997
1781030612956089600,15.470089599609375,6.829261779785156,-6.852799892425537,1.5621479749679565
1781030612975609600,15.489609619140625,6.959543228149414,-6.812889099121094,1.0905439853668213
1781030612995132700,15.509132568359375,7.06847620010376,-6.758941173553467,0.6271770000457764
1781030613014657500,15.528657470703125,7.155162811279297,-6.694001197814941,0.18438099324703217
1781030613034182100,15.54818212890625,7.220584869384766,-6.622042179107666,-0.22739499807357788
1781030613053702100,15.5677021484375,7.267644882202148,-6.546235084533691,-0.6067489981651306
1781030613073227300,15.587227294921876,7.29756498336792,-6.470989227294922,-0.9549019932746887
1781030613092755200,15.606755126953125,7.3145270347595215,-6.396873950958252,-1.2718850374221802
1781030613112278500,15.626278564453125,7.320374965667725,-6.324337959289551,-1.5667999982833862
1781030613131801000,15.645801025390625,7.31525182723999,-6.257070064544678,-1.8374340534210205
1781030613151327200,15.6653271484375,7.301980972290039,-6.196792125701904,-2.0786631107330322
1781030613170856000,15.68485595703125,7.282861232757568,-6.150056838989258,-2.2752439975738525
1781030613190381300,15.70438134765625,7.270442008972168,-6.116715908050537,-2.4013419151306152
1781030613209904000,15.723904052734374,7.2664361000061035,-6.101059913635254,-2.452744960784912
1781030613229426700,15.7434267578125,7.278602123260498,-6.1004228591918945,-2.418013095855713
1781030613248946200,15.7629462890625,7.3082451820373535,-6.11273717880249,-2.294339895248413
1781030613268465400,15.78246533203125,7.3453898429870605,-6.141382217407227,-2.090135097503662
1781030613287990500,15.801990478515625,7.385897159576416,-6.179722785949707,-1.8164620399475098
1781030613307513300,15.821513427734375,7.418336868286133,-6.224219799041748,-1.5057779550552368
1781030613327034000,15.8410341796875,7.440424919128418,-6.269633769989014,-1.1712180376052856
1781030613346561800,15.860561767578124,7.440424919128418,-6.269633769989014,-1.1712180376052856
1781030613366091300,15.88009130859375,7.424527168273926,-6.376206874847412,-0.5102720260620117
1781030613385613000,15.899613037109376,7.424527168273926,-6.376206874847412,-0.5102720260620117
1781030613405131300,15.91913134765625,7.339688777923584,-6.492693901062012,0.1178010031580925
1781030613424655000,15.938655029296875,7.339688777923584,-6.492693901062012,0.1178010031580925
1781030613444178700,15.9581787109375,7.339688777923584,-6.492693901062012,0.1178010031580925
1781030613463702000,15.977701904296875,7.185544967651367,-6.617616176605225,0.784276008605957
1781030613483227000,15.997226806640626,7.079122066497803,-6.676389217376709,1.162693977355957
1781030613502747600,16.01674755859375,6.951969146728516,-6.725275993347168,1.5750490427017212
1781030613522264000,16.03626416015625,6.807139873504639,-6.757274150848389,2.0104949474334717
1781030613541785300,16.055785400390626,6.647373199462891,-6.76666784286499,2.462646007537842
1781030613561309000,16.075308837890624,6.475154876708984,-6.754032135009766,2.914686918258667
1781030613580828200,16.094828125,6.294364929199219,-6.720911026000977,3.3541510105133057
1781030613600351000,16.11435107421875,6.112390041351318,-6.6734418869018555,3.760831117630005
1781030613619875600,16.13387548828125,5.93978214263916,-6.618871212005615,4.116979122161865
1781030613639398400,16.1533984375,5.785172939300537,-6.563049793243408,4.415670871734619
1781030613658919200,16.172919189453125,5.652752876281738,-6.50983190536499,4.659235954284668
1781030613678442000,16.19244189453125,5.54294490814209,-6.4638671875,4.851203918457031
1781030613697967900,16.2119677734375,5.456653118133545,-6.428980827331543,4.99330997467041
1781030613717497300,16.231497314453126,5.39290714263916,-6.4038848876953125,5.093800067901611
1781030613737023000,16.25102294921875,5.350780010223389,-6.389188766479492,5.156297206878662
1781030613756541400,16.27054150390625,5.3281779289245605,-6.3866658210754395,5.182761192321777
1781030613776061400,16.2900615234375,5.32595682144165,-6.39890718460083,5.169929027557373
1781030613795588000,16.309588134765626,5.346744060516357,-6.4273152351379395,5.112921237945557
1781030613815114000,16.329114013671877,5.390207767486572,-6.47132682800293,5.010744094848633
1781030613834639600,16.3486396484375,5.456286907196045,-6.530088901519775,4.860747814178467
1781030613854171600,16.368171630859376,5.544695854187012,-6.596284866333008,4.667480945587158
1781030613873700400,16.387700439453123,5.6538848876953125,-6.667596817016602,4.429078102111816
1781030613893227000,16.40722705078125,5.782650947570801,-6.741485118865967,4.141657829284668
1781030613912755000,16.4267548828125,5.926933765411377,-6.809209823608398,3.8139359951019287
1781030613932280600,16.446280517578124,6.084787845611572,-6.864821910858154,3.448124885559082
1781030613951805200,16.46580517578125,6.2492570877075195,-6.900879859924316,3.0601658821105957
1781030613971326700,16.48532666015625,6.414429187774658,-6.917688846588135,2.6534268856048584
1781030613990851000,16.50485107421875,6.576229095458984,-6.912425994873047,2.2386529445648193
1781030614010376000,16.5243759765625,6.731097221374512,-6.885081768035889,1.824265956878662
1781030614029902000,16.543902099609376,6.878046989440918,-6.838883876800537,1.4007560014724731
1781030614049429200,16.56342919921875,7.015303134918213,-6.773260116577148,0.9738919734954834
1781030614068946400,16.582946533203124,7.142232894897461,-6.689599990844727,0.527006983757019
1781030614088469200,16.60246923828125,7.253902912139893,-6.589107990264893,0.06739400327205658
1781030614107997200,16.6219970703125,7.344967842102051,-6.475583076477051,-0.3978079855442047
1781030614127520300,16.641520263671875,7.4129958152771,-6.353081226348877,-0.8519690036773682
1781030614147041500,16.66104150390625,7.459671974182129,-6.224160194396973,-1.2857389450073242
1781030614166563300,16.680563232421875,7.459671974182129,-6.224160194396973,-1.2857389450073242
1781030614186084000,16.700083984375,7.498933792114258,-5.964446067810059,-2.0570271015167236
1781030614205609000,16.71960888671875,7.498933792114258,-5.964446067810059,-2.0570271015167236
1781030614225139200,16.73913916015625,7.498109817504883,-5.842757225036621,-2.3833858966827393
1781030614244663000,16.7586630859375,7.472434043884277,-5.634883880615234,-2.9070279598236084
1781030614264182800,16.778182861328126,7.472434043884277,-5.634883880615234,-2.9070279598236084
1781030614283700500,16.797700439453124,7.46053409576416,-5.549342155456543,-3.096000909805298
1781030614303217700,16.8172177734375,7.456910133361816,-5.479581832885742,-3.226248025894165
1781030614322743300,16.836743408203127,7.464443206787109,-5.432488918304443,-3.2878799438476562
1781030614342274600,16.856274658203127,7.48390007019043,-5.410048961639404,-3.2806410789489746
1781030614381340400,16.89534033203125,7.560873031616211,-5.441502094268799,-3.0435590744018555
1781030614400869600,16.91486962890625,7.6084160804748535,-5.490489959716797,-2.829580068588257
1781030614420400000,16.934400146484375,7.6561408042907715,-5.554349899291992,-2.563728094100952
1781030614439935500,16.953935546875,7.700447082519531,-5.626881122589111,-2.254173994064331
1781030614459473400,16.973473388671874,7.734041213989258,-5.7041521072387695,-1.920220971107483
1781030614479009300,16.99300927734375,7.755387783050537,-5.7812018394470215,-1.5721440315246582
1781030614498541300,17.012541259765626,7.762602806091309,-5.857793807983398,-1.2117069959640503
1781030614518072300,17.032072265625,7.753069877624512,-5.9343390464782715,-0.8446969985961914
1781030614537604000,17.05160400390625,7.724081039428711,-6.013054847717285,-0.4708870053291321
1781030614557134300,17.07113427734375,7.673977851867676,-6.094371795654297,-0.09329400211572647
1781030614576667000,17.0906669921875,7.604666233062744,-6.174324035644531,0.2945469915866852
1781030614596203800,17.110203857421876,7.515264987945557,-6.252114772796631,0.6869189739227295
1781030614615739100,17.1297392578125,7.406498908996582,-6.325313091278076,1.0835920572280884
1781030614635268900,17.149268798828125,7.279629230499268,-6.39101505279541,1.4838850498199463
1781030614654799400,17.16879931640625,7.136047840118408,-6.448252201080322,1.8806519508361816
1781030614674331100,17.1883310546875,6.977402210235596,-6.495859146118164,2.271488904953003
1781030614693863000,17.20786279296875,6.806571006774902,-6.532674789428711,2.6523079872131348
1781030614713393000,17.227392822265625,6.628931999206543,-6.556675910949707,3.017822027206421
1781030614732920800,17.2469208984375,6.45131778717041,-6.568303108215332,3.358254909515381
1781030614752451800,17.266451904296876,6.2781081199646,-6.568487167358398,3.6715569496154785
1781030614771985200,17.285985107421876,6.115975856781006,-6.559532165527344,3.950615882873535
1781030614791517700,17.305517578125,5.966916084289551,-6.542905807495117,4.198367118835449
1781030614811049500,17.325049560546876,5.83571195602417,-6.519516944885254,4.413656234741211
1781030614830582500,17.34458251953125,5.726078987121582,-6.493002891540527,4.592702865600586
1781030614850115600,17.364115478515625,5.63432502746582,-6.46529483795166,4.742816925048828
1781030614869641500,17.383641357421876,5.564280986785889,-6.444728851318359,4.852241039276123
1781030614889167000,17.4031669921875,5.513876914978027,-6.4351677894592285,4.92196798324585
1781030614908696300,17.4226962890625,5.486201763153076,-6.439892768859863,4.94665002822876
1781030614928222200,17.44222216796875,5.479787826538086,-6.4591240882873535,4.928654193878174
1781030614947747800,17.461747802734376,5.494833946228027,-6.4931511878967285,4.866803169250488
1781030614967279600,17.481279541015624,5.5329909324646,-6.543597221374512,4.754717826843262
1781030614986815700,17.500815673828125,5.5329909324646,-6.543597221374512,4.754717826843262
1781030615006353200,17.520353271484375,5.587824821472168,-6.606685161590576,4.6008620262146
1781030615025891000,17.53989111328125,5.657919883728027,-6.678297996520996,4.407750129699707
1781030615045428700,17.5594287109375,5.847292900085449,-6.82988977432251,3.8989429473876953
1781030615064964400,17.57896435546875,5.847292900085449,-6.82988977432251,3.8989429473876953
1781030615084498200,17.598498291015623,5.847292900085449,-6.82988977432251,3.8989429473876953
1781030615104033000,17.618032958984376,6.083116054534912,-6.960647106170654,3.2534708976745605
1781030615123569000,17.63756884765625,6.211574077606201,-7.003712177276611,2.8990249633789062
1781030615143106600,17.6571064453125,6.345116138458252,-7.0270819664001465,2.529742956161499
1781030615162640600,17.676640625,6.477485179901123,-7.030895233154297,2.156085968017578
1781030615182173400,17.69617333984375,6.609388828277588,-7.015625,1.7711540460586548
1781030615201711900,17.7157119140625,6.733825206756592,-6.983482837677002,1.3880009651184082
1781030615221249000,17.7352490234375,6.8501877784729,-6.936378002166748,1.0007890462875366
1781030615240784600,17.75478466796875,6.9550089836120605,-6.876204013824463,0.6210089921951294
1781030615260320000,17.774320068359376,7.046751976013184,-6.805883884429932,0.2514379918575287
1781030615279855400,17.79385546875,7.124454021453857,-6.728396892547607,-0.10401999950408936
1781030615299388000,17.813387939453126,7.187693119049072,-6.64737606048584,-0.43525901436805725
1781030615318919400,17.83291943359375,7.234220027923584,-6.569270133972168,-0.7421240210533142
1781030615338455300,17.852455322265627,7.2656941413879395,-6.4962029457092285,-1.024219036102295
1781030615357992000,17.871991943359376,7.284326076507568,-6.428890228271484,-1.2837259769439697
1781030615377524000,17.89152392578125,7.292173862457275,-6.368256092071533,-1.519705057144165
1781030615397055200,17.91105517578125,7.292144775390625,-6.315979957580566,-1.7242419719696045
1781030615416590000,17.930590087890625,7.285984992980957,-6.273490905761719,-1.8967649936676025
1781030615436120600,17.95012060546875,7.278295040130615,-6.24231481552124,-2.024827003479004
1781030615455645700,17.969645751953124,7.270608901977539,-6.227402210235596,-2.0970699787139893
1781030615475176700,17.9891767578125,7.264319896697998,-6.231011867523193,-2.1081130504608154
1781030615494715400,18.00871533203125,7.261106967926025,-6.253253936767578,-2.0525929927825928
1781030615514247200,18.0282470703125,7.260515213012695,-6.292000770568848,-1.9327800273895264
1781030615533768200,18.047768310546875,7.261349201202393,-6.343661785125732,-1.7523549795150757
1781030615553285400,18.067285400390624,7.261837005615234,-6.402865886688232,-1.5195529460906982
1781030615572803600,18.086803466796876,7.260708808898926,-6.463816165924072,-1.2414419651031494
1781030615592331500,18.10633154296875,7.255955219268799,-6.520227909088135,-0.9368730187416077
1781030615611865600,18.125865478515625,7.243653774261475,-6.571382999420166,-0.621616005897522
1781030615631400000,18.14539990234375,7.218577861785889,-6.621510982513428,-0.2961759865283966
1781030615650936800,18.164936767578126,7.1810431480407715,-6.668738842010498,0.02323799952864647
1781030615670473000,18.184472900390624,7.127993106842041,-6.716506004333496,0.3467620015144348
1781030615690008600,18.204008544921876,7.060023784637451,-6.764013767242432,0.666450023651123
1781030615709546500,18.22354638671875,6.974184036254883,-6.813286781311035,0.9898790121078491
1781030615729087200,18.243087158203124,6.867358207702637,-6.863913059234619,1.3289400339126587
1781030615748627000,18.262626953125,6.741462230682373,-6.911739826202393,1.679447054862976
1781030615768162000,18.282162109375,6.593853950500488,-6.953334808349609,2.0523669719696045
1781030615787697400,18.301697509765624,6.431795120239258,-6.982832908630371,2.4314699172973633
1781030615807236000,18.321236083984374,6.257451057434082,-6.997988224029541,2.812908887863159
1781030615826775800,18.34077587890625,6.07692813873291,-6.998785972595215,3.182439088821411
1781030615846316800,18.36031689453125,5.8955512046813965,-6.9847259521484375,3.534980058670044
1781030615865853700,18.379853759765624,5.8955512046813965,-6.9847259521484375,3.534980058670044
1781030615885388800,18.399388916015624,5.555604934692383,-6.912517070770264,4.170412063598633
1781030615904925400,18.418925537109374,5.555604934692383,-6.912517070770264,4.170412063598633
1781030615924465200,18.438465087890624,5.291346073150635,-6.790360927581787,4.683231830596924
1781030615944008000,18.458008056640626,5.291346073150635,-6.790360927581787,4.683231830596924
1781030615963549200,18.477549072265624,5.190447807312012,-6.7240471839904785,4.8873748779296875
1781030615983090700,18.497090576171875,5.111324787139893,-6.664834976196289,5.049190998077393
1781030616002631400,18.51663134765625,5.0491509437561035,-6.623782157897949,5.164453029632568
1781030616022170400,18.53617041015625,5.003564834594727,-6.603184223175049,5.2347211837768555
1781030616041709000,18.555708984375,4.975423812866211,-6.609104156494141,5.254036903381348
1781030616061248800,18.575248779296874,4.970380783081055,-6.645030975341797,5.213335990905762
1781030616080787700,18.59478759765625,4.992630958557129,-6.702273845672607,5.11792516708374
1781030616100324900,18.614324951171874,5.042007923126221,-6.7754411697387695,4.971070766448975
1781030616119866000,18.6338662109375,5.123043060302734,-6.858860969543457,4.769742012023926
1781030616139406000,18.653406005859374,5.23281717300415,-6.94659423828125,4.516904830932617
1781030616158935300,18.672935302734373,5.363712787628174,-7.036656856536865,4.2137908935546875
1781030616178460700,18.692460693359376,5.513339042663574,-7.119186878204346,3.8678479194641113
1781030616197983700,18.711983642578126,5.677171230316162,-7.188857078552246,3.482822895050049
1781030616217504500,18.73150439453125,5.852008819580078,-7.238495826721191,3.065643072128296
1781030616237031200,18.75103125,6.035697937011719,-7.261137008666992,2.62416410446167
1781030616256567800,18.77056787109375,6.225403785705566,-7.251158237457275,2.1691160202026367
1781030616276107800,18.790107666015626,6.417447090148926,-7.206200122833252,1.7108609676361084
1781030616295642000,18.80964208984375,6.604526996612549,-7.1304240226745605,1.255892038345337
1781030616324952600,18.83895263671875,6.781692028045654,-7.027975082397461,0.8100730180740356
1781030616354269700,18.868269775390626,7.078383922576904,-6.777496814727783,-0.0447780005633831
1781030616373814000,18.88781396484375,7.191892147064209,-6.641767978668213,-0.451213002204895
1781030616393357800,18.90735791015625,7.280080795288086,-6.506434917449951,-0.8406580090522766
1781030616412900000,18.926900146484375,7.344244003295898,-6.3745012283325195,-1.2115319967269897
1781030616432438000,18.94643798828125,7.3867878913879395,-6.247435092926025,-1.5636229515075684
1781030616451977700,18.965977783203126,7.413284778594971,-6.123089790344238,-1.894987940788269
1781030616471521000,18.98552099609375,7.4253621101379395,-6.005829811096191,-2.1986379623413086
1781030616491064800,19.00506494140625,7.427730083465576,-5.896798133850098,-2.469125986099243
1781030616510607400,19.024607421875,7.422002792358398,-5.803969860076904,-2.69588303565979
1781030616530144800,19.044144775390624,7.4129791259765625,-5.730987071990967,-2.8711509704589844
1781030616549680400,19.063680419921877,7.410791873931885,-5.6812591552734375,-2.973794937133789
1781030616569216000,19.083216064453126,7.4195709228515625,-5.660623073577881,-2.9912030696868896
1781030616588753700,19.102753662109375,7.447603225708008,-5.660419940948486,-2.921103000640869
1781030616608291800,19.122291748046877,7.4935479164123535,-5.676979064941406,-2.7674241065979004
1781030616627823400,19.1418232421875,7.553627967834473,-5.704304218292236,-2.538425922393799
1781030616647355100,19.161355224609373,7.623630046844482,-5.737657070159912,-2.2359650135040283
1781030616666889000,19.180888916015626,7.623630046844482,-5.737657070159912,-2.2359650135040283
1781030616686423800,19.200423828125,7.747659206390381,-5.795152187347412,-1.558838963508606
1781030616705954800,19.219954833984374,7.792457103729248,-5.818182945251465,-1.210929036140442
1781030616725483000,19.23948291015625,7.820262908935547,-5.842381000518799,-0.8660669922828674
1781030616745014000,19.259013916015626,7.820262908935547,-5.842381000518799,-0.8660669922828674
1781030616764545000,19.278544921875,7.820262908935547,-5.842381000518799,-0.8660669922828674
1781030616784074800,19.29807470703125,7.813285827636719,-5.912071228027344,-0.19991999864578247
1781030616803598800,19.317598876953124,7.774374008178711,-5.964719772338867,0.1456640064716339
1781030616823117800,19.337117919921877,7.710422992706299,-6.027459144592285,0.5090129971504211
1781030616842634800,19.356634765625,7.620335102081299,-6.097085952758789,0.8921989798545837
1781030616862160400,19.376160400390624,7.502874851226807,-6.169946193695068,1.2956210374832153
1781030616881692000,19.39569189453125,7.360514163970947,-6.238652229309082,1.7152409553527832
1781030616901223400,19.415223388671876,7.195735931396484,-6.297753810882568,2.1446850299835205
1781030616920754700,19.434754638671876,7.012241840362549,-6.345189094543457,2.5704169273376465
1781030616940286500,19.454286376953124,6.8189802169799805,-6.377320766448975,2.9784719944000244
1781030616959825000,19.473824951171874,6.621859073638916,-6.394512176513672,3.3617238998413086
1781030616979363300,19.49336328125,6.430844783782959,-6.3978190422058105,3.708388090133667
1781030616998900200,19.512900146484377,6.254685878753662,-6.387725830078125,4.0144572257995605
1781030617018440000,19.53243994140625,6.1018171310424805,-6.36794376373291,4.272831916809082
1781030617037978600,19.551978515625,5.975827217102051,-6.341001987457275,4.485662937164307
1781030617057521700,19.571521728515624,5.870560169219971,-6.315564155578613,4.657270908355713
1781030617077065000,19.59106494140625,5.787741184234619,-6.300323963165283,4.779953956604004
1781030617096601900,19.610601806640624,5.724809169769287,-6.301208019256592,4.854001045227051
1781030617116134400,19.630134521484376,5.686168193817139,-6.3221001625061035,4.872220039367676
1781030617135662800,19.649662841796875,5.6765618324279785,-6.36439323425293,4.828160762786865
1781030617155198700,19.66919873046875,5.697750091552734,-6.429606914520264,4.715485095977783
1781030617174738400,19.688738525390626,5.755399227142334,-6.512628078460693,4.527809143066406
1781030617194274000,19.708274169921875,5.843434810638428,-6.6063971519470215,4.271975040435791
1781030617213804800,19.7278046875,5.957611083984375,-6.703354835510254,3.9511890411376953
1781030617233334000,19.747333984375,6.096802234649658,-6.790822982788086,3.571234941482544
1781030617252866000,19.766865966796875,6.251144886016846,-6.861324787139893,3.1441030502319336
1781030617272395300,19.786395263671874,6.41471004486084,-6.901382923126221,2.6948869228363037
1781030617291928300,19.80592822265625,6.581121921539307,-6.908936023712158,2.2350430488586426
1781030617311468500,19.825468505859376,6.749566078186035,-6.881555080413818,1.7684839963912964
1781030617331009800,19.845009765625,6.918766021728516,-6.818850040435791,1.2938170433044434
1781030617350546700,19.864546630859376,7.079288005828857,-6.727087020874023,0.8185200095176697
1781030617370085400,19.88408544921875,7.228730201721191,-6.6081671714782715,0.3429250121116638
1781030617389624800,19.903624755859376,7.361024856567383,-6.468015193939209,-0.14169800281524658
1781030617409164800,19.923164794921874,7.471818923950195,-6.311507225036621,-0.6138299703598022
1781030617428702200,19.9427021484375,7.556465148925781,-6.150379180908203,-1.0548290014266968
1781030617448229400,19.9622294921875,7.613389015197754,-5.998987197875977,-1.4451470375061035
1781030617467752000,19.981751953125,7.645381927490234,-5.865006923675537,-1.7860050201416016
1781030617487273500,20.0012734375,7.658051013946533,-5.7514967918396,-2.077143907546997
1781030617506804700,20.0208046875,7.655741214752197,-5.658045768737793,-2.327256917953491
1781030617526343000,20.040343017578124,7.655741214752197,-5.658045768737793,-2.327256917953491
1781030617545883100,20.059883056640626,7.647414207458496,-5.582866191864014,-2.5275769233703613
1781030617565426000,20.079426025390624,7.633537769317627,-5.4649529457092285,-2.811295986175537
1781030617584969500,20.098969482421875,7.633537769317627,-5.4649529457092285,-2.811295986175537
1781030617604517400,20.118517333984375,7.656231880187988,-5.391576766967773,-2.8901538848876953
1781030617624065500,20.1380654296875,7.656231880187988,-5.391576766967773,-2.8901538848876953
1781030617643608800,20.15760888671875,7.679192066192627,-5.400111198425293,-2.8122599124908447
1781030617663147800,20.177147705078124,7.705228805541992,-5.439116954803467,-2.661850929260254
1781030617682686000,20.19668603515625,7.735054016113281,-5.5021538734436035,-2.436234951019287
1781030617702225200,20.21622509765625,7.765232086181641,-5.579969882965088,-2.14595103263855
1781030617721761300,20.23576123046875,7.788045883178711,-5.664365768432617,-1.816946029663086
1781030617741295900,20.2552958984375,7.797859191894531,-5.751644134521484,-1.4669569730758667
1781030617760829700,20.27482958984375,7.802474021911621,-5.825039863586426,-1.1091909408569336
1781030617780364800,20.29436474609375,7.796539783477783,-5.890834808349609,-0.7429699897766113
1781030617799904000,20.313904052734376,7.778367042541504,-5.949571132659912,-0.3736250102519989
1781030617819443500,20.333443359375,7.744423866271973,-6.005303859710693,0.014972000382840633
1781030617838982100,20.352982177734376,7.684665203094482,-6.066381931304932,0.4300290048122406
1781030617858520300,20.372520263671873,7.595693111419678,-6.129970073699951,0.8768749833106995
1781030617878060500,20.392060546875,7.468437194824219,-6.200497150421143,1.3476899862289429
1781030617897599500,20.411599609375,7.301476001739502,-6.275234222412109,1.8302669525146484
1781030617917137000,20.431136962890626,7.091989040374756,-6.350811958312988,2.3261289596557617
1781030617936679000,20.450678955078125,6.839832782745361,-6.420743942260742,2.833853006362915
1781030617956224300,20.470224365234376,6.560397148132324,-6.468249797821045,3.341097116470337
1781030617975769300,20.489769287109375,6.261910915374756,-6.489688873291016,3.8356759548187256
1781030617995315200,20.509315185546875,5.96397590637207,-6.4837751388549805,4.293210029602051
1781030618014855700,20.528855712890625,5.6831488609313965,-6.457514762878418,4.694922924041748
1781030618034387700,20.5483876953125,5.436161041259766,-6.418909072875977,5.0284929275512695
1781030618053923800,20.567923828125,5.228418827056885,-6.376389026641846,5.295781135559082
1781030618073461800,20.587461669921876,5.051106929779053,-6.33828592300415,5.509305953979492
1781030618092991000,20.606990966796875,4.9029130935668945,-6.30934476852417,5.673940181732178
1781030618112521000,20.62652099609375,4.777449131011963,-6.288434982299805,5.802720069885254
1781030618132046800,20.646046875,4.6786041259765625,-6.280154228210449,5.89154577255249
1781030618151569700,20.665569580078124,4.611825942993164,-6.2876482009887695,5.936037063598633
1781030618171093000,20.685093017578126,4.576871871948242,-6.312808036804199,5.936387062072754
1781030618190613500,20.704613525390624,4.585671901702881,-6.362861156463623,5.875850200653076
1781030618210137300,20.724137451171874,4.639129161834717,-6.439828872680664,5.748659133911133
1781030618229668000,20.743668212890626,4.742020130157471,-6.535364151000977,5.553579807281494
1781030618249206500,20.76320654296875,4.878606796264648,-6.643849849700928,5.300795078277588
1781030618268745700,20.782745849609373,5.038387775421143,-6.7579169273376465,4.9985198974609375
1781030618288283100,20.802283203125,5.218296051025391,-6.870536804199219,4.648128032684326
1781030618307821800,20.82182177734375,5.415454864501953,-6.96695613861084,4.2631402015686035
1781030618327360000,20.841360107421874,5.63082218170166,-7.038053035736084,3.8470330238342285
1781030618346898700,20.860898681640624,5.858470916748047,-7.080450057983398,3.4037539958953857
1781030618366436000,20.88043603515625,6.097509860992432,-7.08688497543335,2.9387810230255127
1781030618385967000,20.899967041015625,6.332747936248779,-7.064598083496094,2.4551498889923096
1781030618405494300,20.919494384765624,6.551342010498047,-7.024170875549316,1.9444600343704224
1781030618425020700,20.939020751953127,6.551342010498047,-7.024170875549316,1.9444600343704224
1781030618444550100,20.958550048828126,6.551342010498047,-7.024170875549316,1.9444600343704224
1781030618464077600,20.97807763671875,6.896994113922119,-6.896500110626221,0.9538099765777588
1781030618483607300,20.997607177734373,7.016298770904541,-6.824076175689697,0.49346399307250977
1781030618503140400,21.017140380859374,7.095761775970459,-6.7590742111206055,0.07108400017023087
1781030618522667300,21.036667236328125,7.140437126159668,-6.705266952514648,-0.30584800243377686
1781030618542190800,21.05619091796875,7.166473865509033,-6.654274940490723,-0.634244978427887
1781030618561713200,21.075713134765625,7.176986217498779,-6.605957984924316,-0.9445539712905884
1781030618581237200,21.0952373046875,7.175461769104004,-6.5634260177612305,-1.214156985282898
1781030618600758800,21.1147587890625,7.163793087005615,-6.533569812774658,-1.425665020942688
1781030618620277200,21.13427734375,7.147645950317383,-6.519028186798096,-1.5663390159606934
1781030618639801600,21.153801513671876,7.132165908813477,-6.519988059997559,-1.6315460205078125
1781030618659326500,21.173326416015627,7.1197991371154785,-6.53760290145874,-1.614995002746582
1781030618678849800,21.192849853515625,7.111845970153809,-6.569602012634277,-1.5172230005264282
1781030618737415000,21.251414794921875,7.077185153961182,-6.727972030639648,-0.8293529748916626
1781030618756932600,21.2709326171875,7.048823833465576,-6.7897539138793945,-0.5033090114593506
1781030618776457500,21.29045751953125,7.0048298835754395,-6.852038860321045,-0.1480579972267151
1781030618795980500,21.30998046875,6.941571235656738,-6.914124011993408,0.2224390059709549
1781030618815501600,21.32950146484375,6.859827041625977,-6.972765922546387,0.6027389764785767
1781030618835026400,21.3490263671875,6.761293888092041,-7.025986194610596,0.9800119996070862
1781030618854550300,21.36855029296875,6.64878511428833,-7.07050895690918,1.3570410013198853
1781030618874071300,21.3880712890625,6.519992828369141,-7.107256889343262,1.7368309497833252
1781030618893588500,21.40758837890625,6.369871139526367,-7.135869979858398,2.1316890716552734
1781030618913102000,21.42710205078125,6.1880669593811035,-7.1585211753845215,2.5501749515533447
1781030618932616400,21.446616455078125,5.970263957977295,-7.1734747886657715,2.989514112472534
1781030618952135700,21.4661357421875,5.711487770080566,-7.180377006530762,3.4439918994903564
1781030618971656700,21.48565673828125,5.417928218841553,-7.174471855163574,3.9003849029541016
1781030618991175400,21.505175537109373,5.110712051391602,-7.1439337730407715,4.345667839050293
1781030619010693000,21.524693115234374,4.810259819030762,-7.081294059753418,4.7703938484191895
1781030619030209500,21.54420947265625,4.530338764190674,-6.998867988586426,5.150909900665283
1781030619049722400,21.563722412109374,4.276331901550293,-6.903584003448486,5.48575496673584
1781030619069238300,21.58323828125,4.055200099945068,-6.803338050842285,5.771477222442627
1781030619088754700,21.602754638671875,3.875253915786743,-6.7035908699035645,6.00701904296875
1781030619108269800,21.622269775390624,3.737304925918579,-6.609789848327637,6.195418834686279
1781030619127787300,21.641787353515625,3.6333529949188232,-6.535665035247803,6.33433723449707
1781030619147304400,21.661304443359374,3.563673973083496,-6.476744174957275,6.433661937713623
1781030619166825500,21.680825439453123,3.532593011856079,-6.442562103271484,6.484920024871826
1781030619186349300,21.700349365234374,3.5421159267425537,-6.4365692138671875,6.485675811767578
1781030619205872400,21.719872314453124,3.5838871002197266,-6.462766170501709,6.436490058898926
1781030619225393000,21.739392822265625,3.5838871002197266,-6.462766170501709,6.436490058898926
1781030619244911600,21.75891162109375,3.5838871002197266,-6.462766170501709,6.436490058898926
1781030619264433000,21.778432861328124,3.7619268894195557,-6.63604211807251,6.152304172515869
1781030619283957200,21.797957275390626,3.9084510803222656,-6.767507076263428,5.91310977935791
1781030619303480000,21.81747998046875,4.102773189544678,-6.908683776855469,5.610466957092285
1781030619323002400,21.83700244140625,4.339254856109619,-7.045001983642578,5.251553058624268
1781030619342524700,21.856524658203124,4.608089923858643,-7.165768146514893,4.843270778656006
1781030619362046500,21.87604638671875,4.896630764007568,-7.253681182861328,4.409887790679932
1781030619381567500,21.8955673828125,5.198756217956543,-7.303685188293457,3.958420991897583
1781030619401084400,21.91508447265625,5.503180980682373,-7.317763805389404,3.4936139583587646
1781030619420597000,21.934596923828124,5.803736209869385,-7.300587177276611,3.0096609592437744
1781030619440108800,21.95410888671875,6.095177173614502,-7.256433010101318,2.496593952178955
1781030619459625200,21.973625244140624,6.3694939613342285,-7.188573837280273,1.9478089809417725
1781030619479146200,21.993146240234374,6.619834899902344,-7.096827030181885,1.3611819744110107
1781030619498665200,22.012665283203123,6.837156772613525,-6.980074882507324,0.7561929821968079
1781030619518184700,22.032184814453124,7.015642166137695,-6.840643882751465,0.16231299936771393
1781030619537701400,22.051701416015625,7.149044036865234,-6.691659927368164,-0.39095398783683777
1781030619557215500,22.071215576171873,7.244131088256836,-6.541746139526367,-0.8764150142669678
1781030619576734500,22.090734375,7.308385848999023,-6.400530815124512,-1.288681983947754
1781030619596253700,22.110253662109375,7.34567403793335,-6.27537202835083,-1.643399953842163
1781030619615773400,22.1297734375,7.366540908813477,-6.15838623046875,-1.9617199897766113
1781030619635297300,22.14929736328125,7.3702521324157715,-6.054230213165283,-2.2507050037384033
1781030619654822000,22.16882177734375,7.363480091094971,-5.965919017791748,-2.4953880310058594
1781030619674340000,22.188340087890627,7.353784084320068,-5.896459102630615,-2.6820900440216064
1781030619693859600,22.207859619140624,7.355349063873291,-5.844648838043213,-2.7890679836273193
1781030619713382700,22.227382568359374,7.37958288192749,-5.806547164916992,-2.8045969009399414
1781030619732903200,22.246903076171876,7.427329063415527,-5.786110877990723,-2.7195050716400146
1781030619752423700,22.266423583984373,7.492548942565918,-5.783863067626953,-2.5394179821014404
1781030619771945500,22.285945556640623,7.5663628578186035,-5.795534133911133,-2.2807729244232178
1781030619791467300,22.30546728515625,7.640519142150879,-5.817265033721924,-1.9549640417099
1781030619810991600,22.32499169921875,7.70648717880249,-5.840315818786621,-1.5939760208129883
1781030619830518800,22.344518798828126,7.759002208709717,-5.865127086639404,-1.199233055114746
1781030619850044400,22.36404443359375,7.792356967926025,-5.889169216156006,-0.7980309724807739
1781030619869570600,22.383570556640624,7.805681228637695,-5.912130832672119,-0.3975749909877777
1781030619889092600,22.403092529296874,7.791635990142822,-5.9439377784729,0.00241499999538064
1781030619908614400,22.422614501953124,7.7510600090026855,-5.9834980964660645,0.3985010087490082
1781030619928137700,22.4421376953125,7.680470943450928,-6.033382892608643,0.8053969740867615
1781030619947661000,22.4616611328125,7.573370933532715,-6.100196838378906,1.213109016418457
1781030619967187700,22.481187744140627,7.425826072692871,-6.183633804321289,1.6308790445327759
1781030619986711600,22.500711669921873,7.242016792297363,-6.272497177124023,2.061300039291382
1781030620006236200,22.520236083984376,7.027927875518799,-6.353452205657959,2.5063669681549072
1781030620025761300,22.53976123046875,6.792450904846191,-6.413400173187256,2.961570978164673
1781030620045291300,22.559291259765626,6.792450904846191,-6.413400173187256,2.961570978164673
1781030620064828700,22.57882861328125,6.313281059265137,-6.429088115692139,3.853476047515869
1781030620084362800,22.59836279296875,6.313281059265137,-6.429088115692139,3.853476047515869
1781030620103888400,22.617888427734375,6.091792106628418,-6.389872074127197,4.254364013671875
1781030620123412200,22.637412109375,5.892887115478516,-6.334168910980225,4.603494167327881
1781030620142938400,22.6569384765625,5.722418785095215,-6.269056797027588,4.898248195648193
1781030620162457600,22.67645751953125,5.574162006378174,-6.208343029022217,5.140542984008789
1781030620181979600,22.695979736328123,5.447521209716797,-6.157251834869385,5.334111213684082
1781030620201502200,22.715502197265625,5.342654228210449,-6.1163530349731445,5.485095024108887
1781030620240538000,22.7545380859375,5.200108051300049,-6.0817108154296875,5.657886028289795
1781030620260058000,22.77405810546875,5.183312892913818,-6.09147310256958,5.662792205810547
1781030620279583200,22.793583251953127,5.2156758308410645,-6.121232032775879,5.60064697265625
1781030620299107300,22.813107421875,5.294284820556641,-6.178479194641113,5.4623188972473145
1781030620318629400,22.83262939453125,5.409294128417969,-6.264880180358887,5.246981143951416
1781030620338142500,22.852142578125,5.560286998748779,-6.37253999710083,4.951156139373779
1781030620357653500,22.871653564453126,5.7356438636779785,-6.491254806518555,4.583230972290039
1781030620377175000,22.891175048828124,5.929416179656982,-6.608372211456299,4.148664951324463
1781030620396699600,22.91069970703125,6.13633394241333,-6.711252212524414,3.6530098915100098
1781030620416219600,22.9302197265625,6.350212097167969,-6.786667823791504,3.1073999404907227
1781030620435742200,22.9497421875,6.570481777191162,-6.82335901260376,2.512073040008545
1781030620455267300,22.969267333984376,6.785041809082031,-6.815213203430176,1.885754942893982
1781030620474790400,22.988790283203127,6.980673789978027,-6.76598596572876,1.2375849485397339
1781030620494312200,23.008312255859376,7.147778034210205,-6.677966117858887,0.5950170159339905
1781030620513835800,23.027835693359375,7.280680179595947,-6.559835910797119,-0.01569399982690811
1781030620533354800,23.047354736328124,7.380170822143555,-6.42214298248291,-0.5737090110778809
1781030620552872400,23.06687255859375,7.452264785766602,-6.274779796600342,-1.0634289979934692
1781030620572395000,23.08639501953125,7.503600120544434,-6.1250457763671875,-1.4898970127105713
1781030620591918300,23.10591845703125,7.540568828582764,-5.9799370765686035,-1.8493729829788208
1781030620611441400,23.12544140625,7.565225124359131,-5.843960762023926,-2.1576530933380127
1781030620630962700,23.144962646484377,7.578755855560303,-5.72003698348999,-2.425618886947632
1781030620650482200,23.164482177734374,7.582664966583252,-5.6095290184021,-2.6601450443267822
1781030620670000600,23.184000732421875,7.579345226287842,-5.51418399810791,-2.861341953277588
1781030620689514500,23.203514404296875,7.573742866516113,-5.438658237457275,-3.0165228843688965
1781030620709023700,23.223023681640626,7.57029390335083,-5.385655879974365,-3.1185479164123535
1781030620728535800,23.242535888671874,7.577838897705078,-5.359080791473389,-3.1458840370178223
1781030620748053500,23.262053466796875,7.603169918060303,-5.354348182678223,-3.0923709869384766
1781030620767576000,23.281576171875,7.645235061645508,-5.367431163787842,-2.9632840156555176
1781030620787098400,23.301098388671875,7.7007880210876465,-5.393324851989746,-2.7658469676971436
1781030620806620000,23.320619873046876,7.763021945953369,-5.425133228302002,-2.5186119079589844
1781030620826146300,23.340146240234375,7.824306011199951,-5.460498809814453,-2.236780881881714
1781030620845672000,23.359671875,7.824306011199951,-5.460498809814453,-2.236780881881714
1781030620865192000,23.37919189453125,7.878836154937744,-5.4933671951293945,-1.945984959602356
1781030620884710400,23.39871044921875,7.951716899871826,-5.565742015838623,-1.3537780046463013
1781030620904233200,23.418233154296875,7.951716899871826,-5.565742015838623,-1.3537780046463013
1781030620923753700,23.437753662109376,7.968222141265869,-5.608019828796387,-1.0476289987564087
1781030620943273200,23.457273193359374,7.968719005584717,-5.659005165100098,-0.7177519798278809
1781030620962791700,23.476791748046875,7.953075885772705,-5.714893817901611,-0.35855698585510254
1781030620982310100,23.49631005859375,7.8525471687316895,-5.842867851257324,0.48826900124549866
1781030621001833500,23.51583349609375,7.8525471687316895,-5.842867851257324,0.48826900124549866
1781030621021352700,23.535352783203123,7.7551960945129395,-5.912124156951904,0.9714459776878357
1781030621040872000,23.554871826171876,7.617824077606201,-5.98017692565918,1.498744010925293
1781030621060395000,23.57439501953125,7.442159175872803,-6.037278175354004,2.0507400035858154
1781030621079916500,23.59391650390625,7.230970859527588,-6.076910018920898,2.612318992614746
1781030621099438600,23.6134384765625,6.995601177215576,-6.096444129943848,3.1519699096679688
1781030621118957800,23.632957763671875,6.751032829284668,-6.097142219543457,3.6453280448913574
1781030621138475300,23.652475341796876,6.514613151550293,-6.086277961730957,4.069032192230225
1781030621157996800,23.671996826171874,6.302318096160889,-6.074159145355225,4.407422065734863
1781030621177523500,23.6915234375,6.120628833770752,-6.06481409072876,4.6686110496521
1781030621197049900,23.7110498046875,5.974291801452637,-6.063188076019287,4.856497764587402
1781030621216572400,23.730572509765626,5.860689163208008,-6.06915807723999,4.985742092132568
1781030621236094700,23.7500947265625,5.776826858520508,-6.083151817321777,5.06591796875
1781030621255617300,23.7696171875,5.720718860626221,-6.1046881675720215,5.103542804718018
1781030621275139300,23.789139404296876,5.690104007720947,-6.132846832275391,5.104006767272949
1781030621294660000,23.80866015625,5.6854329109191895,-6.171387195587158,5.062591075897217
1781030621314183200,23.82818310546875,5.704990863800049,-6.221699237823486,4.978305816650391
1781030621333706200,23.847706298828125,5.750061988830566,-6.288763999938965,4.84027099609375
1781030621353227000,23.86722705078125,5.816680908203125,-6.369504928588867,4.651411056518555
1781030621372748300,23.886748291015625,5.903738975524902,-6.461195945739746,4.408945083618164
1781030621392271000,23.90627099609375,6.007823944091797,-6.557042121887207,4.117188930511475
1781030621411796500,23.92579638671875,6.1246337890625,-6.64871883392334,3.78462290763855
1781030621431321600,23.945321533203124,6.252773761749268,-6.730946063995361,3.41133189201355
1781030621450846500,23.964846435546875,6.388191223144531,-6.790914058685303,3.0190210342407227
1781030621470374000,23.984373779296874,6.529230117797852,-6.826629161834717,2.6088860034942627
1781030621489900300,24.003900390625,6.671811103820801,-6.836728096008301,2.187709093093872
1781030621509430500,24.023430419921876,6.812410831451416,-6.822635173797607,1.755761981010437
1781030621528959200,24.042959228515624,6.9477620124816895,-6.787047863006592,1.3055909872055054
1781030621548485000,24.062485107421875,7.071831226348877,-6.7319841384887695,0.8423680067062378
1781030621568013600,24.082013671875,7.1774492263793945,-6.66305685043335,0.35760799050331116
1781030621587542000,24.1015419921875,7.259867191314697,-6.581477165222168,-0.13594399392604828
1781030621607068700,24.121068603515624,7.317765235900879,-6.488458156585693,-0.624675989151001
1781030621626595300,24.14059521484375,7.3533477783203125,-6.385307788848877,-1.0936659574508667
1781030621646126000,24.1601259765625,7.370972156524658,-6.274930000305176,-1.527748942375183
1781030621665656000,24.179656005859375,7.37679386138916,-6.1613287925720215,-1.9133559465408325
1781030621685181400,24.199181396484374,7.37679386138916,-6.1613287925720215,-1.9133559465408325
1781030621704702700,24.21870263671875,7.371624946594238,-5.942352771759033,-2.5273640155792236
1781030621724222500,24.238222412109376,7.371624946594238,-5.942352771759033,-2.5273640155792236
1781030621743744500,24.25774462890625,7.371624946594238,-5.942352771759033,-2.5273640155792236
1781030621763263700,24.277263671875,7.369431972503662,-5.7769341468811035,-2.891105890274048
1781030621782783000,24.296782958984377,7.3760151863098145,-5.7272257804870605,-2.972080945968628
1781030621802303700,24.3163037109375,7.387707233428955,-5.703378200531006,-2.9888529777526855
1781030621821823700,24.33582373046875,7.408175945281982,-5.705545902252197,-2.9335389137268066
1781030621841343700,24.35534375,7.4379777908325195,-5.732936859130859,-2.8017659187316895
1781030621860864500,24.374864501953127,7.472925186157227,-5.7738518714904785,-2.618778944015503
1781030621880384500,24.394384521484376,7.509439945220947,-5.825761795043945,-2.389309883117676
1781030621899903200,24.4139033203125,7.54531717300415,-5.881388187408447,-2.125430107116699
1781030621919417900,24.43341796875,7.578546047210693,-5.935743808746338,-1.8364579677581787
1781030621938932000,24.452931884765626,7.606639862060547,-5.984214782714844,-1.5388950109481812
1781030621958452200,24.4724521484375,7.629026889801025,-6.025102138519287,-1.2393900156021118
1781030621977977600,24.4919775390625,7.6448187828063965,-6.059054851531982,-0.9405279755592346
1781030621997501200,24.511501220703124,7.652696132659912,-6.08760404586792,-0.645999014377594
1781030622017024000,24.53102392578125,7.6503682136535645,-6.114467144012451,-0.35376301407814026
1781030622036549600,24.550549560546877,7.634980201721191,-6.143665790557861,-0.04935399815440178
1781030622056074000,24.570073974609375,7.59842586517334,-6.182918071746826,0.2746810019016266
1781030622075600400,24.589600341796874,7.537508964538574,-6.231812953948975,0.6248599886894226
1781030622095131000,24.609130859375,7.450488090515137,-6.286646842956543,1.0041429996490479
1781030622114662700,24.62866259765625,7.335921764373779,-6.342263221740723,1.4141939878463745
1781030622134194400,24.6481943359375,7.194681167602539,-6.391754150390625,1.8498719930648804
1781030622153724200,24.66772412109375,7.031740188598633,-6.428562164306641,2.295258045196533
1781030622173249300,24.687249267578125,6.856435775756836,-6.444056987762451,2.739232063293457
1781030622192775000,24.70677490234375,6.675487995147705,-6.43890380859375,3.1651809215545654
1781030622231830800,24.745830810546874,6.3237080574035645,-6.383098125457764,3.912385940551758
1781030622251361000,24.765361083984374,6.166417121887207,-6.347588062286377,4.209918975830078
1781030622270893600,24.7848935546875,6.027286052703857,-6.317173957824707,4.4502949714660645
1781030622290422300,24.80442236328125,5.909307956695557,-6.296431064605713,4.634115219116211
1781030622309948400,24.823948486328124,5.811781883239746,-6.288783073425293,4.765961170196533
1781030622329472800,24.84347265625,5.744170188903809,-6.297997951507568,4.835258960723877
1781030622348995000,24.8629951171875,5.703196048736572,-6.322212219238281,4.8521318435668945
1781030622368516600,24.8825166015625,5.686716079711914,-6.358283996582031,4.824258804321289
1781030622388040400,24.90204052734375,5.693144798278809,-6.402803897857666,4.757329940795898
1781030622407562800,24.921562744140626,5.724277019500732,-6.457348823547363,4.644920825958252
1781030622427082000,24.94108203125,5.787370204925537,-6.517228126525879,4.480187892913818
1781030622446606000,24.960606201171874,5.787370204925537,-6.517228126525879,4.480187892913818
1781030622466131500,24.98013134765625,5.881168842315674,-6.579034805297852,4.2624101638793945
1781030622485657000,24.999656982421875,6.005389213562012,-6.640143871307373,3.985445022583008
1781030622505182700,25.0191826171875,6.155354976654053,-6.6958699226379395,3.6492369174957275
1781030622524709600,25.038709716796873,6.155354976654053,-6.6958699226379395,3.6492369174957275
1781030622544235300,25.0582353515625,6.515964984893799,-6.756340980529785,2.816741943359375
1781030622563756300,25.07775634765625,6.515964984893799,-6.756340980529785,2.816741943359375
1781030622583277800,25.09727783203125,6.874489784240723,-6.724987983703613,1.8857189416885376
1781030622602803200,25.11680322265625,7.026795864105225,-6.6800642013549805,1.4285880327224731
1781030622622326500,25.136326416015624,7.158745765686035,-6.6200270652771,0.9836649894714355
1781030622641846500,25.155846435546874,7.267360210418701,-6.551123142242432,0.5551999807357788
1781030622661366500,25.175366455078127,7.3549418449401855,-6.474899768829346,0.1431560069322586
1781030622680886000,25.194885986328124,7.423262119293213,-6.3935418128967285,-0.24040700495243073
1781030622700406000,25.214406005859374,7.47496223449707,-6.309587001800537,-0.5950080156326294
1781030622719931600,25.233931640625,7.515716075897217,-6.221495151519775,-0.9203270077705383
1781030622739456500,25.25345654296875,7.54779577255249,-6.132466793060303,-1.209797978401184
1781030622758979800,25.272979736328125,7.571536064147949,-6.045695781707764,-1.4701709747314453
1781030622778505000,25.2925048828125,7.587221145629883,-5.964962005615234,-1.7009689807891846
1781030622798024700,25.312024658203125,7.5950398445129395,-5.893887996673584,-1.9019579887390137
1781030622817546200,25.331546142578127,7.596162796020508,-5.835862159729004,-2.0690619945526123
1781030622837070800,25.35107080078125,7.594642162322998,-5.793976783752441,-2.188889980316162
1781030622856591000,25.370591064453127,7.595404148101807,-5.771237850189209,-2.2455830574035645
1781030622876116700,25.39011669921875,7.600741863250732,-5.7688798904418945,-2.233549118041992
1781030622895649800,25.40964990234375,7.610098838806152,-5.786415100097656,-2.1549429893493652
1781030622915179800,25.4291796875,7.622760772705078,-5.823599815368652,-2.0047929286956787
1781030622934707200,25.448707275390625,7.634514808654785,-5.877657890319824,-1.790897011756897
1781030622954232000,25.468232177734375,7.640254974365234,-5.944950103759766,-1.5244920253753662
1781030622973756000,25.487755859375,7.6361308097839355,-6.0167717933654785,-1.2361079454421997
1781030622993281800,25.50728173828125,7.6202850341796875,-6.089714050292969,-0.9416189789772034
1781030623012806400,25.526806396484375,7.593568801879883,-6.161565780639648,-0.6425060033798218
1781030623032328200,25.546328125,7.553195953369141,-6.234579086303711,-0.3453109860420227
1781030623051849200,25.56584912109375,7.497464179992676,-6.310863018035889,-0.032248999923467636
1781030623071373800,25.585373779296877,7.426473140716553,-6.387454986572266,0.2965019941329956
1781030623090902000,25.604902099609376,7.336237907409668,-6.464929103851318,0.6513749957084656
1781030623110428700,25.6244287109375,7.2196149826049805,-6.543641090393066,1.0478160381317139
1781030623129955600,25.64395556640625,7.073578834533691,-6.6190290451049805,1.4808540344238281
