time,seconds_elapsed,z,y,x
1781034504151938000,0.03393798828125,2.0085530281066895,9.372184753417969,2.041533946990967
1781034504585815800,0.46781591796875,2.2955729961395264,9.350408554077148,1.8276230096817017
1781034504595574000,0.477573974609375,2.4638900756835938,9.319755554199219,1.7639139890670776
1781034504615087600,0.497087646484375,2.9016480445861816,9.21377944946289,1.6512739658355713
1781034504634595300,0.51659521484375,2.9016480445861816,9.21377944946289,1.6512739658355713
1781034504654106400,0.5361064453125,3.1346399784088135,9.144886016845703,1.6078239679336548
1781034504673623300,0.555623291015625,3.363032102584839,9.068907737731934,1.5763649940490723
1781034504693142500,0.575142578125,3.5852110385894775,8.98707103729248,1.555251955986023
1781034504712661500,0.59466162109375,3.799631118774414,8.901984214782715,1.5354119539260864
1781034504732177200,0.61417724609375,4.005678176879883,8.814760208129883,1.5147769451141357
1781034504751693000,0.633693115234375,4.204827785491943,8.72523021697998,1.4932379722595215
1781034504771207200,0.653207275390625,4.398436069488525,8.633013725280762,1.4713410139083862
1781034504790719500,0.672719482421875,4.592665195465088,8.534714698791504,1.4512319564819336
1781034504810232600,0.692232666015625,4.79064416885376,8.4281587600708,1.4338339567184448
1781034504829749200,0.711749267578125,5.001364231109619,8.307172775268555,1.4202879667282104
1781034504849268000,0.73126806640625,5.226272106170654,8.168946266174316,1.412227988243103
1781034504868783400,0.750783447265625,5.465470790863037,8.011112213134766,1.410925030708313
1781034504888300800,0.77030078125,5.716280937194824,7.832985877990723,1.4172040224075317
1781034504907819500,0.789819580078125,5.969638824462891,7.639153957366943,1.4306440353393555
1781034504927339000,0.809339111328125,6.214381217956543,7.437018871307373,1.4533439874649048
1781034504946857000,0.82885693359375,6.441676139831543,7.2342939376831055,1.486536979675293
1781034504966370600,0.84837060546875,6.650084972381592,7.033853054046631,1.530122995376587
1781034504985884700,0.867884765625,6.840755939483643,6.836268901824951,1.5841310024261475
1781034505005403000,0.88740283203125,7.018311977386475,6.638394832611084,1.6477270126342773
1781034505024923000,0.9069228515625,7.188179016113281,6.435221195220947,1.7198840379714966
1781034505044436700,0.926436767578125,7.357387065887451,6.218523979187012,1.7996690273284912
1781034505063948500,0.945948486328125,7.5255022048950195,5.986575126647949,1.8888440132141113
1781034505083462100,0.965462158203125,7.689249038696289,5.738828182220459,1.995318055152893
1781034505102978800,0.984978759765625,7.845461845397949,5.476858139038086,2.1196069717407227
1781034505122493400,1.004493408203125,7.9708452224731445,5.22678279876709,2.2773590087890625
1781034505142010400,1.02401025390625,8.06340503692627,4.9924187660217285,2.469261884689331
1781034505161532000,1.043531982421875,8.122421264648438,4.776280879974365,2.6932170391082764
1781034505181051000,1.06305078125,8.150099754333496,4.580824851989746,2.9380099773406982
1781034505200569900,1.08256982421875,8.148935317993164,4.4079270362854,3.1945319175720215
1781034505220085500,1.10208544921875,8.11971664428711,4.2581868171691895,3.460927963256836
1781034505239601700,1.1216015625,8.11971664428711,4.2581868171691895,3.460927963256836
1781034505259121000,1.141120849609375,8.03751277923584,3.9639201164245605,3.9655659198760986
1781034505278640400,1.160640380859375,8.03751277923584,3.9639201164245605,3.9655659198760986
1781034505298163200,1.1801630859375,7.988926887512207,3.8155879974365234,4.202180862426758
1781034505317688000,1.19968798828125,7.934045791625977,3.662856101989746,4.435582160949707
1781034505337214000,1.2192138671875,7.871349811553955,3.505573034286499,4.668274879455566
1781034505356735700,1.23873583984375,7.871349811553955,3.505573034286499,4.668274879455566
1781034505376255700,1.258255859375,7.677849769592285,3.2042839527130127,5.179110050201416
1781034505395775200,1.277775146484375,7.538678169250488,3.074979066848755,5.454615116119385
1781034505415296300,1.297296142578125,7.146568775177002,2.88692307472229,6.052455902099609
1781034505434819600,1.316819580078125,7.146568775177002,2.88692307472229,6.052455902099609
1781034505454340900,1.3363408203125,6.887185096740723,2.828685998916626,6.372221946716309
1781034505473861000,1.355861083984375,6.6034321784973145,2.7831180095672607,6.684978008270264
1781034505493380000,1.375380126953125,6.298326015472412,2.7440989017486572,6.98863410949707
1781034505512900600,1.394900634765625,5.979829788208008,2.695678949356079,7.2811360359191895
1781034505532422000,1.414421875,5.659917831420898,2.630826950073242,7.5553998947143555
1781034505551942100,1.433942138671875,5.348852157592773,2.543487071990967,7.8077168464660645
1781034505571462000,1.4534619140625,5.049191951751709,2.4352540969848633,8.03835678100586
1781034505590979800,1.472979736328125,4.761922836303711,2.3094899654388428,8.24804973602295
1781034505610497800,1.492497802734375,4.486546039581299,2.1724181175231934,8.437505722045898
1781034505630017000,1.51201708984375,4.222582817077637,2.0332350730895996,8.60672664642334
1781034505649538600,1.53153857421875,3.9638469219207764,1.9024850130081177,8.758337020874023
1781034505669063400,1.5510634765625,3.7145938873291016,1.7888790369033813,8.89054012298584
1781034505688588300,1.57058837890625,3.4808530807495117,1.7004790306091309,9.001779556274414
1781034505708109800,1.59010986328125,3.2629919052124023,1.640118956565857,9.09411334991455
1781034505727633000,1.6096328125,3.060230016708374,1.606389045715332,9.170305252075195
1781034505747156700,1.62915673828125,2.869870901107788,1.594254970550537,9.233753204345703
1781034505766684200,1.64868408203125,2.6887240409851074,1.5953129529953003,9.287935256958008
1781034505786207000,1.66820703125,2.513962984085083,1.5997710227966309,9.335990905761719
1781034505805719600,1.687719482421875,2.3550119400024414,1.5971280336380005,9.377798080444336
1781034505825231400,1.7072314453125,2.2157070636749268,1.5823040008544922,9.414189338684082
1781034505844746800,1.726746826171875,2.0985960960388184,1.5539120435714722,9.445700645446777
1781034505864264200,1.74626416015625,2.0051400661468506,1.5128329992294312,9.472631454467773
1781034505883784000,1.765783935546875,1.922948956489563,1.4618170261383057,9.497650146484375
1781034505903304700,1.7853046875,1.8480620384216309,1.4025529623031616,9.52142333984375
1781034505922824200,1.80482421875,1.7668620347976685,1.3357130289077759,9.546416282653809
1781034505942346800,1.8243466796875,1.6981910467147827,1.2597030401229858,9.569184303283691
1781034505961870300,1.843870361328125,1.6403859853744507,1.174772024154663,9.590049743652344
1781034505981391600,1.8633916015625,1.5944639444351196,1.0795810222625732,9.608963966369629
1781034506000915200,1.882915283203125,1.5944639444351196,1.0795810222625732,9.608963966369629
1781034506020435700,1.902435791015625,1.5721789598464966,0.9745299816131592,9.623852729797363
1781034506039957800,1.921957763671875,1.5739070177078247,0.8612319827079773,9.634370803833008
1781034506059483600,1.941483642578125,1.5936919450759888,0.7465029954910278,9.6406888961792
1781034506079008500,1.961008544921875,1.6114410161972046,0.5376200079917908,9.651642799377441
1781034506098536000,1.980535888671875,1.6114410161972046,0.5376200079917908,9.651642799377441
1781034506118063400,2.0000634765625,1.6114410161972046,0.5376200079917908,9.651642799377441
1781034506137587200,2.019587158203125,1.6130720376968384,0.3763279914855957,9.659005165100098
1781034506157110000,2.039110107421875,1.6170309782028198,0.31947800517082214,9.660390853881836
1781034506176631600,2.058631591796875,1.630573034286499,0.27782899141311646,9.659401893615723
1781034506196153900,2.07815380859375,1.6555110216140747,0.25105100870132446,9.655892372131348
1781034506215679200,2.09767919921875,1.6915429830551147,0.23747199773788452,9.649989128112793
1781034506235205600,2.11720556640625,1.7267309427261353,0.2344440072774887,9.643828392028809
1781034506254733600,2.136733642578125,1.7581579685211182,0.23525699973106384,9.638129234313965
1781034506274257400,2.15625732421875,1.782562017440796,0.2323320060968399,9.633716583251953
1781034506293776400,2.1757763671875,1.799862027168274,0.2167849987745285,9.63086223602295
1781034506313295400,2.19529541015625,1.81467604637146,0.1795700043439865,9.6288480758667
1781034506332815000,2.214815185546875,1.8337769508361816,0.11443500220775604,9.626222610473633
1781034506352334800,2.2343349609375,1.8656469583511353,0.019360000267624855,9.620758056640625
1781034506371856400,2.2538564453125,1.916363000869751,-0.10198300331830978,9.610262870788574
1781034506391378000,2.2733779296875,1.9879870414733887,-0.24052299559116364,9.593229293823242
1781034506410898700,2.292898681640625,2.065176010131836,-0.38380399346351624,9.572237968444824
1781034506430419500,2.31241943359375,2.1380279064178467,-0.5135290026664734,9.550138473510742
1781034506449939000,2.33193896484375,2.1976161003112793,-0.6233559846878052,9.53005313873291
1781034506469454600,2.35145458984375,2.236387014389038,-0.7086269855499268,9.515063285827637
1781034506488971500,2.370971435546875,2.2615880966186523,-0.7690029740333557,9.504412651062012
1781034506508493800,2.390493896484375,2.2760050296783447,-0.8078789710998535,9.497743606567383
1781034506528020000,2.41002001953125,2.2964580059051514,-0.8300619721412659,9.490904808044434
1781034506547542000,2.4295419921875,2.329063892364502,-0.8478710055351257,9.481380462646484
1781034506567062500,2.4490625,2.377326011657715,-0.8641690015792847,9.467921257019043
1781034506586587100,2.468587158203125,2.442962884902954,-0.8823649883270264,9.449516296386719
1781034506606112800,2.48811279296875,2.516982078552246,-0.9059879779815674,9.427830696105957
1781034506625638700,2.507638671875,2.5982139110565186,-0.9375630021095276,9.40267276763916
1781034506645161700,2.52716162109375,2.6853508949279785,-0.9785680174827576,9.373969078063965
1781034506664683800,2.546683837890625,2.7762949466705322,-1.0269650220870972,9.342244148254395
1781034506684212000,2.5662119140625,2.870400905609131,-1.0791189670562744,9.307862281799316
1781034506703741200,2.5857412109375,2.959404945373535,-1.129431962966919,9.273958206176758
1781034506723266600,2.6052666015625,3.0405619144439697,-1.1733169555664062,9.242201805114746
1781034506742790700,2.624790771484375,3.1099228858947754,-1.2083179950714111,9.21457290649414
1781034506762312000,2.64431201171875,3.1658871173858643,-1.2340810298919678,9.192072868347168
1781034506781834500,2.66383447265625,3.2091848850250244,-1.2536449432373047,9.174393653869629
1781034506801359600,2.683359619140625,3.2405149936676025,-1.2711219787597656,9.160965919494629
1781034506820882200,2.702882080078125,3.2405149936676025,-1.2711219787597656,9.160965919494629
1781034506840404000,2.722404052734375,3.2939510345458984,-1.3093630075454712,9.136489868164062
1781034506859928000,2.741927978515625,3.31783390045166,-1.3266849517822266,9.12534236907959
1781034506879451100,2.761451171875,3.31783390045166,-1.3266849517822266,9.12534236907959
1781034506898972700,2.78097265625,3.3479700088500977,-1.3360940217971802,9.112955093383789
1781034506918495700,2.800495849609375,3.3479700088500977,-1.3360940217971802,9.112955093383789
1781034506938016800,2.820016845703125,3.3468658924102783,-1.319100022315979,9.115836143493652
1781034506957534500,2.839534423828125,3.3468658924102783,-1.319100022315979,9.115836143493652
1781034506977056300,2.85905615234375,3.292294979095459,-1.2248070240020752,9.148805618286133
1781034506996580600,2.87858056640625,3.2345800399780273,-1.150473952293396,9.17899227142334
1781034507016105200,2.898105224609375,3.1587541103363037,-1.0666279792785645,9.215453147888184
1781034507035632400,2.91763232421875,3.069295883178711,-0.9867429733276367,9.254499435424805
1781034507055158000,2.937157958984375,2.976741075515747,-0.9173280000686646,9.291797637939453
1781034507074675000,2.956675048828125,2.8899130821228027,-0.8669490218162537,9.323990821838379
1781034507094190000,2.976190185546875,2.8136680126190186,-0.840578019618988,9.349688529968262
1781034507113712000,2.995712158203125,2.7510170936584473,-0.8393740057945251,9.368423461914062
1781034507133237800,3.01523779296875,2.7020928859710693,-0.8601009845733643,9.380773544311523
1781034507152760800,3.0347607421875,2.6645309925079346,-0.8898320198059082,9.388740539550781
1781034507172284700,3.05428466796875,2.6344029903411865,-0.9223350286483765,9.394104957580566
1781034507191809300,3.073809326171875,2.6078219413757324,-0.9496970176696777,9.398794174194336
1781034507211337000,3.0933369140625,2.58139705657959,-0.9646790027618408,9.404561996459961
1781034507230863000,3.112863037109375,2.552294969558716,-0.9632980227470398,9.412643432617188
1781034507250387200,3.13238720703125,2.5193989276885986,-0.9459490180015564,9.423258781433105
1781034507269908700,3.15190869140625,2.4831459522247314,-0.9180629849433899,9.43563175201416
1781034507289427200,3.17142724609375,2.4454429149627686,-0.8880500197410583,9.448342323303223
1781034507308948500,3.190948486328125,2.4098949432373047,-0.8646569848060608,9.459639549255371
1781034507328475000,3.210474853515625,2.3813650608062744,-0.8550779819488525,9.467731475830078
1781034507348001000,3.2300009765625,2.363554000854492,-0.8620610237121582,9.471559524536133
1781034507367524600,3.249524658203125,2.356890916824341,-0.8840929865837097,9.471190452575684
1781034507387047200,3.269047119140625,2.3588449954986572,-0.9169059991836548,9.467582702636719
1781034507406570800,3.28857080078125,2.3651978969573975,-0.9539399743080139,9.4623384475708
1781034507426095400,3.308095458984375,2.371572971343994,-0.989503026008606,9.457088470458984
1781034507445616400,3.327616455078125,2.374082088470459,-1.0215790271759033,9.453047752380371
1781034507465138400,3.347138427734375,2.3716630935668945,-1.051061987876892,9.450422286987305
1781034507484661800,3.366661865234375,2.3681089878082275,-1.0814570188522339,9.447883605957031
1781034507504180000,3.386179931640625,2.365963935852051,-1.1140270233154297,9.444636344909668
1781034507523695600,3.405695556640625,2.373080015182495,-1.15038001537323,9.438491821289062
1781034507543213800,3.4252138671875,2.394392967224121,-1.1916229724884033,9.427986145019531
1781034507562730800,3.444730712890625,2.429456949234009,-1.2364660501480103,9.413228988647461
1781034507582248000,3.464248046875,2.4761290550231934,-1.2856090068817139,9.394465446472168
1781034507601769500,3.48376953125,2.5301260948181152,-1.3375409841537476,9.372803688049316
1781034507621289500,3.50328955078125,2.5893490314483643,-1.3910549879074097,9.348810195922852
1781034507640812000,3.52281201171875,2.5893490314483643,-1.3910549879074097,9.348810195922852
1781034507660338000,3.542337890625,2.7029080390930176,-1.4915380477905273,9.301054000854492
1781034507679867400,3.561867431640625,2.7509140968322754,-1.5325850248336792,9.28028392791748
1781034507699395800,3.581395751953125,2.7509140968322754,-1.5325850248336792,9.28028392791748
1781034507718916400,3.600916259765625,2.8193199634552,-1.5822559595108032,9.251372337341309
1781034507738439000,3.62043896484375,2.8193199634552,-1.5822559595108032,9.251372337341309
1781034507757961200,3.639961181640625,2.839107036590576,-1.5931669473648071,9.24344539642334
1781034507777481700,3.659481689453125,2.847482919692993,-1.6017060279846191,9.23939323425293
1781034507797002800,3.679002685546875,2.847744941711426,-1.6120330095291138,9.237515449523926
1781034507816524800,3.69852490234375,2.836493968963623,-1.6554919481277466,9.23328971862793
1781034507836045800,3.7180458984375,2.836493968963623,-1.6554919481277466,9.23328971862793
1781034507855567400,3.7375673828125,2.8287670612335205,-1.6877779960632324,9.229814529418945
1781034507875089400,3.75708935546875,2.8173251152038574,-1.7201459407806396,9.227338790893555
1781034507894615000,3.776614990234375,2.8001980781555176,-1.7462879419326782,9.227642059326172
1781034507914143000,3.79614306640625,2.7744979858398438,-1.762395977973938,9.232340812683105
1781034507933667000,3.8156669921875,2.7380900382995605,-1.766829013824463,9.24235725402832
1781034507953189000,3.835189208984375,2.689742088317871,-1.7602299451828003,9.257801055908203
1781034507972710700,3.854710693359375,2.633857011795044,-1.7468899488449097,9.276376724243164
1781034507992234500,3.874234375,2.574855089187622,-1.7300970554351807,9.29606819152832
1781034508011761700,3.89376171875,2.517102003097534,-1.7132760286331177,9.314981460571289
1781034508031289300,3.913289306640625,2.464085102081299,-1.6992709636688232,9.331707000732422
1781034508050815500,3.9328154296875,2.4201109409332275,-1.6887710094451904,9.345110893249512
1781034508070339600,3.952339599609375,2.387769937515259,-1.6813360452651978,9.354766845703125
1781034508089865500,3.971865478515625,2.3676838874816895,-1.6758869886398315,9.360847473144531
1781034508109388800,3.991388916015625,2.3591909408569336,-1.672247052192688,9.363642692565918
1781034508128911000,4.0109111328125,2.3600640296936035,-1.6710070371627808,9.363643646240234
1781034508148437500,4.0304375,2.3684840202331543,-1.6731840372085571,9.361128807067871
1781034508167965000,4.04996484375,2.3840770721435547,-1.6799559593200684,9.355956077575684
1781034508187488500,4.069488525390625,2.405846118927002,-1.6900880336761475,9.348557472229004
1781034508207008000,4.089008056640625,2.430567979812622,-1.7021880149841309,9.339962005615234
1781034508226528000,4.108528076171875,2.4530749320983887,-1.715965986251831,9.33155345916748
1781034508246051600,4.128051513671875,2.466989040374756,-1.7312899827957153,9.325052261352539
1781034508265575000,4.147574951171875,2.4705541133880615,-1.745798945426941,9.321402549743652
1781034508285095200,4.16709521484375,2.46219801902771,-1.759374976158142,9.321061134338379
1781034508304615400,4.186615478515625,2.446815013885498,-1.7731260061264038,9.322505950927734
1781034508324136200,4.20613623046875,2.4352059364318848,-1.7878049612045288,9.322742462158203
1781034508343654100,4.225654052734375,2.4331910610198975,-1.8022429943084717,9.320487976074219
1781034508363171600,4.245171630859375,2.4470629692077637,-1.8141989707946777,9.314535140991211
1781034508382693600,4.264693603515625,2.476077079772949,-1.8238680362701416,9.304973602294922
1781034508402218200,4.28421826171875,2.5178918838500977,-1.8300139904022217,9.2925386428833
1781034508421740500,4.303740478515625,2.56412410736084,-1.8323910236358643,9.2794189453125
1781034508441262300,4.323262451171875,2.6088531017303467,-1.8349130153656006,9.266444206237793
1781034508460787200,4.342787109375,2.6088531017303467,-1.8349130153656006,9.266444206237793
1781034508480309000,4.36230908203125,2.6991140842437744,-1.8634999990463257,9.234832763671875
1781034508499828200,4.381828125,2.6991140842437744,-1.8634999990463257,9.234832763671875
1781034508519348000,4.401347900390625,2.7884199619293213,-1.9339649677276611,9.193719863891602
1781034508538872000,4.4208720703125,2.7884199619293213,-1.9339649677276611,9.193719863891602
1781034508558398000,4.44039794921875,2.7884199619293213,-1.9339649677276611,9.193719863891602
1781034508577921800,4.459921875,2.8710439205169678,-2.023228883743286,9.148969650268555
1781034508597445400,4.4794453125,2.90214204788208,-2.0617189407348633,9.130546569824219
1781034508616969700,4.4989697265625,2.9412119388580322,-2.112678050994873,9.106363296508789
1781034508636497700,4.51849755859375,2.9412119388580322,-2.112678050994873,9.106363296508789
1781034508656025600,4.538025634765625,2.9523189067840576,-2.1244750022888184,9.100022315979004
1781034508675552500,4.557552490234375,2.9593300819396973,-2.134700059890747,9.095351219177246
1781034508695080000,4.577079833984375,2.9605660438537598,-2.1433839797973633,9.09290599822998
1781034508714604000,4.59660400390625,2.9558589458465576,-2.151423931121826,9.092538833618164
1781034508734128000,4.616128173828125,2.9456589221954346,-2.158639907836914,9.094139099121094
1781034508753652700,4.63565283203125,2.9296679496765137,-2.164907932281494,9.097813606262207
1781034508773175800,4.65517578125,2.9077200889587402,-2.169090986251831,9.103857040405273
1781034508792700700,4.67470068359375,2.879823923110962,-2.1710360050201416,9.112256050109863
1781034508812226600,4.6942265625,2.84810209274292,-2.1709389686584473,9.12224292755127
1781034508831761000,4.713760986328125,2.8156750202178955,-2.1693389415740967,9.132684707641602
1781034508851300900,4.73330078125,2.78481388092041,-2.1680428981781006,9.142450332641602
1781034508870833000,4.7528330078125,2.756964921951294,-2.1694231033325195,9.15056037902832
1781034508890363100,4.772363037109375,2.7322020530700684,-2.174999952316284,9.156661987304688
1781034508909894100,4.79189404296875,2.7074930667877197,-2.184830904006958,9.161659240722656
1781034508929422800,4.8114228515625,2.6715118885040283,-2.198885917663574,9.168855667114258
1781034508948947700,4.83094775390625,2.6121649742126465,-2.2170209884643555,9.18157958984375
1781034508968471800,4.850471923828125,2.524724006652832,-2.2391929626464844,9.200640678405762
1781034508987996700,4.86999658203125,2.419771909713745,-2.2639670372009277,9.22275161743164
1781034509007517000,4.889516845703125,2.308896064758301,-2.2898950576782227,9.24474811553955
1781034509027038000,4.909037841796875,2.2073869705200195,-2.3171699047088623,9.26272964477539
1781034509046564000,4.928564208984375,2.129196882247925,-2.345160961151123,9.273982048034668
1781034509066086700,4.948086669921875,2.0760209560394287,-2.370116949081421,9.279691696166992
1781034509085611800,4.96761181640625,2.047494888305664,-2.391990900039673,9.280417442321777
1781034509105139700,4.9871396484375,2.034308910369873,-2.40834903717041,9.279085159301758
1781034509124665000,5.0066650390625,2.0265519618988037,-2.4179248809814453,9.278292655944824
1781034509144188000,5.02618798828125,2.0159881114959717,-2.4261350631713867,9.278450965881348
1781034509163707100,5.04570703125,1.9998409748077393,-2.431976079940796,9.280415534973145
1781034509183227600,5.0652275390625,1.986685037612915,-2.438601016998291,9.281503677368164
1781034509202752000,5.084751953125,1.9771169424057007,-2.4444379806518555,9.282011032104492
1781034509222274800,5.10427490234375,1.9657440185546875,-2.450131893157959,9.28292465209961
1781034509241795600,5.123795654296875,1.9498460292816162,-2.454572916030884,9.285104751586914
1781034509261316000,5.143316162109375,1.925150990486145,-2.4511849880218506,9.291150093078613
1781034509280837400,5.16283740234375,1.925150990486145,-2.4511849880218506,9.291150093078613
1781034509300358400,5.1823583984375,1.8621690273284912,-2.4255919456481934,9.310684204101562
1781034509319880000,5.2018798828125,1.827172040939331,-2.4054439067840576,9.322835922241211
1781034509339402500,5.221402587890625,1.827172040939331,-2.4054439067840576,9.322835922241211
1781034509358922000,5.240921875,1.7677199840545654,-2.3594560623168945,9.34602165222168
1781034509378442500,5.2604423828125,1.7677199840545654,-2.3594560623168945,9.34602165222168
1781034509397964000,5.279964111328125,1.748075008392334,-2.335045099258423,9.355843544006348
1781034509417484500,5.299484619140625,1.7268619537353516,-2.279026985168457,9.373578071594238
1781034509437004000,5.319004150390625,1.7268619537353516,-2.279026985168457,9.373578071594238
1781034509456525000,5.338525146484375,1.7265650033950806,-2.245297908782959,9.381769180297852
1781034509476047600,5.358047607421875,1.7322720289230347,-2.2067630290985107,9.38985824584961
1781034509495568000,5.37756787109375,1.7452820539474487,-2.1639249324798584,9.397415161132812
1781034509515082800,5.397082763671875,1.766724944114685,-2.120347023010254,9.403339385986328
1781034509534598700,5.4165986328125,1.7983230352401733,-2.0786330699920654,9.406662940979004
1781034509554116400,5.436116455078125,1.849943995475769,-2.0398690700531006,9.405138969421387
1781034509573638000,5.455637939453125,1.9241570234298706,-2.0043320655822754,9.397886276245117
1781034509593160700,5.47516064453125,2.0090439319610596,-1.971796989440918,9.386999130249023
1781034509612681700,5.494681640625,2.0940070152282715,-1.941964030265808,9.374641418457031
1781034509632199400,5.514199462890625,2.1656908988952637,-1.9138020277023315,9.364141464233398
1781034509651712500,5.53371240234375,2.2182300090789795,-1.8869129419326782,9.35729694366455
1781034509671229400,5.5532294921875,2.248389959335327,-1.8615920543670654,9.355171203613281
1781034509690751000,5.5727509765625,2.253757953643799,-1.838399052619934,9.358465194702148
1781034509710269700,5.592269775390625,2.2436869144439697,-1.817849040031433,9.364896774291992
1781034509729785900,5.611785888671875,2.224769115447998,-1.8004239797592163,9.372773170471191
1781034509749303800,5.6313037109375,2.2080368995666504,-1.7864739894866943,9.379396438598633
1781034509768825000,5.6508251953125,2.2055869102478027,-1.7766189575195312,9.381845474243164
1781034509788341500,5.670341552734375,2.215728998184204,-1.7728290557861328,9.380171775817871
1781034509807854600,5.6898544921875,2.242779016494751,-1.778236985206604,9.372715950012207
1781034509827371000,5.70937109375,2.2899460792541504,-1.795362949371338,9.35803508758545
1781034509846890800,5.728890869140625,2.357213020324707,-1.8249499797821045,9.335582733154297
1781034509866409000,5.748408935546875,2.4405529499053955,-1.8666000366210938,9.305885314941406
1781034509885928400,5.767928466796875,2.5250790119171143,-1.9182480573654175,9.272771835327148
1781034509905450800,5.78745068359375,2.6043810844421387,-1.978140950202942,9.238190650939941
1781034509924971000,5.806970947265625,2.6713569164276123,-2.0451440811157227,9.204414367675781
1781034509944494600,5.82649462890625,2.7203218936920166,-2.1204190254211426,9.172986030578613
1781034509964016000,5.84601611328125,2.7523019313812256,-2.205854892730713,9.143250465393066
1781034509983537200,5.865537109375,2.7702269554138184,-2.3055949211120605,9.113182067871094
1781034510003061800,5.885061767578125,2.78045392036438,-2.421757936477661,9.079876899719238
1781034510022585600,5.904585693359375,2.785162925720215,-2.5525779724121094,9.042522430419922
1781034510042111700,5.92411181640625,2.786432981491089,-2.6938869953155518,9.001041412353516
1781034510061635000,5.943635009765625,2.7869560718536377,-2.8379058837890625,8.956515312194824
1781034510081153500,5.963153564453125,2.7869560718536377,-2.8379058837890625,8.956515312194824
1781034510100675800,5.98267578125,2.788201093673706,-2.9747140407562256,8.911622047424316
1781034510120199700,6.00219970703125,2.7991669178009033,-3.200014114379883,8.829754829406738
1781034510139724500,6.021724609375,2.7991669178009033,-3.200014114379883,8.829754829406738
1781034510159254500,6.041254638671875,2.8257529735565186,-3.3455939292907715,8.767104148864746
1781034510178781400,6.060781494140625,2.8257529735565186,-3.3455939292907715,8.767104148864746
1781034510198299100,6.080299072265625,2.8257529735565186,-3.3455939292907715,8.767104148864746
1781034510217814300,6.099814208984375,2.8817460536956787,-3.452569007873535,8.707198143005371
1781034510237331700,6.119331787109375,2.8817460536956787,-3.452569007873535,8.707198143005371
1781034510256853200,6.138853271484375,2.901737928390503,-3.4702439308166504,8.693520545959473
1781034510276373800,6.158373779296875,2.9229729175567627,-3.4826819896698,8.681426048278809
1781034510295895300,6.177895263671875,2.9500529766082764,-3.4892499446868896,8.669621467590332
1781034510315418000,6.197418212890625,2.9850759506225586,-3.4914259910583496,8.656746864318848
1781034510334937300,6.216937255859375,3.028498888015747,-3.490463972091675,8.642040252685547
1781034510354460700,6.236460693359375,3.0770270824432373,-3.4886701107025146,8.625606536865234
1781034510373988600,6.255988525390625,3.1201870441436768,-3.489211082458496,8.609868049621582
1781034510393512000,6.275511962890625,3.1512060165405273,-3.494999885559082,8.596212387084961
1781034510413033500,6.295033447265625,3.163724899291992,-3.507875919342041,8.586363792419434
1781034510432556800,6.314556884765625,3.152482032775879,-3.528949022293091,8.581862449645996
1781034510452085800,6.334085693359375,3.116300106048584,-3.558643102645874,8.582817077636719
1781034510471612700,6.35361279296875,3.057904005050659,-3.5972959995269775,8.587705612182617
1781034510491132200,6.373132080078125,2.989125967025757,-3.6440420150756836,8.592211723327637
1781034510510650400,6.392650390625,2.9182679653167725,-3.697387933731079,8.593778610229492
1781034510530168600,6.41216845703125,2.851715087890625,-3.7529261112213135,8.592046737670898
1781034510549687600,6.4316875,2.794748067855835,-3.804215908050537,8.588207244873047
1781034510569208000,6.4512080078125,2.7478020191192627,-3.844959020614624,8.585212707519531
1781034510588727300,6.470727294921875,2.7015650272369385,-3.8701179027557373,8.588581085205078
1781034510608244500,6.490244384765625,2.6523330211639404,-3.8766770362854004,8.600958824157715
1781034510627764700,6.5097646484375,2.5967180728912354,-3.8651909828186035,8.62307071685791
1781034510647285000,6.529284912109375,2.543086051940918,-3.8405869007110596,8.650005340576172
1781034510666802700,6.548802734375,2.4989280700683594,-3.812074899673462,8.675450325012207
1781034510686319000,6.568319091796875,2.4654359817504883,-3.79842209815979,8.691007614135742
1781034510705838600,6.587838623046875,2.453165054321289,-3.8080780506134033,8.690254211425781
1781034510725362000,6.60736181640625,2.463287115097046,-3.8419880867004395,8.672447204589844
1781034510744883500,6.626883544921875,2.49042010307312,-3.9004900455474854,8.638517379760742
1781034510764407800,6.64640771484375,2.52266001701355,-3.9721999168395996,8.596383094787598
1781034510783932200,6.66593212890625,2.547178030014038,-4.052732944488525,8.551445960998535
1781034510803453000,6.685452880859375,2.564115047454834,-4.121522903442383,8.513421058654785
1781034510822972200,6.70497216796875,2.5740859508514404,-4.172670841217041,8.485450744628906
1781034510842492200,6.7244921875,2.587477922439575,-4.20302677154541,8.466375350952148
1781034510862014500,6.744014404296875,2.617244005203247,-4.20828914642334,8.454604148864746
1781034510881537300,6.763537353515625,2.6678929328918457,-4.195790767669678,8.444979667663574
1781034510901059000,6.78305908203125,2.6678929328918457,-4.195790767669678,8.444979667663574
1781034510920580400,6.802580322265625,2.7492918968200684,-4.167064189910889,8.433087348937988
1781034510940103200,6.822103271484375,3.002800941467285,-4.089391231536865,8.384512901306152
1781034510959630600,6.841630615234375,3.002800941467285,-4.089391231536865,8.384512901306152
1781034510979161900,6.861161865234375,3.2971138954162598,-4.012695789337158,8.310673713684082
1781034510998692900,6.88069287109375,3.2971138954162598,-4.012695789337158,8.310673713684082
1781034511018218200,6.90021826171875,3.2971138954162598,-4.012695789337158,8.310673713684082
1781034511037741600,6.919741455078125,3.553942918777466,-3.9426469802856445,8.238022804260254
1781034511057265400,6.939265380859375,3.664324998855591,-3.900986909866333,8.209446907043457
1781034511076789500,6.95878955078125,3.765662908554077,-3.8525149822235107,8.186445236206055
1781034511096313600,6.978313720703125,3.8678910732269287,-3.7932770252227783,8.166421890258789
1781034511115838200,6.997838134765625,3.9679269790649414,-3.7264211177825928,8.149191856384277
1781034511135363600,7.017363525390625,4.071166038513184,-3.657953977584839,8.129265785217285
1781034511154886100,7.03688623046875,4.172399044036865,-3.5937659740448,8.106534957885742
1781034511174409000,7.056408935546875,4.267838954925537,-3.540339946746826,8.080315589904785
1781034511193934000,7.07593408203125,4.359749794006348,-3.50190806388855,8.047931671142578
1781034511213454300,7.095454345703125,4.44643497467041,-3.481123924255371,8.009429931640625
1781034511232969500,7.114969482421875,4.526791095733643,-3.4785349369049072,7.9654221534729
1781034511252488400,7.134488525390625,4.593321800231934,-3.4932870864868164,7.920754909515381
1781034511272009700,7.154009765625,4.640895843505859,-3.5213849544525146,7.8804779052734375
1781034511291528700,7.17352880859375,4.669666767120361,-3.5511651039123535,7.850059986114502
1781034511311044600,7.193044677734375,4.672171115875244,-3.576993942260742,7.836832046508789
1781034511330563000,7.21256298828125,4.650836944580078,-3.5947799682617188,7.841381072998047
1781034511350084900,7.2320849609375,4.611367225646973,-3.602350950241089,7.861192226409912
1781034511369606700,7.251606689453125,4.566656112670898,-3.6046769618988037,7.8861870765686035
1781034511389129000,7.27112890625,4.5295000076293945,-3.602947950363159,7.908374786376953
1781034511408649500,7.2906494140625,4.502281188964844,-3.613615036010742,7.919043064117432
1781034511428164900,7.310164794921875,4.48724889755249,-3.6406729221343994,7.9151811599731445
1781034511447681300,7.329681396484375,4.475024223327637,-3.6875550746917725,7.900385856628418
1781034511467204000,7.3492041015625,4.455379962921143,-3.755147933959961,7.879621982574463
1781034511486731000,7.36873095703125,4.423664093017578,-3.8347110748291016,7.8591461181640625
1781034511506255400,7.38825537109375,4.371233940124512,-3.9228360652923584,7.844976902008057
1781034511525778400,7.4077783203125,4.296438217163086,-4.0089898109436035,7.842741966247559
1781034511545303600,7.427303466796875,4.200262069702148,-4.091639995574951,7.852151870727539
1781034511564829700,7.44682958984375,4.100982189178467,-4.161118030548096,7.868101119995117
1781034511584352300,7.466352294921875,4.005348205566406,-4.214991092681885,7.8886637687683105
1781034511603875000,7.485875,3.925786018371582,-4.254134178161621,7.907625198364258
1781034511623400200,7.505400146484375,3.8669989109039307,-4.282092094421387,7.92149019241333
1781034511642924800,7.5249248046875,3.8283588886260986,-4.305045127868652,7.927814960479736
1781034511662450700,7.54445068359375,3.807050943374634,-4.32468318939209,7.9273881912231445
1781034511681977000,7.56397705078125,3.788072109222412,-4.34627103805542,7.9246721267700195
1781034511701504500,7.58350439453125,3.7695159912109375,-4.366527080535889,7.922383785247803
1781034511721036800,7.603036865234375,3.7405059337615967,-4.380616188049316,7.928353786468506
1781034511740564700,7.622564697265625,3.7028110027313232,-4.384586811065674,7.943839073181152
1781034511760086800,7.642086669921875,3.659179925918579,-4.373901844024658,7.969904899597168
1781034511779609000,7.661609130859375,3.659179925918579,-4.373901844024658,7.969904899597168
1781034511799133400,7.681133544921875,3.5469400882720947,-4.310118198394775,8.05494213104248
1781034511818659800,7.700659912109375,3.5469400882720947,-4.310118198394775,8.05494213104248
1781034511838185200,7.720185302734375,3.4872798919677734,-4.261094093322754,8.106907844543457
1781034511857710000,7.7397099609375,3.428086042404175,-4.206010818481445,8.160741806030273
1781034511877239300,7.7592392578125,3.3686790466308594,-4.14837121963501,8.214803695678711
1781034511896770000,7.77877001953125,3.306619882583618,-4.090417861938477,8.268902778625488
1781034511916296000,7.7982958984375,3.245897054672241,-4.031065940856934,8.321937561035156
1781034511935819000,7.817819091796875,3.176316022872925,-3.9736859798431396,8.376206398010254
1781034511955340500,7.837340576171875,3.089871883392334,-3.9181430339813232,8.434502601623535
1781034511974862800,7.85686279296875,2.978976011276245,-3.864814043045044,8.498759269714355
1781034511994386400,7.876386474609375,2.841054916381836,-3.8130040168762207,8.569095611572266
1781034512013910300,7.89591015625,2.6835498809814453,-3.761125087738037,8.642480850219727
1781034512033430500,7.915430419921875,2.6835498809814453,-3.761125087738037,8.642480850219727
1781034512052950000,7.934949951171875,2.3354220390319824,-3.654881000518799,8.78792667388916
1781034512072473300,7.954473388671875,2.158963918685913,-3.6035430431365967,8.85400104522705
1781034512091999500,7.97399951171875,1.9884059429168701,-3.557262897491455,8.912469863891602
1781034512111524000,7.993524169921875,1.8264410495758057,-3.5194809436798096,8.961996078491211
1781034512131044900,8.013044921875,1.6690829992294312,-3.494072914123535,9.002533912658691
1781034512150563600,8.0325634765625,1.5244770050048828,-3.483323097229004,9.032299995422363
1781034512170083800,8.052083740234375,1.3973139524459839,-3.487178087234497,9.051358222961426
1781034512189605600,8.071605712890625,1.2934340238571167,-3.504157066345215,9.060237884521484
1781034512209123600,8.09112353515625,1.2240949869155884,-3.5311779975891113,9.059379577636719
1781034512228642300,8.110642333984375,1.1897269487380981,-3.56536602973938,9.05056381225586
1781034512248166400,8.13016650390625,1.1904770135879517,-3.602231025695801,9.035856246948242
1781034512267689700,8.149689697265625,1.2185629606246948,-3.6386070251464844,9.017518997192383
1781034512287213300,8.16921337890625,1.2730159759521484,-3.6729159355163574,8.996061325073242
1781034512306738700,8.18873876953125,1.3507139682769775,-3.7047109603881836,8.971660614013672
1781034512326263600,8.208263671875,1.440086007118225,-3.734544038772583,8.945352554321289
1781034512345789700,8.227789794921875,1.53751802444458,-3.7621419429779053,8.917529106140137
1781034512365316600,8.247316650390625,1.6395269632339478,-3.7882070541381836,8.888276100158691
1781034512384839400,8.26683935546875,1.7525689601898193,-3.8118019104003906,8.856560707092285
1781034512404364000,8.286364013671875,1.872020959854126,-3.8340940475463867,8.822428703308105
1781034512423889000,8.305888916015626,1.9988939762115479,-3.854088068008423,8.785807609558105
1781034512443414300,8.325414306640624,2.1350181102752686,-3.8718390464782715,8.745888710021973
1781034512462942700,8.344942626953125,2.2831668853759766,-3.8886430263519287,8.700896263122559
1781034512482468600,8.364468505859374,2.444622039794922,-3.9072670936584473,8.648530960083008
1781034512501996300,8.383996337890625,2.6098039150238037,-3.932542085647583,8.58859920501709
1781034512521530000,8.403530029296874,2.7708969116210938,-3.9653160572052,8.522815704345703
1781034512541059000,8.42305908203125,2.7708969116210938,-3.9653160572052,8.522815704345703
1781034512560586500,8.44258642578125,2.927541971206665,-4.004885196685791,8.451650619506836
1781034512580115700,8.46211572265625,3.231597900390625,-4.104101181030273,8.29175090789795
1781034512599643000,8.481642822265625,3.231597900390625,-4.104101181030273,8.29175090789795
1781034512619172000,8.501172119140625,3.504589080810547,-4.207493782043457,8.127412796020508
1781034512638703000,8.520703125,3.504589080810547,-4.207493782043457,8.127412796020508
1781034512658230800,8.540230712890626,3.504589080810547,-4.207493782043457,8.127412796020508
1781034512677754000,8.559754150390624,3.7570760250091553,-4.2982587814331055,7.96550989151001
1781034512697279700,8.57927978515625,3.875351905822754,-4.337985992431641,7.886919975280762
1781034512716809200,8.598809326171875,3.9968650341033936,-4.372179985046387,7.806991100311279
1781034512736338400,8.61833837890625,4.12124490737915,-4.403916835784912,7.724042892456055
1781034512755864000,8.637864013671875,4.243813991546631,-4.431515216827393,7.641446113586426
1781034512775387600,8.6573876953125,4.363855838775635,-4.455638885498047,7.559368133544922
1781034512794911200,8.6769111328125,4.4761738777160645,-4.476183891296387,7.4811530113220215
1781034512814435300,8.696435302734375,4.570130825042725,-4.495166778564453,7.412649154663086
1781034512833958100,8.715958251953126,4.570130825042725,-4.495166778564453,7.412649154663086
1781034512853484000,8.735484130859374,4.683481216430664,-4.53602409362793,7.316384792327881
1781034512873011500,8.755011474609375,4.711597919464111,-4.556629180908203,7.285462856292725
1781034512892537000,8.774537109375,4.729800224304199,-4.571243762969971,7.264482021331787
1781034512912062500,8.7940625,4.743780136108398,-4.57929801940918,7.250281810760498
1781034512931591000,8.8135908203125,4.756711959838867,-4.580930233001709,7.240769863128662
1781034512951116500,8.833116455078125,4.770199775695801,-4.577107906341553,7.234312057495117
1781034512970641200,8.85264111328125,4.7848381996154785,-4.5682220458984375,7.230260848999023
1781034512990166800,8.872166748046874,4.79927396774292,-4.555731773376465,7.228572845458984
1781034513009690400,8.8916904296875,4.811657905578613,-4.544119834899902,7.227649211883545
1781034513029213400,8.91121337890625,4.822052955627441,-4.532113075256348,7.2282609939575195
1781034513048741400,8.930741455078126,4.834599018096924,-4.516115188598633,7.229893207550049
1781034513068268300,8.950268310546875,4.845729827880859,-4.492922782897949,7.236886024475098
1781034513087790300,8.969790283203125,4.852031230926514,-4.4592180252075195,7.253493785858154
1781034513107310800,8.989310791015624,4.8517937660217285,-4.412295818328857,7.282289981842041
1781034513126831600,9.00883154296875,4.849856853485107,-4.349145889282227,7.321463108062744
1781034513146353400,9.028353515625,4.838058948516846,-4.272789001464844,7.374040126800537
1781034513165878000,9.0478779296875,4.811638832092285,-4.182735919952393,7.442636966705322
1781034513185408000,9.067407958984376,4.774155139923096,-4.080780029296875,7.522943019866943
1781034513204936200,9.086936279296875,4.725890159606934,-3.975898027420044,7.609086036682129
1781034513224458000,9.1064580078125,4.67064094543457,-3.8717520236968994,7.696403980255127
1781034513243983600,9.125983642578126,4.604787826538086,-3.7756009101867676,7.7833638191223145
1781034513263513000,9.14551318359375,4.536310195922852,-3.6882131099700928,7.865046977996826
1781034513283039700,9.165039794921874,4.468266010284424,-3.6120870113372803,7.938981056213379
1781034513302565000,9.184565185546875,4.392058849334717,-3.5490760803222656,8.009611129760742
1781034513322084000,9.204083984375,4.311047077178955,-3.49310302734375,8.0779390335083
1781034513341603800,9.223603759765625,4.223837852478027,-3.443782091140747,8.144909858703613
1781034513361131300,9.24313134765625,4.223837852478027,-3.443782091140747,8.144909858703613
1781034513380659700,9.26265966796875,4.130266189575195,-3.3980109691619873,8.211846351623535
1781034513400186600,9.2821865234375,3.9390790462493896,-3.3098390102386475,8.340780258178711
1781034513419711200,9.301711181640625,3.9390790462493896,-3.3098390102386475,8.340780258178711
1781034513439236400,9.321236328125,3.851738929748535,-3.2633860111236572,8.399666786193848
1781034513458762000,9.340761962890625,3.6903440952301025,-3.1664369106292725,8.508526802062988
1781034513478283800,9.36028369140625,3.6903440952301025,-3.1664369106292725,8.508526802062988
1781034513497802800,9.379802734375,3.6039950847625732,-3.127485990524292,8.559793472290039
1781034513517321500,9.399321533203125,3.5059080123901367,-3.098875045776367,8.610782623291016
1781034513536842500,9.418842529296874,3.399806022644043,-3.079418897628784,8.660167694091797
1781034513556364300,9.4383642578125,3.289155960083008,-3.0688459873199463,8.706528663635254
1781034513575889000,9.457888916015625,3.176964044570923,-3.0655910968780518,8.749231338500977
1781034513595412700,9.477412841796875,3.0662200450897217,-3.0667788982391357,8.788240432739258
1781034513614933800,9.496933837890625,2.960845947265625,-3.065310001373291,8.824809074401855
1781034513634458400,9.516458251953125,2.8616108894348145,-3.061429023742676,8.858827590942383
1781034513653985500,9.535985595703124,2.7613959312438965,-3.0570731163024902,8.892074584960938
1781034513673511700,9.55551171875,2.6614530086517334,-3.0541350841522217,8.923503875732422
1781034513693035800,9.575035888671875,2.563524007797241,-3.0536680221557617,8.952287673950195
1781034513712560600,9.594560546875,2.4702980518341064,-3.0553550720214844,8.977885246276855
1781034513732084700,9.614084716796874,2.386507034301758,-3.058892011642456,8.999319076538086
1781034513751606000,9.63360595703125,2.321655035018921,-3.063668966293335,9.014646530151367
1781034513771127300,9.653127197265626,2.2760250568389893,-3.069891929626465,9.02415943145752
1781034513790654200,9.672654296875,2.2468860149383545,-3.076859951019287,9.029088020324707
1781034513810186000,9.69218603515625,2.2284560203552246,-3.0835490226745605,9.031373023986816
1781034513829714400,9.71171435546875,2.2151880264282227,-3.0889039039611816,9.032807350158691
1781034513849239000,9.731239013671875,2.202115058898926,-3.0906319618225098,9.035412788391113
1781034513868764000,9.750763916015625,2.179992914199829,-3.0866200923919678,9.042145729064941
1781034513888295200,9.770295166015625,2.1486380100250244,-3.0751900672912598,9.05353832244873
1781034513907827000,9.789826904296875,2.110266923904419,-3.056178092956543,9.068988800048828
1781034513927353900,9.809353759765624,2.068363904953003,-3.031151056289673,9.08702278137207
1781034513946878500,9.82887841796875,2.026186943054199,-3.003048896789551,9.105835914611816
1781034513966403000,9.848403076171875,1.9850850105285645,-2.97652006149292,9.12358283996582
1781034513985928200,9.86792822265625,1.946146011352539,-2.9558520317077637,9.138678550720215
1781034514005448700,9.88744873046875,1.909896969795227,-2.9438400268554688,9.150196075439453
1781034514024969000,9.906968994140625,1.8803520202636719,-2.9433979988098145,9.156455039978027
1781034514044487700,9.92648779296875,1.8588000535964966,-2.954827070236206,9.157174110412598
1781034514064009500,9.946009521484376,1.8458900451660156,-2.978066921234131,9.152256965637207
1781034514083537200,9.965537109375,1.84524405002594,-3.0115370750427246,9.14142894744873
1781034514103066400,9.98506640625,1.8585790395736694,-3.054007053375244,9.124621391296387
1781034514122589700,10.004589599609375,1.887992024421692,-3.104430913925171,9.101537704467773
1781034514142108000,10.02410791015625,1.9303339719772339,-3.1602048873901367,9.073417663574219
1781034514161633300,10.04363330078125,1.9836549758911133,-3.220165967941284,9.040776252746582
1781034514181159400,10.063159423828125,1.9836549758911133,-3.220165967941284,9.040776252746582
1781034514200679000,10.082678955078125,2.0433309078216553,-3.28310489654541,9.004777908325195
1781034514220198700,10.10219873046875,2.160749912261963,-3.411355972290039,8.9293794631958
1781034514239718700,10.12171875,2.160749912261963,-3.411355972290039,8.9293794631958
1781034514259238100,10.141238037109375,2.2084100246429443,-3.473371982574463,8.893739700317383
1781034514278759400,10.160759521484374,2.2674560546875,-3.5895650386810303,8.832534790039062
1781034514298283300,10.180283203125,2.2674560546875,-3.5895650386810303,8.832534790039062
1781034514317805800,10.199805908203125,2.2804980278015137,-3.642918109893799,8.807296752929688
1781034514337327900,10.219327880859375,2.2846620082855225,-3.692868947982788,8.785387992858887
1781034514356852200,10.238852294921875,2.280384063720703,-3.7404050827026367,8.76636791229248
1781034514376377000,10.258377197265625,2.271419048309326,-3.7859530448913574,8.749126434326172
1781034514395898600,10.277898681640625,2.259131908416748,-3.8301920890808105,8.733037948608398
1781034514415418400,10.29741845703125,2.2448220252990723,-3.873033046722412,8.717820167541504
1781034514434937300,10.316937255859376,2.2296619415283203,-3.916685104370117,8.702194213867188
1781034514454457900,10.336457763671875,2.21376895904541,-3.9629549980163574,8.685287475585938
1781034514473980200,10.355980224609375,2.197166919708252,-4.01301383972168,8.666496276855469
1781034514493497600,10.37549755859375,2.1797099113464355,-4.067627906799316,8.645419120788574
1781034514513012200,10.39501220703125,2.160902976989746,-4.127169132232666,8.621889114379883
1781034514532530000,10.414530029296875,2.1406049728393555,-4.1909918785095215,8.596128463745117
1781034514552049200,10.434049072265625,2.1196789741516113,-4.257875919342041,8.568398475646973
1781034514571572700,10.45357275390625,2.0986030101776123,-4.325326919555664,8.539754867553711
1781034514591099400,10.473099365234376,2.0780301094055176,-4.3909149169921875,8.511265754699707
1781034514610627600,10.492627685546875,2.0591039657592773,-4.4525909423828125,8.483779907226562
1781034514630155000,10.512155029296874,2.043104887008667,-4.508162975311279,8.458260536193848
1781034514649676500,10.531676513671876,2.030566930770874,-4.55617618560791,8.43552303314209
1781034514669198000,10.551197998046876,2.021204948425293,-4.594758987426758,8.416823387145996
1781034514688724500,10.570724365234375,2.015069007873535,-4.622734069824219,8.40296459197998
1781034514708252400,10.59025244140625,2.012021064758301,-4.640330791473389,8.393991470336914
1781034514727780400,10.6097802734375,2.0123860836029053,-4.648698806762695,8.389272689819336
1781034514747304200,10.62930419921875,2.0169589519500732,-4.6500091552734375,8.38744831085205
1781034514766825000,10.648824951171875,2.026988983154297,-4.64611291885376,8.387188911437988
1781034514786350300,10.668350341796875,2.0468759536743164,-4.637876987457275,8.386918067932129
1781034514805881300,10.68788134765625,2.0774919986724854,-4.62626314163208,8.385804176330566
1781034514825415000,10.707414794921876,2.117189884185791,-4.611257076263428,8.384140014648438
1781034514844945400,10.7269453125,2.1660969257354736,-4.593078136444092,8.38162612915039
1781034514864467500,10.746467529296876,2.2202510833740234,-4.572801113128662,8.378541946411133
1781034514883988000,10.765988037109375,2.274660110473633,-4.550405025482178,8.376139640808105
1781034514903513000,10.78551318359375,2.3239669799804688,-4.528793811798096,8.37431812286377
1781034514923032000,10.805031982421875,2.367448091506958,-4.509188175201416,8.37271785736084
1781034514942546700,10.824546630859375,2.406920909881592,-4.493031978607178,8.370148658752441
1781034514962063000,10.84406298828125,2.4409379959106445,-4.482449054718018,8.365970611572266
1781034514981584000,10.863583984375,2.469897985458374,-4.478447914123535,8.359610557556152
1781034515001107700,10.883107666015626,2.469897985458374,-4.478447914123535,8.359610557556152
1781034515020634400,10.90263427734375,2.492034912109375,-4.4829487800598145,8.350624084472656
1781034515040161500,10.92216162109375,2.5153450965881348,-4.508060932159424,8.330089569091797
1781034515059684000,10.94168408203125,2.517496109008789,-4.524415969848633,8.320569038391113
1781034515079204900,10.961204833984375,2.517496109008789,-4.524415969848633,8.320569038391113
1781034515098725600,10.9807255859375,2.517496109008789,-4.524415969848633,8.320569038391113
1781034515118246400,11.000246337890625,2.523336887359619,-4.544680118560791,8.307746887207031
1781034515137768700,11.019768798828125,2.540776014328003,-4.542427062988281,8.303662300109863
1781034515157291300,11.039291259765625,2.573122024536133,-4.530198097229004,8.300381660461426
1781034515176814600,11.058814697265625,2.6200079917907715,-4.509043216705322,8.297232627868652
1781034515196342000,11.078342041015626,2.679508924484253,-4.482241153717041,8.29275131225586
1781034515215870200,11.0978701171875,2.806096076965332,-4.42785120010376,8.280094146728516
1781034515235395000,11.11739501953125,2.806096076965332,-4.42785120010376,8.280094146728516
1781034515254923500,11.136923583984375,2.8517379760742188,-4.405188083648682,8.276586532592773
1781034515274449700,11.15644970703125,2.877319097518921,-4.386467933654785,8.27767562866211
1781034515293972000,11.175971923828126,2.880798101425171,-4.370264053344727,8.2850341796875
1781034515313493800,11.19549365234375,2.8611838817596436,-4.353778839111328,8.300495147705078
1781034515333014500,11.2150146484375,2.8189139366149902,-4.333495140075684,8.325535774230957
1781034515352537900,11.234537841796875,2.752516984939575,-4.30716609954834,8.361336708068848
1781034515372062000,11.25406201171875,2.671725034713745,-4.271740913391113,8.405600547790527
1781034515391585000,11.2735849609375,2.577414035797119,-4.228128910064697,8.456941604614258
1781034515411111000,11.29311083984375,2.4721128940582275,-4.177967071533203,8.513121604919434
1781034515430636800,11.31263671875,2.358609914779663,-4.123302936553955,8.571775436401367
1781034515450161200,11.3321611328125,2.2404799461364746,-4.066213130950928,8.630535125732422
1781034515469686000,11.35168603515625,2.1223011016845703,-4.008277893066406,8.687320709228516
1781034515489209900,11.3712099609375,2.009239912033081,-3.950953960418701,8.740303039550781
1781034515508730000,11.390730224609374,1.9045729637145996,-3.895746946334839,8.788387298583984
1781034515528251000,11.4102509765625,1.8096129894256592,-3.8444581031799316,8.830936431884766
1781034515547776800,11.42977685546875,1.7355259656906128,-3.796211004257202,8.866606712341309
1781034515567304000,11.449303955078125,1.682973027229309,-3.7491040229797363,8.896730422973633
1781034515586829300,11.468829345703124,1.6533520221710205,-3.701328992843628,8.92225170135498
1781034515606352600,11.4883525390625,1.658843994140625,-3.651020050048828,8.941940307617188
1781034515625873000,11.507872802734376,1.698428988456726,-3.5992469787597656,8.955487251281738
1781034515645390800,11.527390869140625,1.7697290182113647,-3.5458850860595703,8.962965965270996
1781034515664909300,11.546909423828126,1.8619439601898193,-3.4926769733428955,8.96517562866211
1781034515684432600,11.5664326171875,1.9682279825210571,-3.4431118965148926,8.96164321899414
1781034515703956200,11.585956298828124,2.0883190631866455,-3.3982460498809814,8.951583862304688
1781034515723479300,11.605479248046874,2.2027769088745117,-3.360029935836792,8.938566207885742
1781034515743004700,11.625004638671875,2.3194730281829834,-3.3267059326171875,8.92149543762207
1781034515762531000,11.644531005859376,2.438015937805176,-3.2972280979156494,8.90080738067627
1781034515782056000,11.664055908203125,2.556126117706299,-3.270801067352295,8.87739086151123
1781034515801576400,11.683576416015624,2.6779229640960693,-3.2464489936828613,8.850383758544922
1781034515821096200,11.70309619140625,2.791203022003174,-3.2266979217529297,8.822561264038086
1781034515840617000,11.722616943359375,2.9094669818878174,-3.2094480991363525,8.790587425231934
1781034515860141300,11.742141357421875,3.0193119049072266,-3.192866086959839,8.759529113769531
1781034515879669500,11.76166943359375,3.1052870750427246,-3.1744298934936523,8.7361421585083
1781034515899198500,11.781198486328124,3.1052870750427246,-3.1744298934936523,8.7361421585083
1781034515918723000,11.80072314453125,3.1052870750427246,-3.1744298934936523,8.7361421585083
1781034515938246100,11.82024609375,3.281440019607544,-3.148806095123291,8.6808500289917
1781034515957773600,11.839773681640626,3.398164987564087,-3.14513897895813,8.637162208557129
1781034515977296000,11.8592958984375,3.541435956954956,-3.1489500999450684,8.57801628112793
1781034515996816600,11.878816650390625,3.7111101150512695,-3.159693956375122,8.501998901367188
1781034516016338700,11.898338623046875,3.913055896759033,-3.180126905441284,8.403260231018066
1781034516035858700,11.917858642578125,4.115762233734131,-3.206281900405884,8.295798301696777
1781034516055381000,11.937381103515625,4.316530227661133,-3.2371718883514404,8.180971145629883
1781034516074905300,11.9569052734375,4.496715068817139,-3.268127918243408,8.0708646774292
1781034516094432000,11.976431884765624,4.651805877685547,-3.299053907394409,7.969750881195068
1781034516113957400,11.995957275390625,4.789759159088135,-3.3287949562072754,7.875107765197754
1781034516133480700,12.015480712890625,4.919684886932373,-3.3525819778442383,7.784400939941406
1781034516153005300,12.03500537109375,5.042328834533691,-3.3688809871673584,7.698412895202637
1781034516172527000,12.054527099609375,5.158602237701416,-3.3772048950195312,7.617304801940918
1781034516192045000,12.074045166015624,5.267381191253662,-3.3785529136657715,7.541888236999512
1781034516211562800,12.093562744140625,5.361007213592529,-3.3769938945770264,7.4763312339782715
1781034516231082000,12.11308203125,5.437644958496094,-3.37601900100708,7.421220779418945
1781034516250603000,12.13260302734375,5.496327877044678,-3.3785860538482666,7.3766889572143555
1781034516270122800,12.152122802734375,5.5411601066589355,-3.3846371173858643,7.3402838706970215
1781034516289642500,12.171642578125,5.571671009063721,-3.393979072570801,7.3128228187561035
1781034516309162000,12.191161865234376,5.5875349044799805,-3.405427932739258,7.295375823974609
1781034516328681200,12.21068115234375,5.591573238372803,-3.4164750576019287,7.287110805511475
1781034516348202500,12.230202392578125,5.576547145843506,-3.4276158809661865,7.293391227722168
1781034516367728600,12.249728759765626,5.5419487953186035,-3.437947988510132,7.314868927001953
1781034516387256600,12.269256591796875,5.49036979675293,-3.4455630779266357,7.350097179412842
1781034516406788400,12.288788330078125,5.425418853759766,-3.447499990463257,7.397266864776611
1781034516426320100,12.308320068359375,5.356380939483643,-3.440095901489258,7.450832843780518
1781034516445849000,12.32784912109375,5.288479804992676,-3.4230659008026123,7.506969928741455
1781034516465374500,12.34737451171875,5.2366251945495605,-3.3979029655456543,7.554601192474365
1781034516484899000,12.366899169921876,5.217711925506592,-3.3679099082946777,7.581071853637695
1781034516504422700,12.386422607421874,5.209146976470947,-3.3330368995666504,7.602344036102295
1781034516523945000,12.405945068359374,5.207088947296143,-3.296462059020996,7.619682788848877
1781034516543468500,12.425468505859374,5.186686038970947,-3.2590980529785156,7.649610996246338
1781034516562987300,12.4449873046875,5.142733097076416,-3.223407030105591,7.69428014755249
1781034516582499800,12.464499755859375,5.0749831199646,-3.1893649101257324,7.753224849700928
1781034516602015700,12.484015625,4.9751877784729,-3.152837038040161,7.8324408531188965
1781034516621535700,12.50353564453125,4.872453212738037,-3.113703966140747,7.912271976470947
1781034516641056500,12.523056396484375,4.872453212738037,-3.113703966140747,7.912271976470947
1781034516660582100,12.54258203125,4.768918991088867,-3.069849967956543,7.992084980010986
1781034516680102700,12.5621025390625,4.619103908538818,-2.974416971206665,8.115215301513672
1781034516699618600,12.58161865234375,4.619103908538818,-2.974416971206665,8.115215301513672
1781034516719137800,12.6011376953125,4.513881206512451,-2.8721940517425537,8.210685729980469
1781034516738656800,12.62065673828125,4.513881206512451,-2.8721940517425537,8.210685729980469
1781034516758176300,12.64017626953125,4.4536237716674805,-2.8251760005950928,8.259758949279785
1781034516777695000,12.659695068359374,4.385513782501221,-2.782716989517212,8.310460090637207
1781034516797212200,12.679212158203125,4.309271812438965,-2.743818998336792,8.363109588623047
1781034516816725500,12.6987255859375,4.137619972229004,-2.6635069847106934,8.475011825561523
1781034516836238600,12.718238525390625,4.137619972229004,-2.6635069847106934,8.475011825561523
1781034516855755000,12.737755126953125,4.048315048217773,-2.615048885345459,8.53303337097168
1781034516875274800,12.757274658203125,3.959439992904663,-2.5600059032440186,8.591227531433105
1781034516894794200,12.776794189453126,3.871380090713501,-2.4999868869781494,8.648842811584473
1781034516914314000,12.79631396484375,3.7845299243927,-2.4382519721984863,8.704726219177246
1781034516933837000,12.815837158203125,3.7007150650024414,-2.3783390522003174,8.757181167602539
1781034516953357300,12.835357421875,3.6208178997039795,-2.323028087615967,8.805294036865234
1781034516972876000,12.8548759765625,3.5446550846099854,-2.2742650508880615,8.848905563354492
1781034516992397800,12.874397705078126,3.4690449237823486,-2.2325799465179443,8.889392852783203
1781034517011919600,12.893919677734376,3.3918519020080566,-2.197840929031372,8.927756309509277
1781034517031438300,12.913438232421875,3.3134419918060303,-2.1691689491271973,8.964139938354492
1781034517050955500,12.93295556640625,3.234860897064209,-2.145627021789551,8.998441696166992
1781034517070475000,12.95247509765625,3.1575849056243896,-2.1269989013671875,9.030256271362305
1781034517090000400,12.97200048828125,3.0853021144866943,-2.113574981689453,9.058350563049316
1781034517109524000,12.99152392578125,3.0237579345703125,-2.1057260036468506,9.080903053283691
1781034517129047600,13.011047607421874,2.9786429405212402,-2.1032590866088867,9.096372604370117
1781034517148568600,13.030568603515626,2.951080083847046,-2.105410099029541,9.104854583740234
1781034517168091400,13.05009130859375,2.937290906906128,-2.1109070777893066,9.108039855957031
1781034517187616500,13.069616455078124,2.9312551021575928,-2.1183810234069824,9.10824966430664
1781034517207134500,13.089134521484375,2.9279439449310303,-2.1268489360809326,9.107340812683105
1781034517226652000,13.10865185546875,2.9241011142730713,-2.1365139484405518,9.10631275177002
1781034517246170600,13.128170654296875,2.9195029735565186,-2.149106025695801,9.104825019836426
1781034517265689300,13.147689453125,2.9156079292297363,-2.1656858921051025,9.102143287658691
1781034517285208300,13.167208251953125,2.9130630493164062,-2.1872429847717285,9.097803115844727
1781034517304728800,13.186728759765625,2.9172608852386475,-2.2150259017944336,9.08973217010498
1781034517324248600,13.20624853515625,2.927401065826416,-2.249105930328369,9.078096389770508
1781034517343765800,13.225765869140625,2.940635919570923,-2.289889097213745,9.06361198425293
1781034517363286500,13.24528662109375,2.951383113861084,-2.33712100982666,9.048048973083496
1781034517382809300,13.264809326171875,2.9578120708465576,-2.3913590908050537,9.031763076782227
1781034517402333000,13.2843330078125,2.9623680114746094,-2.4533650875091553,9.01362133026123
1781034517421857800,13.30385791015625,2.9623959064483643,-2.522761106491089,8.994436264038086
1781034517441383700,13.3233837890625,2.962225914001465,-2.599292039871216,8.972675323486328
1781034517460913000,13.342912841796876,2.962225914001465,-2.599292039871216,8.972675323486328
1781034517480439300,13.362439208984375,2.9618239402770996,-2.682090997695923,8.948406219482422
1781034517499962400,13.38196240234375,2.9624478816986084,-2.769568920135498,8.921512603759766
1781034517519485200,13.401485107421875,2.9644570350646973,-2.8598990440368652,8.892298698425293
1781034517539009000,13.421009033203125,2.969327926635742,-3.0417559146881104,8.830107688903809
1781034517558535400,13.440535400390624,2.969327926635742,-3.0417559146881104,8.830107688903809
1781034517578057700,13.4600576171875,2.9735970497131348,-3.130964994430542,8.797430038452148
1781034517597576200,13.479576171875,2.982728958129883,-3.2170629501342773,8.763208389282227
1781034517617095200,13.49909521484375,3.0170750617980957,-3.3761239051818848,8.691319465637207
1781034517636618000,13.518617919921875,3.0170750617980957,-3.3761239051818848,8.691319465637207
1781034517656146400,13.538146484375,3.0399560928344727,-3.4483330249786377,8.654921531677246
1781034517675679200,13.55767919921875,3.0663270950317383,-3.515302896499634,8.618600845336914
1781034517695207700,13.577207763671876,3.0930910110473633,-3.5761868953704834,8.583919525146484
1781034517714726100,13.59672607421875,3.118602991104126,-3.6297149658203125,8.552162170410156
1781034517734243300,13.616243408203125,3.1425769329071045,-3.674751043319702,8.524106979370117
1781034517753766400,13.635766357421875,3.168581008911133,-3.7091588973999023,8.499542236328125
1781034517773288400,13.655288330078125,3.1978440284729004,-3.7338740825653076,8.477733612060547
1781034517792808000,13.674807861328125,3.23274302482605,-3.749613046646118,8.457528114318848
1781034517812328400,13.694328369140624,3.2717349529266357,-3.7580020427703857,8.438789367675781
1781034517831848200,13.71384814453125,3.3034400939941406,-3.7632930278778076,8.424066543579102
1781034517851369000,13.733368896484375,3.323470115661621,-3.7686939239501953,8.41376781463623
1781034517870889500,13.752889404296875,3.3266050815582275,-3.776776075363159,8.408903121948242
1781034517890408400,13.772408447265626,3.311368942260742,-3.7891829013824463,8.409335136413574
1781034517909928200,13.79192822265625,3.281512975692749,-3.806668996810913,8.413141250610352
1781034517929447200,13.811447265625,3.250214099884033,-3.8291730880737305,8.415078163146973
1781034517948961800,13.8309619140625,3.232508897781372,-3.855752944946289,8.409760475158691
1781034517968479500,13.8504794921875,3.2324740886688232,-3.8855679035186768,8.396039009094238
1781034517987998500,13.86999853515625,3.244291067123413,-3.9181199073791504,8.37632942199707
1781034518007522000,13.88952197265625,3.2592179775238037,-3.9519081115722656,8.354634284973145
1781034518027047200,13.909047119140626,3.2632648944854736,-3.986154079437256,8.336767196655273
1781034518046569500,13.928569580078126,3.245311975479126,-4.01955509185791,8.32773208618164
1781034518066089500,13.94808935546875,3.20409893989563,-4.048879146575928,8.329485893249512
1781034518085607200,13.967607177734376,3.140381097793579,-4.072054862976074,8.342443466186523
1781034518105128000,13.9871279296875,3.063370943069458,-4.087098121643066,8.36369514465332
1781034518124652500,14.006652587890626,2.981445074081421,-4.093790054321289,8.389986038208008
1781034518144178000,14.026177978515625,2.9050369262695312,-4.0926618576049805,8.417296409606934
1781034518163699700,14.04569970703125,2.832463026046753,-4.08586311340332,8.44528579711914
1781034518183222000,14.065221923828124,2.7614738941192627,-4.077302932739258,8.47288990020752
1781034518202743000,14.084742919921876,2.6890580654144287,-4.070898056030273,8.499220848083496
1781034518222260500,14.104260498046875,2.6131389141082764,-4.067984104156494,8.524259567260742
1781034518241778400,14.1237783203125,2.5282440185546875,-4.070217132568359,8.548761367797852
1781034518261298700,14.143298583984375,2.430685043334961,-4.076641082763672,8.573959350585938
1781034518280818000,14.16281787109375,2.3210840225219727,-4.086172103881836,8.599754333496094
1781034518300329700,14.182329833984374,2.199350118637085,-4.098351001739502,8.6259126663208
1781034518319846000,14.201845947265625,2.199350118637085,-4.098351001739502,8.6259126663208
1781034518339366100,14.2213662109375,1.926524043083191,-4.131887912750244,8.675021171569824
1781034518358878700,14.240878662109376,1.926524043083191,-4.131887912750244,8.675021171569824
1781034518378389200,14.26038916015625,1.926524043083191,-4.131887912750244,8.675021171569824
1781034518397906400,14.279906494140626,1.6158770322799683,-4.178521156311035,8.71601390838623
1781034518417425200,14.299425048828125,1.2908539772033691,-4.230618953704834,8.745030403137207
1781034518436935200,14.31893505859375,1.2908539772033691,-4.230618953704834,8.745030403137207
1781034518456446700,14.33844677734375,1.1338859796524048,-4.2502570152282715,8.7572603225708
1781034518475967200,14.35796728515625,0.9828799962997437,-4.260676860809326,8.770438194274902
1781034518495487700,14.37748779296875,0.8427450060844421,-4.259332180023193,8.785661697387695
1781034518515007200,14.39700732421875,0.7205439805984497,-4.242706775665283,8.804558753967285
1781034518534532400,14.416532470703125,0.620203971862793,-4.209465026855469,8.828123092651367
1781034518554057200,14.43605712890625,0.5320510268211365,-4.159555912017822,8.85748291015625
1781034518573577700,14.45557763671875,0.46355700492858887,-4.097060203552246,8.890398979187012
1781034518593095000,14.475094970703125,0.4283309876918793,-4.0279998779296875,8.923662185668945
1781034518612613000,14.494613037109374,0.4369159936904907,-3.965578079223633,8.95116138458252
1781034518632131600,14.514131591796875,0.49498799443244934,-3.920093059539795,8.968157768249512
1781034518651650000,14.533650146484375,0.5998250246047974,-3.896207094192505,8.972167015075684
1781034518671168500,14.55316845703125,0.7489569783210754,-3.8958370685577393,8.961111068725586
1781034518690681900,14.572681884765625,0.9363390207290649,-3.917588949203491,8.933966636657715
1781034518710190300,14.5921904296875,1.146049976348877,-3.957479953765869,8.891845703125
1781034518729700600,14.61170068359375,1.3643100261688232,-4.005374908447266,8.839435577392578
1781034518749215700,14.6312158203125,1.576550006866455,-4.054873943328857,8.781371116638184
1781034518768728600,14.650728515625,1.7705949544906616,-4.105947971343994,8.72044563293457
1781034518788241000,14.670240966796875,1.9316010475158691,-4.166118144989014,8.657504081726074
1781034518807756000,14.689756103515625,2.0587949752807617,-4.234994888305664,8.59454345703125
1781034518827271400,14.709271484375,2.1551079750061035,-4.3125739097595215,8.53212833404541
1781034518846787000,14.728787109375,2.236893892288208,-4.39703893661499,8.467723846435547
1781034518866305800,14.748305908203125,2.3242390155792236,-4.4845452308654785,8.398021697998047
1781034518885826000,14.767825927734375,2.4391040802001953,-4.570093154907227,8.318955421447754
1781034518905345800,14.787345703125,2.5938079357147217,-4.644863128662109,8.230273246765137
1781034518924863000,14.806863037109375,2.786259889602661,-4.708439826965332,8.13064193725586
1781034518944378000,14.826378173828125,3.013166904449463,-4.7605299949646,8.018614768981934
1781034518963890200,14.84589013671875,3.25646710395813,-4.8050079345703125,7.896030902862549
1781034518983400700,14.865400634765624,3.4877030849456787,-4.848537921905518,7.769659042358398
1781034519002912800,14.884912841796876,3.690635919570923,-4.8961100578308105,7.645083904266357
1781034519022428200,14.90442822265625,3.8654589653015137,-4.94852876663208,7.523979187011719
1781034519041948200,14.9239482421875,4.021073818206787,-5.009097099304199,7.4013447761535645
1781034519061469700,14.9434697265625,4.15963077545166,-5.077723026275635,7.276963233947754
1781034519080994300,14.962994384765626,4.15963077545166,-5.077723026275635,7.276963233947754
1781034519100520700,14.982520751953125,4.403684139251709,-5.238793849945068,7.014455795288086
1781034519120048400,15.00204833984375,4.5114359855651855,-5.331998825073242,6.874352931976318
1781034519139570400,15.0215703125,4.5114359855651855,-5.331998825073242,6.874352931976318
1781034519159090700,15.041090576171875,4.5114359855651855,-5.331998825073242,6.874352931976318
1781034519178614500,15.060614501953125,4.675262928009033,-5.52993106842041,6.60316276550293
1781034519198139100,15.08013916015625,4.724510192871094,-5.629373073577881,6.4829888343811035
1781034519217659400,15.099659423828125,4.7519211769104,-5.722561836242676,6.380558013916016
1781034519237180000,15.119179931640625,4.761957168579102,-5.803235054016113,6.299699783325195
1781034519256704500,15.13870458984375,4.763436794281006,-5.868603229522705,6.237720966339111
1781034519276223700,15.1582236328125,4.764942169189453,-5.922039985656738,6.185850143432617
1781034519295743000,15.177742919921876,4.768418788909912,-5.963982105255127,6.142727851867676
1781034519315263700,15.197263671875,4.776084899902344,-5.9956278800964355,6.105854034423828
1781034519334784300,15.2167841796875,4.787808895111084,-6.020679950714111,6.071926116943359
1781034519354306300,15.236306396484375,4.805692195892334,-6.0415730476379395,6.036946773529053
1781034519373824800,15.25582470703125,4.834456920623779,-6.054431915283203,6.000988960266113
1781034519393342500,15.275342529296875,4.8824782371521,-6.05068302154541,5.965789794921875
1781034519412864500,15.294864501953125,4.9475321769714355,-6.030060768127441,5.932981014251709
1781034519432386600,15.314386474609375,5.02621603012085,-5.993135929107666,5.904189109802246
1781034519451905500,15.333905517578126,5.107759952545166,-5.944753170013428,5.883083820343018
1781034519471424000,15.353424072265625,5.17505407333374,-5.893682956695557,5.87565279006958
1781034519490944000,15.372944091796874,5.213734149932861,-5.847929954528809,5.887162208557129
1781034519510464500,15.392464599609376,5.21317720413208,-5.816151142120361,5.919051170349121
1781034519529989600,15.41198974609375,5.171879768371582,-5.798492908477783,5.9723639488220215
1781034519549514000,15.431513916015625,5.094735145568848,-5.791728973388672,6.044795036315918
1781034519569036800,15.451036865234375,4.99196195602417,-5.7896552085876465,6.131900787353516
1781034519588558800,15.470558837890625,4.888998031616211,-5.780088901519775,6.223203182220459
1781034519608084500,15.49008447265625,4.804043769836426,-5.756385803222656,6.310719966888428
1781034519627609000,15.509609130859374,4.7423810958862305,-5.717695236206055,6.3920087814331055
1781034519647129900,15.5291298828125,4.704532146453857,-5.660820007324219,6.470122814178467
1781034519666649300,15.5486494140625,4.684761047363281,-5.588432788848877,6.546938896179199
1781034519686174200,15.56817431640625,4.676559925079346,-5.502495765686035,6.625129222869873
1781034519705704400,15.587704345703125,4.667966842651367,-5.407501220703125,6.708876132965088
1781034519725232400,15.607232421875,4.6511921882629395,-5.306705951690674,6.800386905670166
1781034519744755000,15.6267548828125,4.632461071014404,-5.2047529220581055,6.891359806060791
1781034519764276000,15.64627587890625,4.613274097442627,-5.1058268547058105,6.977694988250732
1781034519783799800,15.6657998046875,4.5948920249938965,-5.0118560791015625,7.057497024536133
1781034519803325000,15.685324951171875,4.580154895782471,-4.924178123474121,7.128438949584961
1781034519822851000,15.70485107421875,4.567911148071289,-4.843396186828613,7.191361904144287
1781034519842379000,15.72437890625,4.554262161254883,-4.769465923309326,7.249197959899902
1781034519861907200,15.7439072265625,4.5276007652282715,-4.698710918426514,7.311835765838623
1781034519881435000,15.763434814453126,4.485548973083496,-4.630462169647217,7.380967140197754
1781034519900961800,15.7829619140625,4.485548973083496,-4.630462169647217,7.380967140197754
1781034519920483300,15.8024833984375,4.425321102142334,-4.562405109405518,7.459288120269775
1781034519940000300,15.822000244140625,4.246065139770508,-4.425238132476807,7.643833160400391
1781034519959517000,15.841516845703126,4.246065139770508,-4.425238132476807,7.643833160400391
1781034519979036200,15.8610361328125,3.999774932861328,-4.28797721862793,7.852071762084961
1781034519998550800,15.88055078125,3.999774932861328,-4.28797721862793,7.852071762084961
1781034520018062600,15.9000625,3.7180159091949463,-4.155934810638428,8.058818817138672
1781034520037578800,15.919578857421875,3.7180159091949463,-4.155934810638428,8.058818817138672
1781034520057097200,15.93909716796875,3.575122117996216,-4.097235202789307,8.152984619140625
1781034520076618200,15.9586181640625,3.4407598972320557,-4.0445380210876465,8.236678123474121
1781034520096141600,15.9781416015625,3.321187973022461,-3.999000072479248,8.30768871307373
1781034520115661800,15.997661865234376,3.217082977294922,-3.960984945297241,8.366658210754395
1781034520135180500,16.0171806640625,3.128048896789551,-3.9306719303131104,8.414576530456543
1781034520154699500,16.036699462890624,3.0437428951263428,-3.9092319011688232,8.455384254455566
1781034520174218000,16.056218017578125,2.96264910697937,-3.8944199085235596,8.490948677062988
1781034520193735700,16.075735595703126,2.8751699924468994,-3.8846371173858643,8.525432586669922
1781034520213257500,16.095257568359376,2.7776288986206055,-3.877255916595459,8.561054229736328
1781034520232783400,16.114783447265626,2.6679670810699463,-3.870361089706421,8.598967552185059
1781034520252307200,16.13430712890625,2.5468928813934326,-3.8632099628448486,8.63880443572998
1781034520271830500,16.15383056640625,2.4240500926971436,-3.854965925216675,8.677742004394531
1781034520291357200,16.173357177734374,2.3024399280548096,-3.8465380668640137,8.714523315429688
1781034520310881800,16.1928818359375,2.1856460571289062,-3.8394570350646973,8.747657775878906
1781034520330405600,16.212405517578127,2.075993061065674,-3.8355391025543213,8.776040077209473
1781034520349932000,16.23193212890625,1.9754910469055176,-3.836150884628296,8.798941612243652
1781034520369459200,16.251459228515625,1.8866519927978516,-3.8410589694976807,8.816280364990234
1781034520388987600,16.270987548828124,1.810845971107483,-3.8482730388641357,8.829022407531738
1781034520408515600,16.290515625,1.7479209899902344,-3.855634927749634,8.83848762512207
1781034520428040200,16.310040283203126,1.6977150440216064,-3.861496925354004,8.845710754394531
1781034520447561200,16.329561279296875,1.6610690355300903,-3.864737033843994,8.851251602172852
1781034520467078000,16.349077880859376,1.6356090307235718,-3.8657279014587402,8.855559349060059
1781034520486597600,16.36859765625,1.6154600381851196,-3.866199016571045,8.859051704406738
1781034520506122800,16.388122802734376,1.5963150262832642,-3.869887113571167,8.86091136932373
1781034520525646300,16.407646240234374,1.5765620470046997,-3.879297971725464,8.860331535339355
1781034520545173500,16.427173583984374,1.5539319515228271,-3.8950328826904297,8.857426643371582
1781034520564699100,16.44669921875,1.5327479839324951,-3.9183850288391113,8.850815773010254
1781034520584217300,16.46621728515625,1.514206051826477,-3.9491970539093018,8.840306282043457
1781034520603739100,16.4857392578125,1.5023770332336426,-3.9859769344329834,8.8258056640625
1781034520623261400,16.505261474609377,1.4988939762115479,-4.0260090827941895,8.808210372924805
1781034520642780400,16.524780517578126,1.5057339668273926,-4.066893100738525,8.788238525390625
1781034520662302200,16.54430224609375,1.5229909420013428,-4.108367919921875,8.765945434570312
1781034520681827000,16.5638271484375,1.5438640117645264,-4.149345874786377,8.742962837219238
1781034520701350000,16.583349853515625,1.566431999206543,-4.189035892486572,8.719991683959961
1781034520720872200,16.6028720703125,1.5870699882507324,-4.226673126220703,8.69806957244873
1781034520740391700,16.6223916015625,1.5870699882507324,-4.226673126220703,8.69806957244873
1781034520759910700,16.64191064453125,1.6186740398406982,-4.292600154876709,8.659876823425293
1781034520779430700,16.6614306640625,1.6186740398406982,-4.292600154876709,8.659876823425293
1781034520798950000,16.680949951171876,1.633147954940796,-4.3499979972839355,8.628461837768555
1781034520818469600,16.7004697265625,1.633147954940796,-4.3499979972839355,8.628461837768555
1781034520837987000,16.719987060546874,1.6352070569992065,-4.378334045410156,8.613726615905762
1781034520857504300,16.739504150390626,1.6348049640655518,-4.40765380859375,8.598836898803711
1781034520877027600,16.759027587890625,1.6321990489959717,-4.437842845916748,8.583791732788086
1781034520896554200,16.77855419921875,1.6294540166854858,-4.4680399894714355,8.568634033203125
1781034520916079600,16.79807958984375,1.6276930570602417,-4.495942115783691,8.554363250732422
1781034520935606500,16.8176064453125,1.6287180185317993,-4.520400047302246,8.541268348693848
1781034520955130400,16.83713037109375,1.6325949430465698,-4.540102958679199,8.530070304870605
1781034520974652000,16.85665185546875,1.6392619609832764,-4.555552005767822,8.520549774169922
1781034520994174700,16.8761748046875,1.6487679481506348,-4.567947864532471,8.51207447052002
1781034521013698000,16.895697998046874,1.6608010530471802,-4.578139781951904,8.504255294799805
1781034521033218300,16.91521826171875,1.6608010530471802,-4.578139781951904,8.504255294799805
1781034521052737300,16.9347373046875,1.708055019378662,-4.585296154022217,8.491031646728516
1781034521072260900,16.9542607421875,1.7540229558944702,-4.57977294921875,8.484638214111328
1781034521091786200,16.9737861328125,1.8224990367889404,-4.565540790557861,8.477872848510742
1781034521111308800,16.993308837890623,1.9151320457458496,-4.542356967926025,8.469902992248535
1781034521130832100,17.01283203125,2.0295400619506836,-4.511622905731201,8.45968246459961
1781034521150354000,17.03235400390625,2.1499009132385254,-4.478750228881836,8.447409629821777
1781034521169873200,17.051873046875,2.2743051052093506,-4.443533897399902,8.433417320251465
1781034521189395000,17.07139501953125,2.3902790546417236,-4.408454895019531,8.419743537902832
1781034521208918000,17.09091796875,2.493338108062744,-4.374229907989502,8.407697677612305
1781034521228439600,17.110439453125,2.5817339420318604,-4.340699195861816,8.398391723632812
1781034521247961900,17.1299619140625,2.6557629108428955,-4.307436943054199,8.392431259155273
1781034521267480800,17.149480712890625,2.72235107421875,-4.2734270095825195,8.388482093811035
1781034521287001300,17.16900146484375,2.780435085296631,-4.240248203277588,8.386265754699707
1781034521306524200,17.188524169921877,2.8242859840393066,-4.210346221923828,8.386677742004395
1781034521326043400,17.20804345703125,2.854404926300049,-4.18518590927124,8.389076232910156
1781034521345561300,17.227561279296875,2.8697540760040283,-4.165627956390381,8.393572807312012
1781034521365079000,17.2470791015625,2.8706469535827637,-4.150965213775635,8.400527954101562
1781034521384600000,17.26660009765625,2.8568360805511475,-4.139100074768066,8.411084175109863
1781034521404121300,17.286121337890624,2.8301749229431152,-4.128606796264648,8.42524242401123
1781034521423644400,17.30564453125,2.7970969676971436,-4.116323947906494,8.442281723022461
1781034521443168500,17.32516845703125,2.758970022201538,-4.10134220123291,8.462096214294434
1781034521462687700,17.344687744140625,2.7181990146636963,-4.082974910736084,8.48414421081543
1781034521482204700,17.36420458984375,2.6763789653778076,-4.060884952545166,8.508008003234863
1781034521501725200,17.38372509765625,2.6364669799804688,-4.035155773162842,8.532674789428711
1781034521521249800,17.403249755859374,2.6364669799804688,-4.035155773162842,8.532674789428711
1781034521540772900,17.42277294921875,2.5691070556640625,-3.962735891342163,8.586991310119629
1781034521560297000,17.442296875,2.540889024734497,-3.9161009788513184,8.616729736328125
1781034521579822000,17.461822021484377,2.540889024734497,-3.9161009788513184,8.616729736328125
1781034521599345700,17.481345703125,2.490885019302368,-3.7969179153442383,8.684405326843262
1781034521618866400,17.500866455078125,2.490885019302368,-3.7969179153442383,8.684405326843262
1781034521638386400,17.520386474609374,2.459336996078491,-3.7300119400024414,8.722308158874512
1781034521657906000,17.539906005859375,2.417124032974243,-3.664565086364746,8.761761665344238
1781034521677425000,17.5594248046875,2.3526880741119385,-3.604296922683716,8.804198265075684
1781034521696946000,17.57894580078125,2.261918067932129,-3.553813934326172,8.848397254943848
1781034521716471000,17.598470947265625,2.143057107925415,-3.515031099319458,8.893359184265137
1781034521735997700,17.617997802734376,2.0011448860168457,-3.4855310916900635,8.9379243850708
1781034521755524900,17.63752490234375,1.8529620170593262,-3.459192991256714,8.980006217956543
1781034521775051800,17.6570517578125,1.7134310007095337,-3.4348371028900146,9.016986846923828
1781034521794572500,17.676572509765624,1.5980559587478638,-3.408914089202881,9.047956466674805
1781034521814094600,17.696094482421874,1.5136510133743286,-3.3788859844207764,9.073697090148926
1781034521833618200,17.7156181640625,1.5136510133743286,-3.3788859844207764,9.073697090148926
1781034521853137000,17.735136962890625,1.452767014503479,-3.30330491065979,9.111401557922363
1781034521872657700,17.75465771484375,1.4665759801864624,-3.2600810527801514,9.124748229980469
1781034521892179500,17.774179443359376,1.5011650323867798,-3.2154250144958496,9.134963035583496
1781034521911700200,17.7937001953125,1.5654939413070679,-3.1708760261535645,9.139735221862793
1781034521931219200,17.81321923828125,1.6618260145187378,-3.128174066543579,9.137442588806152
1781034521950737400,17.8327373046875,1.7889659404754639,-3.0895309448242188,9.12657642364502
1781034521970256000,17.852255859375,1.9489079713821411,-3.05720591545105,9.104682922363281
1781034521989768700,17.871768798828125,2.1383299827575684,-3.0325679779052734,9.070341110229492
1781034522009288700,17.891288818359374,2.3503708839416504,-3.016961097717285,9.022954940795898
1781034522028813000,17.91081298828125,2.573551893234253,-3.0108768939971924,8.963896751403809
1781034522048334300,17.930334228515626,2.800740957260132,-3.014686107635498,8.894240379333496
1781034522067856100,17.949856201171876,3.0246429443359375,-3.0286600589752197,8.815823554992676
1781034522087381200,17.96938134765625,3.238358974456787,-3.0529890060424805,8.731110572814941
1781034522106904800,17.98890478515625,3.4375109672546387,-3.0888071060180664,8.64192008972168
1781034522126423300,18.00842333984375,3.6197400093078613,-3.138434886932373,8.549134254455566
1781034522145943000,18.027943115234375,3.785973072052002,-3.1993649005889893,8.454021453857422
1781034522165468200,18.04746826171875,3.9382259845733643,-3.271122932434082,8.356440544128418
1781034522184994300,18.066994384765625,4.078744888305664,-3.3530828952789307,8.255948066711426
1781034522204517400,18.086517333984375,4.210746765136719,-3.444056987762451,8.151569366455078
1781034522224043000,18.10604296875,4.336383819580078,-3.542396068572998,8.042835235595703
1781034522243568000,18.125568115234376,4.459338188171387,-3.6428020000457764,7.929961204528809
1781034522263089000,18.1450888671875,4.581949234008789,-3.7437539100646973,7.812171936035156
1781034522282611000,18.16461083984375,4.707880973815918,-3.8408560752868652,7.689191818237305
1781034522302131000,18.184130859375,4.838708877563477,-3.9302380084991455,7.561752796173096
1781034522321649700,18.203649658203126,4.973230838775635,-4.010810852050781,7.431039810180664
1781034522341168000,18.223168212890624,4.973230838775635,-4.010810852050781,7.431039810180664
1781034522360688000,18.242688232421877,5.234393119812012,-4.146602153778076,7.172643184661865
1781034522380213800,18.2622138671875,5.349616050720215,-4.207956790924072,7.050864219665527
1781034522399741200,18.2817412109375,5.349616050720215,-4.207956790924072,7.050864219665527
1781034522419266300,18.301266357421873,5.536170959472656,-4.331212997436523,6.828718185424805
1781034522438789600,18.32078955078125,5.536170959472656,-4.331212997436523,6.828718185424805
1781034522458312400,18.3403125,5.536170959472656,-4.331212997436523,6.828718185424805
1781034522477833200,18.359833251953123,5.664858818054199,-4.459693908691406,6.637807846069336
1781034522497352400,18.3793525390625,5.715503215789795,-4.521282196044922,6.552175998687744
1781034522516875300,18.398875244140626,5.758531093597412,-4.578158855438232,6.474547863006592
1781034522536402000,18.41840185546875,5.792769908905029,-4.629502773284912,6.407145977020264
1781034522555929000,18.43792919921875,5.820870876312256,-4.672399044036865,6.350287914276123
1781034522575457800,18.457457763671876,5.841882228851318,-4.707043170928955,6.305247783660889
1781034522594985500,18.4769853515625,5.857446193695068,-4.732128143310547,6.271944999694824
1781034522614513200,18.49651318359375,5.870518207550049,-4.746175765991211,6.24906587600708
1781034522634041900,18.516041748046874,5.870518207550049,-4.746175765991211,6.24906587600708
1781034522653567200,18.535567138671876,5.897823810577393,-4.7359771728515625,6.2310662269592285
1781034522673090000,18.555090087890626,5.914445877075195,-4.7121357917785645,6.23338508605957
1781034522692613400,18.57461328125,5.934177875518799,-4.676511764526367,6.241454124450684
1781034522712137500,18.594137451171875,5.9566521644592285,-4.6298909187316895,6.254790782928467
1781034522731666700,18.613666748046874,5.9802398681640625,-4.573768138885498,6.273543834686279
1781034522751197700,18.63319775390625,6.001755237579346,-4.511627197265625,6.297947883605957
1781034522770725400,18.652725341796874,6.018019199371338,-4.444674015045166,6.329954147338867
1781034522790252500,18.67225244140625,6.025643825531006,-4.3743791580200195,6.371530055999756
1781034522809784800,18.691784912109377,6.021711826324463,-4.3010969161987305,6.424915790557861
1781034522829319400,18.7113193359375,6.003909111022949,-4.225549221038818,6.491364002227783
1781034522848854800,18.730854736328126,5.97109317779541,-4.148820877075195,6.5706400871276855
1781034522868390000,18.750389892578124,5.922224044799805,-4.071355819702148,6.662680149078369
1781034522887918300,18.76991845703125,5.856372833251953,-3.9936959743499756,6.767073154449463
1781034522907442400,18.7894423828125,5.7741379737854,-3.9163029193878174,6.881998062133789
1781034522926967800,18.8089677734375,5.677645206451416,-3.838984966278076,7.004749774932861
1781034522946494500,18.828494384765627,5.5714921951293945,-3.76159405708313,7.130839824676514
1781034522966021000,18.848021240234374,5.457801818847656,-3.683403968811035,7.258437156677246
1781034522985547500,18.867547607421876,5.340127944946289,-3.6032419204711914,7.385097980499268
1781034523005076500,18.887076416015624,5.220411777496338,-3.521826982498169,7.5089287757873535
1781034523024607500,18.906607421875,5.10041618347168,-3.439023017883301,7.628818035125732
1781034523044136400,18.926136474609375,4.978830814361572,-3.3576290607452393,7.744517803192139
1781034523063662300,18.945662353515626,4.852124214172363,-3.2772250175476074,7.858541011810303
1781034523083183400,18.965183349609376,4.719934940338135,-3.196587085723877,7.971452236175537
1781034523102706200,18.9847060546875,4.58085823059082,-3.1161060333251953,8.083663940429688
1781034523122235400,19.0042353515625,4.436264991760254,-3.0363879203796387,8.193893432617188
1781034523141762600,19.023762451171876,4.2866010665893555,-2.9597558975219727,8.300895690917969
1781034523161287200,19.043287109375,4.133995056152344,-2.887010097503662,8.403287887573242
1781034523180809700,19.062809814453125,4.133995056152344,-2.887010097503662,8.403287887573242
1781034523200332000,19.08233203125,3.8316988945007324,-2.760885000228882,8.586942672729492
1781034523219857000,19.10185693359375,3.8316988945007324,-2.760885000228882,8.586942672729492
1781034523239379000,19.12137890625,3.682183027267456,-2.7147738933563232,8.666690826416016
1781034523258900500,19.140900390625,3.390263080596924,-2.6553170680999756,8.803147315979004
1781034523278427000,19.160427001953124,3.390263080596924,-2.6553170680999756,8.803147315979004
1781034523297958000,19.1799580078125,3.2514169216156006,-2.6386489868164062,8.860350608825684
1781034523317490000,19.199489990234376,3.1181180477142334,-2.628571033477783,8.911113739013672
1781034523337018000,19.21901806640625,2.993058919906616,-2.623624086380005,8.955344200134277
1781034523356543700,19.238543701171874,2.878070116043091,-2.618501901626587,8.994452476501465
1781034523376068600,19.258068603515625,2.776772975921631,-2.612051010131836,9.028107643127441
1781034523395592400,19.277592529296875,2.692979097366333,-2.6024649143218994,9.056215286254883
1781034523415116500,19.297116455078125,2.6281440258026123,-2.5894179344177246,9.078973770141602
1781034523434640400,19.316640380859376,2.582703113555908,-2.5733470916748047,9.096567153930664
1781034523454167600,19.33616748046875,2.557218074798584,-2.5546159744262695,9.109038352966309
1781034523473696300,19.3556962890625,2.552072048187256,-2.5339479446411133,9.116250991821289
1781034523493221600,19.3752216796875,2.566365957260132,-2.512265920639038,9.11823844909668
1781034523512743000,19.394742919921875,2.597493886947632,-2.490061044692993,9.11551570892334
1781034523532263400,19.414263427734376,2.641386032104492,-2.4676930904388428,9.108983039855957
1781034523551786500,19.433786376953126,2.693242073059082,-2.445420026779175,9.099800109863281
1781034523571309300,19.453309326171876,2.748931884765625,-2.4232540130615234,9.089070320129395
1781034523590834000,19.472833984375,2.804353952407837,-2.4014739990234375,9.077913284301758
1781034523610361900,19.49236181640625,2.8551979064941406,-2.3808488845825195,9.06749153137207
1781034523629890600,19.511890625,2.8982269763946533,-2.362394094467163,9.058663368225098
1781034523649418000,19.53141796875,2.931688070297241,-2.3469650745391846,9.05190372467041
1781034523668940300,19.550940185546875,2.9559459686279297,-2.336664915084839,9.046677589416504
1781034523688466000,19.5704658203125,2.971813917160034,-2.3355109691619873,9.041775703430176
1781034523707992300,19.589992431640624,2.9812750816345215,-2.3464550971984863,9.035825729370117
1781034523727517200,19.60951708984375,2.9871370792388916,-2.371619939804077,9.027316093444824
1781034523747046700,19.629046630859374,2.992487907409668,-2.4131040573120117,9.01453971862793
1781034523766574800,19.648574951171874,3.000044107437134,-2.472126007080078,8.996017456054688
1781034523786098200,19.66809814453125,3.0068559646606445,-2.5492019653320312,8.972200393676758
1781034523805623800,19.687623779296874,3.012303113937378,-2.6417129039764404,8.943567276000977
1781034523825152300,19.70715234375,3.012176990509033,-2.7450690269470215,8.91242790222168
1781034523844678400,19.726678466796876,3.0024380683898926,-2.855562925338745,8.880941390991211
1781034523864196400,19.7461962890625,2.9798460006713867,-2.9693260192871094,8.85119342803955
1781034523883713800,19.7657138671875,2.941206932067871,-3.0826430320739746,8.825339317321777
1781034523903231700,19.785231689453123,2.890589952468872,-3.191287040710449,8.803418159484863
1781034523922752500,19.80475244140625,2.832418918609619,-3.2919681072235107,8.785234451293945
1781034523942280000,19.824280029296876,2.7749369144439697,-3.3838329315185547,8.768659591674805
1781034523961808400,19.843808349609375,2.7246289253234863,-3.466494083404541,8.752131462097168
1781034523981337600,19.863337646484375,2.690139055252075,-3.539557933807373,8.733537673950195
1781034524000862700,19.88286279296875,2.690139055252075,-3.539557933807373,8.733537673950195
1781034524020385500,19.902385498046876,2.6789588928222656,-3.653223991394043,8.690059661865234
1781034524039910000,19.921909912109374,2.6999669075012207,-3.6954500675201416,8.665669441223145
1781034524059439400,19.941439453125,2.6999669075012207,-3.6954500675201416,8.665669441223145
1781034524078972700,19.96097265625,2.6999669075012207,-3.6954500675201416,8.665669441223145
1781034524098500400,19.980500244140625,2.785367012023926,-3.7664759159088135,8.607867240905762
1781034524118023400,20.0000234375,2.8409199714660645,-3.80074405670166,8.5745849609375
1781034524137547800,20.0195478515625,2.9019100666046143,-3.840456962585449,8.536381721496582
1781034524157077500,20.039077392578125,2.9672980308532715,-3.8855020999908447,8.493410110473633
1781034524176608800,20.05860888671875,3.0263419151306152,-3.936444044113159,8.449003219604492
1781034524196136400,20.078136474609376,3.0701189041137695,-3.9839329719543457,8.410865783691406
1781034524215670500,20.09767041015625,3.0986509323120117,-4.026797771453857,8.379931449890137
1781034524235202300,20.117202392578125,3.110114097595215,-4.061952114105225,8.358692169189453
1781034524254728400,20.136728515625,3.1040360927581787,-4.089755058288574,8.347387313842773
1781034524274258400,20.156258544921876,3.0817880630493164,-4.118389129638672,8.34154987335205
1781034524293790200,20.175790283203124,3.0566298961639404,-4.148759841918945,8.335755348205566
1781034524313320700,20.19532080078125,3.044558048248291,-4.185298919677734,8.321894645690918
1781034524332846000,20.21484619140625,3.0465118885040283,-4.22711706161499,8.300013542175293
1781034524352366600,20.23436669921875,3.061755895614624,-4.272179126739502,8.271284103393555
1781034524371890200,20.25389013671875,3.08670711517334,-4.316514015197754,8.23892879486084
1781034524391417300,20.273417236328125,3.118872880935669,-4.350021839141846,8.209136962890625
1781034524410944300,20.2929443359375,3.15287709236145,-4.369697093963623,8.185665130615234
1781034524430468600,20.312468505859375,3.1722609996795654,-4.374855041503906,8.1754150390625
1781034524449989600,20.33198974609375,3.1785049438476562,-4.360476970672607,8.180668830871582
1781034524469511200,20.35151123046875,3.172797918319702,-4.3293070793151855,8.199417114257812
1781034524489029600,20.371029541015623,3.1574549674987793,-4.2854509353637695,8.228327751159668
1781034524508548000,20.390548095703124,3.1326780319213867,-4.234156131744385,8.264273643493652
1781034524528065800,20.410065673828125,3.0976150035858154,-4.18186092376709,8.304022789001465
1781034524547586000,20.4295859375,3.0573370456695557,-4.135142803192139,8.34225845336914
1781034524567112000,20.44911181640625,3.007143974304199,-4.104620933532715,8.375510215759277
1781034524586636500,20.468636474609376,2.940351963043213,-4.092449188232422,8.40512752532959
1781034524606155000,20.488155029296873,2.855984926223755,-4.099002838134766,8.430985450744629
1781034524625667600,20.50766748046875,2.7551379203796387,-4.118982791900635,8.454771995544434
1781034524645184300,20.527184326171874,2.6387739181518555,-4.147986888885498,8.477680206298828
1781034524664702500,20.546702392578126,2.5085060596466064,-4.176787853240967,8.503047943115234
1781034524684216000,20.566216064453126,2.368828058242798,-4.201760768890381,8.530759811401367
1781034524703731500,20.5857314453125,2.2277109622955322,-4.217806816101074,8.560806274414062
1781034524723249000,20.605248779296875,2.0892651081085205,-4.220694065093994,8.59422492980957
1781034524742764000,20.624763916015624,1.9583319425582886,-4.21274995803833,8.628885269165039
1781034524762282500,20.644282470703125,1.8494360446929932,-4.197306156158447,8.660381317138672
1781034524781800200,20.66380029296875,1.774873971939087,-4.188558101654053,8.680195808410645
1781034524801319200,20.683319091796875,1.7371799945831299,-4.188870906829834,8.687666893005371
1781034524820841700,20.702841796875,1.7371799945831299,-4.188870906829834,8.687666893005371
1781034524840359700,20.722359619140626,1.7772380113601685,-4.2168121337890625,8.666020393371582
1781034524859877600,20.741877685546875,1.851511001586914,-4.228291034698486,8.644851684570312
1781034524879395800,20.761395751953124,1.851511001586914,-4.228291034698486,8.644851684570312
1781034524898915800,20.780915771484374,2.090816020965576,-4.19137716293335,8.608184814453125
1781034524918438700,20.800438720703124,2.090816020965576,-4.19137716293335,8.608184814453125
1781034524937961500,20.81996142578125,2.38146710395813,-4.0361008644104,8.60688591003418
1781034524957484500,20.839484619140624,2.38146710395813,-4.0361008644104,8.60688591003418
1781034524977006600,20.859006591796874,2.5387299060821533,-3.9148659706115723,8.617926597595215
1781034524996526800,20.87852685546875,2.701508045196533,-3.778769016265869,8.629180908203125
1781034525016050000,20.8980498046875,3.0255470275878906,-3.5030341148376465,8.63798713684082
1781034525035571700,20.91757177734375,3.0255470275878906,-3.5030341148376465,8.63798713684082
1781034525055089200,20.937089111328124,3.2014169692993164,-3.384265899658203,8.621930122375488
1781034525074609700,20.956609619140625,3.388577938079834,-3.286457061767578,8.588174819946289
1781034525094136300,20.97613623046875,3.5960099697113037,-3.212368965148926,8.531669616699219
1781034525113660700,20.99566064453125,3.8216190338134766,-3.16098690032959,8.45241928100586
1781034525133178000,21.01517822265625,4.061584949493408,-3.1276140213012695,8.352337837219238
1781034525152696600,21.034696533203125,4.305304050445557,-3.109787940979004,8.236112594604492
1781034525172217300,21.05421728515625,4.552247047424316,-3.0965030193328857,8.107324600219727
1781034525191737000,21.073737060546875,4.797637939453125,-3.089181900024414,7.967410087585449
1781034525211254300,21.093254150390624,5.03224515914917,-3.0921740531921387,7.820162773132324
1781034525230774300,21.112774169921874,5.254872798919678,-3.1077990531921387,7.666022777557373
1781034525250297900,21.1322978515625,5.464996814727783,-3.1369550228118896,7.505552768707275
1781034525269820200,21.151820068359374,5.662182807922363,-3.1792190074920654,7.339770793914795
1781034525289341700,21.171341796875,5.847662925720215,-3.2310569286346436,7.169734954833984
1781034525308863000,21.190863037109374,6.023749828338623,-3.2865779399871826,6.996629238128662
1781034525328384300,21.21038427734375,6.191758155822754,-3.339777946472168,6.822609901428223
1781034525347904800,21.22990478515625,6.353508949279785,-3.3851048946380615,6.649357795715332
1781034525367427000,21.249427001953126,6.511081218719482,-3.418621063232422,6.477563858032227
1781034525386950100,21.2689501953125,6.665507793426514,-3.438668966293335,6.3076581954956055
1781034525406472200,21.28847216796875,6.8158860206604,-3.4460809230804443,6.140700817108154
1781034525425997300,21.307997314453125,6.962592124938965,-3.443613052368164,5.9752678871154785
1781034525445521000,21.32752099609375,7.105228900909424,-3.4330830574035645,5.811165809631348
1781034525465036000,21.3470361328125,7.242903232574463,-3.418534994125366,5.6474738121032715
1781034525484555500,21.366555419921873,7.3685431480407715,-3.4078269004821777,5.48919677734375
1781034525504076800,21.386076904296875,7.483242034912109,-3.4020140171051025,5.335484981536865
1781034525523598000,21.40559814453125,7.584405899047852,-3.406330108642578,5.187840938568115
1781034525543121200,21.42512109375,7.671451091766357,-3.4209680557250977,5.048346042633057
1781034525562647800,21.444647705078125,7.7456560134887695,-3.4471778869628906,4.91546106338501
1781034525582175700,21.46417578125,7.808612823486328,-3.481626033782959,4.78997278213501
1781034525601700400,21.483700439453123,7.866517066955566,-3.516279935836792,4.668371200561523
1781034525621229000,21.50322900390625,7.866517066955566,-3.516279935836792,4.668371200561523
1781034525640753700,21.522753662109373,7.919094085693359,-3.5509490966796875,4.5517802238464355
1781034525660272400,21.5422724609375,8.020899772644043,-3.593614101409912,4.334871768951416
1781034525679794700,21.561794677734376,8.067723274230957,-3.599771022796631,4.2418742179870605
1781034525699316700,21.581316650390626,8.067723274230957,-3.599771022796631,4.2418742179870605
1781034525718839600,21.600839599609376,8.067723274230957,-3.599771022796631,4.2418742179870605
1781034525738364700,21.62036474609375,8.133455276489258,-3.5879058837890625,4.124782085418701
1781034525757887700,21.6398876953125,8.15216064453125,-3.5704379081726074,4.10295295715332
1781034525777411800,21.659411865234375,8.160353660583496,-3.5477359294891357,4.106358051300049
1781034525796936700,21.678936767578126,8.15723705291748,-3.5179169178009033,4.138082981109619
1781034525816462000,21.698462158203125,8.127838134765625,-3.4235999584198,4.2728447914123535
1781034525835988500,21.717988525390624,8.127838134765625,-3.4235999584198,4.2728447914123535
1781034525855511000,21.737510986328125,8.105730056762695,-3.356812000274658,4.366799831390381
1781034525875035600,21.75703564453125,8.077336311340332,-3.2796289920806885,4.476679801940918
1781034525894557400,21.776557373046874,8.04031753540039,-3.1970839500427246,4.601296901702881
1781034525914078000,21.796077880859375,7.9925642013549805,-3.115480899810791,4.73842716217041
1781034525933606700,21.815606689453126,7.932762145996094,-3.040998935699463,4.885037899017334
1781034525953130500,21.835130615234377,7.858391761779785,-2.9796290397644043,5.04058313369751
1781034525972650500,21.854650390625,7.767518997192383,-2.9337270259857178,5.205659866333008
1781034525992171500,21.874171630859376,7.658793926239014,-2.9028520584106445,5.381105899810791
1781034526011692800,21.89369287109375,7.533134937286377,-2.883800983428955,5.565567970275879
1781034526031214300,21.91321435546875,7.392183780670166,-2.873342990875244,5.756691932678223
1781034526050736000,21.932736083984373,7.237415790557861,-2.8685550689697266,5.952408790588379
1781034526070256000,21.952256103515627,7.070638179779053,-2.866705894470215,6.150452136993408
1781034526089775000,21.971775146484376,6.893803119659424,-2.86594295501709,6.348373889923096
1781034526109293600,21.99129345703125,6.709658145904541,-2.8650588989257812,6.543082237243652
1781034526128814000,22.01081396484375,6.521062850952148,-2.862473964691162,6.7321600914001465
1781034526148338700,22.030338623046877,6.32884407043457,-2.856822967529297,6.915511131286621
1781034526167869200,22.049869140625,6.131641864776611,-2.8487141132354736,7.09420919418335
1781034526187400700,22.069400634765625,5.928067207336426,-2.8383960723876953,7.2692179679870605
1781034526206926800,22.0889267578125,5.718845844268799,-2.8247580528259277,7.440130233764648
1781034526226448600,22.10844873046875,5.5047101974487305,-2.8088200092315674,7.605832099914551
1781034526245972500,22.127972412109376,5.286026954650879,-2.7923951148986816,7.765336036682129
1781034526265496300,22.147496337890626,5.0629730224609375,-2.7761690616607666,7.918281078338623
1781034526285017900,22.167017822265624,4.838045120239258,-2.7617390155792236,8.062636375427246
1781034526304542000,22.1865419921875,4.6251540184021,-2.7502601146698,8.190483093261719
1781034526324069400,22.2060693359375,4.424627780914307,-2.742753028869629,8.303010940551758
1781034526343593700,22.22559375,4.2366461753845215,-2.739448070526123,8.401561737060547
1781034526363116300,22.2451162109375,4.061395168304443,-2.740025043487549,8.487480163574219
1781034526382645800,22.264645751953125,3.900818109512329,-2.745347023010254,8.560763359069824
1781034526402172000,22.284171875,3.755556106567383,-2.7539079189300537,8.622748374938965
1781034526421693200,22.303693115234374,3.6133980751037598,-2.7643070220947266,8.679974555969238
1781034526441216800,22.323216796875,3.6133980751037598,-2.7643070220947266,8.679974555969238
1781034526460741000,22.3427412109375,3.4736900329589844,-2.7751240730285645,8.733394622802734
1781034526480264000,22.362263916015625,3.3342559337615967,-2.7841920852661133,8.784703254699707
1781034526499785200,22.38178515625,3.193655014038086,-2.789639949798584,8.835070610046387
1781034526519307500,22.4013076171875,3.193655014038086,-2.789639949798584,8.835070610046387
1781034526538827000,22.420826904296874,2.9072930812835693,-2.784632921218872,8.934958457946777
1781034526558344700,22.4403447265625,2.9072930812835693,-2.784632921218872,8.934958457946777
1781034526577868300,22.459868408203125,2.633436918258667,-2.7641239166259766,9.025775909423828
1781034526597397000,22.47939697265625,2.513477087020874,-2.7545530796051025,9.06282901763916
1781034526616924000,22.498923828125,2.324652910232544,-2.7543840408325195,9.113141059875488
1781034526636443100,22.518443115234376,2.324652910232544,-2.7543840408325195,9.113141059875488
1781034526655958500,22.53795849609375,2.266972064971924,-2.7670960426330566,9.123815536499023
1781034526675477800,22.557477783203126,2.235093116760254,-2.788465976715088,9.125175476074219
1781034526695002000,22.577002197265625,2.224951982498169,-2.820725917816162,9.117734909057617
1781034526714525400,22.596525390625,2.2306299209594727,-2.863914966583252,9.102872848510742
1781034526734050300,22.61605029296875,2.245594024658203,-2.917407989501953,9.082181930541992
1781034526753573000,22.635572998046875,2.2668991088867188,-2.9814369678497314,9.056058883666992
1781034526773086200,22.655086181640623,2.2800240516662598,-3.0537850856781006,9.028614044189453
1781034526792601300,22.674601318359375,2.2818710803985596,-3.1316020488739014,9.001450538635254
1781034526812121600,22.69412158203125,2.2710070610046387,-3.2107620239257812,8.976275444030762
1781034526831638800,22.713638671875,2.247391939163208,-3.286539077758789,8.954768180847168
1781034526851152600,22.733152587890626,2.2128560543060303,-3.3554189205169678,8.937808990478516
1781034526870669800,22.752669921875,2.168539047241211,-3.416050910949707,8.925695419311523
1781034526890186500,22.7721865234375,2.1158909797668457,-3.4692459106445312,8.917808532714844
1781034526909700000,22.7917001953125,2.0578320026397705,-3.5169930458068848,8.912692070007324
1781034526929216800,22.811216796875,1.9967329502105713,-3.561367988586426,8.908967971801758
1781034526948734200,22.830734130859376,1.9354870319366455,-3.6045079231262207,8.905134201049805
1781034526968252000,22.850251953125,1.8763220310211182,-3.647634983062744,8.90023422241211
1781034526987773000,22.86977294921875,1.820647954940796,-3.6907479763031006,8.894021034240723
1781034527007292700,22.889292724609376,1.7695839405059814,-3.733499050140381,8.886481285095215
1781034527026813400,22.9088134765625,1.723323941230774,-3.775408983230591,8.877861976623535
1781034527046334700,22.928334716796876,1.682608962059021,-3.8165509700775146,8.868075370788574
1781034527065853400,22.947853515625,1.6497830152511597,-3.8570830821990967,8.856698989868164
1781034527085376500,22.96737646484375,1.6283730268478394,-3.8969359397888184,8.843205451965332
1781034527104897300,22.986897216796876,1.62267005443573,-3.9363350868225098,8.826788902282715
1781034527124413700,23.00641357421875,1.6410269737243652,-3.974674940109253,8.80618953704834
1781034527143931400,23.025931396484374,1.6856729984283447,-4.010128974914551,8.78165054321289
1781034527163448600,23.045448486328127,1.757876992225647,-4.042446136474609,8.752628326416016
1781034527182966300,23.06496630859375,1.8565000295639038,-4.0699639320373535,8.719449043273926
1781034527202485800,23.08448583984375,1.976464033126831,-4.091726779937744,8.682819366455078
1781034527222002200,23.104002197265626,2.1126859188079834,-4.109656810760498,8.642180442810059
1781034527241517600,23.123517578125,2.243016004562378,-4.125314235687256,8.601781845092773
1781034527261033700,23.14303369140625,2.3622829914093018,-4.138851165771484,8.563265800476074
1781034527280549600,23.162549560546875,2.4588000774383545,-4.14710807800293,8.532045364379883
1781034527300067300,23.1820673828125,2.4588000774383545,-4.14710807800293,8.532045364379883
1781034527319587800,23.201587890625,2.523279905319214,-4.138317108154297,8.517475128173828
1781034527339107300,23.221107421875,2.5644710063934326,-4.063751220703125,8.54104232788086
1781034527358631700,23.240631591796873,2.5644710063934326,-4.063751220703125,8.54104232788086
1781034527378157600,23.260157470703124,2.555860996246338,-3.9977409839630127,8.574708938598633
1781034527397676000,23.279676025390625,2.5357749462127686,-3.9194159507751465,8.616728782653809
1781034527417192700,23.299192626953126,2.517258882522583,-3.837104082107544,8.659100532531738
1781034527436713500,23.31871337890625,2.5138280391693115,-3.769753932952881,8.689626693725586
1781034527456234500,23.338234375,2.527925968170166,-3.7228829860687256,8.705728530883789
1781034527475755300,23.35775537109375,2.558056116104126,-3.699047088623047,8.707088470458984
1781034527495275300,23.377275146484376,2.6034910678863525,-3.6941730976104736,8.695682525634766
1781034527514794500,23.39679443359375,2.658392906188965,-3.7030880451202393,8.675256729125977
1781034527534313000,23.41631298828125,2.7144739627838135,-3.7201919555664062,8.65053653717041
1781034527553828600,23.43582861328125,2.7627029418945312,-3.740291118621826,8.626569747924805
1781034527573345500,23.455345458984375,2.796854019165039,-3.75998592376709,8.606980323791504
1781034527592863000,23.474863037109376,2.816011905670166,-3.777250051498413,8.593162536621094
1781034527612382700,23.4943828125,2.8227450847625732,-3.791253089904785,8.584783554077148
1781034527631897300,23.5138974609375,2.82220196723938,-3.8021199703216553,8.580155372619629
1781034527651407000,23.533406982421877,2.8186209201812744,-3.8107941150665283,8.577484130859375
1781034527670921700,23.552921630859377,2.8140249252319336,-3.818816900253296,8.575424194335938
1781034527690439400,23.572439453125,2.807677984237671,-3.827425003051758,8.5736665725708
1781034527709949200,23.59194921875,2.7950439453125,-3.837891101837158,8.573115348815918
1781034527729460500,23.61146044921875,2.763801097869873,-3.851883888244629,8.5769681930542
1781034527748974600,23.630974609375,2.708914041519165,-3.86860990524292,8.586945533752441
1781034527768491800,23.65049169921875,2.628308057785034,-3.885512113571167,8.604347229003906
1781034527788012500,23.670012451171875,2.5223228931427,-3.899329900741577,8.629780769348145
1781034527807530500,23.689530517578124,2.3942530155181885,-3.9071319103240967,8.662671089172363
1781034527827048400,23.70904833984375,2.2482450008392334,-3.905586004257202,8.702401161193848
1781034527846570000,23.728570068359375,2.0939218997955322,-3.892235040664673,8.746769905090332
1781034527866091000,23.748091064453124,1.936745047569275,-3.869508981704712,8.792946815490723
1781034527885610000,23.76760986328125,1.7919379472732544,-3.8420090675354004,8.83560562133789
1781034527905132300,23.78713232421875,1.674056053161621,-3.8264729976654053,8.865418434143066
1781034527924653600,23.806653564453125,1.5867960453033447,-3.8271260261535645,8.881168365478516
1781034527944170000,23.826169921875,1.532742977142334,-3.8470590114593506,8.882051467895508
1781034527963684600,23.8456845703125,1.5168609619140625,-3.8835229873657227,8.868900299072266
1781034527983203800,23.865203857421875,1.5361340045928955,-3.931626081466675,8.844354629516602
1781034528002726000,23.884725830078125,1.5751969814300537,-3.9855990409851074,8.813272476196289
1781034528022250800,23.904250732421875,1.6172740459442139,-4.030284881591797,8.785284042358398
1781034528041774000,23.923774169921874,1.6549769639968872,-4.064321041107178,8.762554168701172
1781034528061297000,23.943296875,1.6860640048980713,-4.088424205780029,8.745396614074707
1781034528080819200,23.962819091796874,1.6860640048980713,-4.088424205780029,8.745396614074707
1781034528100338000,23.982337890625,1.741657018661499,-4.137193202972412,8.711501121520996
1781034528119853000,24.00185302734375,1.741657018661499,-4.137193202972412,8.711501121520996
1781034528139368700,24.02136865234375,1.8600070476531982,-4.201341152191162,8.656160354614258
1781034528158888000,24.040887939453125,1.8600070476531982,-4.201341152191162,8.656160354614258
1781034528178409000,24.060408935546874,1.8600070476531982,-4.201341152191162,8.656160354614258
1781034528197927000,24.079927001953124,2.0983219146728516,-4.299190044403076,8.553011894226074
1781034528217441300,24.099441162109375,2.4149749279022217,-4.416889190673828,8.408268928527832
1781034528236955000,24.118954833984375,2.4149749279022217,-4.416889190673828,8.408268928527832
1781034528256466400,24.138466552734375,2.568819046020508,-4.483890056610107,8.32681655883789
1781034528275979800,24.157979736328127,2.7075579166412354,-4.556778907775879,8.24286937713623
1781034528295496200,24.17749609375,2.829211950302124,-4.632877826690674,8.15916633605957
1781034528315013400,24.197013427734376,2.943258047103882,-4.7098212242126465,8.074329376220703
1781034528334534100,24.2165341796875,3.0545899868011475,-4.785559177398682,7.9879841804504395
1781034528354055700,24.2360556640625,3.1659810543060303,-4.862062931060791,7.8979058265686035
1781034528373576700,24.25557666015625,3.281403064727783,-4.938687801361084,7.802676200866699
1781034528393096200,24.27509619140625,3.400041103363037,-5.016765117645264,7.701414108276367
1781034528412617500,24.294617431640624,3.5130889415740967,-5.097925186157227,7.596667766571045
1781034528432142000,24.31414208984375,3.613615036010742,-5.183426856994629,7.490918159484863
1781034528451662300,24.333662353515624,3.701371908187866,-5.272356033325195,7.3852620124816895
1781034528471180800,24.353180908203125,3.7745931148529053,-5.362726211547852,7.2824177742004395
1781034528490702600,24.37270263671875,3.833254098892212,-5.452460765838623,7.184485912322998
1781034528510224100,24.39222412109375,3.8804850578308105,-5.538699150085449,7.092576026916504
1781034528529742000,24.4117421875,3.925168991088867,-5.618120193481445,7.00498104095459
1781034528549261800,24.43126171875,3.969583034515381,-5.690583229064941,6.920958995819092
1781034528568783600,24.45078369140625,4.015419960021973,-5.756359100341797,6.8396430015563965
1781034528588300800,24.47030078125,4.066981792449951,-5.814356803894043,6.759653091430664
1781034528607819500,24.489819580078127,4.126574993133545,-5.863640785217285,6.6805009841918945
1781034528627340500,24.509340576171876,4.193778038024902,-5.904245853424072,6.6024298667907715
1781034528646859000,24.52885888671875,4.2678399085998535,-5.935451984405518,6.526557922363281
1781034528666378800,24.548378662109375,4.346138000488281,-5.956265926361084,6.455537796020508
1781034528685896400,24.567896484375,4.422732830047607,-5.962470054626465,6.397529125213623
1781034528705412000,24.587412109375,4.501609802246094,-5.952752113342285,6.35139799118042
1781034528724930000,24.606929931640625,4.575733184814453,-5.9315619468688965,6.3181657791137695
1781034528744447700,24.62644775390625,4.647098064422607,-5.898831844329834,6.296686172485352
1781034528763964700,24.645964599609375,4.717034816741943,-5.854704856872559,6.285858154296875
1781034528783483600,24.665483642578124,4.78664493560791,-5.7999491691589355,6.283998012542725
1781034528803005200,24.685005126953126,4.860142230987549,-5.736969947814941,6.285394191741943
1781034528822519800,24.704519775390626,4.929886817932129,-5.667893886566162,6.2937421798706055
1781034528842033200,24.724033203125,5.003705024719238,-5.585988998413086,6.3086981773376465
1781034528861549600,24.743549560546874,5.079451084136963,-5.49068021774292,6.331792831420898
1781034528881065500,24.7630654296875,5.079451084136963,-5.49068021774292,6.331792831420898
1781034528900580000,24.782580078125,5.2168121337890625,-5.264701843261719,6.411534786224365
1781034528920094200,24.80209423828125,5.270030975341797,-5.139904975891113,6.4690141677856445
1781034528939610400,24.8216103515625,5.270030975341797,-5.139904975891113,6.4690141677856445
1781034528959125000,24.841125,5.311665058135986,-4.887166976928711,6.6288628578186035
1781034528978639000,24.86063916015625,5.294806003570557,-4.76508092880249,6.730454921722412
1781034528998151700,24.880151611328124,5.294806003570557,-4.76508092880249,6.730454921722412
1781034529017667600,24.89966748046875,5.219404220581055,-4.533441066741943,6.945913791656494
1781034529037182700,24.9191826171875,5.219404220581055,-4.533441066741943,6.945913791656494
1781034529056696800,24.93869677734375,5.174591064453125,-4.419802188873291,7.051875114440918
1781034529076214800,24.95821484375,5.141384124755859,-4.300973892211914,7.148971080780029
1781034529095734500,24.977734619140627,5.121149063110352,-4.1769890785217285,7.236475944519043
1781034529115251700,24.997251708984376,5.113653182983398,-4.046171188354492,7.315670967102051
1781034529134764800,25.016764892578124,5.108047008514404,-3.9084300994873047,7.394052028656006
1781034529154278100,25.036278076171875,5.099789142608643,-3.762294054031372,7.47511100769043
1781034529173791700,25.055791748046875,5.081377029418945,-3.6096088886260986,7.562427997589111
1781034529193309200,25.07530908203125,5.04876184463501,-3.4525699615478516,7.657005786895752
1781034529212834300,25.094834228515627,5.000354766845703,-3.2923240661621094,7.758676052093506
1781034529232360400,25.1143603515625,4.937671184539795,-3.1288599967956543,7.865725040435791
1781034529251880200,25.133880126953127,4.8635029792785645,-2.9629759788513184,7.975406169891357
1781034529271392800,25.153392822265626,4.781585216522217,-2.796452045440674,8.08432388305664
1781034529290910700,25.17291064453125,4.694383144378662,-2.631287097930908,8.190180778503418
1781034529310435000,25.19243505859375,4.596785068511963,-2.4708290100097656,8.294852256774902
1781034529329959000,25.211958984375,4.488627910614014,-2.3175549507141113,8.397686958312988
1781034529349479400,25.2314794921875,4.368838787078857,-2.174370050430298,8.498550415039062
1781034529369002200,25.251002197265624,4.237252235412598,-2.0441789627075195,8.596919059753418
1781034529388520400,25.2705205078125,4.094791889190674,-1.9284329414367676,8.692170143127441
1781034529408040700,25.290040771484374,3.9446260929107666,-1.827468991279602,8.782954216003418
1781034529427564000,25.30956396484375,3.7969110012054443,-1.7401260137557983,8.865406036376953
1781034529447080200,25.329080078125,3.6547811031341553,-1.6652699708938599,8.939208030700684
1781034529466593800,25.34859375,3.522104024887085,-1.6012359857559204,9.00393295288086
1781034529486107000,25.36810693359375,3.403801918029785,-1.546286940574646,9.058870315551758
1781034529505623300,25.387623291015625,3.298858880996704,-1.497298002243042,9.105801582336426
1781034529525145600,25.4071455078125,3.20723295211792,-1.4512460231781006,9.145902633666992
1781034529544668700,25.426668701171874,3.1395070552825928,-1.4021669626235962,9.17700481414795
1781034529564191200,25.446191162109375,3.092617988586426,-1.3484740257263184,9.20094108581543
1781034529583715800,25.4657158203125,3.064655065536499,-1.2869230508804321,9.219096183776855
1781034529603238100,25.485238037109376,3.0484728813171387,-1.215309977531433,9.234166145324707
1781034529622761000,25.504760986328126,3.0437510013580322,-1.1348600387573242,9.245953559875488
1781034529642283500,25.524283447265624,3.0438830852508545,-1.0523159503936768,9.255668640136719
