time,seconds_elapsed,z,y,x
1781030651075869000,0.196868896484375,-0.5465800166130066,0.2850170135498047,0.18600299954414368
1781030651293835000,0.4148349609375,-0.24153199791908264,0.47965800762176514,-0.9916009902954102
1781030651303591700,0.424591796875,-0.24153199791908264,0.47965800762176514,-0.9916009902954102
1781030651323109400,0.444109375,-0.20014700293540955,0.1036909967660904,-1.0708309412002563
1781030651342631000,0.463630859375,-0.1527249962091446,-0.07126999646425247,-1.0713410377502441
1781030651362155800,0.48315576171875,-0.158487007021904,-0.11268100142478943,-1.0130770206451416
1781030651381683000,0.502682861328125,-0.296752005815506,-0.1222200021147728,-0.8914960026741028
1781030651401212000,0.5222119140625,-0.4453290104866028,-0.13851000368595123,-0.8352519869804382
1781030651420742700,0.54174267578125,-0.5602369904518127,-0.16460299491882324,-0.8484280109405518
1781030651440270300,0.561270263671875,-0.5921000242233276,-0.2528179883956909,-0.9009280204772949
1781030651459795700,0.580795654296875,-0.5606250166893005,-0.31756699085235596,-0.9358119964599609
1781030651479325000,0.600324951171875,-0.5214049816131592,-0.3940559923648834,-0.924564003944397
1781030651498853000,0.61985302734375,-0.5469740033149719,-0.5324329733848572,-0.9681029915809631
1781030651518381600,0.639381591796875,-0.609362006187439,-0.5429049730300903,-0.977927029132843
1781030651537912300,0.658912353515625,-0.5782510042190552,-0.44701701402664185,-0.9218130111694336
1781030651557439700,0.678439697265625,-0.5104079842567444,-0.29641300439834595,-0.8854470252990723
1781030651576964400,0.69796435546875,-0.43997201323509216,0.051596999168395996,-0.8237119913101196
1781030651596489200,0.7174892578125,-0.48355600237846375,0.2808400094509125,-0.7293480038642883
1781030651616016600,0.7370166015625,-0.6582260131835938,0.2812100052833557,-0.6865010261535645
1781030651635544000,0.7565439453125,-0.7900009751319885,0.2686319947242737,-0.6177189946174622
1781030651655067100,0.776067138671875,-0.7474070191383362,0.12307000160217285,-0.44320499897003174
1781030651674591500,0.795591552734375,-0.5927940011024475,-0.02205199934542179,-0.28289100527763367
1781030651694117600,0.81511767578125,-0.3713639974594116,-0.06403999775648117,-0.15647399425506592
1781030651713634000,0.834634033203125,-0.22300100326538086,-0.1325729936361313,-0.0953880026936531
1781030651733149700,0.854149658203125,-0.30480700731277466,-0.30474400520324707,-0.11207400262355804
1781030651752669400,0.87366943359375,-0.45543399453163147,-0.48494499921798706,-0.22294999659061432
1781030651772187600,0.893187744140625,-0.5336269736289978,-0.5849729776382446,-0.3704729974269867
1781030651791709000,0.912708984375,-0.5669010281562805,-0.6992350220680237,-0.4671950042247772
1781030651811227400,0.932227294921875,-0.601498007774353,-0.7231900095939636,-0.5206189751625061
1781030651830744600,0.95174462890625,-0.5595459938049316,-0.5711470246315002,-0.47649601101875305
1781030651850264300,0.971264404296875,-0.6396129727363586,-0.39999398589134216,-0.2917400002479553
1781030651869790700,0.990790771484375,-0.7416930198669434,-0.22502200305461884,0.01620200090110302
1781030651889321000,1.010321044921875,-0.6221309900283813,0.07885800302028656,0.2231539934873581
1781030651908851000,1.029850830078125,-0.4081200063228607,0.31893599033355713,0.2053389996290207
1781030651928384800,1.049384765625,-0.18824300169944763,0.4779309928417206,0.11533500254154205
1781030651947912400,1.068912353515625,0.03110099956393242,0.6352149844169617,0.07448899745941162
1781030651967432200,1.08843212890625,0.07879000157117844,0.6815289855003357,0.14854900538921356
1781030651986955000,1.107955078125,-0.07472600042819977,0.5745800137519836,0.2932640016078949
1781030652006484500,1.127484375,-0.16735099256038666,0.40630099177360535,0.36691099405288696
1781030652026012000,1.147011962890625,-0.20041799545288086,0.2796489894390106,0.3096500039100647
1781030652045536000,1.166535888671875,-0.20041799545288086,0.2796489894390106,0.3096500039100647
1781030652065058600,1.18605859375,-0.10255599766969681,0.12381699681282043,0.28273698687553406
1781030652084586000,1.2055859375,-0.1322299987077713,0.10170699656009674,0.38856300711631775
1781030652104113700,1.22511376953125,-0.1823890060186386,0.11147599667310715,0.4651400148868561
1781030652123639600,1.2446396484375,-0.2199459969997406,0.07614599913358688,0.5069580078125
1781030652143165400,1.26416552734375,-0.18849900364875793,0.023426000028848648,0.5129709839820862
1781030652162687200,1.283687255859375,-0.18849900364875793,0.023426000028848648,0.5129709839820862
1781030652182210300,1.303210205078125,0.00854399986565113,0.012288999743759632,0.4775179922580719
1781030652201734700,1.322734619140625,-0.035130999982357025,0.01889999955892563,0.472804993391037
1781030652221260000,1.342260009765625,-0.09844999760389328,0.08518200367689133,0.48266300559043884
1781030652240789200,1.361789306640625,-0.18848200142383575,0.13394799828529358,0.583296000957489
1781030652260315600,1.381315673828125,-0.21993200480937958,0.19580699503421783,0.6800829768180847
1781030652279840000,1.400840087890625,-0.1754869967699051,0.21939599514007568,0.7206130027770996
1781030652299369700,1.42036962890625,-0.06369300186634064,0.2007019966840744,0.75900799036026
1781030652318898400,1.4398984375,0.05887800082564354,0.1657239943742752,0.7501459717750549
1781030652338429400,1.459429443359375,0.13305899500846863,0.09321600198745728,0.7467340230941772
1781030652357958100,1.478958251953125,0.14937500655651093,0.06345299631357193,0.7890430092811584
1781030652377487000,1.498487060546875,0.13180699944496155,0.026691000908613205,0.8771910071372986
1781030652397021000,1.51802099609375,0.10822200030088425,-0.018005000427365303,1.0399090051651
1781030652416552200,1.53755224609375,0.06628300249576569,-0.011060000397264957,1.2560640573501587
1781030652436082400,1.55708251953125,-0.0025889999233186245,0.008244999684393406,1.4473220109939575
1781030652455612000,1.57661181640625,-0.09052000194787979,0.013174000196158886,1.6147300004959106
1781030652475139800,1.596139892578125,-0.23641300201416016,0.04022299870848656,1.839514970779419
1781030652494669600,1.615669677734375,-0.4867999851703644,0.06466499716043472,2.099674940109253
1781030652514199600,1.635199462890625,-0.7092239856719971,0.027936000376939774,2.4028561115264893
1781030652533726700,1.654726806640625,-0.8885229825973511,-0.003083999967202544,2.723205089569092
1781030652553252400,1.67425244140625,-1.039891004562378,-0.06530699878931046,2.9489219188690186
1781030652572779800,1.69377978515625,-1.0507999658584595,-0.20731599628925323,3.123137950897217
1781030652592308000,1.713307861328125,-0.9452469944953918,-0.39386600255966187,3.2810349464416504
1781030652611836700,1.732836669921875,-0.8038430213928223,-0.6439880132675171,3.4093480110168457
1781030652631364000,1.752364013671875,-0.6520439982414246,-0.9284639954566956,3.5237600803375244
1781030652650887700,1.7718876953125,-0.5561800003051758,-1.1346629858016968,3.489643096923828
1781030652670413300,1.791413330078125,-0.6666120290756226,-1.209733009338379,3.3503661155700684
1781030652689942000,1.81094189453125,-0.9915630221366882,-1.1143180131912231,3.187006950378418
1781030652709470000,1.830469970703125,-1.3768830299377441,-0.8622480034828186,2.954148054122925
1781030652729001500,1.85000146484375,-1.694843053817749,-0.5778080224990845,2.6357181072235107
1781030652748532500,1.869532470703125,-1.8201960325241089,-0.3626739978790283,2.2473959922790527
1781030652768060700,1.889060791015625,-1.7704869508743286,-0.2309730052947998,1.7602299451828003
1781030652787592000,1.908592041015625,-1.7336360216140747,-0.19618700444698334,1.2113399505615234
1781030652807124500,1.92812451171875,-1.6502330303192139,-0.23111599683761597,0.6825000047683716
1781030652826657000,1.947656982421875,-1.4920979738235474,-0.25646600127220154,0.10341700166463852
1781030652846186800,1.967186767578125,-1.309607982635498,-0.36897599697113037,-0.5130339860916138
1781030652865713200,1.986713134765625,-1.030163049697876,-0.49351099133491516,-1.1125049591064453
1781030652885240800,2.00624072265625,-0.8123499751091003,-0.5924280285835266,-1.7021180391311646
1781030652904769500,2.02576953125,-0.7292960286140442,-0.6380190253257751,-2.2464120388031006
1781030652924300800,2.04530078125,-0.7292960286140442,-0.6380190253257751,-2.2464120388031006
1781030652943832800,2.064832763671875,-0.6950979828834534,-0.4239259958267212,-3.4014859199523926
1781030652963362600,2.084362548828125,-0.5664880275726318,-0.19381499290466309,-3.9612839221954346
1781030652982896600,2.103896728515625,-0.5664880275726318,-0.19381499290466309,-3.9612839221954346
1781030653002425300,2.12342529296875,-0.1968110054731369,0.11212600022554398,-5.11275577545166
1781030653021946600,2.142946533203125,-0.03067299909889698,0.19020900130271912,-5.614247798919678
1781030653041471200,2.16247119140625,0.05659300088882446,0.2297939956188202,-6.021859169006348
1781030653060999200,2.181999267578125,0.11118099838495255,0.23055900633335114,-6.259875774383545
1781030653080525600,2.201525634765625,0.25367501378059387,0.380282998085022,-6.324179172515869
1781030653100049200,2.221049072265625,0.3688470125198364,0.5728150010108948,-6.3440470695495605
1781030653119570200,2.240570068359375,0.4007590115070343,0.772570013999939,-6.389665126800537
1781030653139094500,2.260094482421875,0.3080280125141144,1.048786997795105,-6.451952934265137
1781030653158621400,2.279621337890625,-0.018991999328136444,1.175387978553772,-6.282258987426758
1781030653178150000,2.29914990234375,-0.34381601214408875,1.2245080471038818,-5.75930118560791
1781030653197672700,2.318672607421875,-0.4837450087070465,1.2570099830627441,-4.988697052001953
1781030653217193700,2.33819384765625,-0.4642919898033142,1.186208963394165,-4.073999881744385
1781030653236721700,2.3577216796875,-0.33492499589920044,1.1661200523376465,-3.2079460620880127
1781030653256249600,2.37724951171875,-0.34948599338531494,1.1913429498672485,-2.4905169010162354
1781030653275777500,2.396777587890625,-0.6426050066947937,1.2372440099716187,-1.8560110330581665
1781030653295306800,2.416306640625,-1.0951650142669678,1.3611719608306885,-1.238631010055542
1781030653314835000,2.4358349609375,-1.5933959484100342,1.474457025527954,-0.6595069766044617
1781030653334361300,2.455361328125,-1.943302035331726,1.4950380325317383,0.05070500075817108
1781030653353884400,2.474884521484375,-2.0584259033203125,1.3526240587234497,1.8213069438934326
1781030653373408800,2.49440869140625,-1.9981659650802612,1.056465983390808,3.7180709838867188
1781030653392935400,2.513935302734375,-1.7540429830551147,0.7417579889297485,4.242084980010986
1781030653412465700,2.533465576171875,-1.3512029647827148,0.44490501284599304,4.926361083984375
1781030653431993600,2.55299365234375,-0.93128502368927,0.16170500218868256,6.840606212615967
1781030653451514600,2.5725146484375,-0.6195769906044006,-0.19557100534439087,7.204206943511963
1781030653471039700,2.592039794921875,-0.4322269856929779,-0.6742370128631592,8.824665069580078
1781030653490570200,2.6115703125,-0.23123399913311005,-1.1377379894256592,9.051329612731934
1781030653510093300,2.63109326171875,-0.03909299895167351,-1.4669220447540283,9.106167793273926
1781030653529612800,2.65061279296875,0.17689800262451172,-1.759855031967163,8.848969459533691
1781030653549140000,2.670139892578125,0.3666650056838989,-2.001133918762207,8.418245315551758
1781030653568666000,2.689666015625,0.42769598960876465,-2.1036770343780518,7.598529815673828
1781030653588186400,2.709186279296875,0.4469349980354309,-2.1609630584716797,5.760132789611816
1781030653607711500,2.72871142578125,0.48384198546409607,-2.0451838970184326,4.927516937255859
1781030653627239000,2.748239013671875,0.5072060227394104,-1.7555619478225708,2.951479911804199
1781030653646762200,2.76776220703125,0.43154600262641907,-1.5394480228424072,2.3632020950317383
1781030653666285300,2.787285400390625,0.33202099800109863,-1.3542170524597168,1.7636749744415283
1781030653685809200,2.80680908203125,0.31723299622535706,-1.1821039915084839,1.2831950187683105
1781030653705334500,2.82633447265625,0.31723299622535706,-1.1821039915084839,1.2831950187683105
1781030653724859600,2.845859619140625,0.5021029710769653,-1.1048270463943481,1.1584099531173706
1781030653744385800,2.8653857421875,0.6837279796600342,-1.172659993171692,1.1944500207901
1781030653763908600,2.88490869140625,0.7879660129547119,-1.2624859809875488,1.2828880548477173
1781030653783430700,2.9044306640625,0.955282986164093,-1.262323021888733,1.0794310569763184
1781030653802954000,2.9239541015625,1.0400099754333496,-1.227673053741455,1.1206159591674805
1781030653822477800,2.943477783203125,1.0400099754333496,-1.227673053741455,1.1206159591674805
1781030653842002700,2.963002685546875,1.0041500329971313,-1.1293009519577026,1.5097229480743408
1781030653861525500,2.982525390625,0.8565869927406311,-1.0585999488830566,1.6000460386276245
1781030653881049300,3.00204931640625,0.584667980670929,-0.968546986579895,1.663404941558838
1781030653900572200,3.021572265625,0.19221900403499603,-0.7421730160713196,1.6647310256958008
1781030653920093700,3.04109375,0.011376000009477139,-0.35564500093460083,1.7204339504241943
1781030653939617000,3.060616943359375,0.08259300142526627,-0.048976998776197433,1.637470006942749
1781030653959141600,3.0801416015625,0.22207100689411163,0.10648000240325928,1.2898709774017334
1781030653978669300,3.09966943359375,0.24385100603103638,0.2787410020828247,0.7781140208244324
1781030653998197000,3.119197021484375,-0.012912999838590622,0.3313319981098175,0.13934199512004852
1781030654017724700,3.138724609375,-1.6230640411376953,0.37119999527931213,-0.3840619921684265
1781030654037251600,3.15825146484375,-1.6791019439697266,0.5807629823684692,-0.8434060215950012
1781030654056782000,3.177781982421875,-1.549962043762207,0.613768994808197,-2.5027239322662354
1781030654076314600,3.197314697265625,-1.3205020427703857,0.4569050073623657,-2.8174610137939453
1781030654095845600,3.216845703125,-0.9175099730491638,0.24421000480651855,-4.399877071380615
1781030654115373600,3.23637353515625,-0.4750030040740967,-0.07148399949073792,-4.452375888824463
1781030654134899000,3.25589892578125,-0.20867200195789337,-0.4156990051269531,-4.56729793548584
1781030654154422800,3.2754228515625,-0.0406620018184185,-0.5879489779472351,-4.905872821807861
1781030654173946600,3.294946533203125,0.22940799593925476,-0.5025249719619751,-6.358236789703369
1781030654193467400,3.31446728515625,0.6451420187950134,-0.12459799647331238,-8.045860290527344
1781030654212990500,3.333990478515625,1.1921559572219849,1.6692140102386475,-8.210515975952148
1781030654232516600,3.3535166015625,2.5672340393066406,2.0151140689849854,-9.736748695373535
1781030654252041700,3.373041748046875,2.6109580993652344,2.5296289920806885,-9.794306755065918
1781030654271572000,3.392572021484375,2.387695074081421,3.0079801082611084,-10.074700355529785
1781030654291100200,3.41210009765625,1.9325369596481323,3.2435739040374756,-10.285798072814941
1781030654310622700,3.431622802734375,1.4281710386276245,3.199147939682007,-10.300832748413086
1781030654330145300,3.451145263671875,0.988116979598999,2.900604009628296,-10.011791229248047
1781030654349668900,3.4706689453125,0.7243549823760986,2.4587509632110596,-9.230847358703613
1781030654369193500,3.490193359375,0.5736610293388367,1.9049270153045654,-6.991946220397949
1781030654388716500,3.509716552734375,0.20161299407482147,1.2900830507278442,-4.740365982055664
1781030654408243200,3.5292431640625,-0.3918969929218292,0.8055070042610168,-4.049330234527588
1781030654427771400,3.548771484375,-1.0115400552749634,0.4101699888706207,-3.1322948932647705
1781030654447299300,3.56829931640625,-1.6060149669647217,0.0990229994058609,-1.0987950563430786
1781030654466830300,3.587830322265625,-2.0303289890289307,0.03106600046157837,-0.31575798988342285
1781030654486358000,3.60735791015625,-2.187511920928955,0.04115600138902664,2.1852669715881348
1781030654505888000,3.626887939453125,-2.306550979614258,0.04975400120019913,4.283707141876221
1781030654525420500,3.646420654296875,-2.306550979614258,0.04975400120019913,4.283707141876221
1781030654544950800,3.66595068359375,-2.1845650672912598,0.1526080071926117,8.08331298828125
1781030654564476400,3.685476318359375,-1.8740639686584473,-0.02043600007891655,9.640403747558594
1781030654583998700,3.704998779296875,-1.8740639686584473,-0.02043600007891655,9.640403747558594
1781030654603526100,3.724526123046875,-0.8833019733428955,-0.9389780163764954,11.852231979370117
1781030654623058000,3.744057861328125,-0.8833019733428955,-0.9389780163764954,11.852231979370117
1781030654642585000,3.763585205078125,0.2003909945487976,-2.7050580978393555,11.937382698059082
1781030654662114600,3.783114501953125,0.7618190050125122,-3.0664680004119873,11.713983535766602
1781030654681645300,3.802645263671875,1.1061689853668213,-3.17966890335083,9.879755020141602
1781030654701172700,3.8221728515625,1.2813299894332886,-3.104487895965576,9.121516227722168
1781030654720702700,3.84170263671875,1.2700259685516357,-2.8214778900146484,7.062386989593506
1781030654740232200,3.861232177734375,1.0593589544296265,-2.358891010284424,4.915151119232178
1781030654759755000,3.880755126953125,0.7912499904632568,-1.9760910272598267,4.490421772003174
1781030654779274200,3.900274169921875,0.5402219891548157,-1.6970750093460083,4.017484188079834
1781030654798799000,3.919799072265625,0.3394550085067749,-1.5990149974822998,3.7209129333496094
1781030654818326500,3.939326416015625,0.2987860143184662,-1.6779160499572754,3.6743710041046143
1781030654837851400,3.958851318359375,0.35144999623298645,-1.8109140396118164,3.6097629070281982
1781030654857378600,3.978378662109375,0.5537729859352112,-1.8932830095291138,3.567876100540161
1781030654876909000,3.997908935546875,0.7619289755821228,-1.819530963897705,3.3909199237823486
1781030654896438000,4.01743798828125,0.8763669729232788,-1.7831929922103882,3.2684850692749023
1781030654915966700,4.036966796875,0.8203840255737305,-1.6325709819793701,3.089087963104248
1781030654935497700,4.056497802734375,0.5938230156898499,-1.4263859987258911,2.678002119064331
1781030654955030000,4.076030029296875,0.4519929885864258,-1.2455600500106812,2.2182159423828125
1781030654974564600,4.095564697265625,0.37223899364471436,-0.8395159840583801,1.5772470235824585
1781030654994099000,4.115098876953125,0.3747760057449341,-0.399740993976593,1.0432590246200562
1781030655013628700,4.134628662109375,0.3468270003795624,-0.04104800149798393,0.7100800275802612
1781030655033153800,4.15415380859375,0.27920499444007874,0.39992600679397583,0.21977999806404114
1781030655052678400,4.173678466796875,0.072673000395298,0.7894589900970459,-0.4152649939060211
1781030655072202500,4.193202392578125,-0.2948729991912842,0.8423969745635986,-1.0950729846954346
1781030655091728600,4.212728759765625,-0.5628309845924377,0.6732069849967957,-1.7163079977035522
1781030655111256600,4.232256591796875,-0.6920530200004578,0.4212940037250519,-2.166969060897827
1781030655130787300,4.251787353515625,-0.6630079746246338,0.15278199315071106,-2.465657949447632
1781030655150317800,4.27131787109375,-0.44906100630760193,0.051412999629974365,-2.700589895248413
1781030655169845500,4.290845458984375,-0.3119629919528961,0.13301700353622437,-3.0623719692230225
1781030655189373400,4.31037353515625,-0.2888369858264923,0.13470900058746338,-3.424669027328491
1781030655208904200,4.329904296875,-0.3094410002231598,-0.006149000022560358,-3.7339069843292236
1781030655228435500,4.349435546875,-0.18051399290561676,-0.15670199692249298,-4.067170143127441
1781030655247966000,4.368966064453125,0.3251740038394928,-0.2482440024614334,-4.429072856903076
1781030655267495700,4.38849560546875,1.790734052658081,-0.19174699485301971,-4.7488908767700195
1781030655287021600,4.408021484375,2.1000940799713135,0.05345400050282478,-5.019394874572754
1781030655306543600,4.427543701171875,2.355536937713623,0.3695720136165619,-5.329610824584961
1781030655326067500,4.4470673828125,2.3848979473114014,0.6678450107574463,-5.612295150756836
1781030655345592600,4.466592529296875,2.3848979473114014,0.6678450107574463,-5.612295150756836
1781030655365117400,4.486117431640625,2.319411039352417,1.2412220239639282,-7.428458213806152
1781030655384645000,4.50564501953125,2.1809909343719482,1.4591670036315918,-7.295735836029053
1781030655404171500,4.525171630859375,2.1809909343719482,1.4591670036315918,-7.295735836029053
1781030655423693800,4.54469384765625,1.6540130376815796,1.7094509601593018,-7.443412780761719
1781030655443218000,4.564218017578125,1.6540130376815796,1.7094509601593018,-7.443412780761719
1781030655462743800,4.583743896484375,0.4788050055503845,1.1250309944152832,-6.616115093231201
1781030655482267000,4.603266845703125,0.012617000378668308,0.7135459780693054,-4.8367919921875
1781030655501795000,4.622795166015625,-0.15876099467277527,0.3153730034828186,-4.004045009613037
1781030655521323800,4.64232373046875,-0.21686500310897827,0.0627330020070076,-3.124871015548706
1781030655540849700,4.661849609375,-0.2620460093021393,0.0225249994546175,-2.2697670459747314
1781030655560374500,4.68137451171875,-0.45694699883461,0.03535100072622299,-1.4678720235824585
1781030655579900700,4.700900634765625,-0.8665590286254883,0.14487500488758087,-0.7178220152854919
1781030655599431200,4.72043115234375,-1.3127859830856323,0.3486250042915344,0.03413400053977966
1781030655618966800,4.739966796875,-1.7240209579467773,0.5372260212898254,0.8130229711532593
1781030655638499300,4.759499267578125,-2.1864020824432373,0.6963739991188049,2.720223903656006
1781030655658026500,4.779026611328125,-2.578747034072876,0.7470600008964539,3.2200419902801514
1781030655677553200,4.79855322265625,-2.80397891998291,0.6171349883079529,4.8317131996154785
1781030655697080800,4.818080810546875,-2.870345115661621,0.353085994720459,5.456501007080078
1781030655716609500,4.837609619140625,-2.725598096847534,-0.04645499959588051,6.926680088043213
1781030655736137000,4.857136962890625,-2.4197990894317627,-0.5829430222511292,7.417256832122803
1781030655755663400,4.876663330078125,-2.130552053451538,-1.1667239665985107,8.836359977722168
1781030655775189200,4.896189208984375,-1.9243320226669312,-1.7426340579986572,9.01327133178711
1781030655794713000,4.915713134765625,-1.736806035041809,-2.240109920501709,9.125536918640137
1781030655814242600,4.93524267578125,-1.5363919734954834,-2.6232199668884277,8.886584281921387
1781030655833777200,4.954777099609375,-1.3209489583969116,-2.9145939350128174,8.34813404083252
1781030655853306400,4.974306396484375,-1.0509929656982422,-3.050183057785034,7.628142833709717
1781030655872831700,4.993831787109375,-0.7588589787483215,-3.0584630966186523,6.734436988830566
1781030655892356400,5.0133564453125,-0.5028010010719299,-2.868933916091919,4.582799911499023
1781030655911884000,5.032884033203125,-0.3395079970359802,-2.4956140518188477,3.9537770748138428
1781030655931415800,5.052415771484375,-0.285286009311676,-2.1075661182403564,3.1499218940734863
1781030655950944800,5.07194482421875,-0.2646090090274811,-1.6476130485534668,2.367469072341919
1781030655970472200,5.09147216796875,-0.26904699206352234,-1.2659339904785156,1.74508798122406
1781030655990004500,5.11100439453125,-0.2295989990234375,-0.9881479740142822,1.3228670358657837
1781030656009536500,5.13053662109375,-0.05663000047206879,-0.7859489917755127,1.024407982826233
1781030656029065200,5.150065185546875,0.12133999913930893,-0.777675986289978,0.8634949922561646
1781030656048590800,5.1695908203125,0.24728800356388092,-0.8601089715957642,0.7052479982376099
1781030656068114000,5.189114013671875,0.3667660057544708,-0.9941710233688354,0.5615689754486084
1781030656087642400,5.208642333984375,0.4850749969482422,-1.1464370489120483,0.4032660126686096
1781030656107168500,5.22816845703125,0.654670000076294,-1.2604249715805054,0.29415398836135864
1781030656126693600,5.247693603515625,0.9268959760665894,-1.289620041847229,0.31146499514579773
1781030656146220300,5.26722021484375,1.121201992034912,-1.1439759731292725,0.2062090039253235
1781030656165743400,5.286743408203125,1.0187970399856567,-1.0270190238952637,0.1358570009469986
1781030656185264600,5.3062646484375,1.0187970399856567,-1.0270190238952637,0.1358570009469986
1781030656204788700,5.325788818359375,0.322829008102417,-0.6444259881973267,0.19871999323368073
1781030656224313600,5.345313720703125,0.15130400657653809,-0.4492799937725067,0.19629399478435516
1781030656243838500,5.36483837890625,0.19923900067806244,-0.14537900686264038,0.09475699812173843
1781030656263364900,5.38436474609375,0.2825320065021515,0.10701899975538254,-0.29823899269104004
1781030656282889200,5.40388916015625,0.2825320065021515,0.10701899975538254,-0.29823899269104004
1781030656302416600,5.423416748046875,-0.035016998648643494,0.3190839886665344,-1.3645739555358887
1781030656321941800,5.442941650390625,-0.09747900068759918,0.4484649896621704,-1.853356957435608
1781030656341463600,5.462463623046875,-0.08308999985456467,0.6556519865989685,-2.099273920059204
1781030656360989200,5.4819892578125,-0.06173200160264969,0.9070760011672974,-2.2322258949279785
1781030656380518400,5.501518310546875,0.05038199946284294,1.1164640188217163,-2.1421399116516113
1781030656400046600,5.521046630859375,0.02204200066626072,1.128801941871643,-2.1504709720611572
1781030656419576300,5.540576416015625,-0.010301999747753143,0.9744409918785095,-2.4633660316467285
1781030656439106000,5.56010595703125,0.018442999571561813,0.8483750224113464,-2.885066032409668
1781030656458629600,5.579629638671875,0.055858999490737915,0.7506660223007202,-3.3569231033325195
1781030656478152700,5.599152587890625,0.16416700184345245,0.6296319961547852,-3.7545111179351807
1781030656497674000,5.618674072265625,0.4268360137939453,0.598812997341156,-3.8659589290618896
1781030656517190000,5.63818994140625,0.96247798204422,0.5391070246696472,-3.845684051513672
1781030656536709600,5.657709716796875,2.4276180267333984,0.60173100233078,-3.9306139945983887
1781030656556230700,5.677230712890625,2.8072350025177,0.9880620241165161,-4.156970024108887
1781030656575752200,5.696752197265625,3.138967990875244,1.540863037109375,-4.575250148773193
1781030656595274000,5.71627392578125,3.046560049057007,2.098489999771118,-5.839766979217529
1781030656614798800,5.735798828125,2.683087110519409,2.608588933944702,-6.017644882202148
1781030656634326800,5.755326904296875,2.1725239753723145,2.9463229179382324,-6.311873912811279
1781030656653855200,5.774855224609375,1.7067279815673828,3.2105119228363037,-6.6465349197387695
1781030656673384700,5.794384765625,1.4156579971313477,3.487718105316162,-6.9013261795043945
1781030656692913400,5.813913330078125,1.099943995475769,3.584141969680786,-6.829078197479248
1781030656712439800,5.833439697265625,0.6975989937782288,3.55257511138916,-6.450602054595947
1781030656731965000,5.85296484375,0.214355006814003,3.397634983062744,-5.850059986114502
1781030656751491800,5.872491943359375,-0.1359969973564148,3.135298013687134,-5.13292121887207
1781030656771019500,5.89201953125,-0.15746599435806274,2.972338914871216,-4.586647987365723
1781030656790542600,5.91154248046875,-0.0246799997985363,2.8555080890655518,-4.173955917358398
1781030656810061300,5.931061279296875,0.0005089999758638442,2.5832839012145996,-3.611802101135254
1781030656829582300,5.950582275390625,-0.2511860132217407,2.2060608863830566,-2.8221449851989746
1781030656849107500,5.970107421875,-0.6701639890670776,1.7419190406799316,-0.8669019937515259
1781030656868633300,5.98963330078125,-1.040761947631836,1.2618099451065063,1.060696005821228
1781030656888161300,6.009161376953125,-1.2898739576339722,0.9120140075683594,1.4497840404510498
1781030656907689700,6.028689697265625,-1.491621971130371,0.6098430156707764,2.0557239055633545
1781030656927215600,6.048215576171875,-1.8566780090332031,0.23374100029468536,4.014798164367676
1781030656946740700,6.06774072265625,-2.389504909515381,-0.19881199300289154,4.5903167724609375
1781030656966265300,6.087265380859375,-2.8095779418945312,-0.6225320100784302,6.80183219909668
1781030656985792000,6.1067919921875,-3.0871479511260986,-1.0526809692382812,8.716348648071289
1781030657005319400,6.1263193359375,-3.346184015274048,-1.5050599575042725,10.478954315185547
1781030657024845600,6.145845458984375,-3.465285062789917,-2.0493080615997314,10.673402786254883
1781030657044370200,6.1653701171875,-3.5607149600982666,-2.5993540287017822,10.92430591583252
1781030657063895800,6.184895751953125,-3.557090997695923,-3.0840940475463867,10.95999526977539
1781030657083425500,6.204425537109375,-3.3833041191101074,-3.419363021850586,10.735589981079102
1781030657102956500,6.22395654296875,-3.3833041191101074,-3.419363021850586,10.735589981079102
1781030657122483500,6.2434833984375,-2.845745086669922,-3.537226915359497,9.772876739501953
1781030657142008300,6.26300830078125,-2.5309178829193115,-3.4012749195098877,7.593037128448486
1781030657161536000,6.282535888671875,-2.1926090717315674,-3.1583878993988037,6.815439224243164
1781030657181064200,6.302064208984375,-1.8490639925003052,-2.856013059616089,4.965565204620361
1781030657200593700,6.32159375,-1.5405199527740479,-2.5355210304260254,4.095320224761963
1781030657220121600,6.34112158203125,-1.3030149936676025,-2.189887046813965,3.1728930473327637
1781030657239647700,6.360647705078125,-1.1689629554748535,-2.0250160694122314,2.464323043823242
1781030657259174000,6.380173828125,-1.055812954902649,-1.9087610244750977,1.8635640144348145
1781030657278699500,6.399699462890625,-0.9050080180168152,-1.8409340381622314,1.4328750371932983
1781030657298225700,6.4192255859375,-0.6896510124206543,-1.801058053970337,1.2465709447860718
1781030657317751800,6.438751708984375,-0.38869398832321167,-1.5967199802398682,1.2236950397491455
1781030657337279200,6.458279296875,-0.16414299607276917,-1.3943389654159546,1.4226830005645752
1781030657356806700,6.477806640625,-0.11657600104808807,-1.1880229711532593,1.6098129749298096
1781030657376330800,6.497330810546875,-0.08915799856185913,-1.018056035041809,1.6045949459075928
1781030657395852500,6.5168525390625,-0.07026900351047516,-1.000177025794983,1.6386610269546509
1781030657415378000,6.5363779296875,-0.04702400043606758,-1.0529149770736694,1.7045869827270508
1781030657434902300,6.55590234375,0.04634400084614754,-1.0747369527816772,1.7973320484161377
1781030657454425300,6.57542529296875,0.08483900129795074,-1.0765509605407715,1.8613829612731934
1781030657473951700,6.59495166015625,0.20425200462341309,-1.0364329814910889,1.7000889778137207
1781030657493477400,6.614477294921875,0.5053099989891052,-0.8774020075798035,1.305582046508789
1781030657513004300,6.63400439453125,0.7545099854469299,-0.620369017124176,0.8436949849128723
1781030657532532000,6.653531982421875,0.8778579831123352,-0.23104999959468842,0.289247989654541
1781030657552055300,6.67305517578125,0.7518460154533386,0.23244500160217285,-0.4056270122528076
1781030657571583000,6.6925830078125,0.39653998613357544,0.590906023979187,-1.0948950052261353
1781030657591116300,6.7121162109375,0.1302880048751831,0.7865819931030273,-1.7318439483642578
1781030657610646800,6.731646728515625,0.17321300506591797,0.8690170049667358,-2.3261868953704834
1781030657630174200,6.75117431640625,0.47262999415397644,1.0534089803695679,-2.749134063720703
1781030657649703200,6.770703125,0.9133899807929993,1.2615200281143188,-3.0919179916381836
1781030657669230300,6.790230224609375,1.2704709768295288,1.4712990522384644,-3.545159101486206
1781030657688754200,6.809754150390625,1.4598610401153564,1.7482329607009888,-4.009283065795898
1781030657708276200,6.829276123046875,1.6101850271224976,2.0550639629364014,-5.351196765899658
1781030657727801300,6.84880126953125,1.7322779893875122,2.3458099365234375,-5.561682224273682
1781030657747332000,6.86833203125,1.8774609565734863,2.545797109603882,-5.947402000427246
1781030657766862800,6.88786279296875,2.0420420169830322,2.666140079498291,-7.444396018981934
1781030657786391000,6.90739111328125,2.142582893371582,2.6260249614715576,-7.759842872619629
1781030657805915100,6.9269150390625,2.1367440223693848,2.562652111053467,-9.076852798461914
1781030657825445400,6.9464453125,2.116992950439453,2.640467882156372,-9.182014465332031
1781030657844978400,6.965978515625,2.116992950439453,2.640467882156372,-9.182014465332031
1781030657864509700,6.985509765625,2.11982798576355,3.3394229412078857,-8.964105606079102
1781030657884039400,7.005039306640625,2.102850914001465,5.023393154144287,-8.739874839782715
1781030657903566600,7.024566650390625,2.102850914001465,5.023393154144287,-8.739874839782715
1781030657923093200,7.04409326171875,1.637781023979187,4.957205772399902,-8.146949768066406
1781030657942617300,7.063617431640625,1.637781023979187,4.957205772399902,-8.146949768066406
1781030657962140700,7.083140625,0.7471709847450256,4.781095027923584,-7.579864025115967
1781030657981665500,7.10266552734375,0.45492199063301086,4.604698181152344,-6.806964874267578
1781030658001191400,7.12219140625,0.15108799934387207,4.382203102111816,-5.918118953704834
1781030658020717800,7.1417177734375,-0.2845570147037506,3.8078250885009766,-4.908429145812988
1781030658040242200,7.1612421875,-0.9580230116844177,2.0426299571990967,-3.0661749839782715
1781030658059767300,7.180767333984375,-1.3647539615631104,1.512287974357605,-2.227876901626587
1781030658079290000,7.2002900390625,-1.4226709604263306,0.9701520204544067,-0.4184359908103943
1781030658098813400,7.2198134765625,-1.4236160516738892,0.6136940121650696,0.39301198720932007
1781030658118340400,7.23934033203125,-1.5328129529953003,0.23559199273586273,2.511017084121704
1781030658137865200,7.258865234375,-2.0664288997650146,-0.2926659882068634,4.680826187133789
1781030658157389600,7.2783896484375,-2.6195590496063232,-0.673973023891449,5.266811847686768
1781030658176915500,7.29791552734375,-2.6869170665740967,-0.9035170078277588,7.047284126281738
1781030658196445000,7.31744482421875,-2.5848779678344727,-1.026785969734192,7.707282066345215
1781030658215978800,7.336978759765625,-2.675997018814087,-1.2339489459991455,9.595301628112793
1781030658235509000,7.356509033203125,-2.893990993499756,-1.7111940383911133,11.274025917053223
1781030658255035100,7.37603515625,-3.148751974105835,-3.1801319122314453,11.801156044006348
1781030658274562600,7.3955625,-3.1249489784240723,-3.5200319290161133,12.176189422607422
1781030658294087200,7.415087158203125,-2.702078104019165,-3.7216989994049072,12.109764099121094
1781030658313609700,7.434609619140625,-2.2872369289398193,-3.793186902999878,11.62484359741211
1781030658333137700,7.4541376953125,-2.0836620330810547,-3.672637939453125,10.76742172241211
1781030658352667600,7.473667724609375,-2.0192110538482666,-3.4048941135406494,8.679295539855957
1781030658372192800,7.49319287109375,-2.0230209827423096,-3.1036019325256348,6.4390082359313965
1781030658391718700,7.51271875,-1.9409350156784058,-2.744939088821411,5.579342842102051
1781030658411251000,7.5322509765625,-1.764204978942871,-2.4527740478515625,3.7289040088653564
1781030658430787000,7.551787109375,-1.5611759424209595,-2.255897045135498,3.0337090492248535
1781030658450322400,7.571322509765625,-1.3169399499893188,-2.1995060443878174,2.350266933441162
1781030658469849900,7.590849853515625,-1.132781982421875,-2.2028329372406006,1.8290050029754639
1781030658489372700,7.61037255859375,-0.9225749969482422,-2.1651360988616943,1.4455430507659912
1781030658508903400,7.6299033203125,-0.6156929731369019,-2.100477933883667,1.183650016784668
1781030658528435200,7.649435302734375,-0.2920910120010376,-1.9340779781341553,1.0596959590911865
1781030658547960000,7.6689599609375,0.0636489987373352,-1.7012029886245728,1.034769058227539
1781030658567485200,7.688485107421875,0.3287050127983093,-1.4943870306015015,1.0550949573516846
1781030658587007700,7.7080078125,0.42876899242401123,-1.3119540214538574,1.1216599941253662
1781030658606527500,7.727527587890625,0.48530200123786926,-1.0953409671783447,1.153306007385254
1781030658626048500,7.747048583984375,0.49443700909614563,-0.956404983997345,1.1277730464935303
1781030658645568800,7.76656884765625,0.49443700909614563,-0.956404983997345,1.1277730464935303
1781030658665090800,7.7860908203125,0.486176997423172,-0.6826429963111877,1.297631025314331
1781030658684617000,7.805616943359375,0.5743190050125122,-0.566215991973877,1.1566189527511597
1781030658704143400,7.825143310546875,0.8053799867630005,-0.4960879981517792,0.7799720168113708
1781030658723664400,7.844664306640625,0.9443910121917725,-0.3849389851093292,0.3538149893283844
1781030658743182600,7.8641826171875,1.0093079805374146,-0.28807398676872253,-0.30792000889778137
1781030658762704400,7.883704345703125,1.0093079805374146,-0.28807398676872253,-0.30792000889778137
1781030658782226700,7.903226806640625,0.6937710046768188,-0.03890100121498108,-1.668637990951538
1781030658801751600,7.92275146484375,0.45795199275016785,0.13787800073623657,-2.305103063583374
1781030658821281800,7.94228173828125,0.32186800241470337,0.3420270085334778,-2.7357449531555176
1781030658840813000,7.96181298828125,0.40792301297187805,0.6281750202178955,-3.0441970825195312
1781030658860339500,7.98133935546875,0.6439039707183838,0.9211140275001526,-3.3131539821624756
1781030658879864000,8.000864013671874,0.9531769752502441,1.258849024772644,-3.527657985687256
1781030658899389400,8.020389404296875,1.2494800090789795,1.59709894657135,-3.776357889175415
1781030658918914000,8.0399140625,1.4465090036392212,1.8257709741592407,-4.180414199829102
1781030658938436400,8.059436279296875,1.5983649492263794,2.0298399925231934,-5.62409782409668
1781030658957961700,8.078961669921876,1.6995110511779785,2.2001609802246094,-5.945855140686035
1781030658977491000,8.098490966796875,1.801772952079773,2.3767940998077393,-7.465814113616943
1781030658997019400,8.118019287109375,2.0239429473876953,2.5962069034576416,-7.784706115722656
1781030659016549400,8.13754931640625,2.1925320625305176,2.798398971557617,-9.110245704650879
1781030659036079900,8.157079833984374,2.2337870597839355,2.946135997772217,-9.262333869934082
1781030659055610600,8.176610595703124,2.167910099029541,3.06972599029541,-9.438709259033203
1781030659075136000,8.196135986328125,1.9798799753189087,3.229398012161255,-9.498308181762695
1781030659094663200,8.2156630859375,1.8200370073318481,3.39936900138855,-9.40536880493164
1781030659114191000,8.235191162109375,1.662132978439331,3.622878074645996,-9.1961030960083
1781030659133719000,8.254718994140624,1.4664260149002075,3.733673095703125,-8.77000904083252
1781030659153246700,8.274246826171876,1.227992057800293,3.6134939193725586,-8.077404022216797
1781030659172773600,8.293773681640625,0.9780700206756592,3.3337080478668213,-6.087447166442871
1781030659192299800,8.3132998046875,0.7992640137672424,2.856955051422119,-5.361700057983398
1781030659211825000,8.332824951171874,0.5461270213127136,2.3589890003204346,-4.459592819213867
1781030659231352300,8.352352294921875,0.18849000334739685,1.9992369413375854,-2.396275043487549
1781030659250879700,8.371879638671874,-0.2981399893760681,1.6275910139083862,-1.7022939920425415
1781030659270403600,8.391403564453125,-2.0247418880462646,1.2558399438858032,0.5663120150566101
1781030659289923600,8.410923583984374,-2.222270965576172,0.9256830215454102,1.3290330171585083
1781030659309444900,8.43044482421875,-2.514763116836548,0.5470569729804993,3.3148889541625977
1781030659328965600,8.449965576171875,-2.8515450954437256,0.15046699345111847,5.272313117980957
1781030659348484900,8.46948486328125,-3.1283369064331055,-0.3069649934768677,6.989306926727295
1781030659368006700,8.489006591796874,-3.439668893814087,-0.8896759748458862,8.983502388000488
1781030659387530200,8.5085302734375,-3.772723913192749,-2.6237499713897705,10.933257102966309
1781030659407052800,8.528052734375,-4.080482006072998,-2.9445300102233887,12.879576683044434
1781030659426573600,8.547573486328124,-4.303564071655273,-3.3862040042877197,13.232582092285156
1781030659446094600,8.567094482421876,-4.280930042266846,-3.83503794670105,13.490313529968262
1781030659465616100,8.5866162109375,-4.280930042266846,-3.83503794670105,13.490313529968262
1781030659485135600,8.606135498046875,-3.7348570823669434,-4.157044887542725,12.80838394165039
1781030659504657400,8.625657470703125,-3.7348570823669434,-4.157044887542725,12.80838394165039
1781030659524177000,8.645177001953124,-2.9378581047058105,-3.713979959487915,8.685402870178223
1781030659543693600,8.664693603515625,-2.4686899185180664,-3.4051449298858643,6.81438684463501
1781030659563214800,8.68421484375,-1.9132540225982666,-3.0409440994262695,5.959315776824951
1781030659582739000,8.703739013671875,-1.9132540225982666,-3.0409440994262695,5.959315776824951
1781030659602262300,8.72326220703125,-1.2329879999160767,-2.626396894454956,3.7992520332336426
1781030659621788200,8.7427880859375,-1.044970989227295,-2.498405933380127,3.292707920074463
1781030659641318000,8.76231787109375,-0.9044439792633057,-2.4028100967407227,3.0432629585266113
1781030659660847600,8.78184765625,-0.7459849715232849,-2.3284120559692383,3.0057361125946045
1781030659680375800,8.801375732421874,-0.5075880289077759,-2.1029300689697266,3.059993028640747
1781030659699903000,8.820903076171875,-0.4355039894580841,-1.844398021697998,3.1257519721984863
1781030659719424800,8.8404248046875,-0.545369029045105,-1.6984059810638428,3.1409730911254883
1781030659738946000,8.859946044921875,-0.6967120170593262,-1.6017030477523804,3.0575668811798096
1781030659758470100,8.87947021484375,-0.8447160124778748,-1.5918760299682617,2.895416021347046
1781030659777991400,8.898991455078125,-0.7956569790840149,-1.5813020467758179,2.7461659908294678
1781030659797512200,8.91851220703125,-0.5040730237960815,-1.5229929685592651,2.585716962814331
1781030659817038800,8.938038818359376,-0.20272499322891235,-1.4237580299377441,2.2847509384155273
1781030659836567000,8.957567138671875,0.23237000405788422,-1.2059669494628906,1.7452659606933594
1781030659856093200,8.97709326171875,0.7072479724884033,-0.9079269766807556,-0.1948920041322708
1781030659875615200,8.996615234375,0.9958429932594299,-0.47540000081062317,-0.8282660245895386
1781030659895136300,9.01613623046875,1.1331870555877686,0.06408700346946716,-1.577347993850708
1781030659914658300,9.035658203125,1.024495005607605,0.42598700523376465,-2.2504489421844482
1781030659934179800,9.055179931640625,0.7052509784698486,0.6943399906158447,-4.081679821014404
1781030659953698800,9.07469873046875,0.5560160279273987,0.9887790083885193,-4.318933010101318
1781030659973217800,9.0942177734375,0.6414330005645752,1.039612054824829,-4.764204978942871
1781030659992739300,9.1137392578125,0.8766080141067505,1.0921059846878052,-6.225189208984375
1781030660012261000,9.13326123046875,1.2829090356826782,1.1308939456939697,-6.307724952697754
1781030660031782700,9.15278271484375,1.8148740530014038,0.8862169981002808,-6.455872058868408
1781030660051308000,9.17230810546875,2.265979051589966,0.7367740273475647,-8.0261869430542
1781030660070834200,9.191834228515624,2.5408549308776855,0.7889500260353088,-8.052769660949707
1781030660090357800,9.211357666015624,2.5666890144348145,1.1750799417495728,-9.479304313659668
1781030660109879300,9.23087939453125,2.256632089614868,1.723091959953308,-9.390703201293945
1781030660129397800,9.250397705078125,1.8383660316467285,1.8178019523620605,-9.102766990661621
1781030660148913700,9.26991357421875,1.6323169469833374,1.5663739442825317,-8.725090980529785
1781030660168430600,9.2894306640625,1.6002830266952515,1.1402859687805176,-8.354948043823242
1781030660187952400,9.308952392578124,1.6330889463424683,0.8586969971656799,-7.900119781494141
1781030660207477000,9.32847705078125,1.9376389980316162,1.2528259754180908,-7.8777971267700195
1781030660227000600,9.34800048828125,2.223299980163574,2.956679105758667,-9.799241065979004
1781030660246523100,9.367523193359375,1.771360993385315,3.1868529319763184,-11.643072128295898
1781030660266048800,9.387048828125,-0.8119019865989685,2.962441921234131,-11.642983436584473
1781030660285575400,9.406575439453125,-0.8119019865989685,2.962441921234131,-11.642983436584473
1781030660305096700,9.4260966796875,-3.168872117996216,-0.8615300059318542,-6.54404878616333
1781030660324613600,9.445613525390625,-1.434574007987976,-1.365630030632019,-2.107952117919922
1781030660344138200,9.46513818359375,1.6657869815826416,-1.5338939428329468,-0.04165500029921532
1781030660363665000,9.484664794921875,1.969336986541748,-1.2558809518814087,0.5327060222625732
1781030660383189200,9.504189208984375,1.5980169773101807,0.674589991569519,0.9349330067634583
1781030660402710800,9.523710693359375,1.5980169773101807,0.674589991569519,0.9349330067634583
1781030660422232000,9.543232177734374,-3.742583990097046,1.3727960586547852,3.395287036895752
1781030660441755000,9.5627548828125,-5.195818901062012,1.7120840549468994,5.823331832885742
1781030660461277000,9.58227685546875,-5.006797790527344,1.885759949684143,8.434672355651855
1781030660480796700,9.601796630859376,-3.4027860164642334,1.7922459840774536,10.173763275146484
1781030660500316200,9.621316162109375,-3.227487087249756,1.3236229419708252,10.612356185913086
1781030660519839500,9.640839599609375,-2.9979159832000732,-0.5176770091056824,12.128368377685547
1781030660539365400,9.660365478515626,-2.7188940048217773,-2.1572868824005127,12.32309627532959
1781030660558889700,9.6798896484375,-2.302424907684326,-3.7729458808898926,12.3937406539917
1781030660578410800,9.69941064453125,-1.7841860055923462,-3.81164288520813,12.12756633758545
1781030660597933600,9.71893359375,-1.4016649723052979,-3.7518699169158936,11.360113143920898
1781030660617459500,9.73845947265625,-1.2767339944839478,-3.4691379070281982,9.355916023254395
1781030660636987600,9.757987548828124,-1.2985420227050781,-2.934730052947998,8.622932434082031
1781030660656518700,9.7775185546875,-1.309622049331665,-2.291938066482544,6.64599084854126
1781030660676049700,9.797049560546874,-1.2966790199279785,-1.7603000402450562,5.829935073852539
1781030660695582200,9.816582275390624,-1.2881009578704834,-1.3246829509735107,5.00563907623291
1781030660715114200,9.8361142578125,-1.2332849502563477,-1.0013489723205566,4.341255187988281
1781030660734649900,9.85564990234375,-1.2451679706573486,-0.9013749957084656,3.975435972213745
1781030660754186200,9.875186279296875,-1.2322560548782349,-0.8909000158309937,3.727703094482422
1781030660773718800,9.89471875,-1.1738829612731934,-0.967743992805481,3.5471129417419434
1781030660793248800,9.914248779296875,-1.1207959651947021,-1.160398006439209,3.3777430057525635
1781030660812784400,9.933784423828126,-0.8341040015220642,-1.3482869863510132,3.257725954055786
1781030660832321300,9.9533212890625,-0.43664100766181946,-1.4387919902801514,3.1955881118774414
1781030660851851500,9.9728515625,-0.05933399870991707,-1.4460020065307617,3.1492769718170166
1781030660871376100,9.992376220703125,0.20823800563812256,-1.3325029611587524,3.091897964477539
1781030660890907000,10.011906982421875,0.24775299429893494,-1.207049012184143,2.9925780296325684
1781030660910444300,10.0314443359375,0.2626599967479706,-1.099437952041626,2.836678981781006
1781030660929979000,10.050978759765625,0.42298299074172974,-0.9317929744720459,2.490786075592041
1781030660949513000,10.070512939453126,0.6856359839439392,-0.7441539764404297,1.9340089559555054
1781030660969042700,10.090042724609376,1.0166230201721191,-0.46337801218032837,1.1100759506225586
1781030660988566300,10.109566162109376,1.1523890495300293,-0.19909000396728516,-0.7798309922218323
1781030661008086300,10.129086181640625,0.9720379710197449,-0.17496299743652344,-1.4133379459381104
1781030661027610000,10.148610107421876,0.8204410076141357,-0.23909400403499603,-3.313793897628784
1781030661047137500,10.168137451171875,0.8631420135498047,-0.1423729956150055,-3.618743896484375
1781030661066665500,10.18766552734375,0.9754679799079895,0.2416130006313324,-4.078242778778076
1781030661086192600,10.207192626953125,1.0514309406280518,0.7510010004043579,-5.77809476852417
1781030661105713400,10.22671337890625,0.7686740159988403,1.148630976676941,-5.929104804992676
1781030661125236200,10.246236328125,0.24841000139713287,1.2431479692459106,-6.276759147644043
1781030661144761600,10.26576171875,0.042520999908447266,1.0261600017547607,-7.693181991577148
1781030661164287700,10.285287841796874,1.4440029859542847,0.7978450059890747,-7.9033098220825195
1781030661183812900,10.304812744140625,3.3332910537719727,0.6223809719085693,-9.438427925109863
1781030661203337200,10.324337158203125,3.6547510623931885,0.7335320115089417,-9.570425033569336
1781030661222862600,10.343862548828126,3.6547510623931885,0.7335320115089417,-9.570425033569336
1781030661242389500,10.363389404296875,4.582276821136475,1.2989579439163208,-11.410860061645508
1781030661261917000,10.3829169921875,4.451048851013184,1.931331992149353,-11.49632740020752
1781030661281442300,10.4024423828125,4.196164131164551,2.431011915206909,-11.461112976074219
1781030661300968700,10.42196875,3.7877180576324463,2.7624199390411377,-11.35603141784668
1781030661320494800,10.441494873046874,3.080832004547119,2.816761016845703,-10.961133003234863
1781030661340020700,10.461020751953125,2.408452033996582,2.562459945678711,-10.062623023986816
1781030661359543800,10.480543701171875,1.8471059799194336,2.0454800128936768,-7.957819938659668
1781030661379066600,10.500066650390625,1.4663989543914795,1.5412280559539795,-5.787203788757324
1781030661398589200,10.519589111328125,1.3780670166015625,1.1143909692764282,-4.994162082672119
1781030661418109400,10.539109375,1.1168930530548096,0.7814019918441772,-4.0032758712768555
1781030661437629700,10.558629638671874,0.5754600167274475,0.645546019077301,-2.0777299404144287
1781030661457151500,10.5781513671875,-0.09573999792337418,0.6175010204315186,-1.1765259504318237
1781030661496210400,10.61721044921875,-2.2151830196380615,0.9377110004425049,3.055811882019043
1781030661515740200,10.636740234375,-2.7569799423217773,1.0561809539794922,5.0895562171936035
1781030661535267300,10.656267333984376,-3.4024109840393066,1.0037349462509155,7.256967067718506
1781030661554796000,10.675796142578125,-4.832830905914307,0.7650520205497742,9.358016014099121
1781030661574324500,10.695324462890625,-4.833930969238281,0.441211998462677,11.144749641418457
1781030661593849900,10.714849853515625,-4.69966983795166,0.08680900186300278,11.616159439086914
1781030661613375700,10.734375732421874,-4.479365825653076,-0.2034280002117157,13.206686973571777
1781030661632902400,10.75390234375,-4.150318145751953,-0.4986099898815155,13.603087425231934
1781030661652426000,10.773426025390625,-3.8713419437408447,-0.780456006526947,13.72021198272705
1781030661671946500,10.792946533203125,-3.6258530616760254,-1.0218169689178467,13.286404609680176
1781030661691470000,10.812469970703125,-3.424633026123047,-1.2588080167770386,11.081052780151367
1781030661710997800,10.831997802734374,-3.21058988571167,-1.4622160196304321,8.931246757507324
1781030661730529800,10.85152978515625,-2.880002021789551,-1.647650957107544,6.971625804901123
1781030661750058800,10.871058837890626,-2.4783871173858643,-1.745316982269287,6.156856060028076
1781030661769583600,10.89058349609375,-2.0512709617614746,-1.759421944618225,4.2670488357543945
1781030661789108000,10.91010791015625,-1.5376650094985962,-1.6808029413223267,3.601349115371704
1781030661808633000,10.929633056640625,-1.168916940689087,-1.573503017425537,3.143789052963257
1781030661828163600,10.94916357421875,-0.9226419925689697,-1.5204910039901733,2.969827890396118
1781030661847690500,10.9686904296875,-0.6126149892807007,-1.4469939470291138,2.9595251083374023
1781030661867213600,10.988213623046875,-0.360944002866745,-1.4233169555664062,3.0029470920562744
1781030661886738400,11.007738525390625,-0.1396310031414032,-1.4180749654769897,2.95646595954895
1781030661906265900,11.027265869140624,0.15817700326442719,-1.2537130117416382,2.76163911819458
1781030661925798400,11.04679833984375,0.3305569887161255,-1.0877629518508911,2.560127019882202
1781030661945330700,11.06633056640625,0.3305569887161255,-1.0877629518508911,2.560127019882202
1781030661964856800,11.08585693359375,0.3995879888534546,-0.6237310171127319,2.2603559494018555
1781030661984384000,11.105384033203125,0.3995879888534546,-0.6237310171127319,2.2603559494018555
1781030662003915800,11.124915771484375,0.34429800510406494,-0.46052899956703186,1.8688850402832031
1781030662023449600,11.14444970703125,0.6804620027542114,-0.24897800385951996,1.4773449897766113
1781030662042985700,11.16398583984375,0.6804620027542114,-0.24897800385951996,1.4773449897766113
1781030662062523400,11.1835234375,1.5595489740371704,0.08832599967718124,0.6603149771690369
1781030662082058800,11.203058837890625,2.081918954849243,0.14563700556755066,-1.3195810317993164
1781030662101596000,11.222595947265624,2.2336161136627197,0.05741000175476074,-1.9621440172195435
1781030662121132500,11.242132568359375,2.2828431129455566,0.04513400048017502,-3.6515719890594482
1781030662140664600,11.26166455078125,2.2836270332336426,0.18664400279521942,-4.112433910369873
1781030662160197000,11.281197021484376,2.0582289695739746,0.2558790147304535,-4.639701843261719
1781030662179732500,11.300732421875,1.7076059579849243,0.17682099342346191,-5.1704301834106445
1781030662199269000,11.32026904296875,1.2543820142745972,-0.16731199622154236,-6.748685836791992
1781030662218799600,11.339799560546876,0.873894989490509,-0.4026139974594116,-8.158846855163574
1781030662238325500,11.359325439453125,0.7789679765701294,-0.27950501441955566,-8.369283676147461
1781030662257848600,11.3788486328125,0.9323350191116333,0.12373799830675125,-9.998451232910156
1781030662277369000,11.398369140625,1.20899498462677,0.7977790236473083,-10.035181045532227
1781030662296893400,11.4178935546875,1.4193040132522583,1.40025794506073,-11.360055923461914
1781030662316425200,11.43742529296875,1.6350380182266235,1.8745590448379517,-11.153759956359863
1781030662335960600,11.456960693359376,1.9345840215682983,2.340419054031372,-11.068129539489746
1781030662355496400,11.476496337890625,2.248300075531006,2.7943689823150635,-11.059958457946777
1781030662375033600,11.49603369140625,2.4948360919952393,3.225801944732666,-10.953164100646973
1781030662394568700,11.515568603515625,2.5962820053100586,3.5634140968322754,-10.61766242980957
1781030662414103800,11.535103759765626,2.594409942626953,3.7809970378875732,-10.04987907409668
1781030662433638400,11.554638427734375,2.5586769580841064,3.8923730850219727,-9.324505805969238
1781030662453174800,11.5741748046875,2.3397579193115234,3.7966840267181396,-8.576515197753906
1781030662472712200,11.593712158203125,1.9031800031661987,3.3712658882141113,-7.61393404006958
1781030662492249000,11.6132490234375,1.4651379585266113,2.749346971511841,-5.590900897979736
1781030662511787300,11.632787353515624,1.092270016670227,2.19177508354187,-3.3134069442749023
1781030662531325700,11.65232568359375,0.9824740290641785,1.7799359560012817,-2.4469759464263916
1781030662550865200,11.671865234375,0.886929988861084,1.591380000114441,-1.5438779592514038
1781030662570400300,11.691400146484375,0.43087899684906006,1.5839109420776367,-0.8268409967422485
1781030662589933800,11.710933837890625,-1.2586400508880615,1.6239299774169922,-0.013259000144898891
1781030662609470700,11.730470703125,-3.1413300037384033,1.6547839641571045,1.860990047454834
1781030662629007600,11.750007568359376,-3.3078548908233643,1.667078971862793,3.7350709438323975
1781030662648545800,11.7695458984375,-3.5141849517822266,1.475072979927063,6.0904741287231445
1781030662668082200,11.789082275390625,-3.614722967147827,0.9696149826049805,8.646232604980469
1781030662687618000,11.8086181640625,-3.340545892715454,-0.7543709874153137,11.031566619873047
1781030662707159600,11.82815966796875,-2.790492057800293,-1.029384970664978,12.98397445678711
1781030662726705000,11.847704833984375,-2.169814109802246,-1.3933720588684082,13.6005220413208
1781030662746249200,11.867249267578124,-1.66839599609375,-1.6619679927825928,13.871346473693848
1781030662765791500,11.88679150390625,-1.6352399587631226,-1.885640025138855,13.905680656433105
1781030662785334000,11.906333984375,-1.6352399587631226,-1.885640025138855,13.905680656433105
1781030662804877800,11.9258779296875,-2.2766940593719482,-2.071341037750244,12.989860534667969
1781030662824418000,11.94541796875,-2.2766940593719482,-2.071341037750244,12.989860534667969
1781030662843956700,11.964956787109376,-1.6865170001983643,-1.9088139533996582,10.028185844421387
1781030662863496200,11.98449609375,-1.2988320589065552,-1.561830997467041,7.28217887878418
1781030662883028500,12.004028564453124,-1.2988320589065552,-1.561830997467041,7.28217887878418
1781030662902557200,12.02355712890625,-1.0221439599990845,-1.2761269807815552,4.61510705947876
1781030662922084900,12.0430849609375,-1.2150839567184448,-1.3017079830169678,4.01356315612793
1781030662941613000,12.062613037109376,-1.25308096408844,-1.4319299459457397,3.4257049560546875
1781030662961140200,12.08214013671875,-1.0893230438232422,-1.4986759424209595,2.959984064102173
1781030662980669700,12.101669677734375,-0.8692970275878906,-1.6109800338745117,2.728818893432617
1781030663000206800,12.121206787109376,-0.6019830107688904,-1.674124002456665,2.6714529991149902
1781030663019744500,12.14074462890625,-0.3050589859485626,-1.6388930082321167,2.666121006011963
1781030663039284700,12.16028466796875,-0.0683630034327507,-1.5609380006790161,2.683820962905884
1781030663058827000,12.179826904296876,0.10029900074005127,-1.3854559659957886,2.676245927810669
1781030663078366000,12.199365966796876,0.27599599957466125,-1.0813390016555786,2.576888084411621
1781030663097905200,12.2189052734375,0.3912709951400757,-0.7627419829368591,2.443495035171509
1781030663117445000,12.238445068359376,0.4522930085659027,-0.5107430219650269,2.3151021003723145
1781030663136984600,12.257984619140625,0.36932700872421265,-0.27410298585891724,2.112375020980835
1781030663156527000,12.277527099609374,0.20921200513839722,-0.12757599353790283,1.7334500551223755
1781030663176070400,12.2970703125,0.17744800448417664,-0.00571900000795722,1.07977294921875
1781030663195612400,12.3166123046875,0.31033700704574585,0.13183900713920593,-0.9303560256958008
1781030663215150300,12.336150390625,0.3699150085449219,0.1243550032377243,-1.3723560571670532
1781030663234683600,12.35568359375,0.3995720148086548,0.009305999614298344,-1.8759690523147583
1781030663254215200,12.375215087890625,0.40326398611068726,-0.17046399414539337,-2.3579859733581543
1781030663273752000,12.394751953125,0.12320999801158905,-0.4123679995536804,-2.891226053237915
1781030663293292800,12.414292724609375,-0.014712000265717506,-0.5563579797744751,-3.472014904022217
1781030663312829400,12.433829345703124,0.217399001121521,-0.4192500114440918,-4.0540080070495605
1781030663332363300,12.45336328125,0.5061730146408081,-0.1530580073595047,-4.609662055969238
1781030663351902200,12.472902099609374,0.9258520007133484,0.2146729975938797,-5.979834079742432
1781030663371442000,12.49244189453125,1.4499609470367432,0.5101240277290344,-6.350812911987305
1781030663390976000,12.51197607421875,1.903710961341858,0.5839809775352478,-7.874114990234375
1781030663410509000,12.531509033203125,2.1811161041259766,0.4820300042629242,-8.174185752868652
1781030663430046000,12.5510458984375,2.315812110900879,0.2955319881439209,-9.295628547668457
1781030663449589500,12.570589599609375,2.315808057785034,0.3345470130443573,-9.33198356628418
1781030663469132500,12.590132568359374,2.0917789936065674,0.7086790204048157,-9.544415473937988
1781030663488669200,12.609669189453125,1.8631319999694824,2.6825389862060547,-10.671249389648438
1781030663508200400,12.629200439453125,1.5903400182724,3.074202060699463,-10.66797924041748
1781030663527724500,12.648724609375,1.104321002960205,3.4822239875793457,-10.676057815551758
1781030663547246800,12.668246826171876,0.6365209817886353,3.7044320106506348,-10.54951000213623
1781030663566771700,12.687771728515624,0.35802099108695984,3.710129976272583,-10.088157653808594
1781030663586299400,12.70729931640625,0.437063992023468,3.597752094268799,-9.260489463806152
1781030663605831200,12.7268310546875,0.8205969929695129,3.3514909744262695,-7.118113994598389
1781030663625367300,12.7463671875,0.8205969929695129,3.3514909744262695,-7.118113994598389
1781030663644905200,12.7659052734375,1.0646599531173706,1.0828629732131958,-4.141489028930664
1781030663664447000,12.785447021484375,0.8339369893074036,0.7219939827919006,-2.329896926879883
1781030663683990800,12.80499072265625,0.5695260167121887,0.46464401483535767,-1.8423290252685547
1781030663703530000,12.824530029296875,0.276995986700058,0.49407100677490234,-1.2926379442214966
1781030663723067100,12.844067138671875,-0.11413499712944031,0.762969970703125,-0.5478100180625916
1781030663742601000,12.86360107421875,-0.11413499712944031,0.762969970703125,-0.5478100180625916
1781030663762136300,12.88313623046875,-2.34013295173645,1.321714997291565,3.6252388954162598
1781030663781671400,12.90267138671875,-2.9914400577545166,1.2064529657363892,5.903421878814697
1781030663801207000,12.92220703125,-3.4668710231781006,0.9015650153160095,8.084755897521973
1781030663820746800,12.941746826171874,-3.604572057723999,0.4402939975261688,10.040395736694336
1781030663840289500,12.96128955078125,-3.5076680183410645,-0.11515100300312042,11.712084770202637
1781030663859836700,12.980836669921874,-3.30137300491333,-1.821267008781433,13.250828742980957
1781030663879383000,13.000383056640626,-3.0823678970336914,-2.037682056427002,13.488089561462402
1781030663898929000,13.019928955078125,-2.900805950164795,-2.4892420768737793,13.591464042663574
1781030663918468600,13.039468505859375,-2.73362398147583,-3.0299899578094482,13.237405776977539
1781030663938002400,13.05900244140625,-2.4928879737854004,-3.44911789894104,11.103174209594727
1781030663957541600,13.078541748046876,-2.006762981414795,-3.557666063308716,9.051169395446777
1781030663977082000,13.09808203125,-1.376281976699829,-3.3230578899383545,8.253175735473633
1781030663996617500,13.117617431640625,-0.8133590221405029,-2.7598650455474854,6.201034069061279
1781030664016154000,13.137154052734376,-0.4004260003566742,-2.019500970840454,5.2848358154296875
1781030664035697700,13.15669775390625,-0.4076879918575287,-1.5161269903182983,4.44782018661499
1781030664055240400,13.176240478515625,-0.6232969760894775,-1.2671129703521729,3.746256113052368
1781030664074778000,13.195778076171875,-0.6555250287055969,-1.2231299877166748,3.1838219165802
1781030664094316300,13.21531640625,-0.6215819716453552,-1.3679649829864502,2.8589229583740234
1781030664113849300,13.234849365234375,-0.3155139982700348,-1.3411999940872192,2.5635368824005127
1781030664133376300,13.254376220703126,0.15356500446796417,-1.1273150444030762,2.2897770404815674
1781030664152900400,13.273900390625,0.39261001348495483,-1.0048810243606567,2.3692450523376465
1781030664172428300,13.29342822265625,0.5091549754142761,-0.9434319734573364,3.5682389736175537
1781030664191962400,13.31296240234375,0.36837899684906006,-0.9780570268630981,3.590765953063965
1781030664211498500,13.33249853515625,0.17821399867534637,-1.2228399515151978,3.698101043701172
1781030664231032800,13.35203271484375,0.3880150020122528,-1.3936799764633179,3.488313913345337
1781030664250564600,13.371564697265624,0.933247983455658,-1.2107969522476196,2.8307290077209473
1781030664270096100,13.39109619140625,1.3311519622802734,-0.9178580045700073,2.0650339126586914
1781030664289627600,13.410627685546874,1.2077490091323853,-0.5414249897003174,1.3287899494171143
1781030664309158700,13.43015869140625,-0.33194100856781006,-0.012896000407636166,0.5325559973716736
1781030664328690700,13.449690673828124,-0.49572399258613586,0.2686150074005127,-0.20704899728298187
1781030664348225000,13.46922509765625,-0.6949049830436707,0.21801699697971344,-2.3227169513702393
1781030664367760000,13.488759765625,-0.5379030108451843,0.2055090069770813,-2.9809670448303223
1781030664387294000,13.5082939453125,1.354882001876831,0.27377399802207947,-4.598927021026611
1781030664406822000,13.52782177734375,1.5864579677581787,0.24732300639152527,-6.160464763641357
1781030664426347300,13.54734716796875,1.6743919849395752,0.29874899983406067,-6.405546188354492
1781030664445877200,13.566877197265624,1.5652079582214355,0.3656040132045746,-7.895540237426758
1781030664465411600,13.58641162109375,1.5652079582214355,0.3656040132045746,-7.895540237426758
1781030664484944400,13.6059443359375,1.0132780075073242,0.14111100137233734,-8.550668716430664
1781030664504473900,13.625473876953125,1.3647650480270386,0.10174600034952164,-9.746138572692871
1781030664524004600,13.645004638671875,2.993151903152466,0.06574200093746185,-9.667997360229492
1781030664543536400,13.664536376953125,2.977484941482544,0.12249600142240524,-9.691765785217285
1781030664563067000,13.68406689453125,2.7877390384674072,0.3795909881591797,-10.932589530944824
1781030664582596600,13.7035966796875,2.7877390384674072,0.3795909881591797,-10.932589530944824
1781030664602124800,13.723124755859375,2.260274887084961,1.4185409545898438,-12.448225021362305
1781030664621650700,13.742650634765624,1.9945780038833618,1.9336810111999512,-12.10862922668457
1781030664641177900,13.762177734375,1.8316880464553833,2.249936103820801,-11.394543647766113
1781030664660705500,13.78170556640625,1.6913889646530151,2.243665933609009,-9.089777946472168
1781030664680235300,13.8012353515625,1.3670430183410645,1.9178149700164795,-8.211345672607422
1781030664699770400,13.820770263671875,0.890550971031189,1.5597349405288696,-6.2480340003967285
1781030664719306800,13.840306640625,0.4355669915676117,1.2821639776229858,-5.28002405166626
1781030664738842400,13.85984228515625,0.025072000920772552,1.1665010452270508,-3.3387069702148438
1781030664758380000,13.879380126953125,-0.2473430037498474,1.2807669639587402,-2.70450496673584
1781030664777912300,13.898912353515625,-0.5756660103797913,1.463945984840393,-2.033453941345215
1781030664797436700,13.918436767578125,-1.135496973991394,1.608119010925293,-1.1576650142669678
1781030664816962000,13.937962158203124,-1.732064962387085,1.6657090187072754,1.1093649864196777
1781030664836492500,13.957492431640626,-2.1221909523010254,1.552327036857605,3.361790895462036
1781030664856025300,13.977025390625,-2.234330892562866,1.3043559789657593,5.233390808105469
1781030664875555000,13.99655517578125,-2.0424211025238037,0.9354820251464844,7.111433029174805
1781030664895084300,14.016084228515625,-1.9599000215530396,0.3812139928340912,7.657472133636475
1781030664914618400,14.035618408203124,-2.0956079959869385,-1.1109570264816284,9.692753791809082
1781030664934154500,14.055154541015625,-2.0072600841522217,-1.6417829990386963,10.123903274536133
1781030664953693000,14.07469287109375,-1.6737960577011108,-3.1214120388031006,11.78643798828125
1781030664973228500,14.094228515625,-1.0763059854507446,-3.3856449127197266,11.840591430664062
1781030664992758500,14.113758544921875,0.5018270015716553,-3.5165131092071533,11.62336254119873
1781030665012289300,14.133289306640625,0.499004989862442,-3.556520938873291,11.070537567138672
1781030665031825400,14.152825439453125,0.5578230023384094,-3.3228869438171387,8.669475555419922
1781030665051360500,14.172360595703125,1.0141509771347046,-2.857819080352783,6.446011066436768
1781030665070894300,14.191894287109376,1.4072519540786743,-2.326383113861084,5.775195121765137
1781030665090431200,14.21143115234375,1.6589289903640747,-0.4212929904460907,4.971803188323975
1781030665109965800,14.2309658203125,1.2599079608917236,0.13017800450325012,4.256606101989746
1781030665129497600,14.25049755859375,-0.6391500234603882,0.6003919839859009,3.698646068572998
1781030665149028400,14.2700283203125,-0.8037030100822449,0.9744179844856262,3.137868881225586
1781030665168561200,14.28956103515625,-0.8165860176086426,0.7682089805603027,2.5964560508728027
1781030665188096500,14.309096435546875,-0.3630169928073883,0.20295600593090057,2.2830429077148438
1781030665207630000,14.328630126953126,0.2723189890384674,-0.22209399938583374,2.124358892440796
1781030665227158000,14.348157958984375,0.6976869702339172,-0.6231459975242615,2.1282429695129395
1781030665246686700,14.367686767578125,0.9377419948577881,-0.8807700276374817,2.255786895751953
1781030665266215200,14.387215087890626,0.9678379893302917,-0.9754520058631897,2.390660047531128
1781030665285742300,14.406742431640625,0.7773330211639404,-1.2003350257873535,2.6057989597320557
1781030665305276000,14.42627587890625,0.7773330211639404,-1.2003350257873535,2.6057989597320557
1781030665324811500,14.4458115234375,0.25711899995803833,-1.412703037261963,3.2084410190582275
1781030665344346600,14.4653466796875,0.25711899995803833,-1.412703037261963,3.2084410190582275
1781030665383412200,14.504412109375,0.7910879850387573,-0.7362200021743774,3.020937919616699
1781030665402942700,14.523942626953126,0.7910879850387573,-0.7362200021743774,3.020937919616699
1781030665422472700,14.54347265625,1.1440290212631226,-0.22007299959659576,0.7287449836730957
1781030665442000400,14.56300048828125,-0.5371279716491699,-0.09851399809122086,-1.4205149412155151
1781030665461530000,14.582530029296874,-0.8883470296859741,0.2283560037612915,-3.161163091659546
1781030665481062000,14.602061767578125,-1.2918039560317993,0.4246160089969635,-3.6685829162597656
1781030665500594200,14.62159423828125,-1.3037580251693726,0.7004749774932861,-5.3490118980407715
1781030665520127700,14.641127685546875,-0.8884149789810181,0.9928560256958008,-5.8399271965026855
1781030665539664400,14.660664306640625,0.747730016708374,0.7916539907455444,-6.339324951171875
1781030665559204000,14.6802041015625,0.8547449707984924,0.5184069871902466,-7.681970119476318
1781030665578744000,14.699744140625,0.9638980031013489,0.35876500606536865,-7.802731037139893
1781030665598281500,14.719281494140626,1.1315480470657349,0.0181450005620718,-9.305635452270508
1781030665617816800,14.73881689453125,1.376376986503601,-0.05398700013756752,-9.429557800292969
1781030665637348600,14.7583486328125,1.7978019714355469,0.09619099646806717,-9.598867416381836
1781030665656878600,14.777878662109375,3.296060085296631,0.38026300072669983,-10.900527954101562
1781030665676411000,14.797410888671875,3.3541879653930664,0.7990729808807373,-10.587332725524902
1781030665695946000,14.816946044921876,3.363866090774536,1.13845694065094,-10.255779266357422
1781030665715483000,14.83648291015625,3.1933751106262207,1.5029289722442627,-10.120098114013672
1781030665735022000,14.85602197265625,2.74638295173645,1.7557309865951538,-10.000971794128418
1781030665754560000,14.87556005859375,2.2719318866729736,1.9270520210266113,-9.620145797729492
1781030665774096000,14.895095947265625,1.703173041343689,1.8343440294265747,-8.80770492553711
1781030665793630200,14.914630126953124,1.1129640340805054,1.5691319704055786,-6.591732978820801
1781030665813164000,14.9341640625,0.6704440116882324,1.308758020401001,-4.464451789855957
1781030665832701700,14.95370166015625,0.34698599576950073,1.1145100593566895,-2.5587410926818848
1781030665852243200,14.9732431640625,0.06581900268793106,1.2200759649276733,-0.5384920239448547
1781030665871785500,14.992785400390625,-0.2196200042963028,1.3591140508651733,0.14125299453735352
1781030665891326700,15.01232666015625,-0.737991988658905,1.3826930522918701,0.9905570149421692
1781030665910866700,15.03186669921875,-2.4157800674438477,1.5387040376663208,2.844710111618042
1781030665930407200,15.0514072265625,-2.774312973022461,1.441167950630188,4.973306179046631
1781030665949942800,15.07094287109375,-3.1336889266967773,1.2160359621047974,7.139739990234375
1781030665969475800,15.090475830078125,-3.4026429653167725,1.0472660064697266,9.483743667602539
1781030665989010200,15.11001025390625,-3.3853089809417725,-0.5427849888801575,11.248696327209473
1781030666008544500,15.12954443359375,-3.2497520446777344,-0.8640919923782349,13.196824073791504
1781030666028080000,15.149080078125,-2.983604907989502,-1.3599519729614258,13.37548828125
1781030666047615700,15.16861572265625,-2.3937509059906006,-2.758234977722168,13.612594604492188
1781030666067148300,15.188148193359375,-0.9223300218582153,-2.8587570190429688,13.436141967773438
1781030666086680600,15.2076806640625,-0.8407989740371704,-2.7727890014648438,12.690000534057617
1781030666106218200,15.22721826171875,-0.9309509992599487,-2.679814100265503,11.862006187438965
1781030666125756200,15.246756103515626,-0.9573130011558533,-2.419574022293091,9.855490684509277
1781030666145291800,15.266291748046875,-0.9573130011558533,-2.419574022293091,9.855490684509277
1781030666164825600,15.28582568359375,-0.9607869982719421,-2.1279680728912354,5.230249881744385
1781030666184360200,15.305360107421874,-0.8844469785690308,-2.0846240520477295,3.006432056427002
1781030666203895800,15.324895751953125,-0.8975600004196167,-2.1538820266723633,2.4122519493103027
1781030666223433200,15.34443310546875,-0.9436249732971191,-2.3447329998016357,2.151782989501953
1781030666242971400,15.363971435546874,-0.6852210164070129,-2.271575927734375,3.4327049255371094
1781030666262506200,15.38350634765625,-0.6852210164070129,-2.271575927734375,3.4327049255371094
1781030666282039600,15.40303955078125,-0.09973099827766418,-1.6301109790802002,5.01652193069458
1781030666301573400,15.422573486328124,0.002082000020891428,-1.164199948310852,4.824163913726807
1781030666321108000,15.44210791015625,-0.03985900059342384,-0.7657719850540161,4.452998161315918
1781030666340638700,15.461638671875,-0.16085000336170197,-0.6852440237998962,4.0355048179626465
1781030666360169200,15.481169189453125,-0.26121801137924194,-0.7463430166244507,3.5571858882904053
1781030666379705600,15.50070556640625,-0.2605859935283661,-0.8389000296592712,3.0773799419403076
1781030666399239400,15.520239501953125,-0.23406900465488434,-0.9275100231170654,2.7343599796295166
1781030666418774000,15.53977392578125,-0.22404199838638306,-0.9495009779930115,2.5159599781036377
1781030666438314000,15.55931396484375,-0.12675100564956665,-0.8151609897613525,2.3734118938446045
1781030666457853200,15.578853271484375,0.18137499690055847,-0.4522640109062195,1.9933279752731323
1781030666477393200,15.59839306640625,0.6012830138206482,-0.10888399928808212,0.026688000187277794
1781030666496934400,15.617934326171875,0.7283089756965637,0.11501900106668472,-1.8673709630966187
1781030666516475400,15.637475341796875,0.36600300669670105,0.2451619952917099,-3.608630895614624
1781030666536017000,15.657016845703126,-0.03854300081729889,0.3067919909954071,-4.011599063873291
1781030666555556600,15.676556640625,-0.14196300506591797,0.4045119881629944,-4.439971923828125
1781030666575093500,15.696093505859375,0.16374100744724274,0.49890100955963135,-4.859426021575928
1781030666594630000,15.7156298828125,1.9771310091018677,0.42906099557876587,-5.377435207366943
1781030666614167600,15.73516748046875,2.088468074798584,0.0037670000456273556,-6.790215015411377
1781030666633705700,15.754705810546875,2.1954779624938965,-0.46279001235961914,-7.190042972564697
1781030666653242000,15.7742421875,2.473630905151367,-0.7364019751548767,-8.33670711517334
1781030666672776700,15.793776611328125,2.9002020359039307,-0.8304449915885925,-8.362784385681152
1781030666692310800,15.813310791015626,3.2025160789489746,-0.6402810215950012,-8.639326095581055
1781030666711840800,15.8328408203125,3.314924955368042,-0.3304780125617981,-9.800789833068848
1781030666731374000,15.8523740234375,3.33058500289917,0.1165509968996048,-10.967838287353516
1781030666750910200,15.87191015625,3.2855470180511475,0.7232360243797302,-10.913226127624512
1781030666770447600,15.891447509765625,3.16227388381958,1.352301001548767,-10.975309371948242
1781030666789991700,15.91099169921875,2.9236040115356445,1.9770649671554565,-10.92962646484375
1781030666809531400,15.930531494140626,2.502734899520874,2.3949570655822754,-10.571600914001465
1781030666829066000,15.95006591796875,1.988389015197754,2.5770130157470703,-9.726866722106934
1781030666848602400,15.969602294921875,1.55718195438385,2.5600099563598633,-7.423239231109619
1781030666868143000,15.98914306640625,1.1820470094680786,2.302781105041504,-5.347466945648193
1781030666887679200,16.00867919921875,0.7653899788856506,2.0026650428771973,-3.282439947128296
1781030666907211000,16.0282109375,0.2689569890499115,1.7355680465698242,-2.563951015472412
1781030666926744000,16.047744140625,-0.19905300438404083,1.4998719692230225,-1.6246000528335571
1781030666946278000,16.06727783203125,-0.5964620113372803,1.4174749851226807,0.4313820004463196
1781030666965812000,16.08681201171875,-1.0178289413452148,1.3617539405822754,1.0774669647216797
1781030666985343500,16.106343505859375,-1.0178289413452148,1.3617539405822754,1.0774669647216797
1781030667004877800,16.1258779296875,-3.2715559005737305,0.8317610025405884,5.399773120880127
1781030667024418000,16.14541796875,-3.2715559005737305,0.8317610025405884,5.399773120880127
1781030667043954200,16.1649541015625,-3.898010015487671,-0.28277701139450073,10.266854286193848
1781030667063491300,16.1844912109375,-3.815351963043213,-0.9272969961166382,12.139825820922852
1781030667083029800,16.20402978515625,-3.815351963043213,-0.9272969961166382,12.139825820922852
1781030667102567400,16.2235673828125,-3.315114974975586,-2.0555100440979004,12.829072952270508
1781030667122105600,16.243105712890625,-3.257503032684326,-2.459847927093506,12.680892944335938
1781030667141644500,16.26264453125,-3.1564979553222656,-2.6762940883636475,11.976364135742188
1781030667161184800,16.282184814453124,-3.049738883972168,-2.7786879539489746,9.97531509399414
1781030667180723700,16.3017236328125,-2.7965469360351562,-2.7506051063537598,7.780070781707764
1781030667200263700,16.321263671875,-2.298938035964966,-2.613672971725464,7.054478168487549
1781030667219803100,16.34080322265625,-1.7049649953842163,-2.3338119983673096,5.3028059005737305
1781030667239346000,16.360345947265625,-1.0698659420013428,-2.0131609439849854,4.725973129272461
1781030667258891500,16.3798916015625,-0.4194290041923523,-1.6481430530548096,4.27926778793335
1781030667278430200,16.39943017578125,0.006386000197380781,-1.334689974784851,4.025628089904785
1781030667297964500,16.418964599609374,0.16297300159931183,-1.2723820209503174,4.054640769958496
1781030667317499400,16.43849951171875,0.16297300159931183,-1.2723820209503174,4.054640769958496
1781030667376080400,16.497080322265624,0.13550999760627747,-1.0512609481811523,3.9235289096832275
1781030667395618000,16.5166181640625,-0.015124999918043613,-1.0155010223388672,3.8332860469818115
1781030667415160800,16.536160888671876,-0.20391400158405304,-0.9629390239715576,3.7532989978790283
1781030667434702300,16.555702392578127,-0.30611199140548706,-0.8308590054512024,3.505229949951172
1781030667454243600,16.57524365234375,-0.341946005821228,-0.7433440089225769,3.267622947692871
1781030667473786400,16.594786376953124,-0.35609298944473267,-0.593034029006958,2.956015110015869
1781030667493330000,16.614329833984375,-0.32190200686454773,-0.44393301010131836,2.5932300090789795
1781030667512870700,16.63387060546875,-0.2480590045452118,-0.32122600078582764,2.266542911529541
1781030667532415000,16.6534150390625,-0.10382799804210663,-0.24406999349594116,1.688385009765625
1781030667551961600,16.672961669921875,0.15515099465847015,-0.2724129855632782,-0.565680980682373
1781030667571505700,16.692505615234374,0.3964749872684479,-0.3929789960384369,-2.395443916320801
1781030667591052500,16.712052490234374,0.5834659934043884,-0.42528799176216125,-4.182647228240967
1781030667610598700,16.7315986328125,0.8912039995193481,-0.3637259900569916,-5.819276809692383
1781030667630139400,16.751139404296875,1.0594470500946045,-0.0720679983496666,-6.078976154327393
1781030667649677800,16.770677734375,1.2530169486999512,0.3871470093727112,-6.230785846710205
1781030667669218600,16.790218505859375,1.4574940204620361,0.7396500110626221,-6.5266032218933105
1781030667688761600,16.80976171875,1.4746450185775757,1.1572940349578857,-6.760893821716309
1781030667708305400,16.829305419921877,1.669039011001587,1.2551050186157227,-7.023664951324463
1781030667727849000,16.848848876953124,1.9217170476913452,1.1359699964523315,-8.841146469116211
1781030667747390200,16.86839013671875,3.4983749389648438,0.9889990091323853,-9.060967445373535
1781030667766932000,16.887931884765624,3.772519111633301,0.8118829727172852,-10.511404037475586
1781030667786472400,16.907472412109374,4.170183181762695,0.9665330052375793,-10.447425842285156
1781030667806014700,16.9270146484375,4.481428146362305,1.3836220502853394,-10.311802864074707
1781030667825557200,16.94655712890625,4.481428146362305,1.3836220502853394,-10.311802864074707
1781030667845094700,16.9660947265625,4.187815189361572,2.5280799865722656,-10.533390998840332
1781030667864626700,16.985626708984373,3.319504976272583,3.1015400886535645,-10.11755084991455
1781030667884159700,17.00515966796875,2.7170848846435547,3.5461769104003906,-9.960493087768555
1781030667903699000,17.024698974609375,2.095979928970337,3.8271100521087646,-9.53619384765625
1781030667923242000,17.044241943359374,1.5596879720687866,3.7611939907073975,-7.480809211730957
1781030667942786800,17.063786865234373,1.5596879720687866,3.7611939907073975,-7.480809211730957
1781030667962326500,17.083326416015623,0.9261869788169861,3.001805067062378,-3.7935690879821777
1781030667981859300,17.102859375,0.7613199949264526,2.5805749893188477,-2.886523962020874
1781030668001388000,17.122387939453127,0.5552539825439453,2.2494850158691406,-0.9370030164718628
1781030668020919300,17.141919189453127,0.12058199942111969,2.012028932571411,-0.11802499741315842
1781030668040458000,17.1614580078125,-0.4633849859237671,1.6238830089569092,1.89314603805542
1781030668059999200,17.180999267578127,-2.254103899002075,1.243373990058899,2.601792097091675
1781030668079537000,17.200536865234376,-2.5814828872680664,0.9014890193939209,5.025140762329102
1781030668099072500,17.220072509765625,-2.998650074005127,0.4591349959373474,7.286952018737793
1781030668118608000,17.23960791015625,-3.4689431190490723,0.08392500132322311,7.9052228927612305
1781030668138142200,17.25914208984375,-3.7782111167907715,-0.33211299777030945,9.765377044677734
1781030668157679000,17.27867919921875,-3.7548298835754395,-0.931676983833313,11.319931030273438
1781030668177214200,17.298214111328125,-3.5314478874206543,-1.4877979755401611,11.415178298950195
1781030668196745000,17.317744873046873,-3.2576661109924316,-3.1322269439697266,11.435357093811035
1781030668216278800,17.33727880859375,-2.9320359230041504,-3.341938018798828,11.462505340576172
1781030668235817500,17.3568173828125,-2.5529489517211914,-3.4851160049438477,11.077547073364258
1781030668255357200,17.376357177734373,-2.1341440677642822,-3.4951109886169434,10.32376480102539
1781030668274894600,17.39589453125,-1.6658639907836914,-3.39313006401062,8.222270965576172
1781030668294430200,17.41543017578125,-1.2986860275268555,-3.0284221172332764,6.339225769042969
1781030668313969400,17.434969482421874,-1.1836220026016235,-2.641472101211548,5.542862892150879
1781030668333507300,17.45450732421875,-1.0981659889221191,-2.3921570777893066,3.5325939655303955
1781030668353041200,17.474041259765624,-0.9386619925498962,-2.14068603515625,3.0600409507751465
1781030668372576300,17.493576171875,-0.5989030003547668,-2.0168190002441406,2.7877650260925293
1781030668392113400,17.513113525390626,-0.06711000204086304,-1.8458889722824097,2.8385229110717773
1781030668411655200,17.5326552734375,0.2852399945259094,-1.597722053527832,3.039057970046997
1781030668431198200,17.5521982421875,0.35109901428222656,-1.39907705783844,3.257081985473633
1781030668450740200,17.571740234375,0.22763800621032715,-1.1153249740600586,3.2424910068511963
1781030668470283300,17.591283203125,-0.020325999706983566,-1.0247260332107544,3.1401209831237793
1781030668489826300,17.610826416015627,-0.10176800191402435,-1.0291039943695068,3.042314052581787
1781030668509370000,17.6303701171875,0.08831699937582016,-0.9350939989089966,2.8589680194854736
1781030668528916700,17.649916748046873,0.2720029950141907,-0.9750069975852966,2.7335119247436523
1781030668548463000,17.669463134765625,0.35611000657081604,-1.0839990377426147,2.660759925842285
1781030668568002600,17.68900244140625,0.2793389856815338,-1.210237979888916,2.565242052078247
1781030668587540700,17.708540771484376,0.28935500979423523,-1.2201859951019287,2.310965061187744
1781030668607079700,17.72807958984375,0.5478529930114746,-1.0314379930496216,1.6605650186538696
1781030668626610700,17.747610595703126,0.8679540157318115,-0.6153039932250977,-0.17932100594043732
1781030668646143500,17.7671435546875,0.9718350172042847,-0.032099999487400055,-1.9006839990615845
1781030668665684000,17.78668408203125,0.6632490158081055,0.45239201188087463,-3.4932360649108887
1781030668685224000,17.806223876953126,0.6632490158081055,0.45239201188087463,-3.4932360649108887
1781030668704764200,17.82576416015625,-0.2463729977607727,0.9296740293502808,-4.487054824829102
1781030668724304600,17.8453046875,-0.14318500459194183,1.036857008934021,-4.73203182220459
1781030668743845400,17.864845458984377,0.3630479872226715,1.0628570318222046,-4.758563995361328
1781030668763387100,17.88438720703125,1.752616047859192,1.0874509811401367,-4.7814130783081055
1781030668782925600,17.903925537109377,1.752616047859192,1.0874509811401367,-4.7814130783081055
1781030668802462500,17.92346240234375,2.3599469661712646,0.790880024433136,-6.738088130950928
1781030668822004500,17.94300439453125,2.781641960144043,0.8020859956741333,-6.783168792724609
1781030668841546000,17.9625458984375,3.1719889640808105,0.887241005897522,-6.961203098297119
1781030668861082600,17.98208251953125,3.459009885787964,1.079813003540039,-7.204142093658447
1781030668880622800,18.001622802734374,3.7456440925598145,1.214745044708252,-8.661354064941406
1781030668900166700,18.021166748046873,3.890316963195801,1.2120440006256104,-8.696931838989258
1781030668919710000,18.0407099609375,3.964818000793457,1.1505359411239624,-8.886987686157227
1781030668939254300,18.060254150390627,3.9901480674743652,1.0507960319519043,-9.030536651611328
1781030668958798600,18.079798583984374,3.8736441135406494,0.8755009770393372,-8.950469970703125
1781030668978341000,18.099341064453125,3.5809850692749023,0.6663550138473511,-8.52297592163086
1781030668997876700,18.118876708984374,3.084381103515625,0.45337599515914917,-7.699532985687256
1781030669017411800,18.138411865234374,2.431525945663452,0.21429799497127533,-5.635933876037598
1781030669036950800,18.15795068359375,1.829483985900879,0.098021000623703,-4.757600784301758
1781030669056490800,18.17749072265625,1.326861023902893,0.16383899748325348,-3.8148140907287598
1781030669076032300,18.1970322265625,0.842635989189148,0.32349899411201477,-2.875804901123047
1781030669095575800,18.216575927734375,0.3310390114784241,0.5162410140037537,-1.9733790159225464
1781030669115117300,18.236117431640626,-1.2960530519485474,0.6803650259971619,0.16616199910640717
1781030669134654000,18.255654052734375,-2.930187940597534,0.703046977519989,1.97304105758667
1781030669154192400,18.2751923828125,-3.3402750492095947,0.6127110123634338,4.005712032318115
1781030669173731600,18.294731689453126,-3.7725980281829834,0.519582986831665,5.738317966461182
1781030669193266200,18.31426611328125,-4.282390117645264,0.3225550055503845,7.807024002075195
1781030669212801300,18.33380126953125,-4.713594913482666,-0.07045599818229675,9.906182289123535
1781030669232339700,18.353339599609374,-5.10394287109375,-0.5574259757995605,10.359723091125488
1781030669251876400,18.37287646484375,-5.377278804779053,-1.1401569843292236,11.959877967834473
1781030669271410000,18.392409912109375,-5.228917121887207,-2.5777809619903564,12.027894020080566
1781030669290944800,18.41194482421875,-4.723237037658691,-2.8341879844665527,11.775753021240234
1781030669310480600,18.431480712890625,-4.032456874847412,-3.0590639114379883,11.109495162963867
1781030669330018000,18.45101806640625,-3.4360899925231934,-3.233069896697998,9.043951034545898
1781030669349554200,18.47055419921875,-2.9977190494537354,-3.3045430183410645,7.142230033874512
1781030669369089500,18.490089599609377,-2.549362897872925,-3.0506720542907715,4.969966888427734
1781030669388626400,18.50962646484375,-2.1744019985198975,-2.7002439498901367,4.227077960968018
1781030669408164000,18.5291640625,-1.6817129850387573,-2.293268918991089,3.3240039348602295
1781030669427700200,18.5487001953125,-0.9855679869651794,-1.7366520166397095,2.5540099143981934
1781030669447238400,18.56823828125,-0.34021100401878357,-1.335433006286621,2.159648895263672
1781030669466782000,18.587781982421873,0.1918029934167862,-1.073024034500122,2.0685439109802246
1781030669486321400,18.6073212890625,0.5775079727172852,-0.7933750152587891,2.0923869609832764
1781030669505858000,18.626858154296876,0.7584670186042786,-0.6075270175933838,2.2015390396118164
1781030669525395000,18.64639501953125,0.7662429809570312,-0.4718630015850067,2.364980936050415
1781030669544932600,18.6659326171875,0.7662429809570312,-0.4718630015850067,2.364980936050415
1781030669564474000,18.68547412109375,0.3837360143661499,-0.48703500628471375,2.9168150424957275
1781030669584015400,18.705015380859376,0.3715069890022278,-0.625452995300293,2.910111904144287
1781030669603551700,18.7245517578125,0.6093760132789612,-0.8688979744911194,2.497986078262329
1781030669623086800,18.7440869140625,0.68892902135849,-1.063730001449585,2.4491848945617676
1781030669642625500,18.76362548828125,0.68892902135849,-1.063730001449585,2.4491848945617676
1781030669662167600,18.78316748046875,0.5820289850234985,-0.9097579717636108,2.5731749534606934
1781030669681709000,18.802708984375,0.5566009879112244,-0.6678490042686462,2.390362024307251
1781030669701246500,18.82224658203125,0.5949519872665405,-0.3490679860115051,2.007390022277832
1781030669720783000,18.841783203125,0.5543500185012817,-0.09476599842309952,1.413694977760315
1781030669740320300,18.8613203125,0.504580020904541,-0.03417599946260452,0.6310240030288696
1781030669759858700,18.880858642578126,0.8220869898796082,-0.04564899951219559,-1.4047590494155884
1781030669779396400,18.900396240234375,1.4235329627990723,0.05288499966263771,-3.3227450847625732
1781030669798933000,18.91993310546875,3.104546070098877,0.5434100031852722,-5.161480903625488
1781030669818470400,18.939470458984374,3.331007957458496,2.157586097717285,-6.566614151000977
1781030669838009000,18.959009033203124,3.0214951038360596,2.5841269493103027,-6.672270774841309
1781030669857551000,18.978551025390626,2.4439640045166016,2.7815980911254883,-6.912210941314697
1781030669877095000,18.998094970703125,2.149553060531616,2.5972530841827393,-8.666109085083008
1781030669896634600,19.017634521484375,2.3193299770355225,2.111208915710449,-10.231663703918457
1781030669916165600,19.03716552734375,3.755697011947632,0.5304120182991028,-11.840774536132812
1781030669935698700,19.05669873046875,3.514878988265991,0.4010150134563446,-11.58545207977295
1781030669955237000,19.076237060546877,3.206109046936035,0.48668399453163147,-10.815485000610352
1781030669974772500,19.0957724609375,2.9768218994140625,2.170341968536377,-10.227581024169922
1781030669994311700,19.115311767578124,3.0468850135803223,4.2044172286987305,-9.891802787780762
1781030670013854000,19.13485400390625,3.2804338932037354,5.874362945556641,-9.846938133239746
1781030670033395700,19.154395751953125,3.0027449131011963,6.001123905181885,-11.001431465148926
1781030670052938800,19.173938720703124,0.9556120038032532,6.024374008178711,-11.019100189208984
1781030670072481300,19.193481201171874,0.32778400182724,5.855527877807617,-10.877382278442383
1781030670092023800,19.21302392578125,-0.2720789909362793,5.394540786743164,-10.267300605773926
1781030670111561200,19.232561279296874,-0.44085898995399475,4.7693071365356445,-7.918811798095703
1781030670131097000,19.25209716796875,-0.3267810046672821,4.043025970458984,-5.619050979614258
1781030670150637600,19.271637451171873,-0.253930002450943,2.4193179607391357,-3.4419639110565186
1781030670170178300,19.29117822265625,-0.40994900465011597,1.9585239887237549,-2.6157350540161133
1781030670189718000,19.310718017578125,-0.6929889917373657,1.5263079404830933,-1.6763540506362915
1781030670209254700,19.330254638671875,-0.962975025177002,1.1498960256576538,-0.7325519919395447
1781030670228792800,19.349792724609376,-1.1338380575180054,0.919730007648468,1.5321969985961914
1781030670248335600,19.369335693359375,-1.2411789894104004,0.7022079825401306,3.773850917816162
1781030670267877600,19.388877685546873,-1.4503159523010254,0.40933600068092346,6.277466773986816
1781030670287420400,19.40842041015625,-1.7693439722061157,0.08594000339508057,8.486227989196777
1781030670306959600,19.427959716796874,-2.0477869510650635,-0.36368200182914734,10.382630348205566
1781030670326492200,19.4474921875,-2.234792947769165,-0.9464790225028992,10.95616626739502
1781030670346027000,19.467027099609375,-2.2690250873565674,-1.5811439752578735,12.463554382324219
1781030670365564200,19.486564208984376,-2.068732976913452,-3.3024559020996094,12.868990898132324
1781030670385101300,19.506101318359374,-1.7776089906692505,-3.5558741092681885,13.145784378051758
1781030670404638200,19.52563818359375,-1.4616199731826782,-3.94114089012146,13.006439208984375
1781030670424177000,19.545177001953125,-1.0846149921417236,-4.2605719566345215,12.35009479522705
1781030670443721500,19.564721435546875,-0.7704939842224121,-4.454872131347656,10.408434867858887
1781030670463268000,19.58426806640625,-0.5525149703025818,-4.338727951049805,8.116558074951172
1781030670482815200,19.603815185546875,-0.5525149703025818,-4.338727951049805,8.116558074951172
1781030670502359800,19.62335986328125,-0.5788379907608032,-3.524791955947876,5.785027027130127
1781030670521901000,19.642901123046876,-0.7662720084190369,-2.9365639686584473,5.0371198654174805
1781030670541435600,19.662435546875,-0.9658859968185425,-2.5365569591522217,4.362821102142334
1781030670560971300,19.68197119140625,-1.1536099910736084,-2.429835081100464,3.931472063064575
1781030670580513500,19.701513427734376,-1.1302249431610107,-2.468055009841919,3.6871089935302734
1781030670600052700,19.721052734375,-0.8581399917602539,-2.448607921600342,3.6845219135284424
1781030670619588400,19.74058837890625,-0.5487319827079773,-2.3857951164245605,3.8542680740356445
1781030670639128600,19.760128662109373,-0.3446039855480194,-2.1689860820770264,4.028120040893555
1781030670658670600,19.779670654296876,-0.29671499133110046,-1.861825942993164,4.102612018585205
1781030670678210600,19.79921044921875,-0.4142740070819855,-1.6551090478897095,3.956087112426758
1781030670697747500,19.81874755859375,-0.3848179876804352,-1.4863640069961548,3.555048942565918
1781030670717284000,19.8382841796875,-0.1658950001001358,-1.4160230159759521,3.118565082550049
1781030670736821000,19.857821044921874,-0.033094000071287155,-1.4111640453338623,2.693140983581543
1781030670756359700,19.877359619140623,-0.10321000218391418,-1.343034029006958,2.2747669219970703
1781030670775898600,19.896898681640625,-0.4167630076408386,-1.0028389692306519,1.7203279733657837
1781030670795435300,19.916435302734374,-0.7760469913482666,-0.4600760042667389,1.0289820432662964
1781030670814967600,19.935967529296875,-0.9605969786643982,0.0342090018093586,0.21100200712680817
1781030670834498000,19.955498046875,-0.9024149775505066,0.20771700143814087,-1.4648009538650513
1781030670854035200,19.97503515625,-0.7370489835739136,0.11145900189876556,-2.125704050064087
1781030670873572600,19.994572509765625,-0.33493098616600037,-0.058788001537323,-3.955889940261841
1781030670893111300,20.014111328125,0.14085699617862701,-0.23338299989700317,-5.810291767120361
1781030670912653600,20.033653564453125,0.42474499344825745,-0.251924991607666,-6.1136579513549805
1781030670932190500,20.0531904296875,0.7957959771156311,-0.14222900569438934,-6.554160118103027
1781030670951721200,20.07272119140625,1.177306056022644,0.21521100401878357,-7.820895195007324
1781030670971255600,20.092255615234375,1.3639570474624634,0.7054460048675537,-7.776237964630127
1781030670990790700,20.111790771484376,1.412363052368164,1.0848389863967896,-7.993015766143799
1781030671010323500,20.131323486328125,1.4483829736709595,1.335595965385437,-9.446037292480469
1781030671029857300,20.150857177734373,1.5935460329055786,1.482192039489746,-9.582440376281738
1781030671049394200,20.170394287109374,3.1504509449005127,1.886160969734192,-10.91360855102539
1781030671068930300,20.189930419921875,3.3326148986816406,3.6873929500579834,-10.96729564666748
1781030671088464000,20.2094638671875,3.4210848808288574,4.000563144683838,-10.965493202209473
1781030671108002600,20.22900244140625,3.0950140953063965,4.364311218261719,-10.994644165039062
1781030671127544000,20.2485439453125,2.485008955001831,4.569024085998535,-10.928960800170898
1781030671147083800,20.268083740234374,1.9248820543289185,4.650575160980225,-10.528403282165527
1781030671166622500,20.28762255859375,1.473106026649475,4.507546901702881,-9.63129711151123
1781030671186154800,20.30715478515625,1.1701329946517944,4.099480152130127,-7.184104919433594
1781030671205682000,20.326681884765627,0.9434369802474976,3.3504409790039062,-5.0207600593566895
1781030671225215200,20.34621533203125,0.6326000094413757,2.5754220485687256,-4.044412136077881
1781030671244753200,20.365753173828125,0.3488610088825226,1.9152300357818604,-2.129175901412964
1781030671264287700,20.385287841796874,0.3488610088825226,1.9152300357818604,-2.129175901412964
1781030671283824600,20.40482470703125,-0.4758659899234772,1.1207380294799805,0.598455011844635
1781030671303369700,20.42436962890625,-1.0064729452133179,0.930325984954834,1.380094051361084
1781030671322916600,20.44391650390625,-1.0064729452133179,0.930325984954834,1.380094051361084
1781030671342460400,20.46346044921875,-3.305546998977661,0.46935299038887024,5.460044860839844
1781030671362002000,20.483001953125,-3.80548095703125,-0.08344600349664688,7.927061080932617
1781030671381544200,20.502544189453126,-4.301665782928467,-1.585226058959961,10.559248924255371
1781030671401086700,20.522086669921876,-4.575179100036621,-1.9619439840316772,12.539274215698242
1781030671420631000,20.541631103515623,-4.584712982177734,-2.4903600215911865,13.072418212890625
1781030671440174800,20.5611748046875,-4.289834022521973,-3.075248956680298,14.354996681213379
1781030671459719000,20.580718994140625,-3.8090310096740723,-3.5086190700531006,13.973867416381836
1781030671479260400,20.600260498046875,-3.304064989089966,-3.8216609954833984,13.37145709991455
1781030671498798300,20.61979833984375,-2.8731439113616943,-3.9875450134277344,12.517788887023926
1781030671518339000,20.639339111328123,-2.5515129566192627,-3.910343885421753,10.349552154541016
1781030671537880000,20.658880126953125,-2.400826930999756,-3.6895620822906494,7.911009788513184
1781030671557415000,20.678414794921874,-2.3099279403686523,-3.3536300659179688,5.8739471435546875
1781030671576946000,20.69794580078125,-2.101135015487671,-2.9967119693756104,5.107032775878906
1781030671596478200,20.717478271484374,-1.6944069862365723,-2.6579840183258057,4.277537822723389
1781030671616014000,20.73701416015625,-1.2280689477920532,-2.445657968521118,3.719188928604126
1781030671635554300,20.75655419921875,-0.8381059765815735,-2.358844041824341,3.530996084213257
1781030671655091500,20.776091552734375,-0.5810179710388184,-2.259290933609009,3.5228021144866943
1781030671674630100,20.795630126953125,-0.42350301146507263,-2.1159799098968506,3.6443679332733154
1781030671694175000,20.815175048828124,-0.26848599314689636,-1.8524049520492554,3.81345796585083
1781030671713718800,20.83471875,-0.17441000044345856,-1.5605870485305786,3.9961419105529785
1781030671733259500,20.854259521484376,-0.05547099933028221,-1.2349050045013428,4.123696804046631
1781030671752801500,20.873801513671875,-0.058077000081539154,-0.957518994808197,4.093535900115967
1781030671772349400,20.893349365234375,0.14989499747753143,-0.7271630167961121,3.9719929695129395
1781030671791899100,20.912899169921875,0.6251149773597717,-0.29742398858070374,3.5262439250946045
1781030671811445000,20.932445068359375,0.8632760047912598,0.040901001542806625,2.9574410915374756
1781030671830981400,20.9519814453125,0.7485150098800659,-0.222352996468544,2.632111072540283
1781030671850509600,20.971509521484375,-0.9214810132980347,-0.6371750235557556,1.9921950101852417
1781030671870040800,20.991040771484375,-0.7556080222129822,-1.0647820234298706,0.18310600519180298
1781030671889575400,21.010575439453124,-0.19362600147724152,-1.1944580078125,-2.180203914642334
1781030671909115000,21.030114990234374,1.6537950038909912,0.6402270197868347,-4.412775993347168
1781030671928654800,21.04965478515625,1.855247974395752,0.9243199825286865,-4.836231231689453
1781030671948192000,21.06919189453125,1.5861690044403076,1.2227710485458374,-5.216993808746338
1781030671967732500,21.088732421875,0.06623400002717972,1.2034310102462769,-5.561470985412598
1781030671987273200,21.108273193359373,-0.12637799978256226,0.9649159908294678,-5.919209003448486
1781030672006810600,21.127810546875,0.18567800521850586,0.8195549845695496,-6.3222551345825195
1781030672026347800,21.14734765625,2.029742956161499,0.799468994140625,-6.762290000915527
1781030672045886200,21.16688623046875,3.6504809856414795,1.0181900262832642,-8.089029312133789
1781030672065428700,21.1864287109375,3.6504809856414795,1.0181900262832642,-8.089029312133789
1781030672084970500,21.205970458984375,3.446629047393799,1.1944340467453003,-8.931697845458984
1781030672104510200,21.22551025390625,2.7226669788360596,1.1322590112686157,-9.714065551757812
1781030672124051000,21.245051025390627,2.7226669788360596,1.1322590112686157,-9.714065551757812
1781030672143589000,21.264589111328124,3.864914894104004,1.2349430322647095,-9.724608421325684
1781030672163129300,21.28412939453125,4.117391109466553,1.776352047920227,-9.866808891296387
1781030672182671000,21.303671142578125,4.117391109466553,1.776352047920227,-9.866808891296387
1781030672202210600,21.32321044921875,4.369956970214844,3.514854907989502,-10.16300106048584
1781030672221753000,21.342753173828125,2.071861982345581,3.637748956680298,-9.707649230957031
1781030672241297000,21.362296875,1.4064069986343384,3.659666061401367,-9.021339416503906
1781030672260838700,21.381838623046875,0.7494029998779297,3.6824119091033936,-8.140003204345703
1781030672280376300,21.401376220703124,0.43804100155830383,3.637655019760132,-6.273883819580078
1781030672299912000,21.420911865234373,0.3484649956226349,3.4250130653381348,-4.282421112060547
1781030672319451100,21.440451171875,0.1552789956331253,2.9785990715026855,-3.424346923828125
1781030672338992000,21.4599921875,-0.28679099678993225,2.401202917098999,-1.2984100580215454
1781030672358534000,21.479533935546876,-0.7850810289382935,1.859490990638733,-0.4900830090045929
1781030672378079200,21.499079345703127,-1.1599860191345215,1.4775700569152832,0.3890019953250885
1781030672397627400,21.51862744140625,-1.3858840465545654,1.1751149892807007,2.4316039085388184
1781030672417172500,21.53817236328125,-1.6483659744262695,0.8253089785575867,3.164975881576538
1781030672436715000,21.557715087890625,-2.064275026321411,0.4050149917602539,5.44598388671875
1781030672456252000,21.577251953125,-2.565674066543579,-0.09217900037765503,7.766694068908691
1781030672475781600,21.59678173828125,-3.1053988933563232,-0.652662992477417,9.921954154968262
1781030672495311600,21.6163115234375,-3.434119939804077,-1.2743330001831055,11.994316101074219
1781030672514848000,21.635847900390626,-3.408453941345215,-2.949528932571411,12.273701667785645
1781030672534391000,21.65539111328125,-2.9858219623565674,-3.1362030506134033,12.498669624328613
1781030672553930500,21.674930419921875,-1.5418510437011719,-3.377948045730591,12.45736026763916
1781030672573461500,21.69446142578125,-1.225998044013977,-3.536931037902832,12.14201831817627
1781030672592986600,21.713986572265625,-1.0255049467086792,-3.473452091217041,11.298881530761719
1781030672612510500,21.733510498046876,-1.1222929954528809,-3.2619900703430176,8.861470222473145
1781030672632033300,21.753033203125,-1.3632999658584595,-2.9784789085388184,6.826401233673096
1781030672651557000,21.77255712890625,-1.4590200185775757,-2.5625178813934326,4.862523078918457
1781030672671082200,21.792082275390626,-1.2670769691467285,-2.0134658813476562,3.9241209030151367
1781030672690603000,21.81160302734375,-0.9451839923858643,-1.581807017326355,3.1049540042877197
1781030672710121700,21.831121826171874,-0.6580770015716553,-1.4108860492706299,2.463383913040161
1781030672729645600,21.8506455078125,-0.28318700194358826,-1.334144949913025,2.0149319171905518
1781030672749170000,21.870169921875,-0.019347000867128372,-1.4480680227279663,1.842484951019287
1781030672768692500,21.8896923828125,0.13968400657176971,-1.5668100118637085,1.9483469724655151
1781030672788216800,21.909216796875,0.34553200006484985,-1.3522180318832397,2.207550048828125
1781030672807739100,21.9287392578125,0.39221400022506714,-1.23088800907135,3.3659090995788574
1781030672827263500,21.948263427734375,0.3641110062599182,-1.1659250259399414,3.413486957550049
1781030672846792700,21.967792724609374,0.5372250080108643,-0.968986988067627,3.3901851177215576
1781030672866317800,21.98731787109375,0.6591780185699463,-0.9019520282745361,3.361175060272217
1781030672885840000,22.00683984375,0.5309000015258789,-0.8809840083122253,3.275135040283203
1781030672905366500,22.026366455078126,0.5309000015258789,-0.8809840083122253,3.275135040283203
1781030672924898800,22.04589892578125,0.17097200453281403,-0.7208579778671265,3.2377378940582275
1781030672944433700,22.06543359375,0.474032998085022,-0.6301239728927612,2.5489680767059326
1781030672963969300,22.08496923828125,0.8851799964904785,-0.11344999819993973,1.9010030031204224
1781030672983508000,22.104508056640626,1.0471709966659546,1.2533520460128784,-0.08375699818134308
1781030673003043800,22.1240439453125,0.8430560231208801,1.1841069459915161,-0.6600559949874878
1781030673022577400,22.143577392578123,0.8430560231208801,1.1841069459915161,-0.6600559949874878
1781030673042113500,22.163113525390624,0.05360500141978264,1.2484630346298218,-4.06259298324585
1781030673061652000,22.18265185546875,0.2704150080680847,1.398705005645752,-4.612837791442871
1781030673081189600,22.202189697265624,0.6341509819030762,1.5582350492477417,-5.189895153045654
1781030673100720600,22.221720703125,1.0186439752578735,1.4898459911346436,-6.8212761878967285
1781030673120247600,22.24124755859375,2.9095470905303955,1.0770269632339478,-7.185641765594482
1781030673139777300,22.26077734375,3.030139923095703,0.6805989742279053,-9.046121597290039
1781030673159308000,22.28030810546875,3.1208269596099854,0.5471979975700378,-10.548295021057129
1781030673178836200,22.299836181640625,3.1208269596099854,0.5471979975700378,-10.548295021057129
1781030673217893000,22.33889306640625,0.10194599628448486,1.6315679550170898,-10.46678638458252
1781030673237423900,22.358423828125,-0.02367500029504299,2.169512987136841,-10.41625690460205
1781030673256958700,22.377958740234376,1.9646539688110352,2.7825660705566406,-10.511022567749023
1781030673276493800,22.397493896484374,2.2919719219207764,3.434221029281616,-10.693509101867676
1781030673296026600,22.417026611328126,2.648024082183838,3.9322690963745117,-10.845820426940918
1781030673315555600,22.4365556640625,2.5602939128875732,4.2102508544921875,-10.880112648010254
1781030673335087400,22.45608740234375,1.9610259532928467,4.191736221313477,-10.531010627746582
1781030673354623500,22.47562353515625,1.1807390451431274,3.83400297164917,-8.56070613861084
1781030673374162400,22.495162353515624,0.5416190028190613,3.2667670249938965,-6.323890209197998
1781030673393701600,22.51470166015625,0.15204699337482452,2.689450979232788,-3.9385390281677246
1781030673413239800,22.53423974609375,0.018868999555706978,2.128376007080078,-1.9522509574890137
1781030673432776000,22.55377587890625,-0.022874999791383743,1.604369044303894,-1.2310409545898438
1781030673452311600,22.5733115234375,-0.2653439939022064,1.2721229791641235,-0.42884600162506104
1781030673471846000,22.592845947265626,-0.6783499717712402,1.016211986541748,1.5007050037384033
1781030673491380000,22.6123798828125,-1.1890039443969727,0.8013690114021301,2.276348114013672
1781030673510912800,22.631912841796876,-1.759192943572998,0.6175349950790405,4.719635963439941
1781030673530445800,22.65144580078125,-2.2744390964508057,0.2797130048274994,7.25518798828125
1781030673549979000,22.670978759765624,-2.627769947052002,-0.3021160066127777,9.922712326049805
1781030673569511400,22.690511474609377,-2.901521921157837,-1.871211051940918,12.025793075561523
1781030673589046300,22.71004638671875,-2.950326919555664,-2.4025158882141113,12.582551956176758
1781030673608579800,22.729579833984374,-2.6244208812713623,-3.9515669345855713,13.024508476257324
1781030673628110600,22.749110595703126,-0.9551259875297546,-4.3352580070495605,13.097770690917969
1781030673647641600,22.7686416015625,-0.6506689786911011,-4.674652099609375,12.595294952392578
1781030673667176200,22.78817626953125,-0.27021700143814087,-4.863926887512207,10.402731895446777
1781030673686710800,22.807710693359375,0.038561999797821045,-4.7129597663879395,8.348045349121094
1781030673706245000,22.8272451171875,0.16737200319766998,-4.132706165313721,6.075438022613525
1781030673725781200,22.84678125,-0.01447600033134222,-3.384531021118164,5.340122222900391
1781030673745316400,22.86631640625,-0.01447600033134222,-3.384531021118164,5.340122222900391
1781030673764847400,22.885847412109374,-0.33938300609588623,-2.0128910541534424,3.6911840438842773
1781030673784377600,22.905377685546874,-0.3770120143890381,-1.7441669702529907,3.272491931915283
1781030673803910700,22.92491064453125,-0.3770120143890381,-1.7441669702529907,3.272491931915283
1781030673823445800,22.94444580078125,0.1654220074415207,-1.6166239976882935,2.9866559505462646
1781030673842981600,22.963981689453124,0.1654220074415207,-1.6166239976882935,2.9866559505462646
1781030673862521000,22.98352099609375,0.40294700860977173,-1.8387320041656494,3.455193042755127
1781030673882059800,23.003059814453124,0.46178799867630005,-1.7649589776992798,3.406761884689331
1781030673901591800,23.022591796875,0.44585099816322327,-1.6946899890899658,3.3315138816833496
1781030673921122800,23.042122802734376,0.2960340082645416,-1.545583963394165,3.187903881072998
1781030673940658200,23.061658203125,0.12526099383831024,-1.3672959804534912,2.9273970127105713
1781030673960194000,23.081194091796874,-0.047207001596689224,-1.198909044265747,2.658087968826294
1781030673979732200,23.100732177734375,-0.1784210056066513,-0.9427840113639832,2.3261680603027344
1781030673999269400,23.120269287109377,-0.155348002910614,-0.6324329972267151,1.9898159503936768
1781030674018803500,23.139803466796874,0.006643000058829784,-0.38469699025154114,1.6168559789657593
1781030674038338800,23.1593388671875,0.13476300239562988,-0.18827499449253082,0.9820470213890076
1781030674057878000,23.1788779296875,0.21674899756908417,0.0904259979724884,0.14493399858474731
1781030674077412900,23.198412841796873,0.23311200737953186,0.32645899057388306,-1.701272964477539
1781030674096945700,23.217945556640625,0.08715999871492386,0.5185719728469849,-2.3711419105529785
1781030674116480800,23.237480712890626,-0.13829900324344635,0.6282610297203064,-3.0237200260162354
1781030674136019000,23.25701904296875,-0.4248049855232239,0.46035000681877136,-3.622580051422119
1781030674155555000,23.27655517578125,-0.525173008441925,0.25802600383758545,-4.2500200271606445
1781030674175086000,23.296086181640625,-0.2635659873485565,0.10975000262260437,-4.792941093444824
1781030674194616000,23.315615966796877,1.4102200269699097,-0.03241100162267685,-6.333340167999268
1781030674214147000,23.33514697265625,1.6375340223312378,-0.043241001665592194,-6.734979152679443
1781030674233683200,23.35468310546875,1.8081879615783691,0.02237600088119507,-8.162932395935059
1781030674253217800,23.3742177734375,1.7746700048446655,0.19045500457286835,-8.145861625671387
1781030674272752000,23.393752197265623,1.6747479438781738,0.525825023651123,-8.25097942352295
1781030674292288300,23.413288330078124,1.8005870580673218,0.9821370244026184,-8.392145156860352
1781030674311821600,23.432821533203125,2.1701478958129883,1.5701440572738647,-8.664539337158203
1781030674331353600,23.452353515625,2.6116631031036377,2.19081711769104,-9.700532913208008
1781030674350881500,23.471881591796876,2.8622629642486572,2.64913010597229,-9.563675880432129
1781030674370409200,23.4914091796875,2.722614049911499,2.977376937866211,-9.410258293151855
1781030674389942300,23.5109423828125,2.2568359375,3.0439488887786865,-9.05515193939209
1781030674409473000,23.53047314453125,1.6761070489883423,2.8751931190490723,-8.404526710510254
1781030674429005000,23.550005126953124,1.2280319929122925,2.6121981143951416,-6.291751861572266
1781030674448539000,23.569538818359376,0.9303190112113953,2.1283860206604004,-5.457217216491699
1781030674468068900,23.58906884765625,0.6425719857215881,1.5493220090866089,-3.348543882369995
1781030674487601400,23.608601318359376,0.25353699922561646,1.0376189947128296,-2.4413108825683594
1781030674507137800,23.6281376953125,-0.21905800700187683,0.7150459885597229,-0.6256620287895203
1781030674526674200,23.647674072265627,-0.647121012210846,0.6433550119400024,-0.04875300079584122
1781030674546207200,23.667207275390624,-1.0186439752578735,0.7815359830856323,0.5524870157241821
1781030674565738800,23.68673876953125,-1.4494340419769287,0.9809200167655945,1.192958950996399
1781030674585273600,23.706273681640624,-3.1365249156951904,1.0522589683532715,3.2133610248565674
1781030674604805000,23.72580517578125,-3.4524641036987305,0.9344940185546875,3.9168848991394043
1781030674624334600,23.74533447265625,-3.4524641036987305,0.9344940185546875,3.9168848991394043
1781030674643869200,23.764869140625,-4.088935852050781,0.10798999667167664,8.219730377197266
1781030674663403300,23.7844033203125,-4.15505313873291,-1.4504330158233643,10.545513153076172
1781030674682937300,23.803937255859374,-4.040510177612305,-1.8507150411605835,12.54471492767334
1781030674702472400,23.823472412109375,-3.7539639472961426,-2.322869062423706,13.095995903015137
1781030674722004000,23.84300390625,-3.3010621070861816,-2.761120080947876,13.496133804321289
1781030674741538300,23.862538330078124,-2.7914390563964844,-3.002943992614746,13.442814826965332
1781030674761074000,23.882073974609376,-2.3270649909973145,-3.015976905822754,12.862788200378418
1781030674780607200,23.901607177734373,-1.9649139642715454,-2.809209108352661,10.47213077545166
1781030674800143400,23.921143310546874,-1.8715009689331055,-2.5652859210968018,9.584809303283691
1781030674819684600,23.9406845703125,-1.887442946434021,-2.364656925201416,7.155887126922607
1781030674839224800,23.960224853515626,-1.7099050283432007,-2.207797050476074,5.051412105560303
1781030674858764300,23.979764404296876,-1.461169958114624,-2.1834499835968018,4.197188854217529
1781030674878303000,23.999302978515626,-1.241014003753662,-2.2988688945770264,3.389094114303589
1781030674897841200,24.018841064453124,-0.946245014667511,-2.306058883666992,2.854257106781006
1781030674917379800,24.0383798828125,-0.7087060213088989,-2.2244389057159424,2.7021729946136475
1781030674936920800,24.0579208984375,-0.5966169834136963,-2.139127016067505,2.8886759281158447
1781030674956465000,24.07746484375,-0.2487660050392151,-1.6780400276184082,3.1294031143188477
1781030674976007000,24.0970068359375,0.1380089968442917,-1.0692939758300781,3.1589291095733643
1781030674995543600,24.11654345703125,0.2448509931564331,-0.8323230147361755,3.152674913406372
1781030675015081200,24.136081298828124,0.304720014333725,-0.7103170156478882,2.9726510047912598
1781030675034615300,24.155615234375,0.3313469886779785,-0.7299299836158752,2.5767219066619873
1781030675054147300,24.175147216796876,0.3563779890537262,-0.9431340098381042,2.2072789669036865
1781030675073685000,24.19468505859375,0.6222490072250366,-0.9660360217094421,1.857869029045105
1781030675093226800,24.214226806640625,0.8297939896583557,-0.7780299782752991,1.5388820171356201
1781030675112764400,24.233764404296874,0.8471689820289612,-0.5521870255470276,1.2852530479431152
1781030675151828700,24.272828857421874,0.5755199790000916,-0.16328899562358856,0.3101609945297241
1781030675171365400,24.292365478515624,0.5950989723205566,-0.07025299966335297,-1.5367439985275269
1781030675190903300,24.3119033203125,0.7141259908676147,-0.061962999403476715,-3.3291139602661133
1781030675210445000,24.331445068359375,0.7784579992294312,0.12387999892234802,-3.766231060028076
1781030675229981700,24.350981689453125,0.7826579809188843,0.5641890168190002,-4.282195091247559
1781030675249512700,24.3705126953125,0.8001199960708618,1.037037968635559,-4.654911041259766
1781030675269043700,24.390043701171876,0.8583999872207642,1.5161839723587036,-5.068996906280518
1781030675288574000,24.409573974609376,1.0559920072555542,1.7985490560531616,-6.675191879272461
1781030675308105700,24.429105712890625,1.2035969495773315,1.663478970527649,-6.94307279586792
1781030675327643000,24.448642822265626,1.341858983039856,1.4062210321426392,-8.396007537841797
1781030675347179500,24.468179443359375,1.5951850414276123,1.1253260374069214,-8.619229316711426
1781030675366711600,24.487711669921875,3.0564749240875244,0.8845319747924805,-8.913298606872559
1781030675386246400,24.507246337890624,3.237821102142334,0.8458970189094543,-9.167722702026367
1781030675405779500,24.526779541015625,3.6345770359039307,0.9723619818687439,-9.309337615966797
1781030675425311000,24.54631103515625,3.6345770359039307,0.9723619818687439,-9.309337615966797
1781030675444845800,24.565845703125,4.091394901275635,1.651129961013794,-9.313385963439941
1781030675464376800,24.585376953125,4.038926124572754,2.206192970275879,-9.268681526184082
1781030675483905000,24.604905029296877,3.713819980621338,2.7984120845794678,-9.145179748535156
1781030675503436000,24.62443603515625,3.1548309326171875,3.2678070068359375,-8.8668794631958
1781030675522968000,24.643968017578125,3.1548309326171875,3.2678070068359375,-8.8668794631958
1781030675542496300,24.663496337890624,0.7724859714508057,3.4594969749450684,-7.732780933380127
1781030675562022400,24.6830224609375,0.21370600163936615,3.0947470664978027,-5.734247207641602
1781030675581552400,24.702552490234375,-0.1856050044298172,2.6068220138549805,-4.832884788513184
1781030675601085700,24.722085693359375,-0.26773801445961,2.147130012512207,-2.905806064605713
1781030675620617500,24.741617431640623,-0.27490299940109253,1.6782629489898682,-1.9981579780578613
1781030675640144100,24.76114404296875,-0.4141330122947693,1.1939500570297241,-0.10789100080728531
1781030675659673300,24.78067333984375,-0.7250319719314575,0.7742050290107727,0.6692399978637695
1781030675679203800,24.800203857421874,-1.2074480056762695,0.4038810133934021,1.570335030555725
1781030675698729200,24.819729248046876,-1.7843799591064453,0.11765100061893463,3.329224109649658
1781030675718254600,24.839254638671875,-3.494330883026123,-0.17143699526786804,5.588648796081543
1781030675737785900,24.858785888671875,-3.8350720405578613,-0.6066150069236755,8.071871757507324
1781030675757316900,24.87831689453125,-4.279699802398682,-1.1570990085601807,10.41032600402832
1781030675776843500,24.897843505859374,-4.459011077880859,-1.7226940393447876,12.327493667602539
1781030675796367400,24.917367431640624,-4.182951927185059,-2.2033851146698,12.641448974609375
1781030675815886800,24.936886962890625,-2.531888008117676,-2.519963026046753,12.710853576660156
1781030675835409200,24.9564091796875,-2.308803081512451,-2.747860908508301,12.373812675476074
1781030675854934800,24.975934814453126,-2.1280651092529297,-3.001171112060547,11.657881736755371
1781030675874460000,24.9954599609375,-2.0356969833374023,-3.2454779148101807,9.759617805480957
1781030675893987300,25.0149873046875,-1.9256960153579712,-3.330634117126465,7.283463001251221
1781030675913514800,25.0345146484375,-1.7350640296936035,-3.235584020614624,6.4360151290893555
