time,seconds_elapsed,z,y,x
1780527295387304200,3.91330419921875,-0.3029891550540924,0.0012217304902151,0.2553416788578033
1780527295397405400,3.923405517578125,-0.3567453026771545,0.0134390350431203,0.2357939779758453
1780527295407476200,3.933476318359375,-0.442266434431076,0.0024434609804302,0.1918116807937622
1780527295417577500,3.943577392578125,-0.5473352670669556,0.0061086523346602,0.2333505302667617
1780527295427648500,3.9536484375,-0.6646214127540588,0.0085521135479211,0.3310889601707458
1780527295437749800,3.963749755859375,-0.8161159753799438,0.0024434609804302,0.3628539443016052
1780527295447820500,3.973820556640625,-1.0128145217895508,-0.0232128798961639,0.2883284091949463
1780527295457891300,3.983891357421875,-1.1997393369674685,-0.0403171069920063,0.147829383611679
1780527295467992600,3.99399267578125,-1.313360333442688,-0.0293215326964855,-0.0354301854968071
1780527295478033000,4.004032958984375,-1.368338108062744,-0.0134390350431203,-0.1759291887283325
1780527295548589600,4.074589599609375,-1.731192111968994,-0.3408628106117248,-0.0769690200686454
1780527295578863000,4.104863037109375,-1.7812830209732056,-0.3262020349502563,-0.1453859210014343
1780527295609136400,4.135136474609375,-1.6371188163757324,-0.2150245606899261,-0.0244346093386411
1780527295619207200,4.145207275390625,-1.5467108488082886,-0.1661553531885147,0.0708603709936142
1780527295629308400,4.155308349609375,-1.4208725690841677,-0.167377084493637,-0.0097738439217209
1780527295639410000,4.165409912109375,-1.3048081398010254,-0.2028072625398636,-0.2040289938449859
1780527295689763800,4.215763916015625,-0.8503243923187256,-0.2028072625398636,0.0769690200686454
1780527295770452200,4.2964521484375,0.5265658497810364,-0.4129449129104614,-0.7782423496246338
1780527295780553700,4.3065537109375,0.6120869517326355,-0.4923573732376098,-0.7232644557952881
1780527295790624500,4.31662451171875,0.6976081132888794,-0.5461135506629944,-0.3396410644054413
1780527295800664800,4.326664794921875,0.9358455538749696,-0.4642575979232788,-0.1356120854616165
1780527295810766000,4.33676611328125,1.5650367736816406,-0.5644394755363464,-0.6389650702476501
1780527295820867300,4.346867431640625,1.832595705986023,-0.6695083379745483,-1.4611896276474
1780527295830968600,4.356968505859375,1.9914207458496092,-0.7550294399261475,-1.986533761024475
1780527295841009000,4.3670087890625,2.134363174438477,-0.7757988572120667,-2.106263399124145
1780527295901556000,4.427555908203125,2.280970811843872,-0.4935791194438934,-0.1649336218833923
1780527295911626800,4.437626708984375,2.130697965621948,-0.2235766798257827,0.4605923891067505
1780527295982244400,4.508244384765625,1.3072515726089478,0.5070181488990784,-0.4825835525989532
1780527296022558000,4.548557861328125,0.0952949747443199,1.2302825450897217,-1.1056660413742063
1780527296032628700,4.558628662109375,-0.0464257597923278,1.2681562900543213,-1.0128145217895508
1780527296103124500,4.62912451171875,-0.6768386960029602,-0.7220427393913269,0.0879645943641662
1780527296133398000,4.65939794921875,-0.5461135506629944,0.1026253625750541,-2.0732767581939697
1780527296153600500,4.6796005859375,-0.6878342628479004,0.3921754956245422,-4.318817138671875
1780527296183874000,4.7098740234375,-1.909564733505249,0.7391469478607178,-1.602910399436951
1780527296214147300,4.740147216796875,-1.892460584640503,0.7232644557952881,-1.957212209701538
1780527296244390400,4.770390380859375,-1.7800613641738892,1.0934487581253052,-0.1954768747091293
1780527296254491600,4.78049169921875,-1.7861700057983398,1.045801281929016,0.2919935882091522
1780527296294866400,4.820866455078125,-1.9046778678894043,0.8613200187683105,1.692096710205078
1780527296385656300,4.91165625,-0.7452555894851685,0.6145304441452026,0.3017674386501312
1780527296395757600,4.921757568359375,-0.5094616413116455,0.432492583990097,0.4373795092105865
1780527296476415500,5.00241552734375,0.0207694191485643,0.1661553531885147,-1.084896683692932
1780527296536931800,5.062931884765625,0.0268780700862407,-0.1905899494886398,0.5277875661849976
1780527296547002600,5.073002685546875,0.2883284091949463,-0.1099557429552078,-0.3897320330142975
1780527296557103900,5.083103759765625,0.6866125464439392,-0.1624901592731475,-0.5705481171607971
1780527296567174700,5.093174560546875,0.6487388610839844,-0.3836233615875244,-0.0256563406437635
1780527296577245400,5.103245361328125,0.5595525503158569,-0.5265658497810364,0.5180137157440186
1780527296587316500,5.11331640625,0.4605923891067505,-0.4581489264965057,0.7831292152404785
1780527296597448200,5.1234482421875,0.3677408695220947,-0.2700024247169494,0.7562511563301086
1780527296607549400,5.133549560546875,0.4508185386657715,-0.0733038261532783,0.2956587672233581
1780527296617620200,5.1436201171875,0.6340781450271606,-0.0452040284872055,-0.3665191531181335
1780527296627721700,5.1537216796875,0.8124507665634155,-0.2602286040782928,-0.7965682744979858
1780527296698339300,5.22433935546875,0.9260717034339904,-0.0390953756868839,0.4862487316131592
1780527296708440600,5.234440673828125,0.998153805732727,-0.0940732508897781,-0.0769690200686454
1780527296718541800,5.244541748046875,0.9639453291893004,-0.230907067656517,-0.3164281845092773
1780527296738683600,5.26468359375,0.7611380815505981,-0.4361577928066253,-0.1429424732923507
1780527296748785000,5.274784912109375,0.7525860071182251,-0.4288274049758911,0.2028072625398636
1780527296779058200,5.30505810546875,0.7782423496246338,-0.0317649915814399,0.5253441333770752
1780527296789159700,5.31515966796875,0.8539896011352539,-0.1221730485558509,0.3591887652873993
1780527296799291400,5.32529150390625,0.8442157506942749,-0.3335324227809906,0.2101376503705978
1780527296809362200,5.335362060546875,0.7476990818977356,-0.4801400899887085,0.0598647929728031
1780527296819433000,5.345432861328125,0.6389650702476501,-0.5082398653030396,-0.0403171069920063
1780527296829565000,5.35556494140625,0.5693264007568359,-0.4129449129104614,-0.0146607663482427
1780527296839605200,5.365605224609375,0.5302310585975647,-0.3005456924438476,0.1429424732923507
1780527296849706500,5.37570654296875,0.5253441333770752,-0.1966986060142517,0.3054326176643371
1780527296859807700,5.385807861328125,0.5571091175079346,-0.1233947798609733,0.3738495409488678
1780527296869909200,5.3959091796875,0.6035348773002625,-0.117286130785942,0.2724458873271942
1780527296879949300,5.40594921875,0.6059783101081848,-0.1771509200334549,0.0830776765942573
1780527296900152000,5.426152099609375,0.5009095072746277,-0.197920337319374,-0.1612684279680252
1780527296910253300,5.43625341796875,0.4593706727027893,-0.0977384373545646,-0.0720821022987365
1780527296920263200,5.44626318359375,0.452040284872055,-0.0219911485910415,0.1062905490398407
1780527296930395000,5.456394775390625,0.4764748811721802,-0.0048869219608604,0.2638937830924988
1780527296950567200,5.476567138671875,0.5412266254425049,-0.0720821022987365,0.442266434431076
1780527296960638000,5.486637939453125,0.5754350423812866,-0.0305432621389627,0.4410447180271148
1780527296980871200,5.50687109375,0.5900958180427551,-0.0464257597923278,0.3726277947425842
1780527296990972400,5.516972412109375,0.5791002511978149,-0.0769690200686454,0.2761110961437225
1780527297031286000,5.5572861328125,0.5094616413116455,-0.0928515195846557,0.157603234052658
1780527297061590000,5.587590087890625,0.5412266254425049,-0.1099557429552078,0.294437050819397
1780527297122198000,5.648197998046875,0.1747074574232101,-0.0024434609804302,0.2138028293848037
1780527297132299300,5.65829931640625,0.1319468915462494,0.0268780700862407,0.090408056974411
1780527297203008500,5.729008544921875,0.0818559452891349,-0.0659734457731247,0.2907718420028686
1780527297213140200,5.73914013671875,0.0879645943641662,-0.0806342139840126,0.3127630054950714
1780527297223241700,5.74924169921875,0.0867428630590438,-0.0879645943641662,0.2345722615718841
1780527297263738400,5.78973828125,0.0317649915814399,0.0134390350431203,-0.0207694191485643
1780527297314275600,5.840275634765625,0.0317649915814399,0.0867428630590438,0.5302310585975647
1780527297324376800,5.850376953125,0.0329867228865623,0.067195177078247,0.5253441333770752
1780527297334478300,5.860478271484375,0.0598647929728031,0.0696386396884918,0.4202753007411957
1780527297344610000,5.870610107421875,0.1014036312699318,0.098960168659687,0.2602286040782928
1780527297354711300,5.880711181640625,0.1453859210014343,0.0696386396884918,0.1624901592731475
1780527297364812800,5.890812744140625,0.1881465017795562,0.0403171069920063,0.2089159190654754
1780527297374944500,5.900944580078125,0.1991420686244964,0.0342084541916847,0.3090978264808655
1780527297385045800,5.911045654296875,0.1918116807937622,0.0366519130766391,0.3860668241977691
1780527297395147300,5.921147216796875,0.1991420686244964,-0.0036651915870606,0.3958406746387481
1780527297405248500,5.93124853515625,0.1893682330846786,-0.0696386396884918,0.394618958234787
1780527297415411000,5.941410888671875,0.1795943826436996,-0.0745255574584007,0.3481931984424591
1780527297425512200,5.95151220703125,0.1624901592731475,-0.067195177078247,0.2076941877603531
1780527297435613400,5.961613525390625,0.1429424732923507,-0.0525344125926494,0.107512280344963
1780527297445714700,5.971714599609375,0.1197295859456062,-0.0195476878434419,0.0928515195846557
1780527297455846700,5.9818466796875,0.0928515195846557,0.0036651915870606,0.1050688251852989
1780527297465948000,5.991947998046875,0.058643065392971,0.0280998013913631,0.1795943826436996
1780527297476049200,6.002049072265625,0.0488692186772823,0.0574213340878486,0.230907067656517
1780527297486150700,6.012150634765625,0.0610865242779254,0.067195177078247,0.2235766798257827
1780527297496282400,6.022282470703125,0.0916297882795333,0.0598647929728031,0.2761110961437225
1780527297506414300,6.032414306640625,0.1246165111660957,0.0305432621389627,0.3298672437667846
1780527297516515600,6.042515625,0.1185078546404838,0.0048869219608604,0.3298672437667846
1780527297526616800,6.052616943359375,0.0916297882795333,0.0,0.2748893499374389
1780527297536718300,6.06271826171875,0.0745255574584007,0.0280998013913631,0.1734857261180877
1780527297546850000,6.07285009765625,0.0733038261532783,0.0415388382971286,0.1160643994808197
1780527297556951300,6.082951416015625,0.0598647929728031,0.0342084541916847,0.1698205322027206
1780527297567052800,6.093052734375,0.051312681287527,0.0329867228865623,0.1857030391693115
1780527297577184500,6.1031845703125,0.0464257597923278,0.0024434609804302,0.0781907513737678
1780527297587285800,6.11328564453125,0.0366519130766391,-0.0415388382971286,-0.1014036312699318
1780527297597387300,6.12338720703125,0.0525344125926494,-0.0635299831628799,-0.2651155292987823
1780527297607488500,6.133488525390625,0.0623082555830478,-0.067195177078247,-0.3188716471195221
1780527297617589800,6.14358984375,0.0598647929728031,-0.0366519130766391,-0.2773328125476837
1780527297627721700,6.1537216796875,0.0500909499824047,-0.0061086523346602,-0.1502728462219238
1780527297637823000,6.163822998046875,0.0232128798961639,-0.0024434609804302,-0.0232128798961639
1780527297647924200,6.17392431640625,-0.0036651915870606,-0.0378736443817615,-0.1014036312699318
1780527297658056200,6.18405615234375,-0.0305432621389627,-0.0940732508897781,-0.3579670190811157
1780527297668157400,6.194157470703125,-0.0476474873721599,-0.1490511149168014,-0.6340781450271606
1780527297678228200,6.204228271484375,-0.0195476878434419,-0.167377084493637,-0.7452555894851685
1780527297688360000,6.21435986328125,0.0061086523346602,-0.1392772793769836,-0.5766568183898926
1780527297698461400,6.22446142578125,-0.0097738439217209,-0.1050688251852989,-0.2174680233001709
1780527297779119400,6.305119384765625,-0.1343903541564941,-0.1233947798609733,-0.3433062732219696
1780527297829473300,6.355473388671875,-0.3481931984424591,-0.1502728462219238,-0.1233947798609733
1780527297849645600,6.3756455078125,-0.5668829679489136,-0.1722639948129654,-0.1185078546404838
1780527297920202000,6.446201904296875,-1.4404202699661257,0.0647517144680023,-0.0342084541916847
1780527297960576800,6.48657666015625,-1.665218710899353,0.051312681287527,0.1857030391693115
1780527298000951600,6.52695166015625,-1.6994271278381348,-0.1722639948129654,-0.0048869219608604
1780527298041296000,6.5672958984375,-1.7324138879776,-0.2528982162475586,-0.2748893499374389
1780527298101781800,6.62778173828125,-1.1911872625350952,-0.2871066629886627,-0.2394591718912124
1780527298131994000,6.657994140625,-0.8625417351722717,-0.4043927788734436,-0.0598647929728031
1780527298142065000,6.66806494140625,-0.7195992469787598,-0.4667010605335235,-0.1343903541564941
1780527298162176000,6.688176025390625,-0.4092797040939331,-0.4679227769374847,-0.2467895597219467
1780527298172277200,6.69827734375,-0.261450320482254,-0.4337143301963806,-0.2284636050462722
1780527298182348000,6.70834814453125,-0.0940732508897781,-0.3885102868080139,-0.0305432621389627
1780527298192418800,6.718418701171875,0.0879645943641662,-0.4459316432476043,0.1832595765590667
1780527298202520300,6.728520263671875,0.280998021364212,-0.5693264007568359,0.1881465017795562
1780527298212621600,6.73862158203125,0.475253164768219,-0.7000515460968018,-0.0073303831741213
1780527298252935200,6.77893505859375,1.3646728992462158,-0.8356636762619019,-0.5485569834709167
1780527298263006000,6.789005859375,1.5564846992492676,-0.9004153609275818,-0.8869763612747192
1780527298273107500,6.799107421875,1.7434093952178955,-0.8710938692092896,-1.1826350688934326
1780527298283208700,6.809208740234375,1.9327776432037356,-0.8539896011352539,-1.4159855842590332
1780527298293279500,6.819279541015625,2.0696115493774414,-0.8332201838493347,-1.6957619190216064
1780527298303380700,6.829380615234375,2.199114799499512,-0.8686503767967224,-1.804495930671692
1780527298313451500,6.839451416015625,2.3102922439575195,-1.0103710889816284,-1.6139060258865356
1780527298323522300,6.849522216796875,2.353052854537964,-1.147204875946045,-1.2376129627227783
1780527298333623800,6.859623779296875,2.2736403942108154,-1.244943380355835,-0.9908234477043152
1780527298343694600,6.869694580078125,2.1905627250671387,-1.310916781425476,-0.8698720932006836
1780527298353765400,6.879765380859375,2.185675859451294,-1.302364706993103,-0.9676105380058287
1780527298363836200,6.889836181640625,2.1392500400543213,-1.2986994981765747,-0.8796459436416626
1780527298373937400,6.8999375,2.141693592071533,-1.2095131874084473,-0.3152064681053161
1780527298384008200,6.91000830078125,2.258979558944702,-1.018923282623291,-0.1209513172507286
1780527298394079000,6.920078857421875,2.3408355712890625,-0.8210029006004333,-0.5595525503158569
1780527298404149800,6.930149658203125,2.29440975189209,-0.6707300543785095,-0.8881980776786804
1780527298414220500,6.940220458984375,2.1392500400543213,-0.4214970171451568,-0.4605923891067505
1780527298424322000,6.950322021484375,1.9315558671951292,-0.1282816976308822,0.2345722615718841
1780527298434362400,6.9603623046875,1.712866187095642,0.1600466966629028,0.6536257863044739
1780527298444433200,6.97043310546875,1.4782938957214355,0.513126790523529,0.8319984674453735
1780527298454534400,6.980534423828125,1.1178834438323977,0.8710938692092896,1.016479730606079
1780527298474706400,7.00070654296875,0.4593706727027893,1.4098769426345823,1.7055357694625854
1780527298484838400,7.01083837890625,0.2150245606899261,1.501506805419922,2.0366246700286865
1780527298494909200,7.0209091796875,0.0146607663482427,1.5320500135421753,2.185675859451294
1780527298515111700,7.041111572265625,-0.4105014503002167,1.2681562900543213,2.1868975162506104
1780527298525182500,7.051182373046875,-0.5119050741195679,1.0384708642959597,2.112371921539306
1780527298535253200,7.061253173828125,-0.7415903806686401,0.7574729323387146,1.5149458646774292
1780527298545324300,7.07132421875,-0.8943067193031311,0.5265658497810364,0.5693264007568359
1780527298555425500,7.081425537109375,-0.9920451641082764,0.4105014503002167,-0.5729916095733643
1780527298565496300,7.091496337890625,-1.0836749076843262,0.3897320330142975,-1.2718214988708496
1780527298575567000,7.101567138671875,-1.065348982810974,0.442266434431076,-1.5552629232406616
1780527298625982200,7.151982177734375,-1.5711454153060913,0.9993755221366882,-1.784948229789734
1780527298716711000,7.2427109375,-1.629788517951965,0.6878342628479004,0.351858377456665
1780527298746953700,7.27295361328125,-1.4978415966033936,0.7379252314567566,0.940732479095459
1780527298817540900,7.343540771484375,-0.6206390857696533,0.8918632864952087,0.5925393104553223
1780527298827611600,7.353611572265625,-0.3017674386501312,0.8234463334083557,0.3726277947425842
1780527298877935400,7.403935302734375,-0.2822197377681732,0.1661553531885147,1.0946705341339111
1780527298888067000,7.414067138671875,-0.2296853363513946,0.3933972120285034,0.7525860071182251
1780527298898137900,7.424137939453125,-0.0207694191485643,0.1441642045974731,0.5400048494338989
1780527298938451700,7.46445166015625,0.4239404797554016,-0.5253441333770752,-0.6499606370925903
1780527298968633600,7.494633544921875,0.361632227897644,0.0525344125926494,1.1520918607711792
1780527298978734800,7.50473486328125,0.5510004758834839,-0.4447098970413208,0.8527678847312927
1780527298988805600,7.5148056640625,0.5302310585975647,-0.7709119319915771,-0.0574213340878486
1780527298998745900,7.524745849609375,0.375071257352829,-0.7941248416900635,-1.1655309200286863
1780527299008847000,7.53484716796875,0.4300491213798523,-0.6194173693656921,-1.598023533821106
1780527299018948600,7.544948486328125,0.6524040699005127,-0.3591887652873993,-1.2412781715393066
1780527299029019400,7.555019287109375,0.7122688889503479,-0.0818559452891349,-0.6377432942390442
1780527299039059700,7.565059814453125,0.675616979598999,-0.0109955742955207,0.0268780700862407
1780527299049161000,7.575160888671875,0.7635815739631653,-0.1734857261180877,0.5106833577156067
1780527299059231700,7.585231689453125,0.8857545852661133,-0.3982841372489929,0.4349360466003418
1780527299069302500,7.595302490234375,0.9260717034339904,-0.5925393104553223,0.0097738439217209
1780527299119687200,7.645687255859375,0.9529497623443604,0.098960168659687,0.4642575979232788
1780527299190182700,7.7161826171875,0.5827654600143433,0.147829383611679,0.3286454975605011
1780527299250699000,7.776698974609375,0.6218608021736145,0.0207694191485643,0.3885102868080139
1780527299280972500,7.80697265625,0.7049384713172913,0.0122173046693205,0.4740314185619354
1780527299331448600,7.857448486328125,0.3591887652873993,0.0232128798961639,0.0659734457731247
1780527299341519400,7.867519287109375,0.3811798989772796,0.098960168659687,-0.0623082555830478
1780527299351590100,7.877590087890625,0.4667010605335235,0.0134390350431203,-0.1148426681756973
1780527299361661000,7.887660888671875,0.5546656250953674,-0.1246165111660957,-0.0598647929728031
1780527299371762200,7.89776220703125,0.5791002511978149,-0.1734857261180877,0.0818559452891349
1780527299381863700,7.90786376953125,0.5302310585975647,-0.1099557429552078,0.261450320482254
1780527299422207700,7.948207763671875,0.5326744914054871,0.0965167060494422,0.4862487316131592
1780527299452481300,7.978481201171875,0.4532620012760162,-0.1429424732923507,0.2492330223321914
1780527299513028000,8.039028076171874,0.2089159190654754,0.0268780700862407,0.1282816976308822
1780527299533261300,8.05926123046875,0.2150245606899261,0.051312681287527,0.1795943826436996
1780527299543332000,8.06933203125,0.2101376503705978,0.0329867228865623,0.1844813078641891
1780527299553403000,8.07940283203125,0.230907067656517,0.0158824957907199,0.1771509200334549
1780527299563504000,8.089504150390624,0.2443460971117019,-0.0036651915870606,0.1282816976308822
1780527299573605600,8.099605712890625,0.2345722615718841,-0.0219911485910415,0.0696386396884918
1780527299583707000,8.109706787109374,0.2174680233001709,-0.0195476878434419,0.0244346093386411
1780527299593808100,8.11980810546875,0.1930334120988845,-0.0061086523346602,0.0427605658769607
1780527299603909400,8.129909423828124,0.1771509200334549,0.0048869219608604,0.1136209368705749
1780527299614041300,8.140041259765624,0.1734857261180877,-0.0036651915870606,0.1747074574232101
1780527299644375800,8.170375732421874,0.1453859210014343,-0.0378736443817615,0.2235766798257827
1780527299674679800,8.2006796875,0.0305432621389627,0.0183259565383195,0.1649336218833923
1780527299684781000,8.210781005859374,0.0219911485910415,0.0329867228865623,0.0745255574584007
1780527299745419500,8.27141943359375,-0.0244346093386411,0.0500909499824047,0.2223549485206604
1780527299806088400,8.33208837890625,-0.0085521135479211,0.0708603709936142,0.140499010682106
1780527299816189700,8.342189697265624,-0.0171042270958423,0.0647517144680023,0.1331686228513717
1780527299826291000,8.352291015625,-0.0109955742955207,0.0525344125926494,0.1368338167667389
1780527299836392400,8.362392333984374,0.0158824957907199,0.0525344125926494,0.1160643994808197
1780527299846493700,8.37249365234375,0.0427605658769607,0.0574213340878486,0.0940732508897781
1780527299856595000,8.382594970703124,0.0574213340878486,0.0500909499824047,0.107512280344963
1780527299866696400,8.392696533203125,0.0659734457731247,0.0403171069920063,0.1783726513385772
1780527299886899000,8.41289892578125,0.051312681287527,0.0183259565383195,0.3127630054950714
1780527299897031000,8.423031005859375,0.0317649915814399,0.0464257597923278,0.2370157092809677
1780527299907132200,8.433132080078124,0.0195476878434419,0.0720821022987365,0.1209513172507286
1780527299917172500,8.44317236328125,0.0317649915814399,0.0757472887635231,0.0879645943641662
1780527299927304200,8.45330419921875,0.0757472887635231,0.0855211317539215,0.107512280344963
1780527299937405400,8.463405517578124,0.1136209368705749,0.0757472887635231,0.1050688251852989
1780527299947537400,8.473537353515624,0.1331686228513717,0.0390953756868839,0.1368338167667389
1780527299957638700,8.483638671875,0.1698205322027206,0.0219911485910415,0.1783726513385772
1780527299977841400,8.50384130859375,0.2101376503705978,-0.0806342139840126,0.0940732508897781
1780527299987942700,8.513942626953124,0.2015855312347412,-0.1160643994808197,-0.0097738439217209
1780527299998044000,8.5240439453125,0.1869247704744339,-0.1148426681756973,-0.0720821022987365
1780527300008145400,8.5341455078125,0.1551597714424133,-0.0794124826788902,-0.0745255574584007
1780527300028409000,8.5544091796875,0.1380555480718612,-0.0403171069920063,0.0293215326964855
1780527300038480000,8.56447998046875,0.1062905490398407,-0.0500909499824047,0.0232128798961639
1780527300048611600,8.574611572265624,0.0403171069920063,-0.0232128798961639,-0.0134390350431203
1780527300058712800,8.584712890625,-0.0073303831741213,0.0207694191485643,-0.0769690200686454
1780527300068814300,8.594814453125,-0.0293215326964855,0.0207694191485643,-0.1783726513385772
1780527300078946000,8.604946044921874,-0.0232128798961639,-0.0256563406437635,-0.2773328125476837
1780527300089047300,8.61504736328125,0.0012217304902151,-0.0867428630590438,-0.3640756905078888
1780527300099148800,8.625148681640624,0.0232128798961639,-0.140499010682106,-0.4190535545349121
1780527300109250000,8.63525,0.0244346093386411,-0.1820378452539444,-0.4471533596515655
1780527300119351300,8.645351318359374,0.0134390350431203,-0.1857030391693115,-0.4227187633514404
1780527300129452800,8.655452880859375,0.0097738439217209,-0.1539380401372909,-0.3909537494182586
1780527300159756500,8.685756591796874,-0.0012217304902151,-0.140499010682106,-0.2528982162475586
1780527300230252300,8.756252197265624,-0.2235766798257827,-0.0464257597923278,0.0794124826788902
1780527300260495000,8.7864951171875,-0.5436700582504272,-0.0623082555830478,-0.0158824957907199
1780527300280667400,8.80666748046875,-0.8527678847312927,-0.0378736443817615,0.2480112910270691
1780527300290768600,8.8167685546875,-0.9737191796302797,0.0012217304902151,0.2687807083129883
1780527300300900400,8.826900390625,-1.0910053253173828,0.0354301854968071,0.2052507251501083
1780527300311001900,8.837001953125,-1.2180652618408203,0.0439822971820831,0.0317649915814399
1780527300341305600,8.8673056640625,-1.5063936710357666,0.0109955742955207,-0.4508185386657715
1780527300351376400,8.87737646484375,-1.5442672967910769,0.0366519130766391,-0.4129449129104614
1780527300361416700,8.887416748046874,-1.5809192657470703,0.0378736443817615,-0.2797762751579284
1780527300371487500,8.897487548828124,-1.6371188163757324,0.0085521135479211,-0.2003637999296188
1780527300381619500,8.907619384765624,-1.6798794269561768,-0.0317649915814399,-0.2003637999296188
1780527300391690200,8.917690185546874,-1.6823228597640991,-0.0635299831628799,-0.2895501255989074
1780527300401791500,8.92779150390625,-1.6872098445892334,-0.0598647929728031,-0.3127630054950714
1780527300421994200,8.947994140625,-1.7739527225494385,-0.067195177078247,-0.1527163088321685
1780527300432065000,8.95806494140625,-1.7996090650558472,-0.0794124826788902,-0.167377084493637
1780527300442105300,8.968105224609374,-1.7788395881652832,-0.0965167060494422,-0.2736676335334778
1780527300452237000,8.978237060546874,-1.7519614696502686,-0.0940732508897781,-0.3481931984424591
1780527300502621700,9.02862158203125,-1.4404202699661257,-0.0366519130766391,0.1062905490398407
1780527300512692500,9.0386923828125,-1.380555510520935,-0.0525344125926494,0.0647517144680023
1780527300532864500,9.058864501953124,-1.1655309200286863,-0.1331686228513717,0.0048869219608604
1780527300542935300,9.068935302734374,-1.0348057746887207,-0.251676470041275,-0.0733038261532783
1780527300553006000,9.079006103515624,-0.9382890462875366,-0.3298672437667846,-0.2076941877603531
1780527300573178400,9.099178466796875,-0.740368664264679,-0.361632227897644,-0.1588249653577804
1780527300583279600,9.109279541015624,-0.6352998614311218,-0.2834414839744568,0.0464257597923278
1780527300593380900,9.119380859375,-0.4593706727027893,-0.2052507251501083,0.2822197377681732
1780527300603482000,9.129482177734374,-0.2541199326515198,-0.2174680233001709,0.3958406746387481
1780527300613553000,9.139552978515624,-0.0708603709936142,-0.3054326176643371,0.3872885704040527
1780527300623624000,9.1496240234375,0.0720821022987365,-0.3799581825733185,0.1527163088321685
1780527300633755600,9.159755615234374,0.1832595765590667,-0.4239404797554016,-0.0061086523346602
1780527300643826400,9.169826416015624,0.3530801236629486,-0.46547931432724,-0.0036651915870606
1780527300653897200,9.179897216796874,0.5363397002220154,-0.4300491213798523,-0.1331686228513717
1780527300663998500,9.18999853515625,0.6707300543785095,-0.3775147199630737,-0.2272418737411499
1780527300674100000,9.200099853515624,0.7941248416900635,-0.3872885704040527,-0.1270599663257599
1780527300684170800,9.210170654296874,0.9847147464752196,-0.455705463886261,-0.0305432621389627
1780527300694272000,9.22027197265625,1.197295904159546,-0.4972442984580993,-0.0916297882795333
1780527300704342800,9.2303427734375,1.3353514671325684,-0.4642575979232788,-0.2431243658065796
1780527300714413600,9.24041357421875,1.4135421514511108,-0.4398229718208313,-0.3958406746387481
1780527300734555100,9.26055517578125,1.7214182615280151,-0.4862487316131592,-0.6670648455619812
1780527300785031200,9.31103125,2.046398639678955,-0.7452555894851685,-1.0677924156188965
1780527300835507500,9.361507568359375,2.2003366947174072,-1.076344609260559,-0.9761626720428468
1780527300875851500,9.4018515625,2.070833206176758,-0.6243042945861816,-0.9957103729248048
1780527300885922300,9.41192236328125,1.93766450881958,-0.5338962078094482,-0.5815436840057373
1780527300895962600,9.421962646484374,1.819156646728516,-0.4667010605335235,-0.304210901260376
1780527300906064100,9.432064208984375,1.6872098445892334,-0.394618958234787,-0.2981022298336029
1780527300916104200,9.442104248046874,1.4953981637954712,-0.3506366610527038,-0.2272418737411499
1780527300926205700,9.452205810546875,1.292590856552124,-0.3139847218990326,-0.2455678284168243
1780527300946347300,9.47234716796875,0.9285151958465576,-0.2223549485206604,-0.5778785347938538
1780527300956387600,9.4823876953125,0.7611380815505981,-0.2321287989616394,-0.7525860071182251
1780527300966488800,9.49248876953125,0.5534439086914062,-0.2443460971117019,-0.8246681094169617
1780527300986630400,9.51263037109375,0.0146607663482427,-0.0317649915814399,-0.0916297882795333
1780527301036923400,9.56292333984375,-0.7061602473258972,0.7476990818977356,0.058643065392971
1780527301046994200,9.572994140625,-0.8833111524581909,0.8527678847312927,0.0195476878434419
1780527301057065000,9.58306494140625,-1.099557399749756,0.9615018963813782,0.1368338167667389
1780527301067197000,9.593197021484375,-1.3292428255081177,1.1117748022079468,0.4043927788734436
1780527301077206500,9.60320654296875,-1.5161675214767456,1.2412781715393066,0.7122688889503479
1780527301127591200,9.653591064453124,-2.145358800888061,1.1423180103302002,1.0201449394226074
1780527301167966000,9.693966064453123,-2.342057466506958,1.1838568449020386,0.5998696684837341
1780527301178036700,9.70403662109375,-2.29440975189209,1.1911872625350952,0.4434881806373596
1780527301188138000,9.714137939453124,-2.1954495906829834,1.2095131874084473,0.384845107793808
1780527301198208800,9.724208740234374,-2.046398639678955,1.1349875926971436,0.6340781450271606
1780527301208279600,9.734279541015624,-1.9315558671951292,0.9639453291893004,1.0384708642959597
1780527301218350300,9.744350341796874,-1.7886134386062622,0.9150761365890504,1.4001030921936035
1780527301228451600,9.75445166015625,-1.595579981803894,0.9676105380058287,1.5308283567428589
1780527301238522600,9.764522705078123,-1.431868076324463,1.0054842233657837,1.3048081398010254
1780527301258725000,9.78472509765625,-1.056796908378601,1.0958921909332275,0.5766568183898926
1780527301268796000,9.7947958984375,-0.8197811841964722,1.007927656173706,0.5290092825889587
1780527301278866700,9.80486669921875,-0.7037167549133301,0.8576548099517822,0.6695083379745483
1780527301288968000,9.814968017578124,-0.7147123217582703,0.6670648455619812,0.9358455538749696
1780527301299100000,9.825099853515624,-0.7293730974197388,0.5681046843528748,1.1643091440200806
1780527301309170700,9.835170654296874,-0.6450737118721008,0.4960225820541382,1.2583824396133425
1780527301319241500,9.845241455078124,-0.3824016451835632,0.5180137157440186,0.921184778213501
1780527301329342700,9.8553427734375,-0.0329867228865623,0.5338962078094482,0.2345722615718841
1780527301379788300,9.905788330078124,-0.157603234052658,0.1001818999648094,0.1588249653577804
1780527301399960600,9.925960693359375,0.2492330223321914,0.608421802520752,0.294437050819397
1780527301410061800,9.936061767578124,0.5082398653030396,0.3579670190811157,0.0012217304902151
1780527301420132600,9.946132568359374,0.6316346526145935,-0.3213151097297668,-0.1624901592731475
1780527301470486500,9.996486572265624,0.3995058834552765,0.5815436840057373,0.3591887652873993
1780527301500760000,10.026760009765624,0.8710938692092896,-0.6010913848876953,-0.3078760802745819
1780527301510861300,10.036861328125,0.8576548099517822,-1.047023057937622,-0.513126790523529
1780527301520932000,10.04693212890625,0.7635815739631653,-1.0005972385406494,-0.4715879559516907
1780527301531003000,10.0570029296875,0.6988298296928406,-0.6047565937042236,-0.2040289938449859
1780527301541104400,10.0671044921875,0.7733554244041443,-0.0708603709936142,0.0
1780527301551144400,10.07714453125,0.8833111524581909,0.3005456924438476,-0.0256563406437635
1780527301561215500,10.087215576171875,0.9541715383529664,0.3860668241977691,-0.2223549485206604
1780527301571255600,10.097255615234374,1.0042624473571775,0.167377084493637,-0.2932153046131134
1780527301581357000,10.107357177734375,0.978606104850769,-0.2113593816757202,-0.1612684279680252
1780527301591458300,10.117458251953124,0.8918632864952087,-0.5656611919403076,-0.1539380401372909
1780527301601529000,10.127529052734374,0.8332201838493347,-0.7476990818977356,-0.2028072625398636
1780527301611630300,10.13763037109375,0.8038986921310425,-0.6780604124069214,-0.0256563406437635
1780527301621670700,10.147670654296874,0.7782423496246338,-0.3530801236629486,0.36529740691185
1780527301692257800,10.2182578125,0.4447098970413208,-0.3384193480014801,-0.2748893499374389
1780527301712430000,10.23843017578125,0.442266434431076,0.0415388382971286,0.2700024247169494
1780527301722531300,10.24853125,0.4984660446643829,0.1514945775270462,0.2223549485206604
1780527301732602000,10.25860205078125,0.5338962078094482,0.0598647929728031,0.0452040284872055
1780527301752743700,10.27874365234375,0.5229006409645081,-0.3078760802745819,-0.2553416788578033
1780527301762845000,10.288844970703124,0.4972442984580993,-0.3298672437667846,-0.3445279896259308
1780527301772946400,10.298946533203123,0.4386012554168701,-0.2235766798257827,-0.3738495409488678
1780527301783047700,10.309047607421874,0.3970624208450317,-0.0635299831628799,-0.36529740691185
1780527301793088000,10.319087890625,0.3885102868080139,0.0610865242779254,-0.3445279896259308
1780527301803158800,10.32915869140625,0.3982841372489929,0.0916297882795333,-0.2761110961437225
1780527301813260000,10.339260009765624,0.4373795092105865,0.0427605658769607,-0.2113593816757202
1780527301823330800,10.349330810546874,0.5314527750015259,-0.0256563406437635,-0.1783726513385772
1780527301833432000,10.35943212890625,0.6218608021736145,-0.0842994004487991,-0.0818559452891349
1780527301843533600,10.369533447265624,0.6133087277412415,-0.107512280344963,0.1429424732923507
1780527301853634800,10.379634765625,0.5571091175079346,-0.0855211317539215,0.36529740691185
1780527301863766500,10.3897666015625,0.5326744914054871,-0.0464257597923278,0.442266434431076
1780527301873929000,10.399928955078124,0.4984660446643829,-0.0219911485910415,0.3762930035591125
1780527301883999700,10.409999755859374,0.4251621961593628,0.0305432621389627,0.2040289938449859
1780527301894101000,10.42010107421875,0.3310889601707458,0.0842994004487991,0.051312681287527
1780527301904172000,10.430172119140623,0.2577851414680481,0.098960168659687,-0.0781907513737678
1780527301914273300,10.440273193359374,0.2089159190654754,0.1148426681756973,-0.2076941877603531
1780527301924344000,10.450343994140624,0.157603234052658,0.1563815027475357,-0.2528982162475586
1780527301934445300,10.4604453125,0.1123992055654525,0.2186897546052932,-0.180816113948822
1780527301944546600,10.470546630859374,0.0928515195846557,0.2626720666885376,-0.0366519130766391
1780527301954648000,10.48064794921875,0.1331686228513717,0.2577851414680481,0.0855211317539215
1780527301974820000,10.500820068359374,0.2785545587539673,0.0745255574584007,0.2138028293848037
1780527301984952000,10.5109521484375,0.3127630054950714,0.0048869219608604,0.2638937830924988
1780527302065671000,10.5916708984375,0.0806342139840126,-0.0610865242779254,-0.0818559452891349
1780527302075711200,10.601711181640624,0.0757472887635231,-0.0232128798961639,-0.0061086523346602
1780527302085812500,10.6118125,0.0757472887635231,0.0317649915814399,0.1148426681756973
1780527302095883300,10.62188330078125,0.0708603709936142,0.0757472887635231,0.2761110961437225
1780527302105954000,10.6319541015625,0.0818559452891349,0.1123992055654525,0.3970624208450317
1780527302115994400,10.641994384765624,0.1001818999648094,0.1050688251852989,0.4141666293144226
1780527302126096000,10.652095947265623,0.0952949747443199,0.0977384373545646,0.3921754956245422
1780527302136227600,10.6622275390625,0.090408056974411,0.090408056974411,0.3347541689872741
1780527302146359300,10.672359375,0.0806342139840126,0.0733038261532783,0.2968805134296417
1780527302156399600,10.682399658203124,0.067195177078247,0.067195177078247,0.3017674386501312
1780527302166501000,10.692501220703123,0.0561996027827262,0.0745255574584007,0.3090978264808655
1780527302227170000,10.753170166015623,0.051312681287527,-0.0733038261532783,0.0708603709936142
1780527302237301800,10.7633017578125,0.0293215326964855,-0.0781907513737678,0.0830776765942573
1780527302247403000,10.773403076171874,0.0,-0.051312681287527,0.0623082555830478
1780527302257504500,10.78350439453125,-0.0256563406437635,-0.0219911485910415,0.0403171069920063
1780527302267636200,10.79363623046875,-0.0244346093386411,0.0097738439217209,0.067195177078247
1780527302277768200,10.803768310546875,-0.0122173046693205,0.0366519130766391,0.1111774742603302
1780527302308072200,10.834072265625,0.0061086523346602,0.117286130785942,0.3152064681053161
1780527302328335600,10.854335693359374,0.0647517144680023,0.1368338167667389,0.2956587672233581
1780527302338437000,10.86443701171875,0.0867428630590438,0.1661553531885147,0.2834414839744568
1780527302348538400,10.874538330078124,0.1160643994808197,0.1551597714424133,0.3225368559360504
1780527302358609200,10.884609130859374,0.1600466966629028,0.1136209368705749,0.3677408695220947
1780527302368741000,10.8947412109375,0.197920337319374,0.090408056974411,0.4190535545349121
1780527302378842400,10.90484228515625,0.1954768747091293,0.0647517144680023,0.461814135313034
1780527302388943600,10.914943603515624,0.1930334120988845,0.0232128798961639,0.432492583990097
1780527302399075600,10.92507568359375,0.1918116807937622,-0.0293215326964855,0.304210901260376
1780527302409176800,10.9351767578125,0.180816113948822,-0.0525344125926494,0.117286130785942
1780527302429440500,10.9554404296875,0.1551597714424133,-0.0476474873721599,-0.2199114859104156
1780527302439541800,10.965541748046874,0.1392772793769836,-0.0769690200686454,-0.180816113948822
1780527302459805400,10.985805419921874,0.1246165111660957,-0.0647517144680023,0.1233947798609733
1780527302469906700,10.99590673828125,0.1087340116500854,-0.0171042270958423,0.1759291887283325
1780527302490140000,11.016139892578124,0.1087340116500854,0.0158824957907199,0.0073303831741213
1780527302500241200,11.0262412109375,0.1185078546404838,0.0036651915870606,-0.0525344125926494
1780527302520444000,11.04644384765625,0.0659734457731247,0.0207694191485643,-0.0268780700862407
1780527302530545200,11.056545166015624,0.0720821022987365,0.0329867228865623,0.0342084541916847
1780527302621518000,11.14751806640625,0.1014036312699318,-0.0488692186772823,-0.2235766798257827
1780527302631619300,11.157619384765624,0.0574213340878486,-0.0476474873721599,-0.3176499307155609
1780527302641751300,11.167751220703124,0.0464257597923278,-0.0830776765942573,-0.3970624208450317
1780527302651883000,11.177883056640624,0.0867428630590438,-0.1429424732923507,-0.4948008358478546
1780527302692319000,11.218319091796875,0.0928515195846557,-0.0965167060494422,-0.2138028293848037
1780527302702450700,11.22845068359375,0.0867428630590438,-0.1050688251852989,-0.2553416788578033
1780527302712552000,11.238552001953124,0.0806342139840126,-0.1417207419872284,-0.2846632003784179
1780527302722653400,11.2486533203125,0.0574213340878486,-0.1722639948129654,-0.2467895597219467
1780527302732754700,11.258754638671874,0.0158824957907199,-0.1551597714424133,-0.1771509200334549
1780527302742825500,11.268825439453124,-0.0305432621389627,-0.1185078546404838,-0.1600466966629028
1780527302813626400,11.33962646484375,-0.3787364661693573,-0.0977384373545646,0.2419026345014572
1780527302843869200,11.369869140625,-0.6218608021736145,-0.1502728462219238,0.2553416788578033
1780527302853970400,11.379970458984374,-0.8051204085350037,-0.1429424732923507,0.2247984111309051
1780527302864072000,11.390072021484375,-0.9761626720428468,-0.0733038261532783,0.147829383611679
1780527302874173200,11.400173095703124,-1.1117748022079468,0.0036651915870606,0.0403171069920063
1780527302884274400,11.4102744140625,-1.216843605041504,0.0366519130766391,-0.0293215326964855
1780527302894375700,11.420375732421874,-1.302364706993103,0.0610865242779254,-0.0109955742955207
1780527302904446500,11.430446533203124,-1.4074335098266602,0.0842994004487991,0.0317649915814399
1780527302914548000,11.4405478515625,-1.518610954284668,0.098960168659687,0.0146607663482427
1780527302924618800,11.45061865234375,-1.5809192657470703,0.1270599663257599,-0.058643065392971
1780527302934689500,11.460689453125,-1.6139060258865356,0.1441642045974731,-0.107512280344963
1780527302944760300,11.47076025390625,-1.6603317260742188,0.1600466966629028,-0.0048869219608604
1780527302954800600,11.480800537109374,-1.7348573207855225,0.1539380401372909,0.1453859210014343
1780527302964902000,11.49090185546875,-1.80816113948822,0.1734857261180877,0.2223549485206604
1780527302975003100,11.501003173828124,-1.8594738245010376,0.2419026345014572,0.2773328125476837
1780527302985074000,11.511073974609374,-2.020742177963257,0.2919935882091522,0.1857030391693115
1780527302995144700,11.521144775390624,-2.054950714111328,0.251676470041275,0.0549778714776039
1780527303005215700,11.5312158203125,-2.004859685897827,0.1881465017795562,-0.0415388382971286
1780527303015317000,11.54131689453125,-1.9315558671951292,0.1160643994808197,-0.0879645943641662
1780527303025387800,11.5513876953125,-1.879021525382996,0.0390953756868839,-0.1026253625750541
1780527303065701400,11.591701416015624,-1.4844025373458862,-0.2797762751579284,-0.4679227769374847
1780527303126156800,11.65215673828125,-0.6059783101081848,-0.5204572081565857,0.0390953756868839
1780527303176572000,11.702572021484375,0.3152064681053161,-0.3127630054950714,0.3396410644054413
1780527303186642700,11.712642578125,0.5778785347938538,-0.342084527015686,0.4092797040939331
1780527303196744000,11.722743896484374,0.7709119319915771,-0.4153883755207062,0.3396410644054413
1780527303227017500,11.753017578125,1.2986994981765747,-0.607200026512146,-0.1368338167667389
1780527303237088300,11.763088134765624,1.4746286869049072,-0.7061602473258972,-0.1844813078641891
1780527303247128600,11.773128662109375,1.6786576509475708,-0.7354817390441895,-0.1612684279680252
1780527303257229800,11.783229736328124,1.892460584640503,-0.7782423496246338,-0.2199114859104156
1780527303267300600,11.793300537109374,2.046398639678955,-0.8600982427597046,-0.4129449129104614
1780527303277401900,11.80340185546875,2.188119411468506,-0.8808676600456238,-0.636521577835083
1780527303287472600,11.81347265625,2.332283496856689,-0.8662069439888,-0.846659243106842
1780527303297543400,11.82354345703125,2.4385740756988525,-0.8967501521110535,-1.1459832191467283
1780527303337857300,11.863857177734374,2.2284364700317383,-1.0934487581253052,-2.6511552333831787
1780527303388272400,11.9142724609375,1.9022343158721924,-1.1264355182647705,-1.1997393369674685
1780527303398373600,11.92437353515625,1.8887953758239744,-1.1313223838806152,-1.2718214988708496
1780527303428616400,11.954616455078124,1.673770785331726,-1.0506882667541504,-1.996307611465454
1780527303468991200,11.9949912109375,1.1801916360855105,-0.5827654600143433,-1.340238332748413
1780527303479092500,12.005092529296874,0.9566149711608888,-0.4105014503002167,-1.1704177856445312
1780527303489163300,12.015163330078124,0.740368664264679,-0.271224170923233,-0.8319984674453735
1780527303499264800,12.0252646484375,0.5461135506629944,-0.1160643994808197,-0.4544837474822998
1780527303529507600,12.055507568359374,0.0879645943641662,0.1991420686244964,0.0146607663482427
1780527303539608800,12.06560888671875,-0.0574213340878486,0.2590068578720093,0.1453859210014343
1780527303549679600,12.0756796875,-0.2199114859104156,0.3396410644054413,0.2956587672233581
1780527303559720000,12.085719970703124,-0.46547931432724,0.4508185386657715,0.5167919993400574
1780527303579892200,12.105892333984375,-0.9615018963813782,0.7648032903671265,0.8197811841964722
1780527303589932500,12.1159326171875,-1.186300277709961,0.93095862865448,0.685390830039978
1780527303600003300,12.12600341796875,-1.4147639274597168,1.0897835493087769,0.4984660446643829
1780527303610104600,12.1361044921875,-1.557706356048584,1.2962560653686523,0.2700024247169494
1780527303630246100,12.15624609375,-1.55892813205719,1.606575608253479,-0.1771509200334549
1780527303640317000,12.16631689453125,-1.6407840251922607,1.683544635772705,0.1050688251852989
1780527303650418200,12.176418212890624,-1.8008307218551636,1.7605136632919312,0.8283332586288452
1780527303660519700,12.186519775390623,-1.9694294929504397,1.7385225296020508,1.7092009782791138
1780527303670621000,12.196620849609374,-2.1478021144866943,1.6139060258865356,2.367713689804077
1780527303680691700,12.206691650390624,-2.3603832721710205,1.5369369983673096,2.439795732498169
1780527303690793000,12.21679296875,-2.4434609413146973,1.5344934463500977,1.8167132139205933
1780527303700863700,12.22686376953125,-2.333505153656006,1.590693116188049,0.7269296646118164
1780527303710965200,12.23696533203125,-2.0867156982421875,1.8570303916931152,-0.2834414839744568
1780527303721036000,12.2470361328125,-1.8179349899291992,2.152689218521118,-0.7709119319915771
1780527303731137300,12.25713720703125,-1.7641788721084597,2.166128158569336,-0.0488692186772823
1780527303741238500,12.267238525390624,-1.920560359954834,1.8496999740600584,1.389107584953308
1780527303751309300,12.277309326171874,-1.97553825378418,1.1801916360855105,2.5754079818725586
1780527303761380000,12.287380126953124,-1.6969836950302124,1.0555751323699951,2.293188095092773
1780527303771481600,12.297481689453123,-1.3842206001281738,1.009149432182312,1.7715091705322266
1780527303781552400,12.307552490234375,-1.1850786209106443,1.0812314748764038,1.0543533563613892
1780527303791623200,12.317623046875,-1.0152580738067627,1.1985175609588623,0.4398229718208313
1780527303801663500,12.32766357421875,-0.8918632864952087,1.1374311447143557,0.3494149148464203
1780527303811764700,12.3377646484375,-0.8454375267028809,0.9004153609275818,0.8161159753799438
1780527303821835500,12.34783544921875,-0.6988298296928406,0.6438519954681396,1.3671164512634275
1780527303902524000,12.42852392578125,0.1930334120988845,-0.4923573732376098,-0.9456194043159484
1780527303932736300,12.458736328125,0.3115412890911102,-0.2015855312347412,0.1050688251852989
1780527303952908500,12.478908447265624,0.5119050741195679,0.1734857261180877,1.1557570695877075
1780527303993222100,12.51922216796875,0.5290092825889587,-0.6597344875335693,-1.0751228332519531
1780527304003323600,12.52932373046875,0.5485569834709167,-0.46547931432724,-0.8405506014823914
1780527304013394400,12.53939453125,0.5937610268592834,-0.197920337319374,-0.3164281845092773
1780527304023465200,12.54946533203125,0.6939429044723511,-0.0329867228865623,0.0879645943641662
1780527304083981600,12.609981689453123,0.9272934198379515,-0.4593706727027893,0.0488692186772823
1780527304094052400,12.62005224609375,0.8772025108337402,-0.4886921942234039,0.1148426681756973
1780527304104153600,12.630153564453124,0.8845328688621521,-0.3445279896259308,0.0928515195846557
1780527304114224400,12.640224365234374,0.9395107626914978,-0.1221730485558509,-0.0500909499824047
1780527304124325600,12.65032568359375,0.9517280459403992,0.0207694191485643,-0.0598647929728031
1780527304134396400,12.660396484375,0.901637077331543,0.1038470938801765,0.0012217304902151
1780527304144498000,12.670497802734374,0.8417723178863525,0.0781907513737678,-0.0867428630590438
1780527304164609000,12.690609130859375,0.846659243106842,-0.2565633952617645,-0.2113593816757202
1780527304174679800,12.7006796875,0.7855727076530457,-0.3909537494182586,-0.1026253625750541
1780527304184781000,12.710781005859374,0.6597344875335693,-0.36529740691185,0.2040289938449859
1780527304194821400,12.7208212890625,0.6145304441452026,-0.1331686228513717,0.5400048494338989
1780527304204922600,12.730922607421874,0.6731734871864319,0.1368338167667389,0.5106833577156067
1780527304215023900,12.74102392578125,0.7220427393913269,0.2602286040782928,0.3665191531181335
1780527304225064200,12.751064208984374,0.7379252314567566,0.2602286040782928,0.3078760802745819
1780527304235135000,12.761135009765624,0.7195992469787598,0.2076941877603531,0.2333505302667617
1780527304245205800,12.771205810546874,0.7195992469787598,0.1233947798609733,0.1539380401372909
1780527304255307300,12.781307373046875,0.7183775305747986,0.0525344125926494,0.1734857261180877
1780527304315793000,12.84179296875,0.4532620012760162,-0.0696386396884918,0.0598647929728031
1780527304335965200,12.861965087890624,0.4605923891067505,0.051312681287527,-0.0219911485910415
1780527304346066400,12.87206640625,0.5461135506629944,0.0830776765942573,0.0158824957907199
1780527304356137200,12.88213720703125,0.5876523852348328,-0.0122173046693205,0.1026253625750541
1780527304376309200,12.902309326171874,0.5436700582504272,-0.1661553531885147,0.4068362414836883
1780527304386349600,12.912349609375,0.4569272100925445,-0.2272418737411499,0.2553416788578033
1780527304396420400,12.92242041015625,0.3689626157283783,-0.2260201424360275,0.0623082555830478
1780527304406521900,12.93252197265625,0.2675589919090271,-0.1783726513385772,-0.0952949747443199
1780527304416592600,12.942592529296874,0.1954768747091293,-0.117286130785942,-0.2113593816757202
1780527304426694000,12.95269384765625,0.1539380401372909,-0.0769690200686454,-0.2553416788578033
1780527304436764700,12.9627646484375,0.1258382350206375,-0.0378736443817615,-0.2076941877603531
1780527304446866000,12.972865966796874,0.1282816976308822,0.0012217304902151,-0.1331686228513717
1780527304456967400,12.982967529296875,0.147829383611679,0.0354301854968071,-0.090408056974411
1780527304467038200,12.9930380859375,0.1771509200334549,0.0952949747443199,0.0280998013913631
1780527304497311500,13.0233115234375,0.3200933933258056,-0.0879645943641662,0.4593706727027893
1780527304527585000,13.0535849609375,0.1343903541564941,-0.0183259565383195,0.147829383611679
1780527304537686300,13.063686279296874,0.1038470938801765,-0.0452040284872055,-0.0036651915870606
1780527304547787500,13.07378759765625,0.0842994004487991,-0.0439822971820831,-0.1441642045974731
1780527304557889000,13.083888916015624,0.0635299831628799,-0.0195476878434419,-0.2284636050462722
1780527304578061000,13.10406103515625,0.0439822971820831,0.0610865242779254,-0.1734857261180877
1780527304658780200,13.1847802734375,0.2773328125476837,-0.0061086523346602,0.3494149148464203
1780527304668911900,13.194911865234374,0.2736676335334778,-0.0378736443817615,0.2932153046131134
1780527304678982700,13.204982666015624,0.2504547536373138,-0.0354301854968071,0.251676470041275
1780527304689084000,13.215083984375,0.221133217215538,-0.0012217304902151,0.2736676335334778
1780527304699155000,13.225155029296875,0.180816113948822,0.0329867228865623,0.3604104816913605
1780527304709225700,13.235225830078123,0.1429424732923507,0.058643065392971,0.4532620012760162
1780527304719327000,13.245326904296874,0.1246165111660957,0.0867428630590438,0.4605923891067505
1780527304739590700,13.265590576171874,0.0696386396884918,0.1343903541564941,0.2504547536373138
1780527304749661400,13.275661376953124,0.0769690200686454,0.1527163088321685,0.2138028293848037
1780527304759732200,13.285732177734374,0.0855211317539215,0.1502728462219238,0.2871066629886627
1780527304779935000,13.30593505859375,0.0867428630590438,0.1258382350206375,0.3628539443016052
1780527304790036200,13.3160361328125,0.0745255574584007,0.117286130785942,0.3347541689872741
1780527304800137500,13.326137451171874,0.0598647929728031,0.0794124826788902,0.3176499307155609
1780527304810238700,13.33623876953125,0.0452040284872055,0.0476474873721599,0.2822197377681732
1780527304820340200,13.34634033203125,0.0280998013913631,0.0317649915814399,0.1844813078641891
1780527304830472000,13.356471923828124,0.0073303831741213,0.0171042270958423,0.0366519130766391
1780527304840573200,13.3665732421875,-0.0097738439217209,0.0012217304902151,-0.0574213340878486
1780527304850674700,13.3766748046875,-0.0195476878434419,-0.0085521135479211,-0.0525344125926494
1780527304860806400,13.386806396484374,-0.0342084541916847,-0.0097738439217209,0.051312681287527
1780527304870877200,13.396877197265624,-0.0268780700862407,0.0280998013913631,0.1258382350206375
1780527304911313200,13.437313232421875,0.0317649915814399,0.0134390350431203,0.2333505302667617
1780527304921444900,13.44744482421875,0.0109955742955207,0.0171042270958423,0.2125810980796814
1780527304931546000,13.457546142578124,0.0158824957907199,0.0464257597923278,0.140499010682106
1780527304982144300,13.508144287109374,0.1209513172507286,0.0305432621389627,0.171042263507843
1780527305022580200,13.548580322265623,0.1429424732923507,-0.0280998013913631,0.0268780700862407
1780527305042813200,13.568813232421874,0.1050688251852989,0.0024434609804302,0.0794124826788902
1780527305052914700,13.578914794921875,0.0891863256692886,-0.0036651915870606,0.1417207419872284
1780527305063016000,13.589015869140624,0.0464257597923278,-0.0500909499824047,0.0317649915814399
1780527305073117200,13.5991171875,0.0268780700862407,-0.098960168659687,-0.1747074574232101
1780527305083218400,13.609218505859374,0.0280998013913631,-0.1502728462219238,-0.394618958234787
1780527305093350400,13.619350341796874,-0.0012217304902151,-0.2125810980796814,-0.6670648455619812
1780527305103482000,13.629482177734374,-0.0317649915814399,-0.1966986060142517,-0.7440338730812073
1780527305113522400,13.6395224609375,-0.0048869219608604,-0.1221730485558509,-0.6389650702476501
1780527305184262100,13.71026220703125,-0.0659734457731247,-0.1551597714424133,-0.6597344875335693
1780527305244931000,13.77093115234375,-0.067195177078247,-0.1588249653577804,0.0403171069920063
1780527305255032600,13.781032470703124,-0.0867428630590438,-0.1722639948129654,0.0488692186772823
1780527305275235000,13.801235107421874,-0.2186897546052932,-0.1612684279680252,-0.0464257597923278
1780527305305508600,13.831508544921874,-0.6157521605491638,-0.1368338167667389,0.1661553531885147
1780527305315579400,13.841579345703124,-0.7965682744979858,-0.067195177078247,0.2883284091949463
1780527305325711000,13.851711181640624,-0.9615018963813782,0.0158824957907199,0.3005456924438476
1780527305345974800,13.871974853515624,-1.197295904159546,0.0794124826788902,-0.0268780700862407
1780527305356045800,13.8820458984375,-1.3170254230499268,0.0635299831628799,-0.2174680233001709
1780527305366147000,13.89214697265625,-1.4343116283416748,0.0769690200686454,-0.2638937830924988
1780527305376278800,13.90227880859375,-1.528384804725647,0.1661553531885147,-0.1661553531885147
1780527305386380300,13.91238037109375,-1.5931365489959717,0.221133217215538,-0.0647517144680023
1780527305396481500,13.9224814453125,-1.626123309135437,0.1343903541564941,-0.0293215326964855
1780527305416684000,13.94268408203125,-1.6884315013885498,-0.0158824957907199,-0.3139847218990326
1780527305426785500,13.95278564453125,-1.7189748287200928,0.0623082555830478,-0.3115412890911102
1780527305436886800,13.96288671875,-1.6957619190216064,0.167377084493637,-0.1881465017795562
1780527305497372700,14.02337255859375,-1.588249683380127,0.1014036312699318,0.0183259565383195
1780527305507443500,14.033443359375,-1.5515977144241333,0.058643065392971,-0.0427605658769607
1780527305517544700,14.043544677734374,-1.518610954284668,0.0024434609804302,0.0317649915814399
1780527305527615500,14.053615478515624,-1.4538593292236328,-0.0439822971820831,0.1343903541564941
1780527305537686300,14.063686279296874,-1.3915510177612305,-0.1014036312699318,0.090408056974411
1780527305547818200,14.073818359375,-1.3158037662506104,-0.1624901592731475,-0.0293215326964855
1780527305557889000,14.083888916015624,-1.197295904159546,-0.2541199326515198,-0.0720821022987365
1780527305568020700,14.094020751953124,-1.0934487581253052,-0.3323107063770294,-0.1160643994808197
1780527305588193000,14.114193115234375,-0.9456194043159484,-0.3579670190811157,-0.0610865242779254
1780527305598233000,14.124233154296874,-0.7867944240570068,-0.442266434431076,-0.0598647929728031
1780527305608303900,14.134303955078124,-0.6316346526145935,-0.5595525503158569,-0.0366519130766391
1780527305618405400,14.1444052734375,-0.513126790523529,-0.5791002511978149,0.1185078546404838
1780527305628476200,14.15447607421875,-0.3787364661693573,-0.5229006409645081,0.2687807083129883
1780527305638577400,14.164577392578124,-0.2260201424360275,-0.4153883755207062,0.1759291887283325
1780527305648709400,14.17470947265625,-0.0818559452891349,-0.3628539443016052,-0.0488692186772823
1780527305678982700,14.204982666015624,0.4801400899887085,-0.5546656250953674,-0.1539380401372909
1780527305709256200,14.235256103515624,1.1093312501907349,-0.5681046843528748,-0.0598647929728031
1780527305729428200,14.25542822265625,1.510058879852295,-0.5338962078094482,-0.4495968222618103
1780527305739499000,14.2654990234375,1.6798794269561768,-0.5778785347938538,-0.5949827432632446
1780527305779782100,14.3057822265625,2.0806069374084477,-0.7330383062362671,-0.0561996027827262
1780527305789883600,14.315883544921874,2.216219186782837,-0.8503243923187256,0.1795943826436996
1780527305799985000,14.32598486328125,2.320066213607788,-0.8894197940826416,-0.1649336218833923
1780527305810055700,14.3360556640625,2.3689353466033936,-0.8930850028991699,-0.8332201838493347
1780527305830227700,14.356227783203124,2.576629638671875,-0.9908234477043152,-2.083050489425659
1780527305840329200,14.3663291015625,2.729345798492432,-1.1007791757583618,-2.6035077571868896
1780527305850430500,14.376430419921874,2.7171285152435303,-1.2498302459716797,-2.737898111343384
1780527305860501200,14.386501220703124,2.5021040439605717,-1.3756685256958008,-2.293188095092773
1780527305880642800,14.406642822265624,2.102598190307617,-1.225395679473877,-0.2651155292987823
1780527305890713600,14.416713623046874,2.199114799499512,-0.7098253965377808,-0.0757472887635231
1780527305900815000,14.426815185546875,2.2211060523986816,-0.3628539443016052,-0.4447098970413208
1780527305910886000,14.436885986328123,2.129476308822632,-0.0928515195846557,-0.3885102868080139
1780527305920956700,14.446956787109375,1.9144517183303835,0.0561996027827262,-0.1319468915462494
1780527305931027500,14.45702734375,1.5992451906204224,0.1087340116500854,0.0733038261532783
1780527305941098200,14.46709814453125,1.4294246435165403,0.1001818999648094,-0.090408056974411
1780527305951169000,14.4771689453125,1.2974777221679688,0.098960168659687,-0.3555235862731933
1780527305961300700,14.48730078125,1.0897835493087769,0.117286130785942,-0.3738495409488678
1780527305971371500,14.49737158203125,0.8674286603927612,0.1429424732923507,-0.2565633952617645
1780527305981473000,14.50747314453125,0.6377432942390442,0.2223549485206604,-0.1368338167667389
1780527306001614600,14.527614501953124,0.261450320482254,0.3677408695220947,-0.1954768747091293
1780527306011715800,14.5377158203125,0.0940732508897781,0.4361577928066253,-0.3371976017951965
1780527306021817000,14.547817138671874,-0.0733038261532783,0.4728097021579742,-0.3384193480014801
1780527306031857400,14.557857421875,-0.2993239760398865,0.5668829679489136,-0.2015855312347412
1780527306041928200,14.56792822265625,-0.5791002511978149,0.6633996367454529,0.140499010682106
1780527306052060200,14.57806005859375,-0.8784242272377014,0.7452555894851685,0.5607742667198181
1780527306062131000,14.588130859375,-1.1459832191467283,0.8405506014823914,0.8539896011352539
1780527306072232200,14.598232177734374,-1.3426817655563354,0.940732479095459,0.940732479095459
1780527306082303000,14.608302978515624,-1.4734070301055908,0.96883225440979,0.9162978529930116
1780527306142728000,14.66872802734375,-2.29440975189209,1.1362093687057495,0.6695083379745483
1780527306152768000,14.67876806640625,-2.3432791233062744,1.1484266519546509,1.1520918607711792
1780527306162869500,14.688869384765624,-2.293188095092773,1.166752576828003,1.4587461948394775
1780527306193020700,14.719020751953124,-2.2088887691497803,1.1288789510726929,1.1056660413742063
1780527306203122200,14.7291220703125,-2.191784381866455,1.080009698867798,0.8087855577468872
1780527306213193000,14.73919287109375,-2.2626447677612305,0.9541715383529664,0.7012733221054077
1780527306223263700,14.749263671875,-2.2345449924468994,0.8894197940826416,0.6841690540313721
1780527306233365000,14.759364990234374,-2.043955087661743,0.856433093547821,0.66584312915802
1780527306243466200,14.76946630859375,-1.835039138793945,0.799011766910553,0.6707300543785095
1780527306253598200,14.77959814453125,-1.693318486213684,0.7574729323387146,0.6243042945861816
1780527306263638500,14.789638427734374,-1.6566665172576904,0.6890559792518616,0.7024950385093689
1780527306273709300,14.799709228515624,-1.5625933408737185,0.616973876953125,0.8649851679801941
1780527306283810600,14.809810546875,-1.3976596593856812,0.5436700582504272,0.93095862865448
1780527306293911800,14.819911865234374,-1.207069754600525,0.4728097021579742,1.0152580738067627
1780527306314023000,14.84002294921875,-0.7098253965377808,0.5387831330299377,0.9822713136672974
1780527306334225700,14.8602255859375,-0.4642575979232788,0.4056145250797272,0.2040289938449859
1780527306354397700,14.880397705078124,-0.230907067656517,0.1014036312699318,-0.1771509200334549
1780527306364499000,14.8904990234375,-0.0757472887635231,0.0403171069920063,0.1026253625750541
1780527306374570000,14.900570068359375,-0.0342084541916847,0.1062905490398407,0.3824016451835632
1780527306384671200,14.910671142578124,0.0109955742955207,0.3335324227809906,0.8784242272377014
1780527306425015600,14.951015625,0.4691445231437683,0.1392772793769836,-0.6108652353286743
1780527306475491600,15.00149169921875,0.4740314185619354,0.0109955742955207,0.4532620012760162
1780527306495663600,15.02166357421875,0.5143485069274902,-0.3738495409488678,-0.3726277947425842
1780527306505734400,15.031734375,0.6157521605491638,-0.2040289938449859,-0.5937610268592834
1780527306525876000,15.0518759765625,0.6682865619659424,0.0036651915870606,-0.1466076523065567
1780527306535946800,15.06194677734375,0.5510004758834839,0.1747074574232101,0.1942551434040069
1780527306546048300,15.07204833984375,0.4728097021579742,0.2932153046131134,0.4935791194438934
1780527306556119000,15.082119140625,0.5057964324951172,0.230907067656517,0.5473352670669556
1780527306566189800,15.09218994140625,0.5827654600143433,-0.0171042270958423,0.1612684279680252
1780527306576260600,15.102260498046874,0.6401867866516113,-0.3323107063770294,-0.3933972120285034
1780527306586331400,15.112331298828124,0.6829473376274109,-0.4410447180271148,-0.6646214127540588
1780527306596432600,15.1224326171875,0.6988298296928406,-0.3567453026771545,-0.5057964324951172
1780527306606503400,15.13250341796875,0.6914994716644287,-0.2748893499374389,-0.1857030391693115
1780527306636746500,15.16274658203125,0.7452555894851685,-0.2321287989616394,-0.0549778714776039
1780527306646817300,15.1728173828125,0.6682865619659424,-0.107512280344963,-0.0439822971820831
1780527306656918500,15.18291845703125,0.6682865619659424,-0.107512280344963,-0.0439822971820831
1780527306666989300,15.1929892578125,0.7257078886032104,-0.2394591718912124,-0.1624901592731475
1780527306677090600,15.203090576171874,0.6524040699005127,-0.4056145250797272,-0.1966986060142517
1780527306687222500,15.213222412109374,0.5705481171607971,-0.4092797040939331,-0.1624901592731475
1780527306697293300,15.223293212890624,0.5913175344467163,-0.2663372457027435,-0.130725160241127
1780527306707364000,15.233364013671874,0.6633996367454529,-0.1233947798609733,-0.0610865242779254
1780527306727536000,15.2535361328125,0.7489207983016968,0.0,-0.0207694191485643
1780527306767850000,15.29385009765625,0.3433062732219696,-0.3921754956245422,-0.3005456924438476
1780527306798062300,15.324062255859374,0.3469714522361755,-0.2199114859104156,-0.6829473376274109
1780527306808133000,15.334133056640624,0.4276056587696075,-0.0891863256692886,-0.3335324227809906
1780527306818204000,15.344203857421874,0.4874704778194427,0.0061086523346602,0.1417207419872284
1780527306828305200,15.35430517578125,0.5167919993400574,-0.0134390350431203,0.4129449129104614
1780527306838376000,15.3643759765625,0.50335294008255,-0.0830776765942573,0.3933972120285034
1780527306868619000,15.394618896484374,0.442266434431076,-0.2101376503705978,-0.3115412890911102
1780527306878689800,15.404689697265624,0.4300491213798523,-0.1551597714424133,-0.3860668241977691
1780527306888760600,15.414760498046874,0.4202753007411957,-0.0036651915870606,-0.3066543638706207
1780527306898861800,15.42486181640625,0.3885102868080139,0.1233947798609733,-0.1197295859456062
1780527306908932600,15.4349326171875,0.4227187633514404,0.157603234052658,0.1392772793769836
1780527306919033900,15.445033935546874,0.4764748811721802,0.0806342139840126,0.2895501255989074
1780527306929105000,15.45510498046875,0.4911356568336487,0.0109955742955207,0.3176499307155609
1780527306939175700,15.46517578125,0.46547931432724,0.0439822971820831,0.2797762751579284
1780527306949246500,15.47524658203125,0.4202753007411957,0.1026253625750541,0.2247984111309051
1780527306959347700,15.48534765625,0.3885102868080139,0.1001818999648094,0.1624901592731475
1780527306999630800,15.525630859375,0.3897320330142975,0.0012217304902151,0.0097738439217209
1780527307009732000,15.535732177734374,0.3921754956245422,-0.0305432621389627,0.058643065392971
1780527307019803100,15.54580322265625,0.3604104816913605,-0.058643065392971,0.167377084493637
1780527307029904400,15.555904296875,0.3200933933258056,-0.0488692186772823,0.2382374405860901
1780527307050107000,15.57610693359375,0.2162462919950485,-0.0427605658769607,0.1111774742603302
1780527307060238800,15.58623876953125,0.1881465017795562,-0.0464257597923278,-0.0036651915870606
1780527307070340000,15.596340087890624,0.1612684279680252,-0.0305432621389627,-0.0452040284872055
1780527307080411000,15.606410888671874,0.130725160241127,-0.0097738439217209,0.0195476878434419
1780527307090481700,15.616481689453124,0.1038470938801765,0.0061086523346602,0.1221730485558509
1780527307100552400,15.626552490234374,0.0745255574584007,0.0207694191485643,0.1905899494886398
1780527307130826000,15.656825927734374,0.0390953756868839,0.0219911485910415,-0.0109955742955207
1780527307140927200,15.66692724609375,0.0598647929728031,0.0219911485910415,0.0305432621389627
1780527307151028700,15.67702880859375,0.0891863256692886,0.0500909499824047,0.1441642045974731
1780527307161130000,15.6871298828125,0.1270599663257599,0.0574213340878486,0.2956587672233581
1780527307171200800,15.69720068359375,0.1624901592731475,0.0537561401724815,0.4373795092105865
1780527307191372800,15.717372802734374,0.1698205322027206,0.0122173046693205,0.4508185386657715
1780527307201474000,15.72747412109375,0.1356120854616165,0.0,0.3762930035591125
1780527307211575600,15.737575439453124,0.0623082555830478,-0.0171042270958423,0.2883284091949463
1780527307231778000,15.757778076171874,-0.0244346093386411,-0.0024434609804302,0.0439822971820831
1780527307241788000,15.767787841796874,-0.0464257597923278,-0.0024434609804302,-0.0952949747443199
1780527307251889200,15.77788916015625,-0.0647517144680023,0.0317649915814399,-0.0708603709936142
1780527307292264000,15.818263916015624,-0.0268780700862407,0.1417207419872284,0.4398229718208313
1780527307372983000,15.898983154296875,0.1527163088321685,0.0244346093386411,0.2895501255989074
1780527307383084300,15.909084228515624,0.1588249653577804,0.0256563406437635,0.1453859210014343
1780527307403256300,15.92925634765625,0.147829383611679,-0.0244346093386411,0.0280998013913631
1780527307413327000,15.9393271484375,0.1123992055654525,-0.0134390350431203,0.0916297882795333
1780527307423428600,15.9494287109375,0.0623082555830478,0.0232128798961639,0.1832595765590667
1780527307433529900,15.95952978515625,0.0329867228865623,0.0427605658769607,0.2223549485206604
1780527307443661600,15.96966162109375,0.0537561401724815,0.0842994004487991,0.2419026345014572
1780527307463894800,15.989894775390624,0.0378736443817615,0.0879645943641662,0.0781907513737678
1780527307473996000,15.99999609375,0.0525344125926494,0.1026253625750541,0.1722639948129654
1780527307484158500,16.010158447265624,0.0733038261532783,0.0769690200686454,0.2272418737411499
1780527307494229200,16.020229248046874,0.0891863256692886,0.0354301854968071,0.2321287989616394
1780527307504330500,16.03033056640625,0.0879645943641662,-0.0122173046693205,0.1637118905782699
1780527307514432000,16.040431884765624,0.0806342139840126,-0.0146607663482427,0.1111774742603302
1780527307524533200,16.050533203125,0.0867428630590438,0.0244346093386411,0.0879645943641662
1780527307534634500,16.060634521484374,0.0879645943641662,0.0146607663482427,0.0623082555830478
1780527307554867700,16.08086767578125,0.0928515195846557,0.0293215326964855,0.0879645943641662
1780527307585202200,16.1112021484375,0.0781907513737678,-0.0574213340878486,-0.0036651915870606
1780527307595303400,16.121303466796874,0.0452040284872055,-0.0354301854968071,-0.0965167060494422
1780527307605405000,16.131405029296875,0.0122173046693205,-0.0171042270958423,-0.2174680233001709
1780527307615506200,16.141506103515624,0.0048869219608604,-0.0036651915870606,-0.3335324227809906
1780527307625607400,16.151607421875,0.0293215326964855,-0.0317649915814399,-0.3909537494182586
1780527307635739400,16.161739501953125,0.0574213340878486,-0.0916297882795333,-0.4117231667041778
1780527307645840600,16.171840576171874,0.0708603709936142,-0.1429424732923507,-0.432492583990097
1780527307655972400,16.181972412109374,0.067195177078247,-0.1392772793769836,-0.4459316432476043
1780527307666073900,16.192073974609375,0.0574213340878486,-0.1062905490398407,-0.4043927788734436
1780527307676175000,16.202175048828124,0.0659734457731247,-0.0806342139840126,-0.2895501255989074
1780527307686276400,16.2122763671875,0.0745255574584007,-0.0757472887635231,-0.1600466966629028
1780527307696408300,16.222408203125,0.0769690200686454,-0.0916297882795333,-0.067195177078247
1780527307716610800,16.24261083984375,0.0439822971820831,-0.0965167060494422,-0.1136209368705749
1780527307726712300,16.25271240234375,0.0195476878434419,-0.1062905490398407,-0.1722639948129654
1780527307736813600,16.2628134765625,-0.0122173046693205,-0.140499010682106,-0.2382374405860901
1780527307787350500,16.3133505859375,-0.1319468915462494,-0.1417207419872284,0.0122173046693205
1780527307837918200,16.363918212890624,-0.6707300543785095,-0.0830776765942573,0.1869247704744339
1780527307848019500,16.37401953125,-0.799011766910553,-0.0256563406437635,0.3530801236629486
1780527307858151400,16.3841513671875,-0.923628270626068,-0.0085521135479211,0.3665191531181335
1780527307868252700,16.394252685546874,-1.0641272068023682,-0.0183259565383195,0.2455678284168243
1780527307878354000,16.40435400390625,-1.1887437105178833,-0.0268780700862407,0.051312681287527
1780527307888486000,16.41448583984375,-1.2999212741851809,-0.0366519130766391,-0.1637118905782699
1780527307908688600,16.434688720703125,-1.4526375532150269,0.0073303831741213,-0.1380555480718612
1780527307918820400,16.4448203125,-1.428202986717224,0.0317649915814399,0.0109955742955207
1780527307928921600,16.454921630859374,-1.428202986717224,0.0439822971820831,0.1185078546404838
1780527307939023000,16.465023193359375,-1.4465289115905762,0.0207694191485643,0.230907067656517
1780527307949154800,16.47515478515625,-1.470963478088379,-0.0219911485910415,0.2956587672233581
1780527307959256000,16.485256103515624,-1.5320500135421753,-0.0134390350431203,0.3543018400669098
1780527307969357600,16.495357666015625,-1.595579981803894,0.0122173046693205,0.4667010605335235
1780527307979489300,16.5054892578125,-1.6285667419433594,-0.0256563406437635,0.3921754956245422
1780527307999722500,16.525722412109374,-1.7140878438949585,-0.1893682330846786,-0.0171042270958423
1780527308009823700,16.53582373046875,-1.7079792022705078,-0.1832595765590667,-0.0647517144680023
1780527308019955700,16.545955810546875,-1.6896532773971558,-0.1795943826436996,-0.0097738439217209
1780527308038926800,16.5649267578125,-1.6627751588821411,-0.1429424732923507,0.2162462919950485
1780527308059160000,16.58516015625,-1.5369369983673096,-0.2052507251501083,0.2553416788578033
1780527308069200100,16.5952001953125,-1.4868459701538086,-0.3298672437667846,0.1600466966629028
1780527308079332000,16.60533203125,-1.4220943450927734,-0.4337143301963806,0.0769690200686454
1780527308089433300,16.615433349609376,-1.3145819902420044,-0.4838052690029144,-0.0158824957907199
1780527308099565300,16.6255654296875,-1.1997393369674685,-0.4544837474822998,-0.1514945775270462
1780527308190538200,16.716538330078127,0.3396410644054413,-0.4410447180271148,0.0891863256692886
1780527308210771200,16.736771240234376,0.6316346526145935,-0.3799581825733185,-0.1600466966629028
1780527308220933600,16.74693359375,0.8295549750328064,-0.3677408695220947,-0.2480112910270691
1780527308231035000,16.757034912109376,1.1081095933914185,-0.4043927788734436,-0.3591887652873993
1780527308241136400,16.767136474609377,1.3426817655563354,-0.4679227769374847,-0.4740314185619354
1780527308251237600,16.777237548828126,1.5222761631011963,-0.5057964324951172,-0.5778785347938538
1780527308261369300,16.787369384765626,1.6982053518295288,-0.5387831330299377,-0.5876523852348328
1780527308271440100,16.797440185546876,1.9511035680770876,-0.6108652353286743,-0.5583308339118958
1780527308281572000,16.807572021484376,2.216219186782837,-0.6719517707824707,-0.7672467231750488
1780527308342241000,16.868240966796876,2.828306198120117,-1.1227703094482422,-1.2131783962249756
1780527308352342300,16.87834228515625,2.987131118774414,-1.037249207496643,-1.4966198205947876
1780527308362504700,16.888504638671876,3.017674207687378,-0.9615018963813782,-1.8301522731781008
1780527308402910000,16.928909912109376,2.5668556690216064,-0.901637077331543,-1.3964380025863647
1780527308423173600,16.949173583984376,2.298074960708618,-0.7635815739631653,-0.788016140460968
1780527308433244400,16.959244384765626,2.1001546382904053,-0.7183775305747986,-0.7733554244041443
1780527308443376400,16.96937646484375,1.929112434387207,-0.6450737118721008,-0.7904596328735352
1780527308453477600,16.9794775390625,1.7825047969818115,-0.4728097021579742,-0.8613200187683105
1780527308463579000,16.989578857421876,1.480737328529358,-0.140499010682106,-0.8710938692092896
1780527308473680100,16.99968017578125,1.3158037662506104,0.0268780700862407,-0.6695083379745483
1780527308483812000,17.00981201171875,1.1129964590072632,0.1698205322027206,-0.2858849465847015
1780527308493913300,17.019913330078126,0.8723155856132507,0.2956587672233581,0.1551597714424133
1780527308504014600,17.0300146484375,0.6414085030555725,0.4300491213798523,0.4960225820541382
1780527308544481000,17.07048095703125,-0.147829383611679,0.8637634515762329,-0.2883284091949463
1780527308554582300,17.080582275390626,-0.3445279896259308,0.8393288254737854,-0.3591887652873993
1780527308564683500,17.09068359375,-0.5681046843528748,0.8222246170043945,-0.2199114859104156
1780527308574846000,17.100845947265626,-0.8258898258209229,0.8613200187683105,-0.0134390350431203
1780527308584947200,17.110947265625,-1.0885618925094604,0.90408056974411,0.2076941877603531
1780527308595048700,17.121048583984376,-1.341460108757019,0.9272934198379515,0.461814135313034
1780527308605150000,17.13114990234375,-1.577254056930542,0.9566149711608888,0.6426302194595337
1780527308625413600,17.15141357421875,-1.9523253440856931,1.1740829944610596,0.5571091175079346
1780527308655748000,17.181748046875,-2.113593816757202,1.1166616678237915,0.4605923891067505
1780527308665849300,17.191849365234376,-2.2577579021453857,1.0958921909332275,0.5070181488990784
1780527308675950800,17.201950927734377,-2.39214825630188,1.1520918607711792,0.6047565937042236
1780527308686052000,17.212052001953126,-2.437352418899536,1.2999212741851809,0.5925393104553223
1780527308696153300,17.2221533203125,-2.459343433380127,1.359786033630371,0.6841690540313721
1780527308756852700,17.282852783203126,-2.1759018898010254,0.9822713136672974,1.2718214988708496
1780527308766923500,17.292923583984376,-2.02929425239563,1.0787880420684814,0.9896016716957092
1780527308787126300,17.313126220703126,-1.6187928915023804,1.2095131874084473,0.7134906053543091
1780527308797197000,17.323197021484376,-1.4404202699661257,1.0005972385406494,0.7000515460968018
1780527308807298300,17.33329833984375,-1.264491081237793,0.7831292152404785,0.7806857824325562
1780527308817399800,17.34339990234375,-1.1215485334396362,0.6572909951210022,0.8808676600456238
1780527308827470600,17.353470703125,-1.0299187898635864,0.6389650702476501,1.0971139669418335
1780527308847642600,17.373642578125,-0.6670648455619812,0.8087855577468872,1.5344934463500977
1780527308867814700,17.393814697265626,-0.2577851414680481,0.7171558141708374,0.6108652353286743
1780527308908128500,17.43412841796875,-0.0354301854968071,0.0305432621389627,0.8527678847312927
1780527308918229800,17.444229736328126,0.1954768747091293,0.1160643994808197,1.3573426008224487
1780527308928331000,17.4543310546875,0.3298672437667846,0.1062905490398407,1.187522053718567
1780527308938401800,17.46440185546875,0.4031710624694824,-0.0183259565383195,0.6585127115249634
1780527308968614400,17.494614501953127,0.5106833577156067,-0.1881465017795562,-0.7965682744979858
1780527308978746000,17.50474609375,0.6157521605491638,-0.2871066629886627,-0.5900958180427551
1780527308988786400,17.514786376953126,0.6866125464439392,-0.3005456924438476,-0.2907718420028686
1780527308998887700,17.5248876953125,0.759916365146637,-0.3787364661693573,0.1832595765590667
1780527309019029200,17.545029296875,0.797789990901947,-0.5778785347938538,0.5571091175079346
1780527309049302800,17.575302734375,0.9419541954994202,0.2431243658065796,-0.3103195428848266
1780527309059404000,17.585404052734376,1.0580185651779177,0.2174680233001709,-0.5852088928222656
1780527309069444400,17.5954443359375,1.0690141916275024,-0.0696386396884918,-0.5180137157440186
1780527309079545600,17.605545654296876,0.9957103729248048,-0.4667010605335235,-0.351858377456665
1780527309089616400,17.615616455078126,0.9224064946174622,-0.7489207983016968,-0.2492330223321914
1780527309099718000,17.6257177734375,0.8735373020172119,-0.7452555894851685,-0.0745255574584007
1780527309109788700,17.63578857421875,0.8723155856132507,-0.3640756905078888,0.1502728462219238
1780527309119890000,17.645889892578126,0.9248499870300292,0.2040289938449859,0.2907718420028686
1780527309180375800,17.706375732421876,0.5155702829360962,-0.7086036801338196,-0.5693264007568359
1780527309190446600,17.716446533203126,0.4019493460655212,-0.5998696684837341,-0.5119050741195679
1780527309200517400,17.726517333984376,0.3689626157283783,-0.261450320482254,-0.2492330223321914
1780527309210588200,17.736588134765626,0.4495968222618103,0.1539380401372909,-0.1160643994808197
1780527309220659000,17.746658935546876,0.5864306092262268,0.3017674386501312,-0.0733038261532783
1780527309230729700,17.756729736328126,0.7049384713172913,0.147829383611679,-0.0525344125926494
1780527309250871300,17.776871337890626,0.7672467231750488,-0.2968805134296417,0.0427605658769607
1780527309260972800,17.786972900390627,0.720820963382721,-0.2883284091949463,0.0134390350431203
1780527309271074000,17.797073974609376,0.6450737118721008,-0.0965167060494422,-0.0561996027827262
1780527309281175300,17.80717529296875,0.5876523852348328,0.1331686228513717,-0.0940732508897781
1780527309291276500,17.817276611328126,0.5937610268592834,0.2235766798257827,-0.1136209368705749
1780527309301347300,17.827347412109376,0.6511823534965515,0.117286130785942,-0.147829383611679
1780527309311387600,17.8373876953125,0.7183775305747986,-0.058643065392971,-0.1527163088321685
1780527309371965200,17.897965087890626,0.5277875661849976,0.0916297882795333,0.0525344125926494
1780527309392137200,17.91813720703125,0.3860668241977691,-0.0500909499824047,-0.0720821022987365
1780527309402238500,17.928238525390626,0.3371976017951965,-0.0818559452891349,-0.117286130785942
1780527309412309200,17.938309326171876,0.3005456924438476,-0.0610865242779254,-0.1588249653577804
1780527309422380300,17.94838037109375,0.2724458873271942,-0.0195476878434419,-0.1563815027475357
1780527309432481500,17.9584814453125,0.2590068578720093,0.0232128798961639,-0.1148426681756973
1780527309442552300,17.96855224609375,0.2638937830924988,0.0317649915814399,-0.0024434609804302
1780527309452623000,17.978623046875,0.2443460971117019,0.0378736443817615,0.1038470938801765
1780527309472795100,17.998795166015626,0.2333505302667617,0.0500909499824047,0.0745255574584007
1780527309492967400,18.01896752929688,0.130725160241127,0.067195177078247,0.0464257597923278
1780527309513109000,18.03910888671875,0.0879645943641662,0.0733038261532783,0.0769690200686454
1780527309523210200,18.04921020507813,0.067195177078247,0.090408056974411,0.0574213340878486
1780527309533281000,18.059281005859376,0.0476474873721599,0.0965167060494422,0.0268780700862407
1780527309543351800,18.069351806640626,0.0452040284872055,0.1026253625750541,0.0183259565383195
1780527309563493400,18.08949340820313,0.130725160241127,0.1295034289360046,0.090408056974411
1780527309573564200,18.099564208984376,0.1417207419872284,0.0965167060494422,0.1111774742603302
1780527309583665700,18.109665771484377,0.1502728462219238,0.1221730485558509,0.2846632003784179
1780527309593736400,18.119736328125,0.157603234052658,0.1197295859456062,0.3628539443016052
1780527309603807200,18.12980712890625,0.1490511149168014,0.1160643994808197,0.3701843321323395
1780527309613908500,18.139908447265626,0.1685988008975982,0.0952949747443199,0.3225368559360504
1780527309624009700,18.150009765625,0.1759291887283325,0.0574213340878486,0.2162462919950485
1780527309634080500,18.16008056640625,0.1624901592731475,0.0305432621389627,0.1295034289360046
1780527309644182000,18.17018212890625,0.1661553531885147,0.0244346093386411,0.0757472887635231
1780527309654283300,18.180283203125,0.1685988008975982,-0.0024434609804302,0.0574213340878486
1780527309664415000,18.1904150390625,0.1551597714424133,-0.0476474873721599,0.0684169083833694
1780527309674485800,18.20048583984375,0.1392772793769836,-0.067195177078247,0.0635299831628799
1780527309684587300,18.21058715820313,0.1111774742603302,-0.0635299831628799,0.0806342139840126
1780527309704820500,18.230820556640627,0.0757472887635231,-0.0366519130766391,0.1087340116500854
1780527309714891300,18.24089135742188,0.0390953756868839,-0.0427605658769607,0.0635299831628799
1780527309724962000,18.250962158203127,0.0085521135479211,-0.0464257597923278,0.0256563406437635
1780527309735032800,18.26103271484375,0.0048869219608604,-0.0378736443817615,0.0097738439217209
1780527309745103600,18.271103515625,-0.0171042270958423,-0.0207694191485643,0.0195476878434419
1780527309755174400,18.28117431640625,-0.0476474873721599,0.0293215326964855,0.1331686228513717
1780527309765306000,18.29130615234375,-0.0733038261532783,0.0708603709936142,0.2565633952617645
1780527309775407600,18.30140771484375,-0.0952949747443199,0.0891863256692886,0.2956587672233581
1780527309795579600,18.32157958984375,-0.1001818999648094,0.1466076523065567,0.3604104816913605
1780527309805711400,18.33171142578125,-0.0280998013913631,0.0708603709936142,0.2040289938449859
1780527309815782100,18.3417822265625,-0.0745255574584007,0.0610865242779254,0.0574213340878486
1780527309825853200,18.351853271484377,-0.0708603709936142,0.1246165111660957,0.1368338167667389
1780527309835954400,18.36195434570313,-0.0549778714776039,0.090408056974411,0.2064724564552307
1780527309876329200,18.4023291015625,-0.0378736443817615,0.0219911485910415,0.1417207419872284
1780527309956987100,18.48298706054688,0.1209513172507286,-0.0195476878434419,-0.0439822971820831
1780527309997362000,18.52336181640625,0.1588249653577804,0.0073303831741213,0.1502728462219238
1780527310007493600,18.53349365234375,0.1563815027475357,0.0146607663482427,0.0293215326964855
1780527310017564400,18.543564453125,0.180816113948822,-0.0293215326964855,-0.0757472887635231
1780527310027635200,18.55363525390625,0.171042263507843,-0.0635299831628799,-0.0574213340878486
1780527310037736700,18.56373681640625,0.1209513172507286,-0.0354301854968071,-0.0036651915870606
1780527310047807500,18.57380737304688,0.0818559452891349,0.0024434609804302,0.0244346093386411
1780527310057908700,18.58390869140625,0.1136209368705749,0.058643065392971,0.0171042270958423
1780527310067949000,18.593948974609376,0.1038470938801765,0.0317649915814399,-0.0647517144680023
1780527310078050300,18.60405029296875,0.0684169083833694,-0.0452040284872055,-0.1881465017795562
1780527310088151600,18.61415161132813,0.0879645943641662,-0.0977384373545646,-0.3921754956245422
1780527310098253000,18.624253173828127,0.1368338167667389,-0.1490511149168014,-0.5937610268592834
1780527310118394600,18.64439453125,0.1368338167667389,-0.0952949747443199,-0.4043927788734436
1780527310128495900,18.654495849609376,0.0965167060494422,-0.0183259565383195,-0.0708603709936142
1780527310138566700,18.664566650390626,0.0781907513737678,0.0048869219608604,0.1637118905782699
1780527310148637400,18.67463745117188,0.0891863256692886,-0.0109955742955207,0.1649336218833923
1780527310158738700,18.68473876953125,0.1026253625750541,-0.0549778714776039,-0.0232128798961639
1780527310168809700,18.694809814453127,0.0879645943641662,-0.1197295859456062,-0.2761110961437225
1780527310178911000,18.70491088867188,0.0439822971820831,-0.1441642045974731,-0.4214970171451568
1780527310188981800,18.71498168945313,0.0109955742955207,-0.107512280344963,-0.3787364661693573
1780527310199083000,18.7250830078125,-0.0012217304902151,-0.0830776765942573,-0.2052507251501083
1780527310209153800,18.73515380859375,0.0061086523346602,-0.1038470938801765,-0.0830776765942573
1780527310219224600,18.745224609375,0.0171042270958423,-0.140499010682106,-0.0403171069920063
1780527310239366100,18.7653662109375,-0.0085521135479211,-0.1905899494886398,-0.2040289938449859
1780527310249467600,18.77546752929688,-0.0415388382971286,-0.2064724564552307,-0.304210901260376
1780527310259569000,18.78556884765625,-0.0635299831628799,-0.2138028293848037,-0.3457497358322143
1780527310269639700,18.7956396484375,-0.090408056974411,-0.2247984111309051,-0.3371976017951965
1780527310289811700,18.81581176757813,-0.1722639948129654,-0.2113593816757202,-0.1734857261180877
1780527310330125600,18.85612548828125,-0.4593706727027893,-0.2431243658065796,0.1050688251852989
1780527310380601600,18.9066015625,-1.0885618925094604,-0.1527163088321685,-0.058643065392971
1780527310420915200,18.94691528320313,-1.5454890727996826,-0.0916297882795333,-0.261450320482254
1780527310511796700,19.037796630859376,-2.0561723709106445,-0.0280998013913631,0.3872885704040527
1780527310531999200,19.05799926757813,-2.0036380290985107,-0.1087340116500854,0.2858849465847015
1780527310552140800,19.078140869140626,-1.8277088403701784,-0.230907067656517,0.3604104816913605
1780527310562211800,19.0882119140625,-1.7373007535934448,-0.2492330223321914,0.3029891550540924
1780527310632860000,19.15885986328125,-0.6963863968849182,-0.5644394755363464,0.1282816976308822
1780527310683305500,19.20930541992188,0.3298672437667846,-0.4202753007411957,0.1612684279680252
1780527310693406700,19.21940673828125,0.6010913848876953,-0.3628539443016052,0.130725160241127
1780527310723710700,19.249710693359376,1.3329079151153564,-0.2247984111309051,-0.6047565937042236
1780527310774248000,19.300248046875,2.4080307483673096,-0.4862487316131592,-0.1148426681756973
1780527310784318700,19.310318603515626,2.620611906051636,-0.4948008358478546,-0.4434881806373596
1780527310794389500,19.32038940429688,2.8930578231811523,-0.5351179838180542,-1.0482447147369385
1780527310804490800,19.33049072265625,3.126408338546753,-0.5925393104553223,-1.6945401430130005
1780527310834794800,19.360794677734376,3.098308563232422,-0.8417723178863525,-2.276083946228028
1780527310844896000,19.37089599609375,3.084869384765625,-0.8234463334083557,-1.9853121042251587
1780527310854997200,19.38099731445313,3.084869384765625,-0.769690215587616,-1.7812830209732056
1780527310865098800,19.3910986328125,3.0250046253204346,-0.7073819637298584,-1.653001308441162
1780527310875200000,19.40119995117188,3.02011775970459,-0.6829473376274109,-1.442863702774048
1780527310885270800,19.41127075195313,2.8747317790985107,-0.7281513810157776,-1.2424999475479126
1780527310895372000,19.4213720703125,2.5717427730560303,-0.7257078886032104,-0.9566149711608888
1780527310905473500,19.4314736328125,2.2626447677612305,-0.7171558141708374,-0.4129449129104614
1780527310915605200,19.441605224609376,1.948660135269165,-0.6511823534965515,0.2076941877603531
1780527310935777300,19.46177734375,1.2486085891723633,-0.2871066629886627,1.4294246435165403
1780527310945848000,19.47184814453125,1.0323622226715088,0.0696386396884918,1.86191725730896
1780527310955949600,19.481949462890626,0.8295549750328064,0.361632227897644,1.93766450881958
1780527310966050800,19.49205078125,0.6609562039375305,0.6450737118721008,1.901012659072876
1780527310976152000,19.502152099609376,0.4483750760555267,0.9517280459403992,1.5968017578125
1780527310986253600,19.512253662109377,0.2663372457027435,1.2082914113998413,1.1129964590072632
1780527310996354800,19.52235473632813,0.098960168659687,1.4697418212890625,0.7269296646118164
1780527311036790500,19.56279052734375,-0.7745771408081055,2.517986536026001,1.5748106241226196
1780527311087297300,19.61329736328125,-1.6701055765151978,0.9468411207199096,-0.1453859210014343
1780527311117601000,19.64360107421875,-1.7092009782791138,-0.2382374405860901,-1.236391305923462
1780527311137803800,19.6638037109375,-2.0610592365264893,-0.294437050819397,-3.097086906433105
1780527311147844000,19.673843994140626,-2.2186625003814697,-0.3029891550540924,-2.984687566757202
1780527311157975800,19.68397583007813,-2.2003366947174072,-0.0183259565383195,-1.673770785331726
1780527311208513000,19.73451293945313,-1.813048005104065,0.720820963382721,0.1099557429552078
1780527311218614300,19.7446142578125,-1.871691107749939,0.7733554244041443,0.6548475623130798
1780527311228746200,19.754746337890627,-1.858252048492432,0.8332201838493347,0.6487388610839844
1780527311238847500,19.764847412109376,-1.9535470008850095,0.7586946487426758,0.7855727076530457
1780527311319810600,19.845810546875,-0.5693264007568359,0.4361577928066253,0.9993755221366882
1780527311329911800,19.855911865234376,-0.3506366610527038,0.3579670190811157,0.1331686228513717
1780527311340013300,19.866013427734377,-0.180816113948822,0.3591887652873993,-0.504574716091156
1780527311350084000,19.876083984375,-0.0390953756868839,0.2748893499374389,-0.5155702829360962
1780527311360215800,19.8862158203125,-0.0623082555830478,0.2797762751579284,-0.2321287989616394
1780527311370317000,19.89631713867188,-0.1832595765590667,0.2687807083129883,0.2858849465847015
1780527311380418600,19.90641845703125,-0.1136209368705749,0.0708603709936142,0.6719517707824707
1780527311431016700,19.9570166015625,0.2785545587539673,-0.394618958234787,-0.912632703781128
1780527311451280400,19.9772802734375,0.2247984111309051,-0.2296853363513946,-0.2492330223321914
1780527311491716000,20.01771606445313,0.8197811841964722,-0.5632177591323853,-0.3310889601707458
1780527311501817300,20.0278173828125,0.7257078886032104,-0.4789183437824249,-0.0733038261532783
1780527311511949300,20.03794921875,0.6218608021736145,-0.4276056587696075,0.1062905490398407
1780527311522050600,20.048050537109376,0.6621779203414917,-0.3726277947425842,-0.0574213340878486
1780527311532151800,20.05815185546875,0.817337691783905,-0.4434881806373596,-0.1820378452539444
1780527311542253300,20.06825341796875,0.9260717034339904,-0.6585127115249634,-0.0867428630590438
1780527311552354600,20.0783544921875,0.9053022861480712,-0.8967501521110535,-0.1282816976308822
1780527311562455800,20.08845581054688,0.8258898258209229,-0.95783668756485,-0.1539380401372909
1780527311572557000,20.09855712890625,0.6817256212234497,-0.8698720932006836,0.1136209368705749
1780527311582658600,20.108658447265626,0.5290092825889587,-0.6352998614311218,0.3811798989772796
1780527311673662000,20.199661865234376,0.6548475623130798,-0.3347541689872741,1.0250319242477417
1780527311683763200,20.20976318359375,0.6352998614311218,-0.3323107063770294,1.1068878173828125
1780527311693895200,20.21989526367188,0.7305948138237,-0.3384193480014801,0.8674286603927612
1780527311703996400,20.229996337890626,0.8197811841964722,-0.3726277947425842,0.5070181488990784
1780527311714097700,20.24009765625,0.8014551997184753,-0.4386012554168701,0.2370157092809677
1780527311724229600,20.250229736328127,0.7367035150527954,-0.4679227769374847,0.1527163088321685
1780527311734300400,20.260300537109377,0.656069278717041,-0.4349360466003418,0.2089159190654754
1780527311744371200,20.27037109375,0.5583308339118958,-0.351858377456665,0.3066543638706207
1780527311754442000,20.28044189453125,0.4838052690029144,-0.2235766798257827,0.384845107793808
1780527311814988800,20.34098876953125,0.4642575979232788,-0.2284636050462722,0.2675589919090271
1780527311825029000,20.351029052734376,0.3726277947425842,-0.2040289938449859,0.3103195428848266
1780527311835130400,20.36113037109375,0.2907718420028686,-0.1783726513385772,0.2981022298336029
1780527311845201200,20.371201171875,0.2590068578720093,-0.1698205322027206,0.2125810980796814
1780527311855272000,20.38127197265625,0.2663372457027435,-0.1795943826436996,0.0464257597923278
1780527311865404000,20.39140380859375,0.2773328125476837,-0.1600466966629028,-0.1050688251852989
1780527311905778700,20.43177880859375,0.2040289938449859,0.0525344125926494,-0.0757472887635231
1780527311925920300,20.451920166015626,0.2528982162475586,0.1136209368705749,0.2480112910270691
1780527311936021500,20.462021484375,0.2590068578720093,0.1209513172507286,0.3921754956245422
1780527311946092300,20.47209228515625,0.2663372457027435,0.1258382350206375,0.4703662395477295
1780527311956193500,20.482193603515626,0.2553416788578033,0.1295034289360046,0.4667010605335235
1780527311976335400,20.50233544921875,0.1844813078641891,0.1026253625750541,0.2761110961437225
1780527311986375400,20.51237548828125,0.171042263507843,0.0842994004487991,0.1844813078641891
1780527311996477000,20.522476806640626,0.1685988008975982,0.0708603709936142,0.0891863256692886
1780527312006547700,20.53254760742188,0.1539380401372909,0.0525344125926494,0.0684169083833694
1780527312016649000,20.54264892578125,0.1392772793769836,0.0488692186772823,0.1295034289360046
1780527312026689300,20.552689208984376,0.1441642045974731,0.0452040284872055,0.2052507251501083
1780527312036760000,20.562760009765626,0.1441642045974731,0.0317649915814399,0.2785545587539673
1780527312046861300,20.572861328125,0.1356120854616165,0.0122173046693205,0.2895501255989074
1780527312056932000,20.58293212890625,0.1258382350206375,-0.0048869219608604,0.2858849465847015
1780527312067003000,20.5930029296875,0.1038470938801765,-0.0109955742955207,0.2382374405860901
1780527312087205600,20.61320556640625,-0.0329867228865623,0.0073303831741213,0.0965167060494422
1780527312097276400,20.6232763671875,-0.0806342139840126,0.0317649915814399,0.0476474873721599
1780527312107347200,20.63334716796875,-0.107512280344963,0.0623082555830478,0.0696386396884918
1780527312117418000,20.64341796875,-0.0965167060494422,0.1123992055654525,0.1380555480718612
1780527312127519200,20.653519287109376,-0.0342084541916847,0.1612684279680252,0.2015855312347412
1780527312137620700,20.663620849609377,0.0464257597923278,0.1612684279680252,0.4605923891067505
1780527312147661000,20.6736611328125,0.0427605658769607,0.1685988008975982,0.5644394755363464
1780527312157762300,20.68376220703125,0.0439822971820831,0.1783726513385772,0.5180137157440186
1780527312167833000,20.6938330078125,0.0342084541916847,0.1832595765590667,0.3665191531181335
1780527312218217500,20.74421752929688,0.1795943826436996,0.0500909499824047,0.2260201424360275
1780527312298875600,20.82487573242188,0.0171042270958423,0.090408056974411,-0.0452040284872055
1780527312308915700,20.834915771484376,0.0244346093386411,0.0757472887635231,0.0122173046693205
1780527312319017200,20.845017333984377,0.0818559452891349,0.0476474873721599,0.1136209368705749
1780527312329088000,20.855087890625,0.0855211317539215,0.0354301854968071,0.1954768747091293
1780527312339189200,20.865189208984376,0.0830776765942573,0.0488692186772823,0.2138028293848037
1780527312349260000,20.875260009765626,0.0781907513737678,0.0305432621389627,0.1563815027475357
1780527312359330800,20.88533081054688,0.0733038261532783,0.0036651915870606,0.1160643994808197
1780527312369401600,20.89540161132813,0.0684169083833694,-0.0146607663482427,-0.0256563406437635
1780527312379472400,20.905472412109376,0.0390953756868839,-0.0268780700862407,-0.2162462919950485
1780527312439988700,20.96598876953125,-0.0403171069920063,-0.1062905490398407,-0.4129449129104614
1780527312470170600,20.99617065429688,0.0048869219608604,-0.140499010682106,-0.5021312236785889
1780527312480272100,21.00627221679688,-0.0036651915870606,-0.1136209368705749,-0.394618958234787
1780527312490373400,21.016373291015626,-0.0122173046693205,-0.1160643994808197,-0.2370157092809677
1780527312540819000,21.06681884765625,-0.0757472887635231,-0.1490511149168014,-0.4105014503002167
1780527312550920200,21.076920166015626,-0.0733038261532783,-0.1466076523065567,-0.2333505302667617
1780527312560991000,21.08699096679688,-0.0659734457731247,-0.1514945775270462,-0.0256563406437635
1780527312571061800,21.09706176757813,-0.067195177078247,-0.1380555480718612,0.1111774742603302
1780527312581132500,21.107132568359376,-0.0879645943641662,-0.1453859210014343,0.1148426681756973
1780527312591203300,21.117203369140626,-0.1185078546404838,-0.1612684279680252,0.0623082555830478
1780527312611375600,21.13737573242188,-0.2419026345014572,-0.1759291887283325,0.1441642045974731
1780527312621476900,21.147476806640626,-0.3579670190811157,-0.1514945775270462,0.2822197377681732
1780527312631517200,21.15751708984375,-0.4838052690029144,-0.1014036312699318,0.4630358517169952
1780527312641618400,21.16761840820313,-0.5839871764183044,-0.0598647929728031,0.4776966273784637
1780527312651719700,21.1777197265625,-0.6572909951210022,-0.0598647929728031,0.2932153046131134
1780527312661821200,21.1878212890625,-0.7354817390441895,-0.0855211317539215,0.0097738439217209
1780527312671892000,21.19789208984375,-0.8258898258209229,-0.1197295859456062,-0.1783726513385772
1780527312681962800,21.207962646484376,-0.9138544201850892,-0.1185078546404838,-0.1062905490398407
1780527312692064000,21.21806396484375,-0.996932089328766,-0.090408056974411,0.1319468915462494
1780527312702134800,21.228134765625,-1.0824532508850098,-0.0464257597923278,0.4300491213798523
1780527312712236000,21.238236083984376,-1.1606439352035522,-0.0036651915870606,0.636521577835083
1780527312732377900,21.2583779296875,-1.301142930984497,0.0769690200686454,0.371406078338623
1780527312742479000,21.26847900390625,-1.3781119585037231,0.0977384373545646,0.0280998013913631
1780527312752610800,21.27861083984375,-1.4868459701538086,0.0806342139840126,-0.1551597714424133
1780527312762681600,21.288681640625,-1.6187928915023804,0.107512280344963,-0.1624901592731475
1780527312772752400,21.29875244140625,-1.7067575454711914,0.1539380401372909,-0.0183259565383195
1780527312782854000,21.30885400390625,-1.7556266784667969,0.1612684279680252,0.1661553531885147
1780527312792924700,21.31892456054688,-1.7959438562393188,0.1490511149168014,0.2199114859104156
1780527312803026000,21.32902587890625,-1.8313740491867063,0.1221730485558509,0.2761110961437225
1780527312813127200,21.339127197265626,-1.832595705986023,0.0916297882795333,0.2968805134296417
1780527312823228700,21.349228759765627,-1.813048005104065,0.051312681287527,0.2003637999296188
1780527312833299500,21.35929956054688,-1.8008307218551636,-0.0366519130766391,0.067195177078247
1780527312893785000,21.41978515625,-1.341460108757019,-0.375071257352829,-0.271224170923233
1780527312934099000,21.46009887695313,-0.7024950385093689,-0.5363397002220154,0.2076941877603531
1780527312964372500,21.49037255859375,-0.1905899494886398,-0.5363397002220154,-0.1893682330846786
1780527312974473700,21.5004736328125,-0.0488692186772823,-0.5155702829360962,-0.1295034289360046
1780527312984575000,21.51057495117188,0.0891863256692886,-0.4703662395477295,0.0073303831741213
1780527312994615300,21.520615234375,0.2919935882091522,-0.384845107793808,0.0635299831628799
1780527313004716500,21.530716552734376,0.5473352670669556,-0.3799581825733185,0.0244346093386411
1780527313014787300,21.540787353515626,0.8002334833145142,-0.4276056587696075,-0.0439822971820831
1780527313024858000,21.55085815429688,1.0225883722305298,-0.432492583990097,-0.1282816976308822
1780527313034959600,21.56095971679688,1.1740829944610596,-0.4239404797554016,-0.1942551434040069
1780527313045030400,21.571030517578127,1.303586483001709,-0.4276056587696075,-0.2968805134296417
1780527313055131600,21.58113159179688,1.4001030921936035,-0.4337143301963806,-0.4068362414836883
1780527313065233000,21.59123291015625,1.4734070301055908,-0.3872885704040527,-0.6499606370925903
1780527313075303700,21.6013037109375,1.606575608253479,-0.3090978264808655,-0.9663888216018676
1780527313085435600,21.611435546875,1.7666223049163818,-0.2553416788578033,-1.2803735733032229
1780527313095506400,21.62150634765625,1.9058995246887207,-0.2492330223321914,-1.5723671913146973
1780527313105546800,21.631546630859376,1.977981686592102,-0.3371976017951965,-1.6591099500656128
1780527313115648000,21.64164794921875,1.9620991945266724,-0.4996877610683441,-1.6114624738693235
1780527313125688300,21.65168823242188,1.958433985710144,-0.6059783101081848,-1.4245377779006958
1780527313135789600,21.66178955078125,2.0231857299804688,-0.6743952035903931,-1.2107349634170532
1780527313145830000,21.671829833984376,2.014633655548096,-0.7611380815505981,-1.225395679473877
1780527313155931100,21.68193115234375,1.9254472255706787,-0.8784242272377014,-1.281595230102539
1780527313166032600,21.69203271484375,1.882686734199524,-0.9492846131324768,-1.3585642576217651
1780527313176103400,21.702103515625,1.874134540557861,-1.0201449394226074,-1.4526375532150269
1780527313186143500,21.7121435546875,1.8203784227371216,-1.1056660413742063,-1.602910399436951
1780527313256761300,21.78276123046875,1.2901474237442017,-0.7269296646118164,-1.0152580738067627
1780527313286943200,21.812943115234376,1.0054842233657837,-0.4581489264965057,-0.5351179838180542
1780527313297014000,21.823013916015626,0.8955284357070923,-0.432492583990097,-0.351858377456665
1780527313307054300,21.833054443359377,0.7843509912490845,-0.3787364661693573,-0.3066543638706207
1780527313317155600,21.84315551757813,0.6572909951210022,-0.2797762751579284,-0.2577851414680481
1780527313327226400,21.853226318359376,0.5522221922874451,-0.1502728462219238,-0.1356120854616165
1780527313337297200,21.863297119140626,0.4361577928066253,-0.0219911485910415,-0.0415388382971286
1780527313357469200,21.88346923828125,0.2052507251501083,0.2932153046131134,0.2040289938449859
1780527313387651000,21.91365112304688,-0.0965167060494422,0.6279694437980652,0.3604104816913605
1780527313417955000,21.943955078125,-0.5754350423812866,0.7476990818977356,0.7452555894851685
1780527313488572700,22.01457275390625,-1.643227458000183,0.9676105380058287,0.8393288254737854
1780527313528947500,22.054947509765626,-1.996307611465454,0.9004153609275818,0.836885392665863
1780527313539049000,22.065049072265627,-2.0867156982421875,0.978606104850769,0.6389650702476501
1780527313549150200,22.075150146484376,-2.1954495906829834,1.017701506614685,0.5839871764183044
1780527313559221000,22.085220947265626,-2.2968533039093018,1.0641272068023682,0.685390830039978
1780527313569322200,22.095322265625,-2.2259929180145264,1.2205088138580322,0.8185594081878662
1780527313619829000,22.1458291015625,-1.4233160018920898,0.7110471725463867,1.4746286869049072
1780527313629930200,22.15593017578125,-1.246165156364441,0.8197811841964722,1.205847978591919
1780527313640031500,22.166031494140626,-0.9847147464752196,1.0445796251296997,0.8136724829673767
1780527313650102300,22.17610229492188,-0.7635815739631653,1.1435397863388062,0.4862487316131592
1780527313660203800,22.18620385742188,-0.6487388610839844,0.9944885969161988,0.4581489264965057
1780527313670274600,22.196274658203127,-0.626747727394104,0.6695083379745483,0.5729916095733643
1780527313680345300,22.206345458984377,-0.6316346526145935,0.3726277947425842,0.6890559792518616
1780527313700517400,22.226517333984376,-0.3359758853912353,0.4471533596515655,0.950506329536438
1780527313710618600,22.23661865234375,-0.1795943826436996,0.5546656250953674,0.7867944240570068
1780527313720720100,22.24672021484375,-0.0561996027827262,0.5876523852348328,0.4483750760555267
1780527313730821400,22.2568212890625,0.067195177078247,0.4569272100925445,0.1050688251852989
1780527313751023900,22.27702392578125,0.2076941877603531,0.0574213340878486,-0.5241223573684692
1780527313771257000,22.29725708007813,0.3726277947425842,-0.0439822971820831,-0.0818559452891349
1780527313781358300,22.3073583984375,0.4214970171451568,0.1123992055654525,0.3213151097297668
1780527313801561000,22.32756103515625,0.5717698931694031,0.0635299831628799,0.7134906053543091
1780527313811662300,22.337662353515626,0.6157521605491638,-0.1514945775270462,0.4129449129104614
1780527313821763800,22.347763916015627,0.6719517707824707,-0.384845107793808,-0.0366519130766391
1780527313831895600,22.3578955078125,0.7122688889503479,-0.4166100919246673,-0.3836233615875244
1780527313841996800,22.36799682617188,0.8038986921310425,-0.2040289938449859,-0.5485569834709167
1780527313852098300,22.37809838867188,0.8674286603927612,-0.0720821022987365,-0.6194173693656921
1780527313862199600,22.388199462890626,0.8161159753799438,-0.0745255574584007,-0.3274237811565399
1780527313882432800,22.408432861328127,0.8784242272377014,-0.167377084493637,0.4386012554168701
1780527313922868500,22.44886840820313,1.0213667154312134,0.0012217304902151,-0.0928515195846557
1780527313933000200,22.459000244140626,1.0433578491210938,0.1160643994808197,-0.147829383611679
1780527313983537400,22.509537353515626,0.8393288254737854,-0.2504547536373138,0.051312681287527
1780527313993608200,22.51960815429688,0.807563841342926,-0.2162462919950485,0.0708603709936142
1780527314003709400,22.52970947265625,0.8014551997184753,-0.1221730485558509,0.067195177078247
1780527314044145400,22.5701455078125,0.6902777552604675,-0.0024434609804302,0.0806342139840126
1780527314054246700,22.58024658203125,0.7244861721992493,0.0500909499824047,0.1160643994808197
1780527314064348000,22.590347900390626,0.7843509912490845,0.0916297882795333,0.2174680233001709
1780527314074449200,22.60044921875,0.7770205736160278,0.098960168659687,0.3970624208450317
1780527314084550700,22.610550537109376,0.7819074988365173,0.0928515195846557,0.5827654600143433
1780527314095689500,22.621689453125,0.7623597979545593,0.0293215326964855,0.6010913848876953
1780527314105760300,22.63176025390625,0.6621779203414917,-0.1026253625750541,0.4569272100925445
1780527314136094700,22.6620947265625,0.2504547536373138,-0.0439822971820831,-0.1551597714424133
1780527314146135000,22.672135009765626,0.1600466966629028,0.0891863256692886,-0.2125810980796814
1780527314156236300,22.682236328125,0.1233947798609733,0.1649336218833923,-0.2028072625398636
1780527314166337800,22.692337890625,0.1466076523065567,0.2003637999296188,-0.2101376503705978
1780527314176439000,22.70243896484375,0.3078760802745819,0.1380555480718612,-0.1918116807937622
1780527314186509800,22.712509765625,0.36529740691185,0.0366519130766391,-0.1246165111660957
1780527314196641500,22.7226416015625,0.3921754956245422,-0.0232128798961639,0.0085521135479211
1780527314206743000,22.73274291992188,0.4007275998592376,-0.0293215326964855,0.1221730485558509
1780527314216905200,22.7429052734375,0.3860668241977691,-0.0158824957907199,0.1722639948129654
1780527314257341200,22.78334106445313,0.3005456924438476,0.090408056974411,0.3371976017951965
1780527314297746400,22.823746337890626,0.0940732508897781,0.1221730485558509,0.1502728462219238
1780527314307847700,22.83384765625,0.0818559452891349,0.1062905490398407,0.1185078546404838
1780527314317949000,22.843948974609376,0.1087340116500854,0.0623082555830478,0.0879645943641662
1780527314328050400,22.854050537109377,0.147829383611679,-0.0024434609804302,0.1148426681756973
1780527314338182100,22.86418212890625,0.1466076523065567,-0.058643065392971,0.1942551434040069
1780527314378648600,22.904648681640627,0.0623082555830478,-0.0708603709936142,0.0280998013913631
1780527314388780300,22.9147802734375,0.0525344125926494,-0.0745255574584007,-0.0818559452891349
1780527314398881500,22.92488159179688,0.0537561401724815,-0.0488692186772823,-0.1270599663257599
1780527314419114800,22.94511474609375,0.0745255574584007,-0.0073303831741213,-0.1563815027475357
1780527314439378400,22.96537841796875,0.0818559452891349,0.0256563406437635,0.0818559452891349
1780527314449479700,22.97547973632813,0.0794124826788902,0.0500909499824047,0.2199114859104156
1780527314459581200,22.985581298828127,0.0842994004487991,0.0855211317539215,0.3029891550540924
1780527314469682400,22.99568237304688,0.0684169083833694,0.098960168659687,0.3139847218990326
1780527314479814100,23.005814208984376,0.0623082555830478,0.1136209368705749,0.2993239760398865
1780527314489946000,23.01594604492188,0.0720821022987365,0.1343903541564941,0.2260201424360275
1780527314500047400,23.02604736328125,0.0610865242779254,0.1612684279680252,0.1734857261180877
1780527314510148600,23.036148681640626,0.0403171069920063,0.1832595765590667,0.1905899494886398
1780527314520250000,23.04625,0.0366519130766391,0.1844813078641891,0.2907718420028686
1780527314540483000,23.06648315429688,0.0244346093386411,0.1600466966629028,0.4141666293144226
1780527314560685800,23.086685791015626,-0.0085521135479211,0.1795943826436996,0.2590068578720093
1780527314570848300,23.09684814453125,-0.0158824957907199,0.1893682330846786,0.117286130785942
1780527314580949500,23.106949462890626,-0.0012217304902151,0.1685988008975982,0.0219911485910415
1780527314591050800,23.11705078125,0.0256563406437635,0.1295034289360046,0.0036651915870606
1780527314601152300,23.12715234375,0.0500909499824047,0.098960168659687,0.0696386396884918
1780527314611253500,23.13725341796875,0.0476474873721599,0.0696386396884918,0.1661553531885147
1780527314621354800,23.14735473632813,0.0452040284872055,0.0464257597923278,0.2272418737411499
1780527314631517200,23.15751708984375,0.0647517144680023,0.0500909499824047,0.2015855312347412
1780527314712388600,23.238388671875,0.0415388382971286,-0.0171042270958423,-0.0378736443817615
1780527314732621800,23.25862182617188,0.0439822971820831,-0.0012217304902151,0.0598647929728031
1780527314742723000,23.26872314453125,0.0207694191485643,0.0256563406437635,0.1539380401372909
1780527314803392300,23.329392333984377,0.0659734457731247,-0.0342084541916847,-0.0207694191485643
1780527314884233200,23.41023315429688,0.1502728462219238,0.0500909499824047,0.1991420686244964
1780527314904374800,23.430374755859376,0.1331686228513717,-0.0329867228865623,0.1001818999648094
1780527314934709200,23.460709228515626,0.1343903541564941,-0.0268780700862407,-0.1429424732923507
1780527314944780000,23.47078002929688,0.1258382350206375,0.0061086523346602,-0.0488692186772823
1780527314954912000,23.480912109375,0.1197295859456062,-0.0061086523346602,0.0036651915870606
1780527314965013200,23.49101318359375,0.1136209368705749,-0.0733038261532783,-0.147829383611679
1780527314975114500,23.50111450195313,0.1148426681756973,-0.1331686228513717,-0.3995058834552765
1780527314985185300,23.511185302734376,0.107512280344963,-0.1759291887283325,-0.5962044596672058
1780527314995317200,23.52131713867188,0.0952949747443199,-0.1612684279680252,-0.636521577835083
1780527315005418500,23.53141845703125,0.0720821022987365,-0.1050688251852989,-0.4825835525989532
1780527315015519700,23.541519775390626,0.067195177078247,-0.0696386396884918,-0.2138028293848037
1780527315025590500,23.55159057617188,0.0720821022987365,-0.0720821022987365,-0.0256563406437635
1780527315035722500,23.561722412109376,0.0647517144680023,-0.067195177078247,0.0317649915814399
1780527315045823700,23.57182373046875,0.0500909499824047,-0.0733038261532783,-0.0647517144680023
1780527315055894500,23.58189453125,0.051312681287527,-0.1050688251852989,-0.2272418737411499
1780527315065934800,23.59193481445313,0.058643065392971,-0.1417207419872284,-0.3213151097297668
1780527315076036000,23.6020361328125,0.0390953756868839,-0.1490511149168014,-0.2919935882091522
1780527315086168000,23.61216796875,-0.0024434609804302,-0.1270599663257599,-0.1624901592731475
1780527315096238800,23.62223876953125,-0.0158824957907199,-0.0940732508897781,-0.0500909499824047
1780527315106370600,23.63237060546875,-0.0012217304902151,-0.1001818999648094,-0.0464257597923278
1780527315116472000,23.64247216796875,0.0146607663482427,-0.1490511149168014,-0.0659734457731247
1780527315126542800,23.65254296875,0.0268780700862407,-0.1747074574232101,-0.0439822971820831
1780527315136644000,23.66264404296875,0.0207694191485643,-0.171042263507843,0.0659734457731247
1780527315146715000,23.67271484375,-0.0232128798961639,-0.1600466966629028,0.2284636050462722
1780527315166887000,23.692886962890626,-0.1966986060142517,-0.1429424732923507,0.3347541689872741
1780527315176957700,23.70295776367188,-0.3139847218990326,-0.1258382350206375,0.2736676335334778
1780527315187059200,23.71305908203125,-0.4300491213798523,-0.0855211317539215,0.230907067656517
1780527315197130000,23.7231298828125,-0.5632177591323853,-0.0329867228865623,0.2602286040782928
1780527315207200800,23.73320068359375,-0.7098253965377808,0.0293215326964855,0.2981022298336029
1780527315217271600,23.743271484375,-0.8527678847312927,0.0940732508897781,0.3298672437667846
1780527315257585200,23.78358520507813,-1.3072515726089478,0.2431243658065796,0.0
1780527315318071000,23.84407104492188,-1.2510520219802856,0.2333505302667617,0.221133217215538
1780527315408861000,23.93486083984375,-1.3329079151153564,-0.0378736443817615,0.0965167060494422
1780527315459276000,23.98527612304688,-1.1691961288452148,-0.1368338167667389,0.3433062732219696
1780527315499650600,24.025650634765626,-0.8649851679801941,-0.4349360466003418,-0.2700024247169494
1780527315509691000,24.03569091796875,-0.8161159753799438,-0.3665191531181335,-0.0977384373545646
1780527315519792400,24.04579248046875,-0.6939429044723511,-0.3543018400669098,0.0830776765942573
1780527315529893600,24.0558935546875,-0.5656611919403076,-0.4251621961593628,0.1160643994808197
1780527315539964400,24.06596435546875,-0.4569272100925445,-0.4532620012760162,0.1050688251852989
1780527315550035200,24.07603515625,-0.3213151097297668,-0.4495968222618103,0.117286130785942
1780527315560075500,24.08607543945313,-0.1600466966629028,-0.4642575979232788,0.1221730485558509
1780527315570176800,24.0961767578125,-0.0403171069920063,-0.4361577928066253,0.0708603709936142
1780527315580247600,24.10624755859375,0.0525344125926494,-0.4251621961593628,0.0610865242779254
1780527315630693000,24.156693115234376,0.8429940342903137,-0.4996877610683441,-0.2223549485206604
1780527315640825000,24.1668251953125,1.0690141916275024,-0.4874704778194427,0.0598647929728031
1780527315650956800,24.176956787109376,1.2107349634170532,-0.5387831330299377,-0.1588249653577804
1780527315661027600,24.187027587890626,1.244943380355835,-0.6768386960029602,-0.5229006409645081
1780527315681199900,24.20719995117188,1.4257594347000122,-0.7843509912490845,-1.348790407180786
1780527315691301000,24.217301025390626,1.4856243133544922,-0.8943067193031311,-1.1374311447143557
1780527315701402400,24.22740234375,1.55892813205719,-1.007927656173706,-0.6646214127540588
1780527315711503600,24.237503662109376,1.6285667419433594,-1.0348057746887207,-0.2919935882091522
1780527315721574400,24.247574462890626,1.665218710899353,-0.93095862865448,-0.2956587672233581
1780527315741807600,24.2678076171875,1.6200146675109863,-0.750142514705658,-1.0812314748764038
1780527315832505900,24.358505859375,1.819156646728516,0.2028072625398636,0.1331686228513717
1780527315852708600,24.37870849609375,1.673770785331726,0.2907718420028686,0.0146607663482427
1780527315862779400,24.388779296875,1.6603317260742188,0.1918116807937622,-0.0219911485910415
1780527315872850200,24.39885009765625,1.6224581003189087,0.1343903541564941,-0.0476474873721599
1780527315893052700,24.419052734375,1.2852604389190674,0.2736676335334778,-0.0757472887635231
1780527315903123500,24.42912353515625,1.099557399749756,0.2651155292987823,-0.0684169083833694
1780527315913194500,24.439194580078127,1.0409144163131714,0.2186897546052932,-0.271224170923233
1780527315923265300,24.449265380859377,1.0225883722305298,0.2638937830924988,-0.4105014503002167
1780527315943406800,24.46940673828125,0.7855727076530457,0.5876523852348328,-0.0097738439217209
1780527315973649700,24.49964965820313,0.3457497358322143,0.6096435189247131,-0.1111774742603302
1780527315983720400,24.509720458984376,0.1588249653577804,0.5839871764183044,-0.3445279896259308
1780527315993791200,24.519791259765626,0.0048869219608604,0.6255260109901428,-0.4459316432476043
1780527316013963500,24.53996362304688,-0.4105014503002167,0.5400048494338989,-0.0733038261532783
1780527316023973000,24.54997314453125,-0.5241223573684692,0.4251621961593628,0.2235766798257827
1780527316034074600,24.56007470703125,-0.7012733221054077,0.3371976017951965,0.3604104816913605
1780527316044176000,24.57017578125,-0.9395107626914978,0.3433062732219696,0.2895501255989074
1780527316064317400,24.5903173828125,-1.2693779468536377,0.5742133259773254,-0.1551597714424133
1780527316074388200,24.60038818359375,-1.4123204946517944,0.5742133259773254,-0.1722639948129654
1780527316084459000,24.610458984375,-1.577254056930542,0.5766568183898926,-0.117286130785942
1780527316094560300,24.620560302734376,-1.7434093952178955,0.6255260109901428,-0.1282816976308822
1780527316104600600,24.6306005859375,-1.891238808631897,0.6841690540313721,-0.2113593816757202
1780527316114732500,24.640732666015627,-1.9914207458496092,0.7134906053543091,-0.1747074574232101
1780527316124833800,24.650833740234376,-2.052507162094116,0.6878342628479004,0.1343903541564941
1780527316134904600,24.660904541015626,-2.116037130355835,0.5974262356758118,0.5803219676017761
1780527316144975400,24.67097534179688,-2.1978931427001958,0.4886921942234039,0.9517280459403992
1780527316155076600,24.68107666015625,-2.255314588546753,0.4398229718208313,1.0958921909332275
1780527316165147400,24.6911474609375,-2.2430970668792725,0.5448917746543884,0.9224064946174622
1780527316175218400,24.701218505859377,-2.2565362453460693,0.6731734871864319,0.8283332586288452
1780527316185289200,24.711289306640627,-2.2321016788482666,0.750142514705658,0.9004153609275818
1780527316195390500,24.721390380859376,-2.053729057312012,0.7648032903671265,0.8552113175392151
1780527316205461200,24.731461181640626,-1.8851301670074463,0.6218608021736145,0.5314527750015259
1780527316215532000,24.74153198242188,-1.832595705986023,0.4593706727027893,0.0561996027827262
1780527316225572400,24.751572265625,-1.784948229789734,0.4007275998592376,-0.2272418737411499
1780527316235643100,24.76164306640625,-1.6774359941482544,0.3604104816913605,0.0207694191485643
1780527316245744400,24.771744384765626,-1.567480206489563,0.4276056587696075,0.6389650702476501
1780527316255815200,24.78181518554688,-1.518610954284668,0.6328563690185547,1.4966198205947876
1780527316265916700,24.79191674804688,-1.3952162265777588,0.7452555894851685,2.31640100479126
1780527316276018000,24.802017822265626,-1.1325441598892212,0.6377432942390442,2.61939024925232
1780527316286119200,24.812119140625,-0.8613200187683105,0.4960225820541382,2.172236919403076
1780527316296220400,24.822220458984376,-0.6487388610839844,0.3665191531181335,1.187522053718567
1780527316306291200,24.832291259765626,-0.4251621961593628,0.2528982162475586,-0.1637118905782699
1780527316316362000,24.84236206054688,-0.3408628106117248,0.3347541689872741,-1.2205088138580322
1780527316326433000,24.85243310546875,-0.432492583990097,0.4544837474822998,-0.8869763612747192
1780527316336534300,24.8625341796875,-0.3860668241977691,0.3738495409488678,0.5106833577156067
1780527316346666000,24.872666015625,-0.2040289938449859,0.3604104816913605,1.7385225296020508
1780527316356736800,24.88273681640625,-0.0745255574584007,0.4447098970413208,2.4300220012664795
1780527316366807600,24.8928076171875,0.2321287989616394,0.2748893499374389,1.1520918607711792
1780527316376909000,24.90290893554688,0.3054326176643371,0.1417207419872284,-0.0280998013913631
1780527316387010300,24.91301025390625,0.3640756905078888,0.1001818999648094,-0.7806857824325562
1780527316397111600,24.923111572265626,0.3494149148464203,0.2553416788578033,-0.9065240025520324
