time,seconds_elapsed,z,y,x
1780564143299140900,4.137140869140625,0.1960749924182891,0.237462505698204,0.7052375078201294
1780564143318657500,4.156657470703125,0.2311374992132187,0.2809124886989593,0.8190875053405762
1780564143338170000,4.176170166015625,0.2243999987840652,0.3220250010490417,0.8534625172615051
1780564143357682700,4.1956826171875,0.2046000063419342,0.3216125071048736,0.8732625246047974
1780564143377198600,4.215198486328125,0.1882375031709671,0.2862749993801117,0.8703749775886536
1780564143396716500,4.234716552734375,0.1865874975919723,0.2265999913215637,0.8485124707221985
1780564143416233500,4.2542333984375,0.2151875048875808,0.1413500010967254,0.859375
1780564143435751400,4.27375146484375,0.3042874932289123,0.0085249999538064,1.0271250009536743
1780564143455272200,4.293272216796875,0.4811125099658966,-0.1930499970912933,1.4537874460220337
1780564143474791400,4.31279150390625,0.7298499941825867,-0.4390375018119812,2.067312479019165
1780564143494310100,4.33231005859375,0.7536374926567078,-0.5942749977111816,2.626662492752075
1780564143513830100,4.351830078125,0.7132124900817871,-0.6584874987602234,2.8747124671936035
1780564143533347800,4.371347900390625,0.7035874724388123,-0.6656374931335449,2.676574945449829
1780564143552868400,4.390868408203125,0.4156624972820282,-0.5677375197410583,2.0475125312805176
1780564143572389600,4.4103896484375,0.4156624972820282,-0.5677375197410583,2.0475125312805176
1780564143591905800,4.42990576171875,-0.5224999785423279,-0.2556124925613403,0.1985500007867813
1780564143611422200,4.449422119140625,-0.9274374842643738,-0.0996875017881393,-0.6243875026702881
1780564143630943700,4.46894384765625,-0.9274374842643738,-0.0996875017881393,-0.6243875026702881
1780564143650463000,4.488462890625,-1.2343374490737915,0.0741124972701072,-1.3256374597549438
1780564143669980700,4.507980712890625,-1.3897124528884888,0.3847250044345855,-2.208937406539917
1780564143689501200,4.527501220703125,-1.3897124528884888,0.3847250044345855,-2.208937406539917
1780564143709019400,4.547019287109375,-1.188962459564209,0.3858250081539154,-2.153524875640869
1780564143728536600,4.56653662109375,-0.8999375104904175,0.2901250123977661,-1.8528125286102293
1780564143748053200,4.58605322265625,-0.6367624998092651,0.1834249943494796,-1.5547125339508057
1780564143767575000,4.605574951171875,-0.4551250040531158,0.1417624950408935,-1.415424942970276
1780564143787098400,4.625098388671875,-0.3404499888420105,0.1775124967098236,-1.3466750383377075
1780564143806616000,4.644615966796875,-0.2481874972581863,0.2447499930858612,-1.1185624599456787
1780564143826132500,4.664132568359375,-0.1508374959230423,0.307449996471405,-0.6572499871253967
1780564143845652700,4.68365283203125,-0.0514249987900257,0.3016749918460846,-0.0996875017881393
1780564143865175000,4.703175048828125,0.0318999998271465,0.2547875046730041,0.4049375057220459
1780564143884693800,4.72269384765625,0.110275000333786,0.2429624944925308,0.8942999839782715
1780564143904212000,4.7422119140625,0.2219250053167343,0.2283875048160553,1.495175004005432
1780564143923732500,4.761732421875,0.3704249858856201,0.1700875014066696,2.1735999584198
1780564143943255800,4.781255859375,0.5157625079154968,0.1109625026583671,2.764437437057495
1780564143962777600,4.800777587890625,0.6324999928474426,0.113987497985363,3.1747374534606934
1780564143982298400,4.82029833984375,0.762987494468689,0.1453374922275543,3.478062391281128
1780564144001819100,4.839819091796875,0.964424967765808,0.1464374959468841,3.768187522888184
1780564144021336800,4.8593369140625,1.1517000198364258,0.1453374922275543,3.877362489700317
1780564144040854500,4.8788544921875,1.1488125324249268,0.2055625021457672,3.537050008773804
1780564144060372700,4.898372802734375,0.9066749811172484,0.3261500000953674,2.7620999813079834
1780564144079890400,4.917890380859375,0.5396875143051147,0.4626874923706054,1.822837471961975
1780564144099408600,4.93740869140625,0.2054249942302703,0.5770875215530396,1.0119999647140503
1780564144118926300,4.95692626953125,-0.0016499999910593,0.6487249732017517,0.4877125024795532
1780564144138442200,4.976442138671875,-0.0310750007629394,0.6626124978065491,0.3040125072002411
1780564144157957400,4.995957275390625,0.1322750002145767,0.632224977016449,0.4360125064849853
1780564144177470200,5.01547021484375,0.3782624900341034,0.6447374820709229,0.657800018787384
1780564144196982000,5.03498193359375,0.4987125098705292,0.802174985408783,0.6358000040054321
1780564144216495000,5.0544951171875,0.3957250118255615,1.098212480545044,0.2623499929904938
1780564144236012000,5.074011962890625,0.1806749999523162,1.4130874872207642,-0.2633124887943268
1780564144255531800,5.09353173828125,0.0031624999828636,1.6455999612808228,-0.705512523651123
1780564144275051000,5.113051025390625,-0.1421750038862228,1.8129374980926516,-1.0300124883651731
1780564144294570500,5.132570556640625,-0.3015374839305877,1.9592374563217163,-1.2735249996185305
1780564144314089200,5.152089111328125,-0.3401750028133392,2.0167124271392822,-1.3237124681472778
1780564144333613000,5.171613037109375,-0.0613249987363815,1.8694499731063845,-1.050362467765808
1780564144353139000,5.191138916015625,0.5773624777793884,1.484587550163269,-0.4885374903678894
1780564144372657200,5.2106572265625,1.5173125267028809,0.8892124891281128,0.2347124963998794
1780564144392171500,5.230171630859375,1.5173125267028809,0.8892124891281128,0.2347124963998794
1780564144411688000,5.24968798828125,2.75591254234314,0.0882750004529953,1.0382624864578247
1780564144431207000,5.26920703125,4.257137298583984,-0.8652874827384949,1.852674961090088
1780564144450725000,5.28872509765625,5.734025001525879,-1.7654999494552612,2.520925045013428
1780564144470244900,5.308244873046875,5.734025001525879,-1.7654999494552612,2.520925045013428
1780564144489763800,5.327763916015625,6.679749965667725,-2.54182505607605,2.8579375743865967
1780564144509279000,5.347279052734375,6.642487525939941,-2.4186248779296875,2.624187469482422
1780564144528797700,5.366797607421875,5.91332483291626,-2.129600048065185,2.2499125003814697
1780564144548317700,5.386317626953125,5.056837558746338,-1.792312502861023,1.8497874736785889
1780564144567837000,5.4058369140625,4.046625137329102,-1.3776124715805054,1.4243625402450562
1780564144587357400,5.425357421875,2.84185004234314,-0.8460375070571899,0.9627749919891356
1780564144606877400,5.44487744140625,1.5558124780654907,-0.2441999912261963,0.4963749945163727
1780564144626396000,5.46439599609375,0.4087874889373779,0.3023625016212463,0.0882750004529953
1780564144645909000,5.483908935546875,-0.3987500071525574,0.6668750047683716,-0.2088624984025955
1780564144665425400,5.50342529296875,-0.8305000066757202,0.8179875016212463,-0.3880249857902527
1780564144684944100,5.522944091796875,-1.0770374536514282,0.8677625060081482,-0.4969249963760376
1780564144704459500,5.54245947265625,-1.3318250179290771,0.9321125149726868,-0.5791500210762024
1780564144723976700,5.561976806640625,-1.558287501335144,0.9817500114440918,-0.6226000189781189
1780564144743495000,5.581494873046875,-1.6011874675750732,0.911074995994568,-0.5937250256538391
1780564144763014100,5.60101416015625,-1.4698749780654907,0.7173374891281128,-0.5171374678611755
1780564144782533000,5.620533203125,-1.377750039100647,0.5284125208854675,-0.4772624969482422
1780564144802049300,5.64004931640625,-1.4764750003814695,0.4431625008583069,-0.5237374901771545
1780564144821568500,5.659568603515625,-1.716962456703186,0.4459125101566314,-0.6289250254631042
1780564144841085000,5.6790849609375,-1.9507124423980715,0.4581499993801117,-0.7297124862670898
1780564144860597000,5.698596923828125,-2.0996248722076416,0.4252874851226806,-0.8005250096321106
1780564144880118000,5.718117919921875,-2.2206249237060547,0.3673999905586242,-0.8787624835968018
1780564144899639600,5.7376396484375,-2.396212577819824,0.3338499963283539,-1.015162467956543
1780564144919154200,5.757154296875,-2.6059000492095947,0.3334375023841858,-1.2084875106811523
1780564144938671900,5.776671875,-2.7325375080108643,0.3192749917507171,-1.3839374780654907
1780564144958189600,5.796189453125,-2.7157623767852783,0.2521750032901764,-1.4635499715805054
1780564144977706200,5.815706298828125,-2.628312587738037,0.139562502503395,-1.4394874572753906
1780564144997222400,5.835222412109375,-2.5641000270843506,-0.0060499999672174,-1.3362250328063965
1780564145016739000,5.854739013671875,-2.5419623851776123,-0.1885125041007995,-1.1724624633789062
1780564145036254200,5.874254150390625,-2.5379750728607178,-0.3808749914169311,-0.9967374801635742
1780564145055770400,5.893770263671875,-2.5268375873565674,-0.5262125134468079,-0.8831624984741211
1780564145075289000,5.9132890625,-2.485862493515014,-0.5762624740600586,-0.911074995994568
1780564145094808300,5.932808349609375,-2.384112596511841,-0.527999997138977,-1.0936750173568726
1780564145114329000,5.9523291015625,-2.19958758354187,-0.4321624934673309,-1.3396625518798828
1780564145133849900,5.971849853515625,-1.947137475013733,-0.357637494802475,-1.5204750299453735
1780564145153366000,5.991365966796875,-1.687537431716919,-0.3495250046253204,-1.570525050163269
1780564145172881700,6.010881591796875,-1.5243250131607056,-0.4001249969005584,-1.5745124816894531
1780564145192401700,6.030401611328125,-1.5243250131607056,-0.4001249969005584,-1.5745124816894531
1780564145211921700,6.049921630859375,-1.53353750705719,-0.4609000086784363,-1.6680124998092651
1780564145231434500,6.0694345703125,-1.807437539100647,-0.4500375092029571,-2.1082875728607178
1780564145250945300,6.0889453125,-1.803862452507019,-0.3973749876022339,-2.1953248977661133
1780564145270459100,6.108459228515625,-1.803862452507019,-0.3973749876022339,-2.1953248977661133
1780564145289973500,6.127973388671875,-1.803862452507019,-0.3973749876022339,-2.1953248977661133
1780564145309491000,6.147490966796875,-1.3899874687194824,-0.3379749953746795,-1.8317749500274656
1780564145329009200,6.167009033203125,-0.989312469959259,-0.3518624901771545,-1.4020874500274658
1780564145348526000,6.186526123046875,-0.5164499878883362,-0.3766124844551086,-0.8933374881744385
1780564145368042000,6.2060419921875,-0.0940499976277351,-0.3752374947071075,-0.4375250041484833
1780564145387556900,6.225556884765625,0.1519374996423721,-0.3236750066280365,-0.1486375033855438
1780564145407072500,6.245072509765625,0.1889249980449676,-0.2336124926805496,-0.0340999998152256
1780564145426589200,6.264589111328125,0.0919874981045723,-0.1445125043392181,-0.0027499999850988
1780564145446106000,6.284106201171875,-0.017187500372529,-0.1046374961733818,0.0721874982118606
1780564145465618700,6.30361865234375,-0.0424874983727932,-0.1407999992370605,0.272112488746643
1780564145485131000,6.323131103515625,0.0262624993920326,-0.2415875047445297,0.563337504863739
1780564145504648700,6.342648681640625,0.1293874979019165,-0.3526875078678131,0.8137249946594238
1780564145524165600,6.36216552734375,0.1970375031232834,-0.4094749987125397,0.88714998960495
1780564145543681300,6.381681396484375,0.1937374919652938,-0.3884375095367431,0.7429124712944031
1780564145563197000,6.401197021484375,0.1434125006198883,-0.3251875042915344,0.4805625081062317
1780564145582713300,6.42071337890625,0.1007874980568885,-0.2769249975681305,0.2604250013828277
1780564145602227000,6.44022705078125,0.1013374999165535,-0.2653749883174896,0.1780624985694885
1780564145621739300,6.4597392578125,0.1553750038146972,-0.2832500040531158,0.2547875046730041
1780564145641253000,6.479253173828125,0.2509374916553497,-0.3140499889850616,0.4450874924659729
1780564145660769500,6.49876953125,0.3511750102043152,-0.3328875005245209,0.6337375044822693
1780564145680284000,6.518283935546875,0.4142875075340271,-0.3185875117778778,0.7006999850273132
1780564145699798500,6.537798583984375,0.4250124990940094,-0.271699994802475,0.6087124943733215
1780564145719318300,6.557318359375,0.4071374833583832,-0.2186249941587448,0.427212506532669
1780564145738839300,6.57683935546875,0.3887124955654144,-0.1805374920368194,0.2413125038146972
1780564145758360800,6.59636083984375,0.3774375021457672,-0.1586750000715255,0.0923999994993209
1780564145777878500,6.61587841796875,0.3678124845027923,-0.1502874940633773,-0.0111375004053115
1780564145797397500,6.6353974609375,0.3504875004291534,-0.1533125042915344,-0.0875874981284141
1780564145816917200,6.654917236328125,0.3030500113964081,-0.1436875015497207,-0.2023999989032745
1780564145836435500,6.674435546875,0.2015749961137771,-0.0811249986290931,-0.4284499883651733
1780564145855959800,6.693959716796875,0.052387498319149,0.042212501168251,-0.7603750228881836
1780564145875478000,6.71347802734375,-0.104774996638298,0.1868624985218048,-1.1082500219345093
1780564145894988500,6.732988525390625,-0.2248124927282333,0.3040125072002411,-1.373075008392334
1780564145914504000,6.75250390625,-0.2824249863624573,0.3735874891281128,-1.5091999769210815
1780564145934022400,6.7720224609375,-0.2754124999046325,0.4002625048160553,-1.5134625434875488
1780564145953542400,6.79154248046875,-0.2227499932050705,0.4016374945640564,-1.4074499607086182
1780564145973062400,6.8110625,-0.1561999917030334,0.3966875076293945,-1.2263624668121338
1780564145992582700,6.830582763671875,-0.1561999917030334,0.3966875076293945,-1.2263624668121338
1780564146012106500,6.8501064453125,-0.1068374961614608,0.3929750025272369,-1.0042999982833862
1780564146031629000,6.869629150390625,-0.0945999994874,0.383899986743927,-0.3797749876976013
1780564146051149800,6.88914990234375,-0.1071124970912933,0.3964124917984009,0.039462499320507
1780564146070669600,6.908669677734375,-0.1071124970912933,0.3964124917984009,0.039462499320507
1780564146090185500,6.928185546875,-0.1141249984502792,0.463512510061264,0.7132124900817871
1780564146109702100,6.9477021484375,-0.1141249984502792,0.463512510061264,0.7132124900817871
1780564146129220000,6.96722021484375,-0.079475000500679,0.4573250114917755,0.9457250237464904
1780564146148739000,6.986739013671875,-0.0059124999679625,0.4138749837875366,1.1567875146865845
1780564146168260400,7.00626025390625,0.0703999996185302,0.3870624899864197,1.2764124870300293
1780564146187776000,7.02577587890625,0.0988624989986419,0.4292750060558319,1.2171499729156494
1780564146207292000,7.0452919921875,0.0734250023961067,0.5355625152587891,1.0087000131607056
1780564146226815200,7.064815185546875,-0.0092124994844198,0.6551874876022339,0.7147250175476074
1780564146246339800,7.08433984375,-0.1757249981164932,0.7473124861717224,0.3440249860286712
1780564146265863200,7.10386328125,-0.4164874851703644,0.8112499713897705,-0.0944624990224838
1780564146285384700,7.123384765625,-0.6551874876022339,0.8674874901771545,-0.5369374752044678
1780564146304907500,7.142907470703125,-0.7880125045776367,0.9255124926567078,-0.8749125003814697
1780564146324427500,7.162427490234375,-0.7396125197410583,0.9773499965667723,-0.9898625016212464
1780564146343949000,7.181948974609375,-0.481249988079071,1.0073250532150269,-0.8140000104904175
1780564146363475700,7.201475830078125,-0.0482624992728233,1.0005874633789062,-0.4021874964237213
1780564146382999800,7.220999755859375,0.4896374940872192,0.9373375177383424,0.1304875016212463
1780564146402523600,7.240523681640625,1.0843249559402466,0.8001124858856201,0.7100499868392944
1780564146422045000,7.260044921875,1.7221875190734863,0.5900124907493591,1.3150500059127808
1780564146441560800,7.279560791015625,2.368025064468384,0.3400374948978424,1.8909000158309937
1780564146461080000,7.299080078125,2.962574958801269,0.0893749967217445,2.3530375957489014
1780564146480604400,7.3186044921875,3.483974933624268,-0.1537249982357025,2.6709375381469727
1780564146500124200,7.338124267578125,3.904175043106079,-0.3800500035285949,2.8327748775482178
1780564146519643000,7.357642822265625,4.1760125160217285,-0.5629249811172485,2.34698748588562
1780564146539162600,7.37716259765625,4.300175189971924,-0.6902499794960022,1.5729999542236328
1780564146558679000,7.396678955078125,4.391749858856201,-0.8089125156402588,1.4671249389648438
1780564146578195700,7.41619580078125,4.606662273406982,-0.9961875081062316,1.7520250082015991
1780564146597711600,7.435711669921875,4.970212459564209,-1.2695374488830566,1.9982874393463133
1780564146617232000,7.45523193359375,5.274637699127197,-1.5185500383377075,2.112962484359741
1780564146636748800,7.474748779296875,5.194200038909912,-1.5596624612808228,1.987149953842163
1780564146656264000,7.494263916015625,4.5980000495910645,-1.3050124645233154,1.6273125410079956
1780564146675781600,7.51378173828125,3.654062509536743,-0.824999988079071,1.1511499881744385
1780564146695300900,7.53330078125,2.672312498092652,-0.2820124924182892,0.6983624696731567
1780564146714817000,7.552817138671875,1.875499963760376,0.1904374957084655,0.3506250083446502
1780564146734329600,7.57232958984375,1.2988250255584717,0.5620999932289124,0.113437496125698
1780564146753844200,7.59184423828125,0.8728500008583069,0.8608874678611755,-0.0404249988496303
1780564146773364000,7.611364013671875,0.5506874918937683,1.0921624898910522,-0.1277374923229217
1780564146792883200,7.63088330078125,0.4074124991893768,1.1763124465942385,-0.1430000066757202
1780564146812394800,7.650394775390625,0.5578374862670898,1.014062523841858,-0.0870374962687492
1780564146831902000,7.66990185546875,0.9531499743461608,0.6421250104904175,0.004674999974668
1780564146851409700,7.68940966796875,1.3553375005722046,0.2455749958753585,0.0818125009536743
1780564146870921200,7.708921142578125,1.492287516593933,0.0323125012218952,0.1142624989151954
1780564146890433000,7.72843310546875,1.492287516593933,0.0323125012218952,0.1142624989151954
1780564146909945000,7.747945068359375,1.492287516593933,0.0323125012218952,0.1142624989151954
1780564146929456400,7.767456298828125,0.7749499678611755,0.308412492275238,0.0493624992668628
1780564146948970200,7.78697021484375,0.1511124968528747,0.6148999929428101,-0.0488125011324882
1780564146968481300,7.806481201171875,-0.4867500066757202,0.9182249903678894,-0.1755875051021576
1780564146987990000,7.825989990234375,-1.0203875303268433,1.1450999975204468,-0.2872374951839447
1780564147007507700,7.8455078125,-1.3164249658584597,1.2084875106811523,-0.3361875116825104
1780564147027030300,7.8650302734375,-1.301437497138977,1.0551749467849731,-0.3042874932289123
1780564147046556400,7.884556396484375,-0.950262486934662,0.6637125015258789,-0.1901624947786331
1780564147066078700,7.90407861328125,-0.3477374911308288,0.0930875018239021,-0.0038499999791383
1780564147085594000,7.923593994140625,0.2404875010251999,-0.4844124913215637,0.2124374955892563
1780564147105104100,7.943104248046875,0.5358374714851379,-0.9022749662399292,0.4009499847888946
1780564147124617700,7.96261767578125,0.4581499993801117,-1.1148500442504885,0.522362470626831
1780564147144137700,7.9821376953125,0.1699499934911728,-1.2093124389648438,0.5807999968528748
1780564147163655000,8.001655029296876,-0.1384624987840652,-1.2714624404907229,0.593037486076355
1780564147183175700,8.02117578125,-0.4248749911785126,-1.3030874729156494,0.5534374713897705
1780564147202696200,8.0406962890625,-0.7477250099182129,-1.2506999969482422,0.4423374831676483
1780564147222212600,8.060212646484375,-1.1372624635696411,-1.0791000127792358,0.2567124962806701
1780564147241725200,8.07972509765625,-1.551550030708313,-0.808775007724762,0.0252999998629093
1780564147261234400,8.099234375,-1.9573124647140503,-0.4716250002384186,-0.2194499969482422
1780564147280750800,8.118750732421875,-2.354137420654297,-0.0994125008583068,-0.4622749984264374
1780564147300272000,8.138272216796874,-2.717137575149536,0.2492875009775161,-0.6914874911308289
1780564147319792600,8.157792724609376,-2.9721999168396,0.4945875108242035,-0.8798624873161316
1780564147339310600,8.177310546875,-3.0415000915527344,0.5803874731063843,-0.9898625016212464
1780564147358830300,8.196830322265624,-2.9272375106811523,0.5123249888420105,-1.011312484741211
1780564147378351600,8.2163515625,-2.7095749378204346,0.3364624977111816,-0.9718499779701232
1780564147397869600,8.23586962890625,-2.482837438583374,0.1002374961972236,-0.9185000061988832
1780564147417390000,8.25539013671875,-2.343137502670288,-0.1368124932050705,-0.92826247215271
1780564147436913700,8.27491357421875,-2.3410749435424805,-0.3161124885082245,-1.073050022125244
1780564147456434700,8.2944345703125,-2.458775043487549,-0.4105750024318695,-1.374174952507019
1780564147475955500,8.31395556640625,-2.632299900054932,-0.4346374869346618,-1.7925875186920166
1780564147495479800,8.333479736328124,-2.802525043487549,-0.415800005197525,-2.255687475204468
1780564147514997500,8.35299755859375,-2.956249952316284,-0.3583250045776367,-2.7147998809814453
1780564147534513700,8.372513671875,-3.0588250160217285,-0.2756874859333038,-3.1013123989105225
1780564147554031600,8.392031494140625,-3.046999931335449,-0.2047374993562698,-3.3257124423980717
1780564147573546500,8.41154638671875,-2.8775999546051025,-0.176825001835823,-3.318700075149536
1780564147593063000,8.43106298828125,-2.5641000270843506,-0.1898874938488006,-3.0687248706817627
1780564147612580400,8.450580322265624,-2.5641000270843506,-0.1898874938488006,-3.0687248706817627
1780564147632101400,8.470101318359376,-1.7982250452041626,-0.2230249941349029,-2.197662591934204
1780564147651626500,8.48962646484375,-1.497099995613098,-0.201162502169609,-1.8500624895095823
1780564147671150600,8.509150634765625,-1.2904374599456787,-0.1552374958992004,-1.6605875492095947
1780564147690671600,8.528671630859375,-1.2904374599456787,-0.1552374958992004,-1.6605875492095947
1780564147710193400,8.548193359375,-1.035099983215332,-0.1088999956846237,-1.537387490272522
1780564147729716700,8.567716796875,-1.035099983215332,-0.1088999956846237,-1.537387490272522
1780564147749238300,8.58723828125,-0.9332125186920166,-0.1402499973773956,-1.5037000179290771
1780564147768756500,8.606756591796875,-0.8398500084877014,-0.1864500045776367,-1.4848624467849731
1780564147788280300,8.6262802734375,-0.7514374852180481,-0.219587504863739,-1.4973750114440918
1780564147807809000,8.64580908203125,-0.6556000113487244,-0.2292124927043914,-1.532437443733215
1780564147827331300,8.665331298828125,-0.5414749979972839,-0.2230249941349029,-1.5688749551773071
1780564147846853600,8.684853515625,-0.4003999829292297,-0.2190375030040741,-1.5652999877929688
1780564147866378200,8.704378173828125,-0.2267374992370605,-0.2355374991893768,-1.473312497138977
1780564147885902800,8.72390283203125,-0.0252999998629093,-0.2832500040531158,-1.2696750164031982
1780564147905422000,8.743422119140625,0.1929125040769577,-0.3607999980449676,-0.9602999687194824
1780564147924938500,8.7629384765625,0.417724996805191,-0.4610374867916107,-0.5759875178337097
1780564147944459000,8.782458984375,0.6406124830245972,-0.5781875252723694,-0.1465750038623809
1780564147963978800,8.801978759765625,0.8327000141143799,-0.6663249731063843,0.2452999949455261
1780564147983498800,8.821498779296874,0.948199987411499,-0.6509249806404114,0.4881249964237213
1780564148003018800,8.841018798828125,0.9630500078201294,-0.5101249814033508,0.5636125206947327
1780564148022540800,8.860540771484375,0.8918250203132629,-0.3018124997615814,0.5698000192642212
1780564148042065000,8.88006494140625,0.7720624804496765,-0.1101374998688697,0.6326375007629395
1780564148061588200,8.899588134765626,0.6370375156402588,0.02364999987185,0.8005250096321106
1780564148081109000,8.91910888671875,0.510812520980835,0.0873124971985817,1.0539374351501465
1780564148100628200,8.938628173828125,0.4102999866008758,0.0789249986410141,1.3469499349594116
1780564148120150500,8.958150634765625,0.3364624977111816,0.0232375003397464,1.6103999614715576
1780564148139675100,8.977675048828125,0.2745875120162964,-0.0389125011861324,1.774162530899048
1780564148159198500,8.997198486328125,0.20363749563694,-0.0746624991297721,1.7954750061035156
1780564148178722600,9.01672265625,0.1109625026583671,-0.0753500014543533,1.678874969482422
1780564148198243800,9.036243896484375,0.0086624994874,-0.0598125010728836,1.4834874868392944
1780564148217759700,9.055759765625,-0.0721874982118606,-0.0613249987363815,1.292087435722351
1780564148237271300,9.075271240234375,-0.1060125008225441,-0.1079374998807907,1.157612442970276
1780564148256784600,9.09478466796875,-0.0995500013232231,-0.1975875049829483,1.0648000240325928
1780564148276305200,9.11430517578125,-0.1097249984741211,-0.2733500003814697,0.9098374843597412
1780564148295826000,9.133825927734376,-0.2035000026226043,-0.2630375027656555,0.5673249959945679
1780564148315344100,9.15334423828125,-0.3969624936580658,-0.1513874977827072,0.0
1780564148334865000,9.172864990234377,-0.638824999332428,0.0032999999821186,-0.7082625031471252
1780564148354386700,9.19238671875,-0.8505749702453613,0.122649997472763,-1.406350016593933
1780564148373911600,9.21191162109375,-0.9788625240325928,0.1771000027656555,-1.9657000303268437
1780564148393434600,9.2314345703125,-1.003749966621399,0.183287501335144,-2.2918500900268555
1780564148412955600,9.25095556640625,-0.9242749810218812,0.1670625060796737,-2.314125061035156
1780564148432480500,9.27048046875,-0.9242749810218812,0.1670625060796737,-2.314125061035156
1780564148452001300,9.290001220703124,-0.7501999735832214,0.1458874940872192,-1.986462473869324
1780564148471520000,9.30952001953125,-0.4962374866008758,0.1267749965190887,-1.312712550163269
1780564148491041500,9.32904150390625,-0.1940124928951263,0.1084875017404556,-0.4149749875068664
1780564148510563000,9.34856298828125,0.106562502682209,0.0901999995112419,0.4831750094890594
1780564148530082800,9.368082763671875,0.4672249853610992,0.1446499973535537,1.4195499420166016
1780564148549601500,9.3876015625,0.4672249853610992,0.1446499973535537,1.4195499420166016
1780564148569119700,9.40711962890625,0.4937624931335449,0.2391124963760376,1.391224980354309
1780564148588635100,9.42663525390625,0.4729999899864197,0.3260124921798706,1.2208625078201294
1780564148608149500,9.4461494140625,0.4497624933719635,0.3673999905586242,1.0382624864578247
1780564148627669000,9.4656689453125,0.4032875001430511,0.3965499997138977,0.8215624690055847
1780564148647193000,9.485193115234376,0.2866874933242798,0.4808374941349029,0.4944500029087066
1780564148666717700,9.5047177734375,0.1132999956607818,0.6285125017166138,0.0994125008583068
1780564148686242800,9.524242919921877,-0.0393249988555908,0.7863624691963196,-0.2157374918460846
1780564148705764600,9.5437646484375,-0.1067000031471252,0.916712522506714,-0.3562625050544739
1780564148725286000,9.563285888671874,-0.1002374961972236,1.049262523651123,-0.3837625086307525
1780564148744806700,9.582806640625,-0.0464750006794929,1.2028499841690063,-0.3800500035285949
1780564148764329700,9.602329833984374,0.0787874981760978,1.3143625259399414,-0.3177624940872192
1780564148783850500,9.6218505859375,0.3185875117778778,1.2931874990463257,-0.122649997472763
1780564148803367000,9.641366943359374,0.6487249732017517,1.1376750469207764,0.1830125004053115
1780564148822881300,9.66088134765625,1.0319374799728394,0.9102500081062316,0.5378999710083008
1780564148842398200,9.680398193359377,1.497925043106079,0.6384124755859375,0.9477875232696532
1780564148861919000,9.6999189453125,2.0942625999450684,0.3003000020980835,1.4404499530792236
1780564148881439700,9.719439697265624,2.8206748962402344,-0.1269125044345855,2.0024125576019287
1780564148900959700,9.738959716796876,3.5795373916625977,-0.6008750200271606,2.535774946212769
1780564148920475400,9.758475341796874,4.248612403869629,-1.0401874780654907,2.9299874305725098
1780564148939992000,9.777991943359376,4.723262310028076,-1.370324969291687,3.115474939346313
1780564148959511800,9.79751171875,4.946974754333496,-1.5571874380111694,3.085224866867065
1780564148979030000,9.817030029296877,4.934187412261963,-1.610949993133545,2.889149904251098
1780564148998551800,9.8365517578125,4.691362380981445,-1.536287546157837,2.569737434387207
1780564149018077700,9.85607763671875,4.23692512512207,-1.3433749675750732,2.1660375595092773
1780564149037603600,9.875603515625,3.6287624835968018,-1.0619125366210938,1.725487470626831
1780564149057128200,9.895128173828123,2.9455249309539795,-0.7225624918937683,1.294837474822998
1780564149076651800,9.91465185546875,2.299962520599365,-0.3774375021457672,0.9277125000953674
1780564149096177200,9.93417724609375,1.8136249780654907,-0.1040875017642974,0.6719624996185303
1780564149115702000,9.953701904296874,1.5994000434875488,-0.002337499987334,0.555774986743927
1780564149135230700,9.973230712890626,1.7047250270843506,-0.135574996471405,0.5669124722480774
1780564149154752300,9.992752197265624,2.0259249210357666,-0.4402749836444855,0.6419875025749207
1780564149174269200,10.012269287109374,2.3935999870300293,-0.7805874943733215,0.7165125012397766
1780564149193787100,10.031787109375,2.613187551498413,-0.9983875155448914,0.7436000108718872
1780564149213304000,10.051303955078126,2.5287625789642334,-0.9762499928474426,0.7001500129699707
1780564149232820200,10.0708203125,2.2035748958587646,-0.7717875242233276,0.6111875176429749
1780564149252338700,10.090338623046875,1.8330124616622925,-0.5442249774932861,0.5157625079154968
1780564149271861200,10.109861328125,1.5119500160217283,-0.3741374909877777,0.4225375056266784
1780564149291385900,10.1293857421875,1.1995500326156616,-0.2343000024557113,0.3199625015258789
1780564149310911200,10.1489111328125,0.8918250203132629,-0.1156374961137771,0.2199999988079071
1780564149330435000,10.16843505859375,0.8918250203132629,-0.1156374961137771,0.2199999988079071
1780564149349956400,10.187956298828125,0.8918250203132629,-0.1156374961137771,0.2199999988079071
1780564149369474000,10.20747412109375,0.4501749873161316,-0.0156750008463859,0.115225002169609
1780564149388992500,10.226992431640625,0.2052875012159347,0.0633874982595443,0.0782374963164329
1780564149408514000,10.24651416015625,-0.1662375032901764,0.2476374953985214,0.0020624999888241
1780564149428035000,10.26603515625,-0.7588624954223633,0.6066499948501587,-0.1487749963998794
1780564149447557400,10.285557373046874,-1.6197500228881836,1.1735625267028809,-0.3777124881744385
1780564149467078000,10.305077880859375,-2.5239500999450684,1.7751250267028809,-0.6080250144004822
1780564149486595600,10.324595703125,-3.0456249713897705,2.0854625701904297,-0.718162477016449
1780564149506111700,10.34411181640625,-3.033799886703491,1.986462473869324,-0.6741625070571899
1780564149525632300,10.36363232421875,-2.699537515640259,1.631024956703186,-0.550000011920929
1780564149545155800,10.38315576171875,-2.3446500301361084,1.239150047302246,-0.4444000124931335
1780564149564672800,10.4026728515625,-2.118875026702881,0.9183624982833862,-0.4003999829292297
1780564149584186400,10.422186279296875,-1.9985624551773071,0.6572499871253967,-0.3979249894618988
1780564149603701800,10.44170166015625,-1.9244500398635864,0.4243249893188476,-0.4079625010490417
1780564149623220000,10.461219970703125,-1.8957124948501587,0.2226125001907348,-0.4309250116348266
1780564149642735600,10.480735595703123,-1.977524995803833,0.097350001335144,-0.5046250224113464
1780564149662251500,10.50025146484375,-2.203162431716919,0.0742499977350235,-0.6602749824523926
1780564149681767200,10.51976708984375,-2.52477502822876,0.1262249946594238,-0.8875625133514404
1780564149701284400,10.539284423828123,-2.8593125343322754,0.2032250016927719,-1.1459250450134275
1780564149720803000,10.558802978515626,-3.133074998855591,0.2613874971866607,-1.3886125087738037
1780564149740319700,10.57831982421875,-3.2934000492095947,0.2751374840736389,-1.5719000101089478
1780564149759834400,10.59783447265625,-3.301374912261963,0.227974995970726,-1.6534374952316284
1780564149779348700,10.6173486328125,-3.147237539291382,0.1132999956607818,-1.6032500267028809
1780564149798865400,10.636865478515626,-2.8885998725891118,-0.0442750006914138,-1.4455374479293823
1780564149818382800,10.6563828125,-2.628725051879883,-0.1963499933481216,-1.2649999856948853
1780564149837899500,10.6758994140625,-2.433612585067749,-0.3139125108718872,-1.135337471961975
1780564149857412900,10.695412841796877,-2.2763125896453857,-0.4170374870300293,-1.039912462234497
1780564149876929300,10.71492919921875,-2.088212490081787,-0.5403749942779541,-0.9002124667167664
1780564149896451600,10.73445166015625,-1.871787548065185,-0.6671500205993652,-0.7088124752044678
1780564149915972600,10.75397265625,-1.696887493133545,-0.7378249764442444,-0.5578374862670898
1780564149935494100,10.773494140625,-1.5926624536514282,-0.7214624881744385,-0.5145249962806702
1780564149955016700,10.7930166015625,-1.5030125379562378,-0.6547750234603882,-0.5257999897003174
1780564149974533000,10.812533203125,-1.3546500205993652,-0.6030749678611755,-0.4856500029563904
1780564149994049000,10.832049072265624,-1.1402875185012815,-0.5972999930381775,-0.3636874854564667
1780564150013568800,10.85156884765625,-0.9013124704360962,-0.6286500096321106,-0.2084500044584274
1780564150033085200,10.871085205078124,-0.6762250065803528,-0.6682500243186951,-0.0812624990940094
1780564150052603400,10.890603271484377,-0.6762250065803528,-0.6682500243186951,-0.0812624990940094
1780564150072125000,10.910125,-0.4819374978542328,-0.6880499720573425,-0.0109999999403953
1780564150091641600,10.9296416015625,-0.233474999666214,-0.6258999705314636,-0.1856250017881393
1780564150111155500,10.949155517578124,-0.233474999666214,-0.6258999705314636,-0.1856250017881393
1780564150130670600,10.968670654296876,-0.1984124928712844,-0.555774986743927,-0.503250002861023
1780564150150188500,10.9881884765625,-0.1905750036239624,-0.4193750023841858,-1.286587476730347
1780564150169710000,11.0077099609375,-0.1905750036239624,-0.4193750023841858,-1.286587476730347
1780564150189232400,11.027232421875,-0.1660999953746795,-0.3742749989032745,-1.6057250499725342
1780564150208754200,11.046754150390624,-0.1146750003099441,-0.3448500037193298,-1.8269624710083008
1780564150228277000,11.066277099609374,-0.0299750007688999,-0.3293125033378601,-1.904237508773804
1780564150247801000,11.085801025390625,0.0800250023603439,-0.3251875042915344,-1.8193999528884888
1780564150267326200,11.105326171875,0.1903000026941299,-0.3212000131607055,-1.6277250051498413
1780564150286854100,11.124854248046876,0.2773374915122986,-0.3018124997615814,-1.392187476158142
1780564150306379000,11.14437890625,0.3423750102519989,-0.271699994802475,-1.1274999380111694
1780564150325902300,11.16390234375,0.4232249855995178,-0.2645500004291534,-0.7987374663352966
1780564150345423600,11.183423583984377,0.516587495803833,-0.2967250049114227,-0.4471499919891357
1780564150364944600,11.202944580078125,0.510949969291687,-0.3221625089645386,-0.304562509059906
1780564150384469500,11.222469482421875,0.2958999872207641,-0.2744500041007995,-0.6023874878883362
1780564150403992300,11.241992431640623,-0.1014750003814697,-0.1168750002980232,-1.35794997215271
1780564150423512800,11.261512939453125,-0.4449499845504761,0.0889625027775764,-2.1595749855041504
1780564150443031000,11.281031005859376,-0.4641999900341034,0.1817750036716461,-2.258574962615967
1780564150462550500,11.300550537109377,-0.0878624990582466,0.0273624993860721,-1.2282874584197998
1780564150482070800,11.32007080078125,0.5682874917984009,-0.3650625050067901,0.5805249810218811
1780564150501590000,11.339590087890626,1.2403874397277832,-0.7847124934196472,2.251562595367432
1780564150521111800,11.35911181640625,1.6219500303268433,-0.9851874709129332,2.99887490272522
1780564150540637200,11.37863720703125,1.536149978637695,-0.8857749700546265,2.647700071334839
1780564150560156000,11.398156005859375,1.0506374835968018,-0.5578374862670898,1.536562442779541
1780564150579674000,11.417674072265624,0.4219875037670135,-0.1551000028848648,0.2590500116348266
1780564150599198700,11.43719873046875,-0.0921249985694885,0.1436875015497207,-0.5752999782562256
1780564150618722600,11.45672265625,-0.364650011062622,0.2311374992132187,-0.6234250068664551
1780564150638243800,11.476243896484377,-0.3961375057697296,0.1313125044107437,-0.0072874999605119
1780564150657765400,11.495765380859376,-0.2528625130653381,-0.052387498319149,0.8601999878883362
1780564150677288700,11.515288818359377,-0.0475750006735324,-0.2118874937295913,1.5604875087738037
1780564150696814800,11.53481494140625,0.103812500834465,-0.2942500114440918,1.8576250076293943
1780564150716339000,11.5543388671875,0.1381874978542328,-0.3111625015735626,1.7380000352859497
1780564150735856600,11.573856689453123,0.0492249988019466,-0.2809124886989593,1.303225040435791
1780564150755374600,11.59337451171875,-0.1308999955654144,-0.1986874938011169,0.6781499981880188
1780564150774893300,11.612893310546877,-0.3488374948501587,-0.0639375001192092,-0.0321750007569789
1780564150794406100,11.63240625,-0.5303375124931335,0.0800250023603439,-0.6748499870300293
1780564150813921500,11.651921630859375,-0.6176499724388123,0.179299995303154,-1.0983500480651855
1780564150833441800,11.67144189453125,-0.6212249994277954,0.2294874936342239,-1.2993749380111694
1780564150852957400,11.69095751953125,-0.5997750163078308,0.2539624869823456,-1.3782999515533447
1780564150872473300,11.710473388671875,-0.5997750163078308,0.2539624869823456,-1.3782999515533447
1780564150891993600,11.72999365234375,-0.6234250068664551,0.273624986410141,-1.439212441444397
1780564150911513600,11.749513671875,-0.8846749663352966,0.3621749877929687,-1.565987467765808
1780564150931030800,11.76903076171875,-0.8846749663352966,0.3621749877929687,-1.565987467765808
1780564150950546400,11.78854638671875,-0.989312469959259,0.4107125103473663,-1.387237548828125
1780564150970067000,11.80806689453125,-0.989312469959259,0.4107125103473663,-1.387237548828125
1780564150989587700,11.827587646484377,-0.7448375225067139,0.3255999982357025,-0.1028499975800514
1780564151009102600,11.8471025390625,-0.3863750100135803,0.1978625059127807,0.7561125159263611
1780564151028619800,11.866619873046876,-0.010037500411272,0.1225124970078468,1.3678499460220337
1780564151048139300,11.88613916015625,0.2410375028848648,0.1658249944448471,1.51277494430542
1780564151067661600,11.90566162109375,0.3143250048160553,0.3071750104427337,1.2350250482559204
1780564151087182600,11.9251826171875,0.2611125111579895,0.4724499881267547,0.7804499864578247
1780564151106703600,11.94470361328125,0.1425874978303909,0.6187499761581421,0.3470500111579895
1780564151126224400,11.964224365234376,0.0111375004053115,0.7507500052452087,0.0593999996781349
1780564151145737500,11.983737548828126,-0.077962502837181,0.8827499747276306,0.0015124999918043
1780564151165254700,12.003254638671876,-0.0829124972224235,1.0114500522613523,0.1665125042200088
1780564151184775200,12.022775146484374,0.0098999999463558,1.1169124841690063,0.4570499956607818
1780564151204291000,12.042291015625,0.1988250017166137,1.1710875034332275,0.7771499752998352
1780564151223808000,12.06180810546875,0.5003625154495239,1.1387749910354614,1.1328624486923218
1780564151243325000,12.081324951171876,0.9741874933242798,0.971162497997284,1.6389999389648438
1780564151262845200,12.10084521484375,1.696887493133545,0.6148999929428101,2.4109249114990234
1780564151282368300,12.1203681640625,2.6793251037597656,0.0584375001490116,3.419762372970581
1780564151301892600,12.139892578125,3.7846875190734863,-0.6140750050544739,4.435337543487549
1780564151321419500,12.15941943359375,4.683662414550781,-1.1951500177383425,5.0703125
1780564151340939300,12.178939208984374,5.00059986114502,-1.451587438583374,5.015312671661377
1780564151360457000,12.19845703125,4.593050003051758,-1.2670625448226929,4.265387535095215
1780564151379981000,12.21798095703125,3.660799980163574,-0.7075750231742859,3.10337495803833
1780564151399507200,12.237507080078124,2.6101624965667725,-0.0049499999731779,1.9321500062942505
1780564151419034400,12.257034423828124,1.7543624639511108,0.6048625111579895,1.0232750177383425
1780564151438562300,12.276562255859377,1.107837438583374,1.063562512397766,0.571862518787384
1780564151458091000,12.296091064453124,0.5215374827384949,1.4564000368118286,0.1929125040769577
1780564151477616600,12.31561669921875,-0.1201749965548515,1.869724988937378,-0.3876124918460846
1780564151497142800,12.335142822265626,-0.8282999992370605,2.3197624683380127,-0.9204249978065492
1780564151516672800,12.3546728515625,-1.4309624433517456,2.692387580871582,-1.317662477493286
1780564151536203300,12.374203369140623,-1.5798749923706057,2.7292375564575195,-1.4078625440597534
1780564151555730200,12.393730224609374,-0.9531499743461608,2.1804749965667725,-1.0586124658584597
1780564151575255600,12.413255615234377,0.454987496137619,1.0471999645233154,-0.317900002002716
1780564151594781400,12.432781494140626,2.2544500827789307,-0.3414124846458435,0.570900022983551
1780564151614307000,12.45230712890625,3.873650074005127,-1.5291374921798706,1.3178000450134275
1780564151633829000,12.4718291015625,4.886612415313721,-2.225712537765503,1.7634375095367432
1780564151653352200,12.491352294921874,5.2382001876831055,-2.4395248889923096,1.9186749458312988
1780564151672882000,12.5108818359375,5.142637252807617,-2.3501498699188232,1.8720624446868896
1780564151692409000,12.5304091796875,5.142637252807617,-2.3501498699188232,1.8720624446868896
1780564151711932700,12.5499326171875,4.547399997711182,-1.9197750091552732,1.5081000328063965
1780564151731459600,12.56945947265625,4.229912281036377,-1.7011499404907229,1.300475001335144
1780564151750985700,12.58898583984375,4.229912281036377,-1.7011499404907229,1.300475001335144
1780564151770505500,12.60850537109375,3.801187515258789,-1.4246374368667605,1.0997250080108645
1780564151790023000,12.62802294921875,2.633125066757202,-0.771512508392334,0.7282000184059143
1780564151809542000,12.6475419921875,2.633125066757202,-0.771512508392334,0.7282000184059143
1780564151829060400,12.667060302734376,2.1132373809814453,-0.5527499914169312,0.5615500211715698
1780564151848577800,12.686577880859376,1.6554999351501465,-0.4020499885082245,0.4003999829292297
1780564151868097500,12.70609765625,1.1379499435424805,-0.2209624946117401,0.2248124927282333
1780564151887620900,12.725620849609374,0.4796000123023987,0.0558249987661838,0.0247499998658895
1780564151907142700,12.745142578125,-0.3183124959468841,0.4217124879360199,-0.1929125040769577
1780564151926657500,12.764657470703124,-1.1241999864578247,0.7921375036239624,-0.4003999829292297
1780564151946170600,12.784170654296876,-1.7392375469207764,1.009524941444397,-0.5678749680519104
1780564151965686800,12.803686767578125,-2.027024984359741,0.9565874934196472,-0.6756749749183655
1780564151985202200,12.8232021484375,-2.0136873722076416,0.6990500092506409,-0.7170624732971191
1780564152004716800,12.842716796875,-1.881412506103516,0.4252874851226806,-0.7130749821662903
1780564152024235000,12.862235107421874,-1.7716875076293943,0.2518999874591827,-0.6939625144004822
1780564152043753200,12.881753173828123,-1.7408875226974487,0.1986874938011169,-0.6971250176429749
1780564152063275500,12.901275634765623,-1.802212476730347,0.2209624946117401,-0.7518500089645386
1780564152082796300,12.92079638671875,-1.9222500324249268,0.2222000062465667,-0.8464499711990356
1780564152102314500,12.940314453125,-2.05507493019104,0.1454750001430511,-0.9436625242233276
1780564152121832700,12.959832763671876,-2.1850125789642334,0.0277750007808208,-1.0306999683380127
1780564152141349000,12.97934912109375,-2.378200054168701,0.0075624999590218,-1.1635249853134155
1780564152160866000,12.998865966796876,-2.6786375045776367,0.1681624948978424,-1.3934249877929688
1780564152180380700,13.018380615234374,-2.990900039672852,0.2678500115871429,-1.570525050163269
1780564152199896000,13.03789599609375,-3.168412446975708,0.3286249935626983,-1.7070624828338623
1780564152219414500,13.05741455078125,-3.1620874404907227,0.3911874890327453,-1.8193999528884888
1780564152238931200,13.07693115234375,-3.0614373683929443,0.3121249973773956,-1.8100500106811523
1780564152258446300,13.0964462890625,-2.9635374546051025,0.1996500045061111,-1.7597249746322632
1780564152277962500,13.11596240234375,-2.8663249015808105,0.077962502837181,-1.6886374950408936
1780564152297481000,13.13548095703125,-2.7447750568389893,-0.0552750006318092,-1.605312466621399
1780564152317000000,13.155,-2.621712446212769,-0.1603250056505203,-1.568737506866455
1780564152336515800,13.174515869140626,-2.527662515640259,-0.1948374956846237,-1.6369374990463257
1780564152356029200,13.194029296875,-2.438425064086914,-0.1780624985694885,-1.7701749801635742
1780564152375541000,13.213541015625,-2.296525001525879,-0.1704999953508377,-1.844562530517578
1780564152395054600,13.2330546875,-2.074462413787842,-0.2084500044584274,-1.7638499736785889
1780564152414566700,13.252566650390625,-1.795199990272522,-0.2804999947547912,-1.5404125452041626
1780564152434076000,13.272075927734376,-1.5215749740600586,-0.3338499963283539,-1.3010250329971311
1780564152453596000,13.291595947265623,-1.3238500356674194,-0.304562509059906,-1.211787462234497
1780564152473119500,13.311119384765624,-1.2291125059127808,-0.1736624985933303,-1.3486000299453735
1780564152492635400,13.330635498046876,-1.2291125059127808,-0.1736624985933303,-1.3486000299453735
1780564152512150000,13.35014990234375,-1.2009249925613403,0.0075624999590218,-1.633912444114685
1780564152531668700,13.369668701171875,-1.1290124654769895,0.2290749996900558,-2.111449956893921
1780564152551186000,13.38918603515625,-1.1290124654769895,0.2290749996900558,-2.111449956893921
1780564152570699500,13.408699462890626,-0.940500020980835,0.2062499970197677,-2.1872124671936035
1780564152590216400,13.428216552734376,-0.940500020980835,0.2062499970197677,-2.1872124671936035
1780564152609734700,13.447734619140626,-0.940500020980835,0.2062499970197677,-2.1872124671936035
1780564152629253000,13.467253173828125,-0.6382749676704407,0.1344749927520752,-1.915237545967102
1780564152648769800,13.486769775390623,-0.3817000091075897,0.0492249988019466,-1.6020125150680542
1780564152668286700,13.50628662109375,-0.0666875019669532,-0.0698499977588653,-1.2711875438690186
1780564152687802000,13.525802001953124,0.2228875011205673,-0.1560624986886978,-1.142762541770935
1780564152707313700,13.545313720703126,0.4169000089168548,-0.1464374959468841,-1.3290749788284302
1780564152726830000,13.564830078125,0.5112249851226807,-0.0567874982953071,-1.6201624870300293
1780564152746348000,13.58434814453125,0.5285499691963196,0.0317624993622303,-1.5925250053405762
1780564152765862100,13.603862060546875,0.492249995470047,0.0541750006377697,-1.0566874742507937
1780564152785373400,13.62337353515625,0.4512749910354614,-0.0039874999783933,-0.2216500043869018
1780564152804885200,13.64288525390625,0.4422000050544739,-0.0917124971747398,0.4640625119209289
1780564152824396500,13.662396484375,0.4179999828338623,-0.1031249985098838,0.6193000078201294
1780564152843908600,13.68190869140625,0.2991999983787536,0.0290124993771314,0.1979999989271164
1780564152863428600,13.7014287109375,0.0735625028610229,0.2798124849796295,-0.5831375122070312
1780564152882947600,13.720947509765624,-0.1867250055074691,0.5574250221252441,-1.427799940109253
1780564152902464500,13.740464599609377,-0.3449875116348266,0.7343875169754028,-2.058924913406372
1780564152921980000,13.75997998046875,-0.2946625053882599,0.6997374892234802,-2.202475070953369
1780564152941493200,13.7794931640625,-0.0450999997556209,0.4354625046253204,-1.717924952507019
1780564152961008600,13.799008544921875,0.2976875007152557,0.0450999997556209,-0.8023124933242798
1780564152980523800,13.818523681640626,0.6036249995231628,-0.3235374987125397,0.1520749926567077
1780564153000037000,13.838037109375,0.7921375036239624,-0.5692499876022339,0.8317375183105469
1780564153019549400,13.857549560546875,0.8394374847412109,-0.6608250141143799,1.1383625268936155
1780564153039059200,13.87705908203125,0.7646374702453613,-0.6327750086784363,1.1554124355316162
1780564153058568000,13.89656787109375,0.6191624999046326,-0.5581125020980835,1.0469249486923218
1780564153078081000,13.9160810546875,0.4575999975204468,-0.5020124912261963,0.9714375138282776
1780564153097600000,13.93560009765625,0.3156999945640564,-0.4956874847412109,1.0124125480651855
1780564153117120500,13.95512060546875,0.2059749960899353,-0.5398250222206116,1.1665500402450562
1780564153136636000,13.974635986328124,0.1252624988555908,-0.6095374822616577,1.363724946975708
1780564153156149500,13.9941494140625,0.0577500015497207,-0.6505125164985657,1.4935250282287598
1780564153175666000,14.013666015625,-0.0163624994456768,-0.6102250218391418,1.4614875316619873
1780564153195185400,14.033185302734376,-0.1067000031471252,-0.4890874922275543,1.2524875402450562
1780564153214704600,14.05270458984375,-0.2062499970197677,-0.3334375023841858,0.9275749921798706
1780564153234220300,14.07222021484375,-0.295074999332428,-0.2008875012397766,0.5841000080108643
1780564153253735000,14.09173486328125,-0.3486999869346618,-0.1493249982595443,0.332749992609024
1780564153273249800,14.111249755859374,-0.3533749878406524,-0.20762500166893,0.2404875010251999
1780564153292765000,14.130764892578124,-0.3225750029087066,-0.3247750103473663,0.2473624944686889
1780564153312282600,14.15028271484375,-0.3225750029087066,-0.3247750103473663,0.2473624944686889
1780564153331801300,14.16980126953125,-0.2890250086784363,-0.3907749950885772,0.1878249943256378
1780564153351317000,14.18931689453125,-0.2780250012874603,-0.3455374836921692,-0.1068374961614608
1780564153370828800,14.208828857421874,-0.2795374989509582,-0.1665125042200088,-1.3451625108718872
1780564153390338800,14.2283388671875,-0.2795374989509582,-0.1665125042200088,-1.3451625108718872
1780564153409852000,14.247851806640623,-0.2124374955892563,-0.1951124966144561,-2.2609124183654785
1780564153429363700,14.26736376953125,-0.2124374955892563,-0.1951124966144561,-2.2609124183654785
1780564153448876000,14.2868759765625,-0.1820500046014785,-0.1904374957084655,-2.442962408065796
1780564153468391700,14.3063916015625,-0.1649999916553497,-0.1190750002861023,-2.5532374382019043
1780564153487903700,14.32590380859375,-0.1688500046730041,-0.0005499999970197,-2.581287384033203
1780564153507416800,14.345416748046874,-0.2079000025987625,0.1218250021338462,-2.424124956130981
1780564153526934500,14.3649345703125,-0.2915000021457672,0.2191749960184097,-2.0054373741149902
1780564153546449400,14.384449462890624,-0.4049375057220459,0.2820124924182892,-1.3253624439239502
1780564153565963500,14.403963623046875,-0.5124624967575073,0.304562509059906,-0.4450874924659729
1780564153585477600,14.4234775390625,-0.5730999708175659,0.2980999946594238,0.4817999899387359
1780564153604990500,14.442990478515624,-0.56045001745224,0.3027749955654144,1.2656874656677246
1780564153624503600,14.462503662109375,-0.4806999862194061,0.3486999869346618,1.795199990272522
1780564153644017000,14.482016845703123,-0.3569499850273132,0.4093374907970428,2.146237373352051
1780564153663527200,14.501527099609374,-0.2046000063419342,0.4345000088214874,2.4634499549865723
1780564153683036200,14.5210361328125,-0.0328624993562698,0.4192374944686889,2.764162540435791
1780564153702548000,14.5405478515625,0.1471250057220459,0.3969624936580658,2.970412492752075
1780564153722063000,14.56006298828125,0.3366000056266784,0.3707000017166137,3.0669374465942383
1780564153741578000,14.579577880859375,0.5495874881744385,0.3102000057697296,3.124274969100952
1780564153761091600,14.599091552734375,0.765874981880188,0.2364999949932098,3.1279873847961426
1780564153780607700,14.618607666015626,0.9085999727249146,0.2392500042915344,2.9265499114990234
1780564153800126000,14.6381259765625,0.8923749923706055,0.4032875001430511,2.3773748874664307
1780564153819644400,14.65764453125,0.6956124901771545,0.7398874759674072,1.4990249872207642
1780564153839163400,14.677163330078123,0.37950000166893,1.1871750354766846,0.4648874998092651
1780564153858681000,14.69668115234375,0.0648999959230423,1.628137469291687,-0.4801499843597412
1780564153878195000,14.71619482421875,-0.1233374997973442,1.9292625188827517,-1.1141624450683594
1780564153897710300,14.73571044921875,-0.1559250056743621,2.060575008392334,-1.3937000036239624
1780564153917227500,14.7552275390625,-0.0338249988853931,2.0263373851776123,-1.3209625482559204
1780564153936743400,14.774743408203124,0.3359124958515167,1.711050033569336,-0.7699999809265137
1780564153956261000,14.79426123046875,1.1222749948501587,0.9305999875068665,0.37950000166893
1780564153975779300,14.813779296875,2.410787582397461,-0.3558500111103058,2.030737400054932
1780564153995295200,14.833295166015626,4.11908769607544,-1.9948500394821167,3.8898749351501465
1780564154014817000,14.852817138671876,6.217337608337402,-3.921637535095215,5.783937454223633
1780564154034341000,14.872341064453124,7.765587329864502,-5.54661226272583,6.907862663269043
1780564154053861400,14.891861328125,8.524312019348145,-6.137862682342529,7.159487247467041
1780564154073378300,14.91137841796875,7.938562393188477,-5.4058122634887695,6.319362640380859
1780564154092898300,14.930898193359376,6.646200180053711,-4.057762622833252,5.038962364196777
1780564154112420600,14.950420654296876,5.501924991607666,-2.7820374965667725,3.908849954605103
1780564154131945200,14.9699453125,4.420762538909912,-1.841125011444092,2.972475051879883
1780564154151471600,14.9894716796875,3.741649866104126,-1.2963500022888184,2.3406624794006348
1780564154170998800,15.008998779296874,3.741649866104126,-1.2963500022888184,2.3406624794006348
1780564154190526500,15.0285263671875,3.2381250858306885,-0.9437999725341796,1.8675249814987185
1780564154210049800,15.0480498046875,2.1245124340057373,-0.2217874974012375,1.0223125219345093
1780564154229569500,15.067569580078125,2.1245124340057373,-0.2217874974012375,1.0223125219345093
1780564154249091300,15.08709130859375,1.5786374807357788,0.1155000030994415,0.6539499759674072
1780564154268612600,15.106612548828124,1.109624981880188,0.3873375058174133,0.355162501335144
1780564154288132400,15.12613232421875,0.6355249881744385,0.6722375154495239,0.1138499975204467
1780564154307652600,15.145652587890623,0.0903374999761581,1.031112551689148,-0.0808499976992607
1780564154327171300,15.16517138671875,-0.4237749874591827,1.3704625368118286,-0.2083124965429306
1780564154346692600,15.184692626953124,-0.7495124936103821,1.5427500009536743,-0.2523125112056732
1780564154366220500,15.204220458984375,-0.8841249942779541,1.5427500009536743,-0.243925005197525
1780564154385748500,15.22374853515625,-0.9147874712944032,1.4510375261306765,-0.225500002503395
1780564154405272800,15.24327294921875,-0.9021375179290771,1.3220624923706057,-0.2113374918699264
1780564154424795100,15.262795166015623,-0.8960874676704407,1.198449969291687,-0.1967625021934509
1780564154444316200,15.282316162109376,-0.9399499893188475,1.1178749799728394,-0.1783374994993209
1780564154463839000,15.3018388671875,-1.041837453842163,1.0865249633789062,-0.1626625061035156
1780564154483359700,15.32135986328125,-1.1496374607086182,1.0555875301361084,-0.1583999991416931
1780564154502879500,15.34087939453125,-1.2289749383926392,0.9908249974250792,-0.1740749925374984
1780564154522400000,15.36039990234375,-1.324125051498413,0.9283999800682068,-0.2186249941587448
1780564154541924000,15.379924072265624,-1.4746874570846558,0.9040625095367432,-0.2949374914169311
1780564154561450800,15.39945068359375,-1.6567374467849731,0.8981499671936035,-0.3994374871253967
1780564154580977400,15.418977294921875,-1.9217000007629397,0.962499976158142,-0.5637499690055847
1780564154600499700,15.438499755859375,-2.4939749240875244,1.3237124681472778,-0.8718875050544739
1780564154620017200,15.45801708984375,-3.4935998916625977,2.1401875019073486,-1.3633124828338623
1780564154639538000,15.477537841796876,-4.4827752113342285,3.039299964904785,-1.86395001411438
1780564154659057000,15.497056884765623,-4.67912483215332,3.2576498985290527,-2.0376124382019043
1780564154678573600,15.516573486328124,-3.966462373733521,2.6147000789642334,-1.7796624898910522
1780564154698095400,15.536095458984375,-2.984712600708008,1.6938624382019043,-1.3264625072479248
1780564154717614600,15.555614501953125,-2.2512874603271484,1.0036125183105469,-0.9288125038146972
1780564154737133800,15.5751337890625,-1.8539124727249143,0.6268625259399414,-0.6642624735832214
1780564154756656000,15.59465625,-1.6656750440597534,0.4266625046730041,-0.4919750094413757
1780564154776176000,15.614176025390623,-1.5404125452041626,0.2546499967575073,-0.3407250046730041
1780564154795694600,15.633694580078124,-1.3821499347686768,0.0174624994397163,-0.1571625024080276
1780564154815216000,15.653216064453124,-1.182224988937378,-0.2934249937534332,0.0580249987542629
1780564154834737400,15.6727373046875,-0.9998999834060668,-0.6182000041007996,0.2528625130653381
1780564154854255000,15.692255126953125,-0.91382497549057,-0.865975022315979,0.3526875078678131
1780564154873773300,15.711773193359376,-0.9513624906539916,-0.9807875156402588,0.317487508058548
1780564154893294000,15.731294189453124,-1.0576499700546265,-0.989175021648407,0.1788875013589859
1780564154912815600,15.750815673828123,-1.1684750318527222,-0.9512249827384948,-0.0015124999918043
1780564154932334800,15.7703349609375,-1.2648625373840332,-0.906125009059906,-0.1836999952793121
1780564154951854000,15.78985400390625,-1.3723875284194946,-0.8481000065803528,-0.3770250082015991
1780564154971370500,15.80937060546875,-1.3723875284194946,-0.8481000065803528,-0.3770250082015991
1780564154990884900,15.828884765625,-1.5255625247955322,-0.7418124675750732,-0.631262481212616
1780564155010399000,15.84839892578125,-1.7239749431610107,-0.5587999820709229,-0.9986624717712402
1780564155029912300,15.867912353515624,-1.7239749431610107,-0.5587999820709229,-0.9986624717712402
1780564155049429000,15.887428955078123,-1.9857749938964844,-0.0695749968290329,-1.8979125022888184
1780564155068947500,15.906947509765626,-1.858449935913086,0.0636624991893768,-2.0809249877929688
1780564155088463600,15.926463623046876,-1.5710749626159668,0.0668250024318695,-1.9722999334335327
1780564155107978500,15.945978515625,-1.2326874732971191,-0.004674999974668,-1.6945500373840332
1780564155127493000,15.9654931640625,-0.9350000023841858,-0.0827749967575073,-1.4049749374389648
1780564155147008000,15.985008056640623,-0.694237470626831,-0.1473999917507171,-1.1543124914169312
1780564155166523100,16.004523193359375,-0.4816625118255615,-0.2261874973773956,-0.916712522506714
1780564155186039000,16.0240390625,-0.310337483882904,-0.3240875005722046,-0.7566624879837036
1780564155205556700,16.043556640625,-0.232924997806549,-0.3925625085830688,-0.8324249982833862
1780564155225070300,16.0630703125,-0.2578125,-0.3781250119209289,-1.2200374603271484
1780564155244584200,16.082584228515625,-0.3167999982833862,-0.2833875119686126,-1.803725004196167
1780564155264100600,16.1021005859375,-0.3313750028610229,-0.1639000028371811,-2.358949899673462
1780564155283615700,16.12161572265625,-0.2952125072479248,-0.0510125011205673,-2.779562473297119
1780564155303128600,16.141128662109374,-0.2539624869823456,0.0710875019431114,-3.15521240234375
1780564155322641400,16.160641357421873,-0.2287999987602234,0.214087501168251,-3.6176249980926514
1780564155342160400,16.180160400390626,-0.1874125003814697,0.3414124846458435,-4.1457624435424805
1780564155361683000,16.199682861328125,-0.0830499976873397,0.3705624938011169,-4.461187362670898
1780564155381203500,16.219203369140626,0.0775500014424324,0.2521750032901764,-4.20502519607544
1780564155400721200,16.23872119140625,0.2407625019550323,0.0247499998658895,-3.3182873725891118
1780564155420244200,16.258244140625,0.3651999831199646,-0.238425001502037,-2.0395374298095703
1780564155439766000,16.27776611328125,0.4360125064849853,-0.4809750020503998,-0.6755374670028687
1780564155459283200,16.297283203125,0.4478375017642975,-0.6615124940872192,0.5131499767303467
1780564155478801000,16.31680078125,0.3917374908924103,-0.7486875057220459,1.3593250513076782
1780564155498316000,16.33631591796875,0.2622124850749969,-0.7302625179290771,1.7935500144958496
1780564155517832000,16.35583203125,0.0759000033140182,-0.6275500059127808,1.887874960899353
1780564155537345300,16.37534521484375,-0.1227874979376792,-0.4864749908447265,1.809499979019165
1780564155556855600,16.39485546875,-0.2747249901294708,-0.3735874891281128,1.78172504901886
1780564155576371500,16.414371337890625,-0.3283500075340271,-0.3569499850273132,2.01134991645813
1780564155595889400,16.433889404296874,-0.2663374841213226,-0.4486624896526336,2.5088250637054443
1780564155615405000,16.453405029296874,-0.1211374998092651,-0.5809375047683716,3.055799961090088
1780564155634924500,16.472924560546875,0.0233750008046627,-0.6500999927520752,3.328325033187866
1780564155654447600,16.492447509765626,0.0941874980926513,-0.6267250180244446,3.1783125400543213
1780564155673968600,16.51196875,0.0874499976634979,-0.5682874917984009,2.735837459564209
1780564155693487600,16.531487548828125,0.0474375002086162,-0.5284125208854675,2.2239248752593994
1780564155713005300,16.55100537109375,0.040837500244379,-0.5354250073432922,1.880037546157837
1780564155732526600,16.570526611328123,0.040837500244379,-0.5354250073432922,1.880037546157837
1780564155752052000,16.590052001953126,0.1164624989032745,-0.6045874953269958,1.8460749387741089
1780564155771576600,16.60957666015625,0.3525499999523163,-0.8375124931335449,1.966524958610535
1780564155791096800,16.629096923828126,0.2866874933242798,-0.7998374700546265,1.2949750423431396
1780564155810613500,16.648613525390626,0.2866874933242798,-0.7998374700546265,1.2949750423431396
1780564155830127600,16.668127685546875,-0.214087501168251,-0.0694374963641166,-1.844562530517578
1780564155849638700,16.687638671875,-0.214087501168251,-0.0694374963641166,-1.844562530517578
1780564155869149400,16.7071494140625,-0.3843125104904175,0.48785001039505,-3.847112417221069
1780564155888660000,16.726659912109376,-0.3306874930858612,0.8863250017166138,-5.545650005340576
1780564155908171500,16.746171630859376,-0.1017500013113021,0.9304624795913696,-6.295024871826172
1780564155927687400,16.7656875,0.1197625026106834,0.6847500205039978,-5.940412521362305
1780564155947207000,16.78520703125,0.2239875048398971,0.4417875111103058,-4.9902873039245605
1780564155966725400,16.804725341796875,0.2188999950885772,0.2732124924659729,-3.9916250705718994
1780564155986241000,16.824240966796875,0.1380500048398971,0.1480875015258789,-3.160987377166748
1780564156005757400,16.84375732421875,0.0039874999783933,0.1204499974846839,-2.526562452316284
1780564156025272600,16.8632724609375,-0.1616999953985214,0.1633500009775161,-2.060712575912476
1780564156044789800,16.882789794921877,-0.3396250009536743,0.2675749957561493,-1.6773624420166016
1780564156064308700,16.902308837890626,-0.5240125060081482,0.4197874963283539,-1.2265000343322754
1780564156083828500,16.921828369140623,-0.7059249877929688,0.5945500135421753,-0.5942749977111816
1780564156103349800,16.941349853515625,-0.854699969291687,0.7634000182151794,0.2402125000953674
1780564156122872300,16.960872314453123,-0.9266124963760376,0.8879749774932861,1.254824995994568
1780564156142391300,16.980391357421876,-0.8782125115394592,0.9000750184059143,2.493837594985962
1780564156161908000,16.999907958984377,-0.6545000076293945,0.7195374965667725,4.0390625
1780564156181428000,17.019427978515626,-0.2146375030279159,0.3503499925136566,5.738287448883057
1780564156200951600,17.03895166015625,0.3664374947547912,-0.0435874983668327,6.717012405395508
1780564156220469500,17.058469482421874,0.8866000175476074,-0.2634499967098236,7.086337566375732
1780564156239978000,17.07797802734375,1.1650375127792358,-0.2646875083446502,6.591750144958496
1780564156259490800,17.09749072265625,1.1618750095367432,-0.142037495970726,5.725774765014648
1780564156279006200,17.117006103515624,0.9553499817848206,0.0086624994874,4.319699764251709
1780564156298523100,17.136523193359373,0.6792500019073486,0.1537249982357025,3.0204625129699707
1780564156318044200,17.156044189453127,0.4413749873638153,0.2941125035285949,1.9645999670028689
1780564156337566700,17.175566650390625,0.3029125034809112,0.4092000126838684,1.2123374938964844
1780564156357088300,17.195088134765626,0.2799499928951263,0.4736874997615814,0.768762469291687
1780564156376607500,17.214607421875,0.3150124847888946,0.5299249887466431,0.5106750130653381
1780564156396127000,17.234126953125,0.3023625016212463,0.6854375004768372,0.2237125039100647
1780564156415645000,17.25364501953125,0.1750375032424926,1.016124963760376,-0.231000006198883
1780564156435160800,17.273160888671875,-0.0261249989271163,1.470975041389465,-0.7907624840736389
1780564156454678000,17.292677978515623,-0.2604250013828277,1.969825029373169,-1.3804999589920044
1780564156474198300,17.3121982421875,-0.6017000079154968,2.5396249294281006,-2.095637559890747
1780564156493718500,17.331718505859374,-1.0048500299453735,3.145312547683716,-2.8956124782562256
1780564156513235500,17.3512353515625,-1.2357125282287598,3.5908124446868896,-3.4897499084472656
1780564156532753000,17.3707529296875,-1.1098999977111816,3.690224885940552,-3.592737436294556
1780564156552277000,17.390277099609374,-1.1098999977111816,3.690224885940552,-3.592737436294556
1780564156571809800,17.409809814453126,-0.5483499765396118,3.2976624965667725,-3.0233500003814697
1780564156591331800,17.429331787109376,3.3973500728607178,-0.9389874935150146,1.228700041770935
1780564156610848500,17.4488486328125,7.447824954986572,-5.465762615203857,4.702499866485596
1780564156630369800,17.468369873046875,7.447824954986572,-5.465762615203857,4.702499866485596
1780564156649891000,17.48789111328125,7.447824954986572,-5.465762615203857,4.702499866485596
1780564156669414400,17.507414306640626,11.34223747253418,-9.393037796020508,7.1574249267578125
1780564156688938500,17.5269384765625,10.20126247406006,-8.100262641906738,6.168112277984619
1780564156708463600,17.546463623046876,8.397262573242188,-6.2056498527526855,4.855949878692627
1780564156727989200,17.5659892578125,6.452187538146973,-4.249849796295166,3.5818750858306885
1780564156747513900,17.585513916015625,4.792150020599365,-2.534674882888794,2.537837505340576
1780564156767040500,17.60504052734375,3.1833999156951904,-1.0698875188827517,1.700600028038025
1780564156786564000,17.624564208984374,1.899287462234497,0.0955625027418136,1.0807499885559082
1780564156806082800,17.644082763671875,0.9143750071525574,0.9674500226974488,0.6253499984741211
1780564156825602300,17.663602294921876,0.1559250056743621,1.600499987602234,0.2694999873638153
1780564156845119000,17.683118896484373,-0.521262526512146,2.1414248943328857,-0.0325874984264373
1780564156864634400,17.70263427734375,-1.2651374340057373,2.754812479019165,-0.2892999947071075
1780564156884150500,17.722150634765626,-2.1108999252319336,3.4942874908447266,-0.4841375052928924
1780564156903663900,17.741663818359374,-2.945937395095825,4.256862640380859,-0.6065124869346619
1780564156923176200,17.76117626953125,-3.588474988937378,4.858287334442139,-0.6594499945640564
1780564156942695400,17.7806953125,-3.87681245803833,5.118575096130371,-0.649275004863739
1780564156962215400,17.80021533203125,-3.694624900817871,4.885924816131592,-0.5841000080108643
1780564156981733400,17.8197333984375,-3.003962516784668,4.0880126953125,-0.4647499918937683
1780564157001256200,17.839256103515623,-1.9320124387741089,2.8496875762939453,-0.2963125109672546
1780564157020780000,17.858780029296874,-0.784850001335144,1.511812448501587,-0.11302500218153
1780564157040301800,17.8783017578125,0.0961124971508979,0.443987488746643,0.034375000745058
1780564157059823000,17.897822998046873,0.5373499989509583,-0.1821874976158142,0.1090374961495399
1780564157079342800,17.9173427734375,0.5582500100135803,-0.3977875113487243,0.1006499975919723
1780564157098864600,17.93686474609375,0.2675749957561493,-0.3082749843597412,0.0233750008046627
1780564157118386200,17.95638623046875,-0.0419375002384185,-0.1871374994516372,-0.063799999654293
1780564157137904600,17.975904541015623,0.1035374999046325,-0.4980250000953674,-0.0576125010848045
1780564157157425400,17.99542529296875,0.9314249753952026,-1.469050049781799,0.1062875017523765
1780564157176948500,18.014948486328127,2.018087387084961,-2.6728625297546387,0.3643749952316284
1780564157196473600,18.0344736328125,2.599299907684326,-3.3642125129699707,0.5513749718666077
1780564157215997700,18.053997802734376,2.348362445831299,-3.2516000270843506,0.5444999933242798
1780564157235523300,18.0735234375,1.5248750448226929,-2.581700086593628,0.3525499999523163
1780564157255050800,18.09305078125,0.5153499841690063,-1.6869875192642212,0.0705375000834465
1780564157274573800,18.11257373046875,-0.3990249931812286,-0.810699999332428,-0.1978625059127807
1780564157294093800,18.13209375,-1.0707124471664429,-0.1095874980092048,-0.3873375058174133
1780564157313616100,18.1516162109375,-1.463412523269653,0.3372874855995178,-0.4740999937057495
1780564157333138700,18.171138671875,-1.6398249864578247,0.5489000082015991,-0.4786374866962433
1780564157352659000,18.190658935546875,-1.7755374908447266,0.67044997215271,-0.4846875071525574
1780564157372183800,18.210183837890625,-2.053287506103516,0.8731250166893005,-0.5905625224113464
1780564157391708700,18.229708740234376,-2.053287506103516,0.8731250166893005,-0.5905625224113464
1780564157411230700,18.249230712890625,-2.505800008773804,1.2007875442504885,-0.8225250244140625
1780564157430752500,18.26875244140625,-2.9676625728607178,1.5195125341415403,-1.101099967956543
1780564157450274600,18.288274658203125,-3.222174882888794,1.653849959373474,-1.309000015258789
1780564157469800200,18.30780029296875,-3.222174882888794,1.653849959373474,-1.309000015258789
1780564157489322500,18.327322509765622,-2.9458000659942627,1.342687487602234,-1.360562443733215
1780564157508842200,18.34684228515625,-2.491499900817871,1.0125499963760376,-1.1735625267028809
1780564157528369200,18.366369140625,-1.951812505722046,0.6520249843597412,-0.8710625171661377
1780564157547893200,18.38589331054688,-1.4661624431610107,0.3374249935150146,-0.5409250259399414
1780564157567412500,18.40541259765625,-1.172600030899048,0.1181124970316886,-0.2931500077247619
1780564157586934300,18.42493432617188,-1.1694375276565552,-0.0108624994754791,-0.2098249942064285
1780564157606454800,18.444454833984373,-1.4885749816894531,-0.0519750006496906,-0.3510375022888183
1780564157625975300,18.463975341796875,-2.06098747253418,0.0009624999947845,-0.731362521648407
1780564157645496600,18.48349658203125,-2.7325375080108643,0.1391499936580658,-1.299787521362305
1780564157665016600,18.5030166015625,-3.3571999073028564,0.3565374910831451,-1.9867374897003172
1780564157684535800,18.522535888671875,-3.8300623893737793,0.6410250067710876,-2.714524984359741
1780564157704058000,18.54205810546875,-4.050887584686279,0.9355499744415284,-3.3501875400543213
1780564157723580400,18.561580322265623,-3.967562437057495,1.1402875185012815,-3.737387418746948
1780564157743101200,18.58110107421875,-3.611437559127808,1.1734249591827393,-3.783999919891357
1780564157762625000,18.600625,-3.0648748874664307,1.0106250047683716,-3.490025043487549
1780564157782153200,18.6201533203125,-2.429762601852417,0.6976749897003174,-2.93149995803833
1780564157801682400,18.639682373046877,-1.8044124841690063,0.3338499963283539,-2.2431750297546387
1780564157821213200,18.659213134765626,-1.2610124349594116,0.0116875004023313,-1.5647499561309814
1780564157840742400,18.678742431640625,-0.8350374698638916,-0.2304500043392181,-0.9861499667167664
1780564157860265500,18.69826538085937,-0.5376250147819519,-0.3982000052928924,-0.5508249998092651
1780564157879788300,18.717788330078125,-0.3613499999046325,-0.5135625004768372,-0.2586374878883362
1780564157899310000,18.73731005859375,-0.2844874858856201,-0.5963374972343445,-0.0759000033140182
1780564157918830300,18.756830322265625,-0.2861374914646148,-0.645562469959259,0.0266750007867813
1780564157938355700,18.776355712890624,-0.3477374911308288,-0.6441875100135803,0.0532125011086463
1780564157957880800,18.795880859375,-0.4351874887943268,-0.5985375046730042,0.032999999821186
1780564157977407200,18.8154072265625,-0.4923875033855438,-0.5561875104904175,0.0618750005960464
1780564157996934700,18.8349345703125,-0.4824874997138977,-0.5406500101089478,0.1964875012636184
1780564158016452400,18.854452392578125,-0.4174500107765198,-0.5182374715805054,0.370012491941452
1780564158035968000,18.873968017578125,-0.3339875042438507,-0.4523749947547912,0.4697000086307525
1780564158055490300,18.893490234375,-0.2563000023365021,-0.3540624976158142,0.4427500069141388
1780564158075012600,18.9130126953125,-0.18521249294281,-0.2641375064849853,0.3122625052928924
1780564158094532900,18.93253295898437,-0.1131625026464462,-0.2054249942302703,0.118937499821186
1780564158114049800,18.9520498046875,-0.0288750007748603,-0.1919499933719635,-0.0736999958753585
1780564158133565200,18.97156518554688,0.0749375000596046,-0.2375999987125396,-0.1915374994277954
1780564158153082400,18.991082275390625,0.189750000834465,-0.3321999907493591,-0.2105125039815902
1780564158172597200,19.01059716796875,0.189750000834465,-0.3321999907493591,-0.2105125039815902
1780564158192114400,19.030114501953125,0.2972750067710876,-0.4409624934196472,-0.1615625023841858
1780564158211637000,19.049636962890624,0.3863750100135803,-0.5242875218391418,-0.0855249986052513
1780564158231159800,19.06915991210937,0.4588375091552734,-0.559487521648407,0.0038499999791383
1780564158250683100,19.08868310546875,0.5201625227928162,-0.5444999933242798,0.1187999993562698
1780564158270203400,19.108203369140625,0.5201625227928162,-0.5444999933242798,0.1187999993562698
1780564158289729300,19.12772924804688,0.5724124908447266,-0.4118124842643738,0.2854500114917755
1780564158309256400,19.14725634765625,0.4905999898910522,-0.2697750031948089,-0.0563750006258487
1780564158328777500,19.166777587890625,0.3290374875068664,-0.0886875018477439,-0.7548750042915344
1780564158348299300,19.18629931640625,0.134612500667572,0.0805749967694282,-1.5613124370574951
1780564158367819800,19.20581982421875,-0.0353375002741813,0.1966249942779541,-2.19807505607605
1780564158387337000,19.2253369140625,-0.1230624988675117,0.2348500043153762,-2.4881999492645264
1780564158406850300,19.24485034179688,-0.0812624990940094,0.152487501502037,-2.2030251026153564
1780564158426363100,19.264363037109376,0.0742499977350235,-0.0677874982357025,-1.2395625114440918
1780564158445882600,19.28388256835937,0.2838000059127807,-0.381424993276596,0.1049124971032142
1780564158465404400,19.303404296875,0.478362500667572,-0.6832374930381775,1.2764124870300293
1780564158484928800,19.3229287109375,0.5883625149726868,-0.8350374698638916,1.8137625455856323
1780564158504450000,19.34244995117188,0.5788750052452087,-0.7588624954223633,1.6501375436782837
1780564158523971800,19.36197192382813,0.4827624857425689,-0.5153499841690063,1.13052499294281
1780564158543496400,19.381496337890624,0.3783999979496002,-0.2664749920368194,0.7541875243186951
1780564158563020800,19.401020751953126,0.3258749842643738,-0.1402499973773956,0.8049250245094299
1780564158582546700,19.420546630859373,0.3389374911785126,-0.1509750038385391,1.2256749868392944
1780564158602069000,19.440069091796875,0.3863750100135803,-0.2348500043153762,1.7524374723434448
1780564158621591300,19.45959130859375,0.4142875075340271,-0.3379749953746795,2.1593000888824463
1780564158641115000,19.479114990234372,0.3694624900817871,-0.4386250078678131,2.350837469100952
1780564158660636400,19.498636474609373,0.2259124964475631,-0.5087500214576721,2.314125061035156
1780564158680157200,19.5181572265625,0.0067374999634921,-0.5000874996185303,2.0536999702453613
1780564158699676200,19.53767626953125,-0.2213750034570694,-0.3928374946117401,1.6047624349594116
1780564158719193600,19.557193603515625,-0.3727625012397766,-0.2381500005722046,1.0994499921798706
1780564158738714000,19.57671411132813,-0.3980624973773956,-0.1148125007748603,0.7092249989509583
1780564158758237000,19.59623681640625,-0.3100624978542328,-0.0582999996840953,0.5110874772071838
1780564158777756000,19.615755859375,-0.1655499935150146,-0.050875000655651,0.4453625082969665
1780564158797272800,19.63527294921875,-0.0559624992311,-0.0318999998271465,0.3126749992370605
1780564158816789800,19.654789794921875,-0.0655874982476234,0.0666875019669532,-0.1024374961853027
1780564158836305400,19.674305419921875,-0.1995124965906143,0.2477750033140182,-0.8141375184059143
1780564158855825000,19.69382495117188,-0.3889875113964081,0.4460499882698059,-1.6417499780654907
1780564158875345000,19.71334497070313,-0.5590749979019165,0.6012874841690063,-2.4018499851226807
1780564158894866000,19.73286596679688,-0.6716874837875366,0.7060624957084656,-3.038337469100952
1780564158914389800,19.7523896484375,-0.7053750157356262,0.7590000033378601,-3.4971749782562256
1780564158933912600,19.77191259765625,-0.6495500206947327,0.7269625067710876,-3.576925039291382
1780564158953435600,19.791435546875,-0.5307499766349792,0.6154500246047974,-3.087562561035156
1780564158972955600,19.81095556640625,-0.3932499885559082,0.4943124949932098,-2.100724935531616
1780564158992474600,19.830474609375,-0.3932499885559082,0.4943124949932098,-2.100724935531616
1780564159011996200,19.84999609375,-0.1205874979496002,0.3720749914646148,0.3976500034332275
1780564159031516000,19.869515869140624,0.0334125012159347,0.3156999945640564,1.5934875011444092
1780564159051035000,19.889034912109373,0.2155999988317489,0.2263250052928924,2.659387588500977
1780564159070551600,19.908551513671878,0.2155999988317489,0.2263250052928924,2.659387588500977
1780564159090065000,19.92806494140625,0.2155999988317489,0.2263250052928924,2.659387588500977
1780564159109585400,19.94758544921875,0.6128374934196472,0.0109999999403953,4.116199970245361
1780564159129108500,19.9671083984375,0.849887490272522,-0.1193500012159347,4.6323747634887695
1780564159148628700,19.98662866210937,1.1544499397277832,-0.272112488746643,5.103037357330322
1780564159168146000,20.00614599609375,1.5047999620437622,-0.4061749875545501,5.412825107574463
1780564159187664100,20.0256640625,1.7690750360488892,-0.4313375055789947,5.263912677764893
1780564159207184400,20.045184326171874,1.7621999979019165,-0.2849000096321106,4.428599834442139
1780564159226700500,20.064700439453127,1.4257375001907349,-0.0137499999254941,3.050575017929077
1780564159246213400,20.08421337890625,0.890037477016449,0.2700499892234802,1.5265250205993652
1780564159265728000,20.10372802734375,0.3147374987602234,0.5054500102996826,0.1630750000476837
1780564159285244200,20.123244140625,-0.2414499968290329,0.7211874723434448,-0.9671750068664552
1780564159304757500,20.14275756835937,-0.774399995803833,0.9696499705314636,-1.9133124351501465
1780564159324269600,20.16226953125,-1.2533124685287476,1.2665125131607056,-2.7057249546051025
1780564159343784400,20.181784423828127,-1.6350125074386597,1.6032500267028809,-3.3378124237060547
1780564159363299600,20.201299560546875,-1.4170750379562378,1.4031875133514404,-3.813425064086914
1780564159382814200,20.220814208984372,-0.7954375147819519,0.7875999808311462,-4.118400096893311
1780564159402332700,20.24033276367188,-0.3796375095844269,0.3757874965667724,-4.228537559509277
1780564159421850000,20.25985009765625,-0.0746624991297721,0.0736999958753585,-4.154150009155273
1780564159441362400,20.279362548828125,0.1480875015258789,-0.146987497806549,-3.925625085830689
1780564159460881200,20.298881103515622,0.0677874982357025,0.1750375032424926,-3.5696375370025635
1780564159480404000,20.318404052734376,-0.1333750039339065,0.8105624914169312,-3.102137565612793
1780564159499921400,20.33792138671875,-0.0763124972581863,1.1188374757766724,-2.5345375537872314
1780564159519438300,20.357438232421877,0.1511124968528747,1.2226500511169434,-1.9214249849319456
1780564159538952000,20.376951904296877,0.4269374907016754,1.2425874471664429,-1.3572624921798706
1780564159558467000,20.396467041015622,0.6485875248908997,1.263487458229065,-0.9174000024795532
1780564159577989600,20.41598974609375,0.8094624876976013,1.2904374599456787,-0.5856124758720398
1780564159597513700,20.435513671875,1.001824975013733,1.238187551498413,-0.2534124851226806
1780564159617034000,20.45503393554688,1.3473625183105469,1.0025124549865725,0.1999250054359436
1780564159636548600,20.474548583984376,1.986462473869324,0.466949999332428,0.8588249683380127
1780564159656066300,20.49406640625,3.076974868774414,-0.5046250224113464,1.7342875003814695
1780564159675587600,20.51358764648437,4.751450061798096,-2.005712509155273,2.7495875358581543
1780564159695107800,20.53310791015625,6.529325008392334,-3.778637409210205,3.6284875869750977
1780564159714627000,20.552626953125,8.177675247192383,-5.285775184631348,4.172987461090088
1780564159734143000,20.57214306640625,9.117762565612791,-6.097987651824951,4.262912273406982
1780564159753654300,20.591654296875,9.278775215148926,-6.1940999031066895,3.987775087356568
1780564159773171200,20.61117114257813,8.839599609375,-4.838212490081787,3.003000020980835
1780564159792690000,20.63068994140625,8.839599609375,-4.838212490081787,3.003000020980835
1780564159812208400,20.65020849609375,8.037975311279297,-2.731987476348877,2.0772125720977783
1780564159831730400,20.66973046875,7.072312355041504,-1.9157874584198,1.749687433242798
1780564159851247000,20.6892470703125,6.333662509918213,-1.926650047302246,1.4060750007629397
1780564159870767000,20.70876708984375,4.065599918365479,-1.469050049781799,0.7188500165939331
1780564159890286000,20.7282861328125,4.065599918365479,-1.469050049781799,0.7188500165939331
1780564159909805800,20.747805908203127,1.9412249326705933,-0.5259374976158142,0.0793375000357627
1780564159929333200,20.76733325195313,1.9412249326705933,-0.5259374976158142,0.0793375000357627
1780564159948859400,20.786859375,1.1328624486923218,-0.0548624992370605,-0.0889625027775764
1780564159968382200,20.80638232421875,0.6553249955177307,0.2311374992132187,-0.1186624988913536
1780564159987907600,20.825907470703125,0.433537483215332,0.346637487411499,-0.0827749967575073
1780564160007438000,20.84543798828125,0.2690874934196472,0.4147000014781952,-0.0760374963283538
1780564160026971100,20.86497119140625,0.0034374999813735,0.5400999784469604,-0.1342000067234039
1780564160046503200,20.88450317382813,-0.4185499846935272,0.7367249727249146,-0.2345750033855438
1780564160066032400,20.904032470703125,-0.924412488937378,0.9158874750137328,-0.1951124966144561
1780564160085559800,20.923559814453125,-1.375825047492981,0.9858750104904176,-0.1857624948024749
1780564160105086700,20.943086669921875,-1.674612522125244,0.9350000023841858,-0.3348124921321869
1780564160124612900,20.96261279296875,-1.8704124689102173,0.8754624724388123,-0.4476999938488006
1780564160144138800,20.982138671875,-2.102375030517578,0.947237491607666,-0.5478000044822693
1780564160163665400,21.00166552734375,-2.399787425994873,1.166962504386902,-0.6480374932289124
1780564160183189200,21.02118920898437,-2.6384875774383545,1.4156999588012695,-0.7308124899864197
1780564160202715600,21.040715576171877,-2.658562421798706,1.52391254901886,-0.7572125196456909
1780564160222244400,21.060244384765625,-2.443099975585937,1.4236749410629272,-0.7081249952316284
1780564160241772800,21.079772705078124,-2.1791000366210938,1.2025749683380127,-0.633187472820282
1780564160261301200,21.09930126953125,-2.1005876064300537,1.0012749433517456,-0.6261749863624573
1780564160280830200,21.118830322265627,-2.325262546539306,0.9336249828338624,-0.767662525177002
1780564160300358700,21.13835864257813,-2.7993624210357666,1.039775013923645,-1.0793750286102295
1780564160319882200,21.15788232421875,-3.3411123752593994,1.2526249885559082,-1.4958624839782717
1780564160339407400,21.177407470703123,-3.7962374687194815,1.459149956703186,-1.9133124351501465
1780564160358922800,21.1969228515625,-4.118674755096436,1.597749948501587,-2.260362386703491
1780564160378433800,21.216433837890627,-4.339637279510498,1.700737476348877,-2.548562526702881
1780564160397951200,21.235951171875,-4.47397518157959,1.8045499324798584,-2.819575071334839
1780564160417467100,21.255467041015624,-4.460087299346924,1.8603750467300413,-3.040124893188477
1780564160436987600,21.274987548828125,-4.243662357330322,1.7936874628067017,-3.128949880599976
1780564160456514300,21.29451440429688,-3.869524955749512,1.6097124814987185,-3.072849988937378
1780564160476040700,21.314040771484372,-3.4405250549316406,1.3736250400543213,-2.936174869537353
1780564160495567600,21.333567626953126,-3.026512384414673,1.1241999864578247,-2.766225099563598
1780564160515095600,21.35309545898437,-2.64261245727539,0.8610249757766724,-2.548562526702881
1780564160534626000,21.3726259765625,-2.289099931716919,0.590149998664856,-2.2563750743865967
1780564160554158600,21.39215869140625,-1.982749938964844,0.3462249934673309,-1.906712532043457
1780564160573690600,21.41169067382813,-1.733875036239624,0.1564749926328659,-1.534500002861023
1780564160593222000,21.43122192382813,-1.5199249982833862,0.0004124999977648,-1.129562497138977
1780564160612747800,21.450747802734377,-1.3029500246047974,-0.1626625061035156,-0.6505125164985657
1780564160632276700,21.47027685546875,-1.068237543106079,-0.3405874967575073,-0.0995500013232231
1780564160651809800,21.489809814453125,-0.8365499973297119,-0.5026999711990356,0.4511374831199646
1780564160671341800,21.509341796875,-0.6421250104904175,-0.6199874877929688,0.9062625169754028
1780564160690870000,21.5288701171875,-0.6421250104904175,-0.6199874877929688,0.9062625169754028
1780564160710393600,21.5483935546875,-0.4453625082969665,-0.7211874723434448,1.3190374374389648
1780564160729917000,21.5679169921875,-0.4453625082969665,-0.7211874723434448,1.3190374374389648
1780564160749443800,21.58744384765625,-0.4503124952316284,-0.7042750120162964,1.252074956893921
1780564160768972500,21.60697265625,-0.4961000084877014,-0.6326375007629395,1.039775013923645
1780564160788497700,21.62649755859375,-0.5306124687194824,-0.5284125208854675,0.762024998664856
1780564160808022300,21.64602221679688,-0.5105375051498413,-0.4339500069618225,0.4934875071048736
1780564160827548700,21.66554858398437,-0.4324375092983246,-0.392425000667572,0.2722499966621399
1780564160847075300,21.68507543945313,-0.3202374875545501,-0.426800012588501,0.1077999994158744
1780564160866600200,21.70460009765625,-0.2048749923706054,-0.5256624817848206,-0.0166375003755092
1780564160886124300,21.724124267578127,-0.1308999955654144,-0.6197124719619751,-0.1923625022172927
1780564160905648400,21.7436484375,-0.134612500667572,-0.6209499835968018,-0.5297874808311462
1780564160925170400,21.76317041015625,-0.198137491941452,-0.522225022315979,-0.9964625239372252
1780564160944691700,21.782691650390625,-0.268262505531311,-0.403425008058548,-1.4192750453948977
1780564160964215800,21.8022158203125,-0.3099249899387359,-0.3429250121116638,-1.6473875045776367
1780564160983744000,21.82174389648437,-0.3268375098705292,-0.3445749878883362,-1.6743375062942505
1780564161003264500,21.84126440429688,-0.3341250121593475,-0.355162501335144,-1.5998125076293943
1780564161022779100,21.860779052734376,-0.3306874930858612,-0.3283500075340271,-1.5005375146865845
1780564161042302500,21.88030249023437,-0.2996124923229217,-0.2622124850749969,-1.352312445640564
1780564161061833700,21.89983374023437,-0.233474999666214,-0.1889249980449676,-1.0668624639511108
1780564161081364000,21.919364013671878,-0.1421750038862228,-0.1402499973773956,-0.6171000003814697
1780564161100890600,21.938890625,-0.0501874983310699,-0.1164624989032745,-0.1032624989748001
1780564161120411400,21.958411376953126,0.0184249989688396,-0.0988624989986419,0.3283500075340271
1780564161139929300,21.977929443359372,0.0621500015258789,-0.0852499976754188,0.6077499985694885
1780564161159448800,21.99744873046875,0.0959749966859817,-0.088137499988079,0.7653250098228455
1780564161178973400,22.016973388671875,0.1406625062227249,-0.1179749965667724,0.8738124966621399
1780564161198503000,22.0365029296875,0.2127124965190887,-0.1743499934673309,0.9866999983787536
1780564161218030800,22.05603076171875,0.3170749843120575,-0.2480500042438507,1.1174625158309937
1780564161237561300,22.075561279296878,0.4444000124931335,-0.3232625126838684,1.2467124462127686
1780564161257090000,22.095090087890625,0.5729625225067139,-0.3770250082015991,1.3403500318527222
1780564161276617500,22.114617431640625,0.6833750009536743,-0.4032875001430511,1.396037459373474
1780564161296144000,22.134143798828124,0.768762469291687,-0.4193750023841858,1.440037488937378
1780564161315670800,22.1536708984375,0.8262374997138977,-0.430649995803833,1.461899995803833
1780564161335200500,22.17320043945313,0.8478249907493591,-0.4166249930858612,1.4053875207901
1780564161354729500,22.1927294921875,0.8251374959945679,-0.3642374873161316,1.2340625524520874
1780564161374257400,22.21225732421875,0.7627124786376953,-0.303600013256073,0.98642498254776
1780564161393781500,22.231781494140623,0.6718249917030334,-0.2788499891757965,0.7306749820709229
1780564161413304000,22.251303955078125,0.5537124872207642,-0.2799499928951263,0.4732750058174133
1780564161432825900,22.27082592773437,0.406312495470047,-0.2571249902248382,0.1821874976158142
1780564161452347400,22.290347412109377,0.2426874935626983,-0.1886499971151352,-0.1310375034809112
1780564161471873500,22.30987353515625,0.0900624990463256,-0.110275000333786,-0.3895374834537506
1780564161491400200,22.32940014648437,0.0900624990463256,-0.110275000333786,-0.3895374834537506
1780564161510930000,22.348929931640622,-0.118937499821186,-0.0280499998480081,-0.597712516784668
1780564161530461000,22.3684609375,-0.118937499821186,-0.0280499998480081,-0.597712516784668
1780564161549990000,22.387989990234374,-0.118937499821186,-0.0280499998480081,-0.597712516784668
1780564161569520000,22.40752001953125,-0.1919499933719635,0.0450999997556209,-0.6528499722480774
1780564161589048300,22.42704833984375,-0.202124997973442,0.0878624990582466,-0.7552874684333801
1780564161608575200,22.4465751953125,-0.2169750034809112,0.1431374996900558,-0.9660750031471252
1780564161628100900,22.46610083007813,-0.2392500042915344,0.2077624946832656,-1.2450624704360962
1780564161647618800,22.48561889648437,-0.2623499929904938,0.2534124851226806,-1.478950023651123
1780564161667134000,22.505134033203124,-0.2795374989509582,0.2484624981880188,-1.554574966430664
1780564161686655700,22.52465576171875,-0.2860000133514404,0.1878249943256378,-1.4236749410629272
1780564161706181600,22.544181640625,-0.2824249863624573,0.1058750003576278,-1.1433124542236328
1780564161725704200,22.5637041015625,-0.2732124924659729,0.0525249987840652,-0.8435624837875366
1780564161745227000,22.58322705078125,-0.2619374990463257,0.0488125011324882,-0.620537519454956
1780564161764753000,22.6027529296875,-0.2521750032901764,0.073974996805191,-0.478362500667572
1780564161784273400,22.6222734375,-0.2477750033140182,0.0945999994874,-0.3609375059604645
1780564161803791400,22.641791259765625,-0.2498375028371811,0.0970750004053115,-0.2162874937057495
1780564161823312600,22.661312744140623,-0.2531374990940094,0.0970750004053115,-0.0387750007212162
1780564161842838300,22.68083837890625,-0.2496999949216842,0.1196250021457672,0.1406625062227249
1780564161862364400,22.700364501953125,-0.233474999666214,0.1736624985933303,0.2891624867916107
1780564161881889500,22.7198896484375,-0.2040500044822693,0.2502500116825104,0.3833499848842621
1780564161901418800,22.739418701171875,-0.1677500009536743,0.3320625126361847,0.415800005197525
1780564161920948200,22.7589482421875,-0.1315875053405761,0.405349999666214,0.3878875076770782
1780564161940473900,22.778473876953125,-0.0961124971508979,0.4618625044822693,0.3040125072002411
1780564161959998200,22.797998291015624,-0.05884999781847,0.5138375163078308,0.1472624987363815
1780564161979523800,22.81752392578125,-0.0215875003486871,0.595787525177002,-0.1080750003457069
1780564161999051500,22.837051513671877,0.016499999910593,0.7226999998092651,-0.3687750101089477
1780564162018578400,22.856578369140625,0.0631124973297119,0.8733999729156494,-0.4496249854564667
1780564162038107400,22.876107421875,0.1299374997615814,1.006637454032898,-0.2242625057697296
1780564162057633800,22.8956337890625,0.231000006198883,1.0911999940872192,0.279262512922287
1780564162077155300,22.9151552734375,0.3716624975204468,1.1262625455856323,0.8831624984741211
1780564162096677000,22.934677001953126,0.5751624703407288,1.1041250228881836,1.4544750452041626
1780564162116198000,22.95419799804688,0.8841249942779541,0.9908249974250792,1.982337474822998
1780564162135718700,22.97371875,1.3263249397277832,0.7444249987602234,2.5268375873565674
1780564162155243300,22.9932431640625,1.8602374792099,0.3790875077247619,3.092787504196167
1780564162174771700,23.012771728515624,2.370912551879883,-0.0137499999254941,3.571150064468384
1780564162194297300,23.03229736328125,2.7350125312805176,-0.3097875118255615,3.8241500854492183
1780564162213823700,23.05182373046875,2.8364875316619877,-0.3894000053405761,3.7211625576019287
1780564162233358300,23.0713583984375,2.691149950027466,-0.2759625017642975,3.3105874061584477
1780564162252891600,23.0908916015625,2.519137382507324,-0.171875,2.8663249015808105
1780564162272416800,23.11041674804688,2.519137382507324,-0.171875,2.8663249015808105
1780564162291935500,23.129935546875,2.620887517929077,-0.3125374913215637,2.7102625370025635
1780564162311457500,23.14945751953125,3.207599878311157,-0.8178499937057495,3.011937379837036
1780564162330985000,23.16898486328125,4.610374927520752,-1.7480374574661257,3.5780248641967773
1780564162350512600,23.1885126953125,4.610374927520752,-1.7480374574661257,3.5780248641967773
1780564162370040000,23.2080400390625,2.363075017929077,0.2307250052690506,1.4000250101089478
1780564162389562000,23.22756201171875,2.363075017929077,0.2307250052690506,1.4000250101089478
1780564162409083100,23.247083251953125,-0.1507000029087066,2.354825019836426,-0.3686375021934509
1780564162428607000,23.26660693359375,-3.0025875568389893,4.905312538146973,-2.1484375
1780564162448136700,23.28613671875,-4.826937675476074,6.4171247482299805,-3.222862482070923
1780564162467669000,23.3056689453125,-4.899399757385254,6.659812450408936,-3.217087507247925
1780564162487200000,23.325199951171875,-3.238537549972534,5.0147624015808105,-2.314949989318848
1780564162506735900,23.34473583984375,-1.1758999824523926,2.990074872970581,-1.197350025177002
1780564162526274300,23.3642744140625,0.6052749752998352,1.2538625001907349,-0.2459875047206878
1780564162545805800,23.38380590820313,1.9091874361038208,-0.0226875003427267,0.419649988412857
1780564162565332500,23.40333251953125,2.7743375301361084,-0.8912749886512756,0.8204625248908997
1780564162584857000,23.42285717773437,3.323237419128418,-1.463824987411499,1.0278124809265137
1780564162604383700,23.4423837890625,3.681149959564209,-1.8484125137329104,1.1107250452041626
1780564162623910100,23.46191015625,3.961649894714356,-2.1441750526428223,1.129562497138977
1780564162643435000,23.48143505859375,4.158275127410889,-2.3523499965667725,1.1136125326156616
1780564162662963000,23.500962890625,4.179999828338623,-2.4037749767303467,1.0746999979019165
1780564162682487000,23.520487060546877,4.030262470245361,-2.306425094604492,1.037024974822998
1780564162702011400,23.540011474609376,3.791150093078613,-2.136199951171875,1.022587537765503
1780564162721544000,23.5595439453125,3.53086256980896,-1.962399959564209,1.0276750326156616
1780564162741072400,23.579072265625,3.2624623775482178,-1.805649995803833,1.021212458610535
1780564162760596700,23.5985966796875,2.897125005722046,-1.6000875234603882,0.9601625204086304
1780564162780123000,23.618122802734376,2.333925008773804,-1.2630749940872192,0.8203250169754028
1780564162799648800,23.637648681640623,1.5903249979019165,-0.7990124821662903,0.6171000003814697
1780564162819177200,23.65717724609375,0.8112499713897705,-0.3151499927043915,0.3955875039100647
1780564162838707500,23.67670751953125,0.1280124932527542,0.0585750006139278,0.1975875049829483
1780564162858235400,23.6962353515625,-0.4405499994754791,0.2651000022888183,0.0383624993264675
1780564162877763300,23.715763427734377,-0.912999987602234,0.3249124884605407,-0.0874499976634979
1780564162897292500,23.73529248046875,-1.317525029182434,0.3148750066757202,-0.1942874938249588
1780564162916817400,23.7548173828125,-1.7232874631881714,0.3420999944210052,-0.3068999946117401
1780564162936341200,23.77434130859375,-2.20178747177124,0.4775374829769134,-0.454987496137619
1780564162955870700,23.79387060546875,-2.7405123710632324,0.7101874947547913,-0.6494125127792358
1780564162975400700,23.813400634765625,-3.1884875297546387,0.9356874823570251,-0.8575875163078308
1780564162994931700,23.832931640625,-3.399549961090088,1.0564124584197998,-1.027400016784668
1780564163014467000,23.852467041015625,-3.333275079727173,1.052287459373474,-1.120074987411499
1780564163034004000,23.87200390625,-2.9886999130249023,0.9341750144958496,-1.1060500144958496
1780564163053535500,23.891535400390627,-2.406524896621704,0.7202249765396118,-0.9785875082015992
1780564163073065200,23.911065185546875,-1.7477624416351318,0.4681875109672546,-0.7977749705314636
1780564163092596200,23.93059619140625,-1.7477624416351318,0.4681875109672546,-0.7977749705314636
1780564163112123000,23.950122802734374,-1.253037452697754,0.2771999835968017,-0.6700375080108643
1780564163131651300,23.9696513671875,-1.0364749431610107,0.172837495803833,-0.6364874839782715
1780564163151182300,23.98918237304688,-1.023687481880188,-0.0774125009775161,-0.5876749753952026
1780564163170709800,24.00870971679688,-1.0700249671936035,-0.2495625019073486,-0.4956874847412109
1780564163190237700,24.02823779296875,-1.0700249671936035,-0.2495625019073486,-0.4956874847412109
1780564163209769700,24.047769775390623,-1.178375005722046,-0.3621749877929687,-0.4127750098705292
1780564163229298700,24.06729858398437,-1.3678499460220337,-0.3291749954223633,-0.3774375021457672
1780564163248821800,24.08682177734375,-1.634600043296814,-0.2169750034809112,-0.4035624861717224
1780564163268345300,24.10634545898437,-1.9486500024795528,-0.139562502503395,-0.4809750020503998
1780564163287869700,24.12586962890625,-2.2445499897003174,-0.0867625027894973,-0.5484874844551086
1780564163307395600,24.1453955078125,-2.4726624488830566,-0.0514249987900257,-0.5647125244140625
1780564163326926000,24.164926025390624,-2.6233625411987305,-0.0636624991893768,-0.7863624691963196
1780564163346455600,24.18445556640625,-2.6725873947143555,-0.0928125008940696,-1.209725022315979
1780564163365983700,24.203983642578127,-2.5792250633239746,-0.113437496125698,-1.5445375442504885
1780564163385512700,24.2235126953125,-2.3465750217437744,-0.1666499972343444,-1.7634375095367432
1780564163405037800,24.243037841796877,-2.042562484741211,-0.2275625020265579,-1.9137250185012815
1780564163424562200,24.262562255859372,-1.729337453842163,-0.2565749883651733,-2.0446250438690186
1780564163444089600,24.28208959960937,-1.4097875356674194,-0.2652375102043152,-2.135375022888184
1780564163463614200,24.3016142578125,-1.068237543106079,-0.2997500002384186,-2.142937421798706
1780564163483139600,24.3211396484375,-0.7233874797821045,-0.3796375095844269,-2.068962574005127
1780564163502666800,24.340666748046875,-0.4241875112056732,-0.4827624857425689,-1.9409500360488887
1780564163522192600,24.360192626953125,-0.2352624982595443,-0.5677375197410583,-1.7835124731063845
1780564163541722600,24.37972265625,-0.1944250017404556,-0.6085749864578247,-1.5947250127792358
1780564163561248000,24.399248046875,-0.2699125111103058,-0.6070625185966492,-1.3580875396728516
1780564163580761600,24.41876171875,-0.4052124917507171,-0.5762624740600586,-1.0755250453948977
1780564163600280000,24.43828002929688,-0.5748875141143799,-0.5191999673843384,-0.8327000141143799
1780564163619808800,24.457808837890624,-0.7928249835968018,-0.4124999940395355,-0.8471375107765198
1780564163639340000,24.477340087890624,-1.037987470626831,-0.2586374878883362,-1.268162488937378
1780564163658869800,24.49686987304688,-1.2038124799728394,-0.1225124970078468,-1.959787487983704
1780564163678396200,24.51639624023437,-1.1893750429153442,-0.0654499977827072,-2.532612562179565
1780564163697922800,24.5359228515625,-0.9828500151634216,-0.0994125008583068,-2.5786750316619877
1780564163717454300,24.55545434570313,-0.6437749862670898,-0.208587497472763,-1.906987547874451
1780564163736986600,24.574986572265622,-0.23539999127388,-0.3942124843597412,-0.6212249994277954
1780564163756515600,24.594515625,0.2003374993801117,-0.6434999704360962,0.8882499933242798
1780564163776037000,24.614037109375,0.5950999855995178,-0.8690000176429749,2.1176373958587646
1780564163795557400,24.63355737304688,0.8509874939918518,-0.9767999649047852,2.743674993515014
1780564163815083000,24.6530830078125,0.9073625206947328,-0.9532874822616576,2.778049945831299
1780564163834611700,24.67261181640625,0.7774249911308289,-0.8395749926567078,2.4325125217437744
1780564163854145300,24.692145263671875,0.5300624966621399,-0.6813125014305115,1.927612543106079
1780564163873675800,24.71167578125,0.2593249976634979,-0.5113624930381775,1.4326125383377075
1780564163893201400,24.731201416015622,0.0538999997079372,-0.3616249859333038,1.0657625198364258
1780564163912728800,24.750728759765625,-0.0373999997973442,-0.2580874860286712,0.8859124779701233
1780564163932257300,24.77025732421875,-0.0373999997973442,-0.2580874860286712,0.8859124779701233
1780564163951783400,24.789783447265624,0.080437496304512,-0.1975875049829483,0.926337480545044
1780564163971308300,24.80930834960937,0.2209624946117401,-0.2347124963998794,0.994949996471405
1780564163990832000,24.82883203125,0.3830749988555908,-0.3328875005245209,1.0757999420166016
1780564164010350600,24.8483505859375,0.3830749988555908,-0.3328875005245209,1.0757999420166016
1780564164029873200,24.867873046875,0.3830749988555908,-0.3328875005245209,1.0757999420166016
1780564164049400800,24.88740087890625,0.5942749977111816,-0.5036625266075134,0.9600250124931335
1780564164068930600,24.9069306640625,0.5141124725341797,-0.396274983882904,0.4076874852180481
1780564164088462000,24.92646215820313,0.3375625014305115,-0.1953874975442886,-0.404387503862381
1780564164107995600,24.94599560546875,0.1478125005960464,-0.0115499999374151,-1.191712498664856
1780564164127527700,24.965527587890627,-0.0105875004082918,0.1021625027060508,-1.7666000127792358
1780564164147055400,24.985055419921878,-0.1399749964475631,0.1567499935626983,-2.1245124340057373
1780564164166585000,25.00458520507813,-0.2418625056743621,0.169400006532669,-2.307112455368042
1780564164186111200,25.024111328125,-0.3077250123023987,0.1453374922275543,-2.3236124515533447
1780564164205629000,25.04362890625,-0.3390749990940094,0.0991374999284744,-2.202749967575073
1780564164225148400,25.0631484375,-0.3495250046253204,0.0530750006437301,-1.9980125427246092
1780564164244673500,25.082673583984374,-0.3612124919891357,0.022962499409914,-1.762887477874756
1780564164264200700,25.10220068359375,-0.3935250043869018,0.0137499999254941,-1.5377999544143677
1780564164283722200,25.12172216796875,-0.4537499845027923,0.0406999997794628,-1.3690874576568604
1780564164303238700,25.14123876953125,-0.5296499729156494,0.12168750166893,-1.2826000452041626
1780564164322762500,25.160762451171877,-0.5974375009536743,0.2480500042438507,-1.2362624406814575
1780564164342289700,25.18028955078125,-0.637862503528595,0.3803249895572662,-1.1358875036239624
1780564164361813000,25.19981298828125,-0.6432250142097473,0.4761624932289123,-0.903237521648407
1780564164381340000,25.21933984375,-0.6161375045776367,0.5264874696731567,-0.5370749831199646
1780564164400867300,25.238867431640625,-0.5634750127792358,0.5559124946594238,-0.0972125008702278
1780564164420392200,25.25839208984375,-0.490325003862381,0.593037486076355,0.3603875041007995
1780564164439921000,25.2779208984375,-0.3892624974250793,0.6199874877929688,0.8889374732971191
1780564164459449900,25.297449951171878,-0.2312749922275543,0.5722749829292297,1.6097124814987185
1780564164478976000,25.31697607421875,0.0129249999299645,0.4070000052452087,2.508962392807007
1780564164498499300,25.336499267578127,0.3221625089645386,0.1733874976634979,3.34413743019104
1780564164518021600,25.356021728515625,0.6047250032424927,0.0016499999910593,3.77313756942749
1780564164537545000,25.375544921875,0.6888750195503235,-0.0153999999165534,3.6533749103546143
1780564164557068500,25.395068603515625,0.6700375080108643,0.0985874980688095,3.1387124061584477
1780564164576593400,25.414593505859376,0.7045499682426453,0.2294874936342239,2.53439998626709
1780564164596118800,25.43411889648437,0.8113874793052673,0.2575374841690063,2.128499984741211
1780564164615644400,25.45364453125,1.0657625198364258,0.1508374959230423,2.030050039291382
1780564164635169800,25.473169677734376,1.4180375337600708,-0.0240624994039535,2.1385374069213867
1780564164654696700,25.49269677734375,1.727275013923645,-0.1616999953985214,2.252249956130981
1780564164674225200,25.51222509765625,1.85872495174408,-0.1977249979972839,2.122037410736084
1780564164693753300,25.53175341796875,1.474137544631958,-0.1508374959230423,1.858449935913086
1780564164713282000,25.55128198242188,0.9934374690055848,-0.0717749968171119,1.5896375179290771
1780564164732806100,25.57080615234375,0.6612374782562256,0.098312497138977,1.0857000350952148
1780564164752329000,25.590328857421877,0.6612374782562256,0.098312497138977,1.0857000350952148
1780564164771858700,25.609858642578125,-1.1158125400543213,1.5721750259399414,-1.5881249904632568
1780564164791388700,25.629388671875,-2.2915749549865723,2.962574958801269,-3.68788743019104
1780564164810916600,25.64891650390625,-3.089075088500977,4.211625099182129,-5.463287353515625
1780564164830439700,25.668439697265622,-3.089075088500977,4.211625099182129,-5.463287353515625
1780564164849961000,25.6879609375,-3.089075088500977,4.211625099182129,-5.463287353515625
1780564164869485600,25.70748559570313,-2.7758500576019287,4.741137504577637,-5.924737453460693
1780564164889009700,25.727009765625,-1.5845500230789185,3.764337539672852,-4.272124767303467
1780564164908536600,25.74653662109375,0.0967999994754791,2.235612392425537,-1.9523625373840328
1780564164928062000,25.76606201171875,1.8761874437332156,0.6061000227928162,0.2653749883174896
1780564164947584000,25.785583984375,3.3780999183654785,-0.7423624992370605,1.8845750093460083
1780564164967111200,25.80511108398437,4.458712577819824,-1.6974375247955322,2.839099884033203
1780564164986638600,25.824638671875,5.084475040435791,-2.256925106048584,3.247337579727173
1780564165006164500,25.84416455078125,5.279449939727783,-2.4627625942230225,3.257925033569336
1780564165025691400,25.86369140625,5.22582483291626,-2.4881999492645264,3.081512451171875
1780564165045217500,25.883217529296875,5.08144998550415,-2.4536874294281006,2.8528499603271484
1780564165064744400,25.902744384765622,4.964574813842773,-2.4495625495910645,2.6389000415802
1780564165084273400,25.9222734375,4.97846269607544,-2.5739998817443848,2.4749999046325684
1780564165103804200,25.94180419921875,5.055600166320801,-2.768975019454956,2.3368124961853027
1780564165123333000,25.9613330078125,4.984375,-2.8428125381469727,2.172224998474121
1780564165142861000,25.980861083984376,4.694937705993652,-2.733087539672852,1.971062541007996
1780564165162390500,26.000390625,4.307600021362305,-2.540724992752075,1.758625030517578
1780564165181920000,26.019919921875,3.893587589263916,-2.3208625316619877,1.5461875200271606
1780564165201445600,26.039445556640626,3.4248499870300293,-2.049025058746338,1.3271499872207642
1780564165220971800,26.0589716796875,2.9184374809265137,-1.7477624416351318,1.103987455368042
1780564165240502500,26.07850244140625,2.4289374351501465,-1.4698749780654907,0.8841249942779541
1780564165260033500,26.098033447265625,1.9470000267028809,-1.207800030708313,0.6682500243186951
1780564165279563500,26.1175634765625,1.4517250061035156,-0.9351375102996826,0.4614500105381012
1780564165299093800,26.13709375,1.015987515449524,-0.6983624696731567,0.2853125035762787
1780564165318621700,26.15662158203125,0.7275124788284302,-0.5559124946594238,0.157987505197525
1780564165338146000,26.17614599609375,0.5461499691009521,-0.4628250002861023,0.0672374963760376
1780564165357671000,26.1956708984375,0.3375625014305115,-0.3020874857902527,-0.0196624994277954
1780564165377195000,26.21519506835937,0.0257124993950128,-0.0184249989688396,-0.1243000030517578
1780564165396718800,26.23471875,-0.3537875115871429,0.3332999944686889,-0.2421374917030334
1780564165416246300,26.254246337890624,-0.761062502861023,0.6880499720573425,-0.3592875003814697
1780564165435771600,26.273771728515623,-1.205875039100647,1.0338624715805054,-0.4702500104904175
1780564165455297500,26.293297607421877,-1.6703499555587769,1.11347496509552,-0.5380374789237976
1780564165474821600,26.312821533203124,-2.0333499908447266,0.9707499742507936,-0.5762624740600586
1780564165494342100,26.332342041015625,-2.127537488937378,0.9006249904632568,-0.5806624889373779
1780564165513868000,26.35186791992188,-1.89282500743866,0.7002875208854675,-0.4628250002861023
1780564165533398800,26.371398681640624,-1.4346749782562256,0.2571249902248382,-0.2110625058412552
1780564165552930300,26.39093041992188,-0.9277125000953674,-0.2605625092983246,0.1119249984622001
1780564165572456200,26.410456298828127,-0.9277125000953674,-0.2605625092983246,0.1119249984622001
1780564165591979000,26.42997900390625,-0.5339124798774719,-0.6962999701499939,0.4119499921798706
1780564165611507500,26.449507568359376,-0.4135999977588653,-0.9383000135421752,0.5688375234603882
1780564165631036000,26.46903588867188,-1.2123374938964844,-0.823074996471405,0.1747625023126602
1780564165650560000,26.48856005859375,-1.2123374938964844,-0.823074996471405,0.1747625023126602
1780564165670087000,26.5080869140625,-2.33804988861084,-0.598675012588501,-0.6212249994277954
1780564165689617700,26.52761767578125,-2.33804988861084,-0.598675012588501,-0.6212249994277954
1780564165709149200,26.54714916992188,-2.6085124015808105,-0.6766374707221985,-0.8868749737739563
1780564165728681500,26.566681396484373,-2.751650094985962,-0.817300021648407,-1.0997250080108645
1780564165748210000,26.5862099609375,-2.903037548065185,-0.8696874976158142,-1.3869625329971311
1780564165767735800,26.60573583984375,-3.128949880599976,-0.7016624808311462,-1.8752249479293823
1780564165787265500,26.625265625,-3.4431374073028564,-0.2619374990463257,-2.676024913787842
1780564165806795000,26.644794921875,-3.775749921798706,0.3812874853610992,-3.783037424087525
1780564165826324200,26.66432421875,-3.936899900436402,1.0183249711990356,-4.948625087738037
1780564165845857300,26.68385717773437,-3.7930750846862793,1.427799940109253,-5.820374965667725
1780564165865386500,26.70338647460937,-3.3787875175476074,1.5290000438690186,-6.19038724899292
1780564165884914200,26.7229140625,-2.8458375930786133,1.4033249616622925,-6.127274990081787
1780564165904443400,26.742443359375,-2.3276000022888184,1.1786500215530396,-5.799749851226807
1780564165923968800,26.76196875,-1.8866374492645264,0.9341750144958496,-5.297599792480469
1780564165943495400,26.78149536132813,-1.541100025177002,0.7060624957084656,-4.6539626121521
1780564165963018800,26.801018798828125,-1.2830125093460083,0.5058624744415283,-3.895099878311157
1780564165982541800,26.820541748046875,-1.0899624824523926,0.3377000093460083,-3.06707501411438
1780564166002065400,26.8400654296875,-0.9366499781608582,0.2001999914646148,-2.2244749069213867
1780564166021588700,26.859588623046875,-0.8091874718666077,0.0914374962449073,-1.4174875020980835
1780564166041113000,26.879113037109374,-0.7067499756813049,0.007012499962002,-0.682824969291687
1780564166060637200,26.89863720703125,-0.6265875101089478,-0.0654499977827072,-0.0364375002682209
1780564166080162600,26.91816259765625,-0.5556374788284302,-0.1387374997138977,0.5197499990463257
1780564166099688700,26.937688720703125,-0.476437509059906,-0.2183499932289123,0.9928874969482422
1780564166119210500,26.95721044921875,-0.3811500072479248,-0.3023625016212463,1.391362547874451
1780564166138730500,26.97673046875,-0.2817375063896179,-0.3711124956607818,1.6883624792099
1780564166158257400,26.99625732421875,-0.2039124965667724,-0.3921499848365783,1.8249000310897827
1780564166177789000,27.015788818359376,-0.1678874939680099,-0.3470500111579895,1.7703125476837158
1780564166197318400,27.035318359375,-0.1771000027656555,-0.2491499930620193,1.5567749738693235
1780564166216848400,27.054848388671875,-0.2263250052928924,-0.1292500048875808,1.2446500062942505
1780564166236376800,27.074376953125,-0.3132250010967254,-0.0079749999567866,0.8618500232696533
1780564166255903700,27.09390380859375,-0.4255625009536743,0.0998250022530555,0.4303750097751617
1780564166275426000,27.113426025390623,-0.5288249850273132,0.1724250018596649,0.0142999999225139
1780564166294943000,27.13294287109375,-0.5790125131607056,0.1933249980211258,-0.2906749844551086
1780564166314461400,27.15246142578125,-0.5455999970436096,0.1692624986171722,-0.4179999828338623
1780564166333977300,27.171977294921877,-0.4269374907016754,0.1303499937057495,-0.3844499886035919
1780564166353493500,27.19149340820313,-0.2462625056505203,0.1082125008106231,-0.2750000059604645
1780564166373014800,27.211014892578124,-0.0401500016450881,0.1164624989032745,-0.1841125041246414
1780564166392540700,27.23054077148437,0.1546874940395355,0.1428624987602234,-0.1615625023841858
1780564166412068400,27.250068359375,0.1546874940395355,0.1428624987602234,-0.1615625023841858
1780564166431594800,27.2695947265625,0.4151124954223633,0.1508374959230423,-0.2838000059127807
1780564166451123200,27.289123291015624,0.4641999900341034,0.1225124970078468,-0.4005374908447265
1780564166470654200,27.308654296875,0.4641999900341034,0.1225124970078468,-0.4005374908447265
1780564166490178800,27.3281787109375,0.4032875001430511,0.160874992609024,-0.7897999882698059
1780564166509700000,27.3477001953125,0.4032875001430511,0.160874992609024,-0.7897999882698059
1780564166529222700,27.36722265625,0.3092375099658966,0.2337500005960464,-1.0146124362945557
1780564166548747500,27.38674755859375,0.2022625058889389,0.3004375100135803,-1.179474949836731
1780564166568276200,27.40627612304688,0.1181124970316886,0.3264249861240387,-1.2010624408721924
1780564166587808300,27.425808349609376,0.0915749967098236,0.2754124999046325,-0.9945374727249146
1780564166607338000,27.445337890625,0.1331000030040741,0.1424500048160553,-0.5754374861717224
1780564166626862000,27.464862060546874,0.2194499969482422,-0.0219999998807907,-0.0923999994993209
1780564166646386400,27.484386474609376,0.3034625053405761,-0.1457500010728836,0.2755500078201294
1780564166665911800,27.50391186523437,0.3356375098228454,-0.1941500008106231,0.4354625046253204
1780564166685434000,27.52343408203125,0.2961750030517578,-0.1867250055074691,0.417724996805191
1780564166704959000,27.542958984375,0.2012999951839447,-0.1597750037908554,0.3129499852657318
1780564166724488400,27.562488525390624,0.0950125008821487,-0.1486375033855438,0.2285249978303909
1780564166744018400,27.582018310546875,0.0199375003576278,-0.1549624949693679,0.2167000025510788
1780564166763543000,27.60154296875,-0.0064624999649822,-0.1447875052690506,0.2444749921560287
1780564166783068700,27.621068603515624,0.0126499999314546,-0.1061500012874603,0.2761000096797943
1780564166802599000,27.640598876953124,0.0642125010490417,-0.073012501001358,0.3228499889373779
1780564166822122000,27.6601220703125,0.1299374997615814,-0.0845625028014183,0.4124999940395355
1780564166841645300,27.67964526367188,0.1825999915599823,-0.1288374960422516,0.520437479019165
1780564166861175600,27.699175537109376,0.1986874938011169,-0.1643124967813491,0.5931749939918518
1780564166880706000,27.7187060546875,0.1739374995231628,-0.1759999990463256,0.6237000226974487
1780564166900239000,27.73823901367188,0.1194875016808509,-0.178749993443489,0.6484500169754028
1780564166919771100,27.757771240234376,0.0434499979019165,-0.1761374920606613,0.6707249879837036
1780564166939300400,27.77730029296875,-0.0562375001609325,-0.1440999954938888,0.6198499798774719
1780564166958830800,27.79683081054688,-0.1874125003814697,-0.0585750006139278,0.3702875077724457
1780564166978360600,27.816360595703124,-0.3409999907016754,0.0647625029087066,-0.1311749964952469
1780564166997886200,27.83588623046875,-0.4775374829769134,0.1720124930143356,-0.7556999921798706
1780564167017408000,27.855407958984376,-0.555774986743927,0.2197249978780746,-1.274624943733215
1780564167036929000,27.87492895507813,-0.5587999820709229,0.2039124965667724,-1.5064499378204346
1780564167056455000,27.894454833984376,-0.48785001039505,0.146025002002716,-1.3717000484466553
1780564167075983400,27.9139833984375,-0.3499374985694885,0.0687500014901161,-0.8795874714851379
1780564167095505400,27.93350537109375,-0.1720124930143356,-0.0035749999806284,-0.1764124929904937
1780564167115029500,27.953029541015624,-0.0175999999046325,-0.0222750008106231,0.4566375017166137
1780564167134560300,27.972560302734376,0.0434499979019165,0.0622874982655048,0.7735750079154968
1780564167154087200,27.992087158203127,-0.0061874999664723,0.2395250052213668,0.7578999996185303
1780564167173612300,28.0116123046875,-0.1273249983787536,0.4490749835968017,0.5534374713897705
1780564167193136600,28.03113671875,-0.2671625018119812,0.6425374746322632,0.2910875082015991
1780564167212654600,28.050654541015625,-0.2671625018119812,0.6425374746322632,0.2910875082015991
1780564167232177700,28.070177734375,-0.4453625082969665,0.9450374841690063,-0.1706375032663345
1780564167251704600,28.08970458984375,-0.4280374944210052,1.0485750436782837,-0.2905375063419342
1780564167271230200,28.109230224609377,-0.3676750063896179,1.155137538909912,-0.3704249858856201
1780564167290753800,28.12875390625,-0.2956250011920929,1.281499981880188,-0.4003999829292297
1780564167310279200,28.14827905273437,-0.2956250011920929,1.281499981880188,-0.4003999829292297
1780564167329805600,28.1678056640625,-0.2956250011920929,1.281499981880188,-0.4003999829292297
1780564167349329000,28.187328857421875,-0.017187500372529,1.381600022315979,0.0522499978542327
1780564167368852000,28.20685205078125,0.1912624984979629,1.299100041389465,0.4111250042915344
1780564167388373500,28.22637353515625,0.3334375023841858,1.223062515258789,0.5773624777793884
1780564167407892200,28.245892333984376,0.3631374835968017,1.2075250148773191,0.5077875256538391
1780564167427411200,28.2654111328125,0.3077250123023987,1.2570250034332275,0.2971374988555908
1780564167446935600,28.284935546875,0.2149125039577484,1.3553375005722046,0.0411125011742115
1780564167466464000,28.304464111328127,0.1500124931335449,1.4645124673843384,-0.1392875015735626
1780564167485988400,28.32398828125,0.1764124929904937,1.5309250354766846,-0.1289750039577484
1780564167505512700,28.3435126953125,0.3150124847888946,1.5087875127792358,0.0835999995470047
1780564167525038600,28.36303857421875,0.2486000061035156,1.4151500463485718,0.3596999943256378
1780564167544565200,28.382565185546877,0.1402499973773956,1.3681249618530271,0.4589749872684479
1780564167564094000,28.402093994140625,0.0914374962449073,1.485550045967102,0.2510749995708465
1780564167583620000,28.4216201171875,-0.0698499977588653,1.6715874671936035,-0.0596750006079673
1780564167603143000,28.441142822265626,0.1880999952554702,1.56983745098114,0.0215875003486871
1780564167622668300,28.460668212890624,1.5016374588012695,0.7364500164985657,0.9811999797821044
1780564167642196000,28.480196044921875,4.530350208282471,-1.2326874732971191,3.0569000244140625
1780564167661720800,28.499720947265622,8.596362113952637,-4.01609992980957,5.530937671661377
1780564167681245000,28.51924487304688,11.752124786376951,-5.958287239074707,6.983762264251709
1780564167700769500,28.53876953125,12.27957534790039,-6.031712532043457,6.752487659454346
1780564167720295200,28.558295166015625,10.951462745666504,-4.933225154876709,5.598724842071533
1780564167739822600,28.577822509765625,8.955100059509277,-3.51601243019104,4.254937648773193
1780564167759343400,28.59734326171875,6.984174728393555,-2.2171874046325684,3.057724952697754
1780564167778862800,28.61686279296875,5.616049766540527,-1.2509750127792358,2.151599884033203
1780564167798390800,28.636390869140627,4.461325168609619,-0.6399250030517578,1.5105749368667605
1780564167817916400,28.65591650390625,3.697375059127808,-0.2710124850273132,1.0918874740600586
1780564167837440000,28.67543994140625,3.0751874446868896,-0.0050874999724328,0.8122124671936035
