time,seconds_elapsed,z,y,x
1781031003485041000,0.427041015625,9.741010665893555,0.5499460101127625,-0.9221010208129883
1781031003494801400,0.436801513671875,9.731038093566895,0.652990996837616,-0.9594230055809021
1781031003514324000,0.456323974609375,9.731038093566895,0.652990996837616,-0.9594230055809021
1781031003533846800,0.4758466796875,9.718994140625,0.7519509792327881,-1.0078309774398804
1781031003553367300,0.4953671875,9.705056190490723,0.8421779870986938,-1.0689339637756348
1781031003572886800,0.51488671875,9.690288543701172,0.9131190180778503,-1.142153024673462
1781031003592408000,0.534407958984375,9.675139427185059,0.9618309736251831,-1.2274199724197388
1781031003611928300,0.55392822265625,9.660016059875488,0.9883589744567871,-1.3218319416046143
1781031003631446000,0.573446044921875,9.644582748413086,0.9984080195426941,-1.4231009483337402
1781031003650964200,0.592964111328125,9.628524780273438,0.9966080188751221,-1.529144048690796
1781031003670479600,0.612479736328125,9.61090087890625,0.9892290234565735,-1.6407370567321777
1781031003689994500,0.631994384765625,9.590303421020508,0.9871190190315247,-1.7583149671554565
1781031003709511400,0.651511474609375,9.565929412841797,0.9929969906806946,-1.8833340406417847
1781031003729025500,0.671025634765625,9.53770923614502,1.0066380500793457,-2.014638900756836
1781031003748538000,0.6905380859375,9.50578784942627,1.025115966796875,-2.151540994644165
1781031003768053500,0.710053466796875,9.471250534057617,1.0450199842453003,-2.2898330688476562
1781031003787572200,0.729572265625,9.434922218322754,1.0609890222549438,-2.4282801151275635
1781031003807089700,0.749089599609375,9.398186683654785,1.0678130388259888,-2.563955068588257
1781031003826603800,0.768603759765625,9.361666679382324,1.0615849494934082,-2.696707010269165
1781031003846118000,0.788117919921875,9.325077056884766,1.0357539653778076,-2.830220937728882
1781031003865638400,0.807638427734375,9.28713607788086,0.9900789856910706,-2.9679698944091797
1781031003885159200,0.8271591796875,9.2423734664917,0.9182590246200562,-3.126552104949951
1781031003904678000,0.846677978515625,9.185100555419922,0.8201509714126587,-3.3168160915374756
1781031003924198000,0.866197998046875,9.10560131072998,0.6840289831161499,-3.55810809135437
1781031003943719000,0.885718994140625,8.996079444885254,0.5088779926300049,-3.8537769317626953
1781031003963239700,0.90523974609375,8.844511985778809,0.3031949996948242,-4.209831237792969
1781031003982761200,0.92476123046875,8.64696979522705,0.07040800154209137,-4.611392974853516
1781031004002283800,0.94428369140625,8.412888526916504,-0.19448800384998322,-5.022497177124023
1781031004021802500,0.963802490234375,8.147457122802734,-0.47609999775886536,-5.425151824951172
1781031004041318700,0.983318603515625,7.862713813781738,-0.7487300038337708,-5.801476001739502
1781031004060832800,1.002832763671875,7.571961879730225,-1.0015449523925781,-6.140219211578369
1781031004080343600,1.022343505859375,7.297313213348389,-1.231603980064392,-6.424356937408447
1781031004099857200,1.041857177734375,7.034823894500732,-1.4428369998931885,-6.668542861938477
1781031004119374300,1.061374267578125,6.778450965881348,-1.630025029182434,-6.887351036071777
1781031004138891300,1.080891357421875,6.528124809265137,-1.8005690574645996,-7.083891868591309
1781031004158409000,1.100408935546875,6.278409957885742,-1.9556989669799805,-7.266139984130859
1781031004177929700,1.1199296875,6.0211029052734375,-2.1003620624542236,-7.4414238929748535
1781031004197447700,1.13944775390625,5.744111061096191,-2.2362639904022217,-7.618680953979492
1781031004216962600,1.158962646484375,5.744111061096191,-2.2362639904022217,-7.618680953979492
1781031004236473900,1.178473876953125,5.467597961425781,-2.357440948486328,-7.783819198608398
1781031004255985000,1.19798486328125,4.939004898071289,-2.550196886062622,-8.071104049682617
1781031004275501300,1.217501220703125,4.709530830383301,-2.629678964614868,-8.181998252868652
1781031004295015200,1.23701513671875,4.516866207122803,-2.7010018825531006,-8.266951560974121
1781031004314529500,1.256529541015625,4.516866207122803,-2.7010018825531006,-8.266951560974121
1781031004334051300,1.27605126953125,4.362070083618164,-2.7636849880218506,-8.32912826538086
1781031004353576700,1.29557666015625,4.236631870269775,-2.8145298957824707,-8.376715660095215
1781031004373101000,1.31510107421875,4.130687236785889,-2.8484179973602295,-8.418071746826172
1781031004392621300,1.334621337890625,4.0335001945495605,-2.8597209453582764,-8.46125602722168
1781031004412140300,1.354140380859375,3.9363949298858643,-2.843669891357422,-8.512246131896973
1781031004431660500,1.37366064453125,3.8335790634155273,-2.79813289642334,-8.574037551879883
1781031004451182800,1.393182861328125,3.727790117263794,-2.723834991455078,-8.644322395324707
1781031004470703400,1.412703369140625,3.6272220611572266,-2.6256399154663086,-8.717182159423828
1781031004490224600,1.432224609375,3.5377800464630127,-2.5127620697021484,-8.7869291305542
1781031004509747200,1.451747314453125,3.463792085647583,-2.3929390907287598,-8.849630355834961
1781031004529269500,1.47126953125,3.4082601070404053,-2.266170024871826,-8.904394149780273
1781031004548789200,1.490789306640625,3.3655710220336914,-2.1358439922332764,-8.952714920043945
1781031004568307200,1.51030712890625,3.3343749046325684,-2.0006070137023926,-8.995527267456055
1781031004587827000,1.529826904296875,3.301326036453247,-1.851889967918396,-9.03945541381836
1781031004607343000,1.549343017578125,3.2571909427642822,-1.6885230541229248,-9.087331771850586
1781031004626858000,1.56885791015625,3.195518970489502,-1.5106600522994995,-9.140379905700684
1781031004646375000,1.588375,3.1128320693969727,-1.3241610527038574,-9.197654724121094
1781031004665890800,1.607890869140625,3.011707067489624,-1.1288440227508545,-9.25717830657959
1781031004685405400,1.627405517578125,2.8911008834838867,-0.9273769855499268,-9.317806243896484
1781031004704918000,1.64691796875,2.762550115585327,-0.7295929789543152,-9.374220848083496
1781031004724428800,1.6664287109375,2.6385529041290283,-0.5438979864120483,-9.422431945800781
1781031004743943700,1.685943603515625,2.527553081512451,-0.37404200434684753,-9.461055755615234
1781031004763459600,1.70545947265625,2.4363179206848145,-0.22475099563598633,-9.489668846130371
1781031004782974700,1.724974609375,2.37174391746521,-0.10031799972057343,-9.508142471313477
1781031004802486300,1.744486328125,2.336796998977661,-0.0030990000814199448,-9.517319679260254
1781031004822004000,1.76400390625,2.3244540691375732,0.0663049966096878,-9.520111083984375
1781031004841524500,1.7835244140625,2.319025993347168,0.11611499637365341,-9.520956993103027
1781031004861038800,1.803038818359375,2.3131649494171143,0.14942100644111633,-9.521919250488281
1781031004880554000,1.822553955078125,2.299362897872925,0.16938400268554688,-9.524927139282227
1781031004900068000,1.842068115234375,2.2715671062469482,0.17907099425792694,-9.531416893005371
1781031004919577900,1.861577880859375,2.2313389778137207,0.18035100400447845,-9.54089069366455
1781031004939088100,1.881088134765625,2.1810739040374756,0.1759530007839203,-9.552589416503906
1781031004958606300,1.9006064453125,2.1344521045684814,0.1669739931821823,-9.563275337219238
1781031004978124800,1.920124755859375,2.0989649295806885,0.15263399481773376,-9.571365356445312
1781031004997640200,1.93964013671875,2.0786900520324707,0.1330520063638687,-9.576081275939941
1781031005017156600,1.959156494140625,2.0786900520324707,0.1330520063638687,-9.576081275939941
1781031005036673500,1.978673583984375,2.077357053756714,0.1076899990439415,-9.576690673828125
1781031005056192500,1.998192626953125,2.1134960651397705,0.042851999402046204,-9.569290161132812
1781031005075709700,2.017709716796875,2.1134960651397705,0.042851999402046204,-9.569290161132812
1781031005095225300,2.037225341796875,2.140805959701538,0.003911999985575676,-9.563312530517578
1781031005114743000,2.056742919921875,2.170351028442383,-0.039292000234127045,-9.556570053100586
1781031005134263000,2.076262939453125,2.1991360187530518,-0.08688999712467194,-9.54967212677002
1781031005153782500,2.095782470703125,2.223162889480591,-0.13876000046730042,-9.543495178222656
1781031005173303600,2.115303466796875,2.240422010421753,-0.1964389979839325,-9.538443565368652
1781031005192823300,2.1348232421875,2.2634429931640625,-0.26864200830459595,-9.531246185302734
1781031005212340200,2.15434033203125,2.289012908935547,-0.35585400462150574,-9.522278785705566
1781031005231860200,2.173860107421875,2.3225290775299072,-0.458981990814209,-9.50974178314209
1781031005251381800,2.1933818359375,2.364388942718506,-0.5776839852333069,-9.492941856384277
1781031005270903800,2.21290380859375,2.4128758907318115,-0.7097179889678955,-9.47176456451416
1781031005290427100,2.23242724609375,2.4622209072113037,-0.8494399785995483,-9.447534561157227
1781031005309947000,2.25194677734375,2.501101016998291,-0.9832419753074646,-9.42431640625
1781031005329464300,2.27146435546875,2.524631977081299,-1.098924994468689,-9.405242919921875
1781031005348982800,2.290982666015625,2.523343086242676,-1.1916160583496094,-9.394295692443848
1781031005368501800,2.310501708984375,2.494637966156006,-1.2568860054016113,-9.39345645904541
1781031005388021500,2.330021484375,2.437721014022827,-1.292354941368103,-9.403579711914062
1781031005407532500,2.349532470703125,2.356468915939331,-1.2992440462112427,-9.423322677612305
1781031005427041300,2.369041259765625,2.2579939365386963,-1.281162977218628,-9.449872016906738
1781031005446552600,2.388552490234375,2.1557040214538574,-1.247725009918213,-9.478191375732422
1781031005466064000,2.40806396484375,2.0579309463500977,-1.2030819654464722,-9.505656242370605
1781031005485578200,2.427578125,1.9739869832992554,-1.1527379751205444,-9.529667854309082
1781031005505091300,2.44709130859375,1.9101719856262207,-1.100970983505249,-9.548775672912598
1781031005524599800,2.466599853515625,1.869102954864502,-1.0511640310287476,-9.562504768371582
1781031005544114000,2.486114013671875,1.8496639728546143,-1.0058330297470093,-9.571157455444336
1781031005563632000,2.505632080078125,1.8409039974212646,-0.9658219814300537,-9.576964378356934
1781031005583149800,2.52514990234375,1.838394045829773,-0.9308949708938599,-9.580904006958008
1781031005602664200,2.544664306640625,1.8371920585632324,-0.8992390036582947,-9.584157943725586
1781031005622176800,2.5641767578125,1.8335109949111938,-0.8682339787483215,-9.58772087097168
1781031005661205000,2.603205078125,1.81558096408844,-0.8001710176467896,-9.597051620483398
1781031005680721200,2.62272119140625,1.8004599809646606,-0.7613279819488525,-9.603058815002441
1781031005700239000,2.642239013671875,1.7791839838027954,-0.7186750173568726,-9.610307693481445
1781031005719758600,2.661758544921875,1.750445008277893,-0.6726459860801697,-9.618913650512695
1781031005739276300,2.6812763671875,1.7148430347442627,-0.6245070099830627,-9.62856674194336
1781031005758789600,2.70078955078125,1.6739720106124878,-0.5754119753837585,-9.638813018798828
1781031005778302500,2.720302490234375,1.6283539533615112,-0.5257109999656677,-9.649460792541504
1781031005797815600,2.739815673828125,1.5842479467391968,-0.47651898860931396,-9.65935230255127
1781031005817330700,2.75933056640625,1.5842479467391968,-0.47651898860931396,-9.65935230255127
1781031005836849400,2.778849365234375,1.5473829507827759,-0.4301089942455292,-9.667502403259277
1781031005856369400,2.798369384765625,1.5205130577087402,-0.38694000244140625,-9.673588752746582
1781031005875890000,2.817889892578125,1.5032620429992676,-0.3120940029621124,-9.678986549377441
1781031005895409700,2.83740966796875,1.5032620429992676,-0.3120940029621124,-9.678986549377441
1781031005914927000,2.856927001953125,1.5284279584884644,-0.2526189982891083,-9.676782608032227
1781031005934443000,2.876443115234375,1.5284279584884644,-0.2526189982891083,-9.676782608032227
1781031005953961200,2.895961181640625,1.5537290573120117,-0.22832000255584717,-9.673355102539062
1781031005973485000,2.915485107421875,1.5872329473495483,-0.2093610018491745,-9.668342590332031
1781031005993007000,2.935007080078125,1.6284929513931274,-0.19799000024795532,-9.661717414855957
1781031006012529200,2.954529052734375,1.6760170459747314,-0.19535599648952484,-9.653641700744629
1781031006032051200,2.97405126953125,1.7305330038070679,-0.2022940069437027,-9.643875122070312
1781031006051571000,2.993571044921875,1.79140305519104,-0.21812300384044647,-9.63240909576416
1781031006071095600,3.013095458984375,1.8584109544754028,-0.2420479953289032,-9.619132995605469
1781031006090620700,3.03262060546875,1.930503010749817,-0.2725760042667389,-9.604104995727539
1781031006110141000,3.052140869140625,2.009026050567627,-0.3089190125465393,-9.586885452270508
1781031006129663200,3.071663330078125,2.0929830074310303,-0.35023900866508484,-9.567483901977539
1781031006149182500,3.091182373046875,2.1812350749969482,-0.396028995513916,-9.545960426330566
1781031006168699100,3.11069921875,2.2716739177703857,-0.44576600193977356,-9.5226469039917
1781031006188221400,3.130221435546875,2.3597099781036377,-0.4983760118484497,-9.498600006103516
1781031006207746600,3.14974658203125,2.4416370391845703,-0.552636981010437,-9.474862098693848
1781031006227265800,3.169265869140625,2.5106279850006104,-0.6064659953117371,-9.453514099121094
1781031006246781000,3.188781005859375,2.563246011734009,-0.658735990524292,-9.435879707336426
1781031006266300400,3.208300537109375,2.598341941833496,-0.7088040113449097,-9.422643661499023
1781031006285817000,3.227817138671875,2.613616943359375,-0.7556099891662598,-9.414778709411621
1781031006305331200,3.247331298828125,2.6114559173583984,-0.7993180155754089,-9.411767959594727
1781031006324849000,3.266848876953125,2.595057964324951,-0.8399810194969177,-9.412762641906738
1781031006344367600,3.28636767578125,2.569753885269165,-0.8779249787330627,-9.416242599487305
1781031006363886600,3.305886474609375,2.5403969287872314,-0.9129369854927063,-9.420877456665039
1781031006383405800,3.32540576171875,2.5087130069732666,-0.9438120126724243,-9.426323890686035
1781031006402922500,3.344922607421875,2.4774250984191895,-0.9699329733848572,-9.43194580078125
1781031006422441000,3.36444091796875,2.443474054336548,-0.9882699847221375,-9.438896179199219
1781031006441961200,3.383961181640625,2.406187057495117,-0.9982479810714722,-9.447421073913574
1781031006461475800,3.403475830078125,2.364542007446289,-0.9996470212936401,-9.457782745361328
1781031006480990000,3.422989990234375,2.318013906478882,-0.9926980137825012,-9.470024108886719
1781031006500509000,3.442509033203125,2.268718957901001,-0.9798769950866699,-9.483288764953613
1781031006520025600,3.462025634765625,2.217597007751465,-0.9627919793128967,-9.49712085723877
1781031006539540700,3.481540771484375,2.164381980895996,-0.9445340037345886,-9.51121997833252
1781031006559063300,3.501063232421875,2.107767105102539,-0.925445020198822,-9.525800704956055
1781031006578585300,3.52058544921875,2.046720027923584,-0.9049479961395264,-9.541069030761719
1781031006598100000,3.540099853515625,1.9821970462799072,-0.882860004901886,-9.55674934387207
1781031006617619000,3.559618896484375,1.9821970462799072,-0.882860004901886,-9.55674934387207
1781031006637137000,3.579136962890625,1.9198479652404785,-0.859175980091095,-9.571624755859375
1781031006656655400,3.5986552734375,1.8611550331115723,-0.8337060213088989,-9.58545970916748
1781031006676173300,3.61817333984375,1.7609870433807373,-0.7751910090446472,-9.60926628112793
1781031006695687200,3.637687255859375,1.7157119512557983,-0.7403900027275085,-9.620195388793945
1781031006715203300,3.657203369140625,1.6706479787826538,-0.701337993144989,-9.631047248840332
1781031006734722600,3.67672265625,1.6706479787826538,-0.701337993144989,-9.631047248840332
1781031006754241000,3.696240966796875,1.6166280508041382,-0.6565449833869934,-9.643415451049805
1781031006773756200,3.715756103515625,1.5535060167312622,-0.6063429713249207,-9.657068252563477
1781031006793270300,3.735270263671875,1.4841220378875732,-0.5516059994697571,-9.67125129699707
1781031006812784600,3.75478466796875,1.4141099452972412,-0.49437400698661804,-9.684826850891113
1781031006832304600,3.7743046875,1.349735975265503,-0.4373970031738281,-9.696746826171875
1781031006851831800,3.793831787109375,1.2959200143814087,-0.3827599883079529,-9.70639419555664
1781031006871351800,3.813351806640625,1.258566975593567,-0.3326539993286133,-9.713152885437012
1781031006890870800,3.832870849609375,1.2393399477005005,-0.28863900899887085,-9.717033386230469
1781031006910391600,3.8523916015625,1.2375659942626953,-0.2516689896583557,-9.718287467956543
1781031006929902800,3.87190283203125,1.250749945640564,-0.22187399864196777,-9.717324256896973
1781031006949414100,3.8914140625,1.2759159803390503,-0.1992730051279068,-9.714542388916016
1781031006968931800,3.910931884765625,1.3104089498519897,-0.1846420019865036,-9.710238456726074
1781031006988444700,3.930444580078125,1.3517359495162964,-0.1792919933795929,-9.704672813415527
1781031007007958500,3.94995849609375,1.3970370292663574,-0.184798002243042,-9.698150634765625
1781031007027480300,3.969480224609375,1.4450969696044922,-0.20252400636672974,-9.690752029418945
1781031007046998800,3.988998779296875,1.4969509840011597,-0.23315100371837616,-9.68218994140625
1781031007066514700,4.0085146484375,1.5603090524673462,-0.27654600143432617,-9.671037673950195
1781031007086034700,4.02803466796875,1.6347459554672241,-0.3312700092792511,-9.657011032104492
1781031007105555000,4.047554931640625,1.722517967224121,-0.39563798904418945,-9.639315605163574
1781031007125067500,4.067067626953125,1.8232760429382324,-0.46712198853492737,-9.617559432983398
1781031007144581000,4.0865810546875,1.9367179870605469,-0.5435919761657715,-9.591330528259277
1781031007164093400,4.106093505859375,2.060818910598755,-0.6233100295066833,-9.56057071685791
1781031007183602400,4.1256025390625,2.1875760555267334,-0.7050120234489441,-9.526671409606934
1781031007203114500,4.145114501953125,2.3148019313812256,-0.787663996219635,-9.49006175994873
1781031007222631000,4.164630859375,2.430738925933838,-0.8683990240097046,-9.453961372375488
1781031007242147000,4.18414697265625,2.5318660736083984,-0.947048008441925,-9.419805526733398
1781031007261659400,4.203659423828125,2.6139719486236572,-1.0228509902954102,-9.389404296875
1781031007281171000,4.2231708984375,2.676589012145996,-1.0961689949035645,-9.363454818725586
1781031007300691700,4.242691650390625,2.7192249298095703,-1.167462944984436,-9.342529296875
1781031007320218000,4.262218017578125,2.741655111312866,-1.2363090515136719,-9.327102661132812
1781031007339741700,4.28174169921875,2.7535159587860107,-1.3034369945526123,-9.314462661743164
1781031007359258600,4.301258544921875,2.7558910846710205,-1.3665800094604492,-9.304704666137695
1781031007378775300,4.320775390625,2.7492918968200684,-1.4232569932937622,-9.298157691955566
1781031007398295300,4.34029541015625,2.731847047805786,-1.4699289798736572,-9.296037673950195
1781031007417814800,4.359814697265625,2.731847047805786,-1.4699289798736572,-9.296037673950195
1781031007437333800,4.379333740234375,2.6579880714416504,-1.519273042678833,-9.3095064163208
1781031007456852500,4.3988525390625,2.6021370887756348,-1.5227299928665161,-9.324707984924316
1781031007476374300,4.418374267578125,2.536400079727173,-1.5135819911956787,-9.344289779663086
1781031007495893800,4.437893798828125,2.465320110321045,-1.4948910474777222,-9.36629581451416
1781031007515405600,4.457405517578125,2.3926780223846436,-1.470289945602417,-9.38900089263916
1781031007534917400,4.47691748046875,2.3216490745544434,-1.44480299949646,-9.410764694213867
1781031007554432800,4.496432861328125,2.3216490745544434,-1.44480299949646,-9.410764694213867
1781031007573952300,4.5159521484375,2.2506539821624756,-1.4175989627838135,-9.432124137878418
1781031007612989700,4.55498974609375,2.033910036087036,-1.3218770027160645,-9.495043754577637
1781031007632505300,4.57450537109375,2.033910036087036,-1.3218770027160645,-9.495043754577637
1781031007652018200,4.59401806640625,1.9660789966583252,-1.2802029848098755,-9.515020370483398
1781031007671532500,4.613532470703125,1.8993819952011108,-1.2324930429458618,-9.534847259521484
1781031007691050200,4.63305029296875,1.8369319438934326,-1.1802719831466675,-9.553670883178711
1781031007710568000,4.65256787109375,1.7765990495681763,-1.1235500574111938,-9.571903228759766
1781031007730081500,4.67208154296875,1.716994047164917,-1.06427800655365,-9.58953857421875
1781031007749599000,4.691598876953125,1.6578969955444336,-1.0042669773101807,-9.60639476776123
1781031007769116400,4.711116455078125,1.5901089906692505,-0.9440659880638123,-9.623943328857422
1781031007788635000,4.730634765625,1.519592046737671,-0.8839110136032104,-9.641034126281738
1781031007808152800,4.75015283203125,1.4464139938354492,-0.8241819739341736,-9.657567024230957
1781031007827669800,4.769669677734375,1.3744159936904907,-0.766480028629303,-9.672821998596191
1781031007847187000,4.78918701171875,1.3056089878082275,-0.7111600041389465,-9.686569213867188
1781031007866708200,4.808708251953125,1.2416969537734985,-0.6592580080032349,-9.698637962341309
1781031007886229000,4.82822900390625,1.1830220222473145,-0.6114389896392822,-9.709099769592285
1781031007905744600,4.84774462890625,1.130702018737793,-0.5684930086135864,-9.717938423156738
1781031007925260300,4.86726025390625,1.0940940380096436,-0.5313079953193665,-9.724231719970703
1781031007944779500,4.886779541015625,1.0757050514221191,-0.501285970211029,-9.727875709533691
1781031007964296200,4.906296142578125,1.0795650482177734,-0.4801360070705414,-9.728515625
1781031007983807700,4.925807861328125,1.1075060367584229,-0.46889200806617737,-9.725922584533691
1781031008003322000,4.945322021484375,1.1578739881515503,-0.46766799688339233,-9.720113754272461
1781031008022841000,4.964841064453125,1.2260229587554932,-0.47640401124954224,-9.711329460144043
1781031008042358000,4.98435791015625,1.300165057182312,-0.49205198884010315,-9.700899124145508
1781031008061874400,5.00387451171875,1.377524971961975,-0.5125179886817932,-9.689156532287598
1781031008081393400,5.023393310546875,1.4627970457077026,-0.536378026008606,-9.675355911254883
1781031008100912000,5.042912109375,1.5560330152511597,-0.5632489919662476,-9.659270286560059
1781031008120432000,5.06243212890625,1.6610430479049683,-0.5936779975891113,-9.639942169189453
1781031008139953200,5.081953125,1.781365990638733,-0.627784013748169,-9.616268157958984
1781031008159467800,5.1014677734375,1.919424057006836,-0.6681299805641174,-9.586939811706543
1781031008178980400,5.12098046875,2.0736351013183594,-0.7150530219078064,-9.551372528076172
1781031008198493000,5.140492919921875,2.232029914855957,-0.7674030065536499,-9.51152515411377
1781031008218011000,5.160010986328125,2.232029914855957,-0.7674030065536499,-9.51152515411377
1781031008237532000,5.179531982421875,2.5259649753570557,-0.8791549801826477,-9.42796802520752
1781031008257051100,5.199051025390625,2.5259649753570557,-0.8791549801826477,-9.42796802520752
1781031008276572700,5.21857275390625,2.6375250816345215,-0.9329789876937866,-9.39217758178711
1781031008296089000,5.238089111328125,2.716686964035034,-0.9820759892463684,-9.364568710327148
1781031008315600400,5.257600341796875,2.782017946243286,-1.064316987991333,-9.336359024047852
1781031008335113500,5.277113525390625,2.776660919189453,-1.0981299877166748,-9.334038734436035
1781031008354630100,5.296630126953125,2.776660919189453,-1.0981299877166748,-9.334038734436035
1781031008374149600,5.316149658203125,2.757880926132202,-1.127756953239441,-9.336073875427246
1781031008393669400,5.33566943359375,2.7330310344696045,-1.1536849737167358,-9.340210914611816
1781031008413192700,5.355192626953125,2.7044260501861572,-1.174867033958435,-9.345895767211914
1781031008432717800,5.3747177734375,2.672266960144043,-1.1897809505462646,-9.353255271911621
1781031008452232400,5.394232421875,2.6343040466308594,-1.1966910362243652,-9.363138198852539
1781031008471746300,5.413746337890625,2.5896170139312744,-1.1936529874801636,-9.375984191894531
1781031008491265000,5.43326513671875,2.5413289070129395,-1.180778980255127,-9.390815734863281
1781031008510786300,5.452786376953125,2.4910941123962402,-1.158663034439087,-9.407015800476074
1781031008530302200,5.47230224609375,2.435657024383545,-1.1293050050735474,-9.42508602142334
1781031008549814500,5.491814453125,2.375169038772583,-1.0938349962234497,-9.444685935974121
1781031008569330700,5.51133056640625,2.3079450130462646,-1.0535399913787842,-9.465909004211426
1781031008588849400,5.530849365234375,2.231998920440674,-1.0094070434570312,-9.48890209197998
1781031008608369200,5.550369140625,2.1470210552215576,-0.9621040225028992,-9.51339340209961
1781031008627884300,5.56988427734375,2.0614070892333984,-0.9126629829406738,-9.537172317504883
1781031008647397600,5.589397705078125,1.9837490320205688,-0.862529993057251,-9.558283805847168
1781031008666915300,5.608915283203125,1.917127013206482,-0.8134920001029968,-9.576160430908203
1781031008686434600,5.6284345703125,1.8568459749221802,-0.7660660147666931,-9.591937065124512
1781031008705955600,5.64795556640625,1.8018829822540283,-0.7194049954414368,-9.606022834777832
1781031008725477000,5.66747705078125,1.7461639642715454,-0.6712870001792908,-9.61978530883789
1781031008744991700,5.68699169921875,1.67808997631073,-0.6197080016136169,-9.635350227355957
1781031008764505300,5.70650537109375,1.5947480201721191,-0.5630729794502258,-9.65296459197998
1781031008784022000,5.72602197265625,1.4957369565963745,-0.5008329749107361,-9.672224998474121
1781031008803539500,5.74553955078125,1.3919719457626343,-0.4346359968185425,-9.690897941589355
1781031008823054000,5.76505419921875,1.2923400402069092,-0.3682210147380829,-9.707433700561523
1781031008842568000,5.78456787109375,1.2022379636764526,-0.30453601479530334,-9.721207618713379
1781031008862081300,5.804081298828125,1.1299179792404175,-0.24653899669647217,-9.731521606445312
1781031008881593600,5.823593505859375,1.0792180299758911,-0.19536300003528595,-9.738435745239258
1781031008901106700,5.843106689453125,1.0516929626464844,-0.15062899887561798,-9.742240905761719
1781031008920618200,5.8626181640625,1.0476570129394531,-0.11152900010347366,-9.74320125579834
1781031008940132900,5.8821328125,1.0703610181808472,-0.07629700005054474,-9.741072654724121
1781031008959648800,5.901648681640625,1.1220099925994873,-0.04631400108337402,-9.735447883605957
1781031008979168000,5.92116796875,1.1978830099105835,-0.022369999438524246,-9.72648811340332
1781031008998686000,5.94068603515625,1.295583963394165,-0.005867999978363514,-9.713981628417969
1781031009018203000,5.960202880859375,1.295583963394165,-0.005867999978363514,-9.713981628417969
1781031009037722400,5.979722412109375,1.5417050123214722,0.0034179999493062496,-9.677971839904785
1781031009057241300,5.999241455078125,1.5417050123214722,0.0034179999493062496,-9.677971839904785
1781031009076761000,6.018760986328125,1.6773279905319214,-0.002471999963745475,-9.655390739440918
1781031009096282400,6.038282470703125,1.9518760442733765,-0.026201000437140465,-9.603618621826172
1781031009115799300,6.05779931640625,2.0856568813323975,-0.04123299941420555,-9.57540225982666
1781031009135317800,6.07731787109375,2.2144739627838135,-0.05788600072264671,-9.546347618103027
1781031009154835700,6.096835693359375,2.2144739627838135,-0.05788600072264671,-9.546347618103027
1781031009174347800,6.11634765625,2.3366990089416504,-0.07704699784517288,-9.5170316696167
1781031009193859000,6.135859130859375,2.4553709030151367,-0.10059700161218643,-9.486886978149414
1781031009213369300,6.155369384765625,2.6802868843078613,-0.16396300494670868,-9.424922943115234
1781031009232885000,6.174885009765625,2.6802868843078613,-0.16396300494670868,-9.424922943115234
1781031009252405800,6.19440576171875,2.7818949222564697,-0.20541100203990936,-9.39461898803711
1781031009271922200,6.213922119140625,2.8758609294891357,-0.2547079920768738,-9.365070343017578
1781031009291437600,6.2334375,2.960721015930176,-0.3113059997558594,-9.336874008178711
1781031009310956000,6.2529560546875,3.0322749614715576,-0.3749920129776001,-9.311534881591797
1781031009330476800,6.272476806640625,3.087902069091797,-0.44480100274086,-9.290157318115234
1781031009349997600,6.29199755859375,3.131179094314575,-0.5189610123634338,-9.271806716918945
1781031009369516800,6.311516845703125,3.157097101211548,-0.5925400257110596,-9.258597373962402
1781031009389033700,6.33103369140625,3.165910005569458,-0.661342978477478,-9.250926971435547
1781031009408550700,6.350550537109375,3.155914068222046,-0.7207130193710327,-9.249906539916992
1781031009428069000,6.370069091796875,3.1274631023406982,-0.7673119902610779,-9.255820274353027
1781031009447591000,6.3895908203125,3.0797479152679443,-0.7989959716796875,-9.269128799438477
1781031009467113200,6.40911328125,3.013446092605591,-0.8155859708786011,-9.289454460144043
1781031009486632700,6.4286328125,2.9300620555877686,-0.8188629746437073,-9.315803527832031
1781031009506152400,6.44815234375,2.833034038543701,-0.812171995639801,-9.346351623535156
1781031009525672000,6.467671875,2.7240710258483887,-0.7986779808998108,-9.379847526550293
1781031009564710400,6.50671044921875,2.4736289978027344,-0.7630209922790527,-9.451929092407227
1781031009584227800,6.526227783203125,2.342597007751465,-0.7436730265617371,-9.48678970336914
1781031009603742700,6.54574267578125,2.2116239070892334,-0.7235609889030457,-9.519725799560547
1781031009623256600,6.565256591796875,2.0824429988861084,-0.7026270031929016,-9.550378799438477
1781031009642771200,6.584771240234375,1.957137942314148,-0.6805210113525391,-9.578439712524414
1781031009662290000,6.6042900390625,1.8435380458831787,-0.6578789949417114,-9.602529525756836
1781031009681810400,6.623810546875,1.7429929971694946,-0.6348369717597961,-9.622835159301758
1781031009701331000,6.6433310546875,1.6566920280456543,-0.6117740273475647,-9.639558792114258
1781031009720849700,6.662849609375,1.587649941444397,-0.5891720056533813,-9.65257740020752
1781031009740365600,6.682365478515625,1.5362709760665894,-0.5661500096321106,-9.662264823913574
1781031009759883500,6.701883544921875,1.5019570589065552,-0.5405160188674927,-9.669123649597168
1781031009779402800,6.72140283203125,1.4790949821472168,-0.5095779895782471,-9.67432689666748
1781031009798917600,6.740917724609375,1.4601199626922607,-0.4716939926147461,-9.679129600524902
1781031009818433500,6.76043359375,1.4601199626922607,-0.4716939926147461,-9.679129600524902
1781031009837950200,6.7799501953125,1.421267032623291,-0.3793169856071472,-9.688968658447266
1781031009857470700,6.799470703125,1.3936309814453125,-0.3239389955997467,-9.694990158081055
1781031009876991700,6.81899169921875,1.3615319728851318,-0.2663469910621643,-9.701302528381348
1781031009896509700,6.838509765625,1.3311920166015625,-0.20979200303554535,-9.706900596618652
1781031009916030200,6.8580302734375,1.3311920166015625,-0.20979200303554535,-9.706900596618652
1781031009935552800,6.877552734375,1.3488049507141113,-0.12195900082588196,-9.70596981048584
1781031009955073000,6.897072998046875,1.3488049507141113,-0.12195900082588196,-9.70596981048584
1781031009974593300,6.91659326171875,1.4136079549789429,-0.10659000277519226,-9.696925163269043
1781031009994114300,6.9361142578125,1.5202840566635132,-0.11745999753475189,-9.680647850036621
1781031010013633000,6.955633056640625,1.6640360355377197,-0.15453100204467773,-9.656454086303711
1781031010033150000,6.97514990234375,1.830886960029602,-0.21553899347782135,-9.625040054321289
1781031010052669000,6.9946689453125,2.000101089477539,-0.293148010969162,-9.589247703552246
1781031010072193000,7.014193115234375,2.1690421104431152,-0.383556991815567,-9.549248695373535
1781031010091720200,7.03372021484375,2.3290319442749023,-0.4729909896850586,-9.507465362548828
1781031010111241700,7.05324169921875,2.47953200340271,-0.558040976524353,-9.464698791503906
1781031010130757400,7.07275732421875,2.621885061264038,-0.6366029977798462,-9.421276092529297
1781031010150275300,7.092275390625,2.7623889446258545,-0.7080960273742676,-9.37591552734375
1781031010169791500,7.11179150390625,2.8986880779266357,-0.7735289931297302,-9.329483985900879
1781031010189302300,7.13130224609375,3.0260329246520996,-0.834089994430542,-9.28371810913086
1781031010208812300,7.150812255859375,3.1406710147857666,-0.8912069797515869,-9.240234375
1781031010228320800,7.17032080078125,3.2390658855438232,-0.9456530213356018,-9.200772285461426
1781031010247824100,7.18982421875,3.321134090423584,-0.9984560012817383,-9.165868759155273
1781031010267329000,7.2093291015625,3.3855860233306885,-1.0499600172042847,-9.136487007141113
1781031010286839300,7.22883935546875,3.4328300952911377,-1.100869059562683,-9.112834930419922
1781031010306354000,7.24835400390625,3.4637739658355713,-1.1523879766464233,-9.094738960266113
1781031010325869800,7.267869873046875,3.478205919265747,-1.2050559520721436,-9.082395553588867
1781031010345381000,7.287381103515625,3.4770491123199463,-1.2592389583587646,-9.075486183166504
1781031010364893000,7.306892822265625,3.459644079208374,-1.313918948173523,-9.074385643005371
1781031010384408600,7.32640869140625,3.4279699325561523,-1.3678820133209229,-9.078431129455566
1781031010403922700,7.345922607421875,3.3859798908233643,-1.4194560050964355,-9.086268424987793
1781031010423434800,7.365434814453125,3.33569598197937,-1.4642959833145142,-9.09774398803711
1781031010442945300,7.3849453125,3.278536081314087,-1.5003160238265991,-9.112642288208008
1781031010462460000,7.4044599609375,3.2158029079437256,-1.5253169536590576,-9.130827903747559
1781031010481973000,7.423972900390625,3.147264003753662,-1.5377180576324463,-9.152603149414062
1781031010501480000,7.44347998046875,3.0750958919525146,-1.538411021232605,-9.176984786987305
1781031010520987600,7.462987548828125,2.9870100021362305,-1.5260770320892334,-9.208086967468262
1781031010540498200,7.482498291015625,2.8838539123535156,-1.503438949584961,-9.244623184204102
1781031010560008400,7.502008544921875,2.761773109436035,-1.4641900062561035,-9.288097381591797
1781031010579518200,7.521518310546875,2.619710922241211,-1.4093530178070068,-9.337603569030762
1781031010599028700,7.54102880859375,2.4595959186553955,-1.3401449918746948,-9.391186714172363
1781031010618542300,7.560542236328125,2.4595959186553955,-1.3401449918746948,-9.391186714172363
1781031010638055400,7.580055419921875,2.12904691696167,-1.1654889583587646,-9.494671821594238
1781031010657568300,7.599568359375,1.9774609804153442,-1.0669740438461304,-9.538931846618652
1781031010677079800,7.619079833984375,1.9774609804153442,-1.0669740438461304,-9.538931846618652
1781031010696593400,7.638593505859375,1.73642897605896,-0.8833490014076233,-9.604400634765625
1781031010716108300,7.6581083984375,1.644968032836914,-0.8012470006942749,-9.627673149108887
1781031010735627000,7.677626953125,1.558176040649414,-0.7241020202636719,-9.648200035095215
1781031010755145500,7.6971455078125,1.4728519916534424,-0.6500869989395142,-9.666855812072754
1781031010774658300,7.716658203125,1.4728519916534424,-0.6500869989395142,-9.666855812072754
1781031010794173400,7.73617333984375,1.385342001914978,-0.5784810185432434,-9.684327125549316
1781031010813687600,7.7556875,1.2970420122146606,-0.5101100206375122,-9.700386047363281
1781031010833195800,7.77519580078125,1.213215947151184,-0.44650799036026,-9.714357376098633
1781031010852701400,7.794701416015625,1.1397099494934082,-0.39112499356269836,-9.725640296936035
1781031010872214800,7.81421484375,1.083662986755371,-0.348455011844635,-9.733665466308594
1781031010891726600,7.8337265625,1.0512280464172363,-0.3217589855194092,-9.738140106201172
1781031010911237000,7.853237060546875,1.0471229553222656,-0.31090301275253296,-9.738936424255371
1781031010930753500,7.87275341796875,1.0710840225219727,-0.3146570026874542,-9.73620891571045
1781031010950269700,7.892269775390625,1.1201119422912598,-0.33020201325416565,-9.730175018310547
1781031010969785000,7.91178515625,1.1908960342407227,-0.3548159897327423,-9.720898628234863
1781031010989300500,7.931300537109375,1.2780779600143433,-0.3857879936695099,-9.708639144897461
1781031011008813600,7.9508134765625,1.3746559619903564,-0.42120400071144104,-9.693961143493652
1781031011028324900,7.970324951171875,1.4661810398101807,-0.45983999967575073,-9.678783416748047
1781031011047838200,7.989838134765625,1.5478119850158691,-0.5007050037384033,-9.664034843444824
1781031011067354000,8.00935400390625,1.6157890558242798,-0.5427370071411133,-9.650629043579102
1781031011086870000,8.0288701171875,1.670490026473999,-0.5853850245475769,-9.638816833496094
1781031011106382600,8.048382568359376,1.714756965637207,-0.6283230185508728,-9.628334045410156
1781031011125895400,8.0678955078125,1.7580690383911133,-0.6719189882278442,-9.617573738098145
1781031011145411000,8.0874111328125,1.8125230073928833,-0.7181100249290466,-9.604117393493652
1781031011164930000,8.106929931640625,1.8815549612045288,-0.768576979637146,-9.586920738220215
1781031011184451800,8.126451904296875,1.9687509536743164,-0.825518012046814,-9.564650535583496
1781031011203970300,8.14597021484375,2.0721890926361084,-0.8896960020065308,-9.537005424499512
1781031011223486500,8.165486572265625,2.1847729682922363,-0.9603700041770935,-9.50497055053711
1781031011243003600,8.185003662109375,2.290571928024292,-1.0360549688339233,-9.472057342529297
1781031011262521300,8.204521240234374,2.3820788860321045,-1.1132700443267822,-9.440673828125
1781031011282035500,8.224035400390624,2.4521520137786865,-1.1900099515914917,-9.413331985473633
1781031011301549000,8.243549072265624,2.496860980987549,-1.2641249895095825,-9.39189338684082
1781031011321063200,8.263063232421874,2.51611590385437,-1.335044026374817,-9.37692928314209
1781031011340569000,8.282569091796875,2.516019105911255,-1.4035190343856812,-9.366951942443848
1781031011360078000,8.302078125,2.5054190158843994,-1.4688999652862549,-9.35976505279541
1781031011379592700,8.3215927734375,2.4885239601135254,-1.5292589664459229,-9.354604721069336
1781031011399106600,8.3411064453125,2.467350959777832,-1.582368016242981,-9.351378440856934
1781031011418621000,8.360620849609376,2.440958023071289,-1.6256790161132812,-9.350875854492188
1781031011438138400,8.380138427734375,2.40704607963562,-1.6555720567703247,-9.354421615600586
1781031011457659400,8.399659423828124,2.3623099327087402,-1.6687259674072266,-9.363485336303711
1781031011477183200,8.419183349609375,2.3623099327087402,-1.6687259674072266,-9.363485336303711
1781031011496704300,8.438704345703124,2.229656934738159,-1.6400140523910522,-9.401009559631348
1781031011535723300,8.47772314453125,2.044796943664551,-1.5510870218276978,-9.457956314086914
1781031011555232500,8.497232421875,1.941817045211792,-1.4930410385131836,-9.4889497756958
1781031011574745600,8.51674560546875,1.941817045211792,-1.4930410385131836,-9.4889497756958
1781031011594257400,8.53625732421875,1.8387240171432495,-1.4301890134811401,-9.519121170043945
1781031011613764600,8.5557646484375,1.6518110036849976,-1.2985810041427612,-9.572105407714844
1781031011633275100,8.575275146484374,1.6518110036849976,-1.2985810041427612,-9.572105407714844
1781031011652796000,8.5947958984375,1.5773110389709473,-1.2317670583724976,-9.59347915649414
1781031011672315100,8.614315185546875,1.5175930261611938,-1.1646219491958618,-9.611480712890625
1781031011691829200,8.633829345703125,1.4735510349273682,-1.0980149507522583,-9.6261625289917
1781031011711346700,8.6533466796875,1.4429999589920044,-1.0327509641647339,-9.638007164001465
1781031011730869200,8.672869140625,1.420423984527588,-0.969760000705719,-9.64789867401123
1781031011750389000,8.692388916015625,1.3960479497909546,-0.9080060124397278,-9.657463073730469
1781031011769906700,8.71190673828125,1.367074966430664,-0.8465520143508911,-9.667184829711914
1781031011789426700,8.7314267578125,1.329859972000122,-0.784171998500824,-9.677631378173828
1781031011808949000,8.750948974609376,1.282027006149292,-0.7195069789886475,-9.689102172851562
1781031011828465000,8.77046484375,1.224092960357666,-0.6527789831161499,-9.701313972473145
1781031011847977000,8.78997705078125,1.168745994567871,-0.585273027420044,-9.71243953704834
1781031011867487500,8.809487548828125,1.1186809539794922,-0.5196580290794373,-9.722063064575195
1781031011886998300,8.828998291015624,1.0795069932937622,-0.45895200967788696,-9.729543685913086
1781031011906512400,8.848512451171874,1.056035041809082,-0.40537500381469727,-9.734498023986816
1781031011926025500,8.868025390625,1.0498089790344238,-0.36075401306152344,-9.73692798614502
1781031011945539800,8.887539794921874,1.0599429607391357,-0.32605400681495667,-9.737052917480469
1781031011965055500,8.907055419921875,1.0777740478515625,-0.3014659881591797,-9.73588752746582
1781031011984571600,8.926571533203125,1.1042020320892334,-0.28697100281715393,-9.73336410522461
1781031012004087000,8.946087158203126,1.1434580087661743,-0.2819089889526367,-9.728978157043457
1781031012023602400,8.9656025390625,1.1944400072097778,-0.286065012216568,-9.722729682922363
1781031012043117300,8.985117431640624,1.2579050064086914,-0.2991040050983429,-9.714329719543457
1781031012062635300,9.00463525390625,1.3347280025482178,-0.32050999999046326,-9.703390121459961
1781031012082158300,9.024158447265625,1.424612045288086,-0.3503890037536621,-9.689566612243652
1781031012101678300,9.04367822265625,1.525846004486084,-0.3872070014476776,-9.672738075256348
1781031012121193700,9.06319384765625,1.6310969591140747,-0.4309009909629822,-9.653695106506348
1781031012140710000,9.0827099609375,1.740067958831787,-0.48006799817085266,-9.632326126098633
1781031012160226600,9.1022265625,1.850342035293579,-0.533502995967865,-9.608933448791504
1781031012179742000,9.121741943359375,1.957502007484436,-0.590071976184845,-9.584362030029297
1781031012199259000,9.1412587890625,2.05977201461792,-0.6483290195465088,-9.559131622314453
1781031012218780200,9.1607802734375,2.05977201461792,-0.6483290195465088,-9.559131622314453
1781031012238299600,9.180299560546874,2.234239101409912,-0.7667909860610962,-9.511056900024414
1781031012257819000,9.19981884765625,2.306762933731079,-0.8264489769935608,-9.488720893859863
1781031012277339000,9.2193388671875,2.3663699626922607,-0.8857539892196655,-9.468670845031738
1781031012296854000,9.23885400390625,2.412282943725586,-0.9440810084342957,-9.451433181762695
1781031012316365300,9.258365234375,2.412282943725586,-0.9440810084342957,-9.451433181762695
1781031012335880000,9.2778798828125,2.454758882522583,-1.0559370517730713,-9.428634643554688
1781031012355396600,9.297396728515626,2.451201915740967,-1.107593059539795,-9.42363166809082
1781031012374913500,9.31691357421875,2.4313910007476807,-1.1545640230178833,-9.423127174377441
1781031012394429400,9.336429443359375,2.4313910007476807,-1.1545640230178833,-9.423127174377441
1781031012413942000,9.35594189453125,2.35811710357666,-1.231194019317627,-9.432043075561523
1781031012433457400,9.37545751953125,2.35811710357666,-1.231194019317627,-9.432043075561523
1781031012452973300,9.394973388671875,2.3142240047454834,-1.2584550380706787,-9.439313888549805
1781031012472486000,9.41448583984375,2.2694430351257324,-1.277143955230713,-9.447672843933105
1781031012492000300,9.434000244140625,2.2220170497894287,-1.284769058227539,-9.457906723022461
1781031012511511800,9.45351171875,2.17295503616333,-1.2812600135803223,-9.469775199890137
1781031012531027700,9.47302783203125,2.1241369247436523,-1.2675329446792603,-9.482688903808594
1781031012550548000,9.4925478515625,2.076530933380127,-1.2442549467086792,-9.496307373046875
1781031012570069000,9.512069091796874,2.031580924987793,-1.2141389846801758,-9.509918212890625
1781031012589588700,9.531588623046876,1.9873590469360352,-1.1786960363388062,-9.523711204528809
1781031012609108500,9.5511083984375,1.9395060539245605,-1.1406699419021606,-9.538196563720703
1781031012628629500,9.57062939453125,1.8858439922332764,-1.1006649732589722,-9.553645133972168
1781031012648148200,9.590148193359376,1.8231639862060547,-1.0584059953689575,-9.570572853088379
1781031012667666700,9.609666748046875,1.7495629787445068,-1.0134220123291016,-9.589160919189453
1781031012687181300,9.629181396484375,1.666098952293396,-0.9655550122261047,-9.608943939208984
1781031012706696200,9.6486962890625,1.5770219564437866,-0.9152479767799377,-9.62887954711914
1781031012726215400,9.66821533203125,1.4901920557022095,-0.8625789880752563,-9.647551536560059
1781031012745734100,9.687734130859376,1.4089239835739136,-0.8085529804229736,-9.6644287109375
1781031012765251300,9.707251220703125,1.3341610431671143,-0.753715991973877,-9.679459571838379
1781031012784772900,9.72677294921875,1.2662789821624756,-0.6991140246391296,-9.692667007446289
1781031012804294400,9.74629443359375,1.2034120559692383,-0.6447380185127258,-9.704437255859375
1781031012823812400,9.765812255859375,1.1474980115890503,-0.5915259718894958,-9.714594841003418
1781031012843328000,9.785327880859375,1.0957159996032715,-0.5396109819412231,-9.723591804504395
1781031012862846200,9.80484619140625,1.0487730503082275,-0.49017098546028137,-9.731382369995117
1781031012882366500,9.824366455078126,1.008705973625183,-0.4447709918022156,-9.737796783447266
1781031012901884700,9.843884765625,0.9768080115318298,-0.4046649932861328,-9.742796897888184
1781031012921399000,9.86339892578125,0.955843985080719,-0.37092700600624084,-9.74621868133545
1781031012940913700,9.88291357421875,0.9423059821128845,-0.3432539999485016,-9.748550415039062
1781031012960430300,9.902430419921876,0.9400489926338196,-0.3222070038318634,-9.749486923217773
1781031012979947800,9.92194775390625,0.9502459764480591,-0.30702701210975647,-9.748988151550293
1781031012999467500,9.941467529296874,0.9788169860839844,-0.297203004360199,-9.746464729309082
1781031013018986200,9.960986328125,1.0241940021514893,-0.29135099053382874,-9.741978645324707
1781031013038498300,9.980498291015625,1.0842430591583252,-0.29010799527168274,-9.735515594482422
1781031013058013200,10.00001318359375,1.1575469970703125,-0.29367101192474365,-9.726963996887207
1781031013077533200,10.019533203125,1.2411730289459229,-0.3022669851779938,-9.716384887695312
1781031013097050000,10.039050048828125,1.2411730289459229,-0.3022669851779938,-9.716384887695312
1781031013116566800,10.05856689453125,1.3315670490264893,-0.3149000108242035,-9.704008102416992
1781031013136085200,10.078085205078125,1.4231679439544678,-0.3311389982700348,-9.690455436706543
1781031013155602200,10.097602294921876,1.5190030336380005,-0.35195401310920715,-9.675161361694336
1781031013175120100,10.1171201171875,1.7297840118408203,-0.405799001455307,-9.637592315673828
1781031013194639600,10.1366396484375,1.7297840118408203,-0.405799001455307,-9.637592315673828
1781031013214160600,10.15616064453125,1.975409984588623,-0.4769819974899292,-9.586983680725098
1781031013233682400,10.175682373046875,1.975409984588623,-0.4769819974899292,-9.586983680725098
1781031013253201400,10.195201416015625,2.1082921028137207,-0.5192639827728271,-9.556435585021973
1781031013272719600,10.2147197265625,2.2404370307922363,-0.5641549825668335,-9.52376937866211
1781031013292240000,10.234239990234375,2.3646600246429443,-0.6095579862594604,-9.490880966186523
1781031013311761200,10.25376123046875,2.475393056869507,-0.6546390056610107,-9.45959186553955
1781031013331282700,10.27328271484375,2.5656518936157227,-0.6968569755554199,-9.432486534118652
1781031013350800100,10.292800048828125,2.6306800842285156,-0.7359300255775452,-9.411585807800293
1781031013370316500,10.312316650390626,2.670958995819092,-0.7713559865951538,-9.397392272949219
1781031013389840000,10.33183984375,2.687933921813965,-0.8035889863967896,-9.389847755432129
1781031013409362400,10.351362548828124,2.686558961868286,-0.833329975605011,-9.387648582458496
1781031013428885500,10.370885498046874,2.6723599433898926,-0.8608149886131287,-9.389222145080566
1781031013448405500,10.390405517578126,2.650096893310547,-0.8857120275497437,-9.39321517944336
1781031013487431200,10.42943115234375,2.594125986099243,-0.9235389828681946,-9.40518856048584
1781031013506946800,10.44894677734375,2.5601699352264404,-0.9328250288963318,-9.413573265075684
1781031013526466800,10.468466796875,2.521246910095215,-0.9337360262870789,-9.423982620239258
1781031013545986800,10.48798681640625,2.476922035217285,-0.9260560274124146,-9.43648624420166
1781031013565504500,10.50750439453125,2.4282031059265137,-0.9109429717063904,-9.45060920715332
1781031013585023500,10.5270234375,2.3755900859832764,-0.8900290131568909,-9.465961456298828
1781031013604543000,10.54654296875,2.315018892288208,-0.8647720217704773,-9.483292579650879
1781031013624062200,10.566062255859375,2.2496159076690674,-0.8373450040817261,-9.501477241516113
1781031013643580400,10.585580322265624,2.179414987564087,-0.8085640072822571,-9.520313262939453
1781031013663098600,10.6050986328125,2.1048710346221924,-0.7788640260696411,-9.539542198181152
1781031013682619600,10.62461962890625,2.026165008544922,-0.7482569813728333,-9.559015274047852
1781031013702141000,10.644140869140625,1.9445680379867554,-0.717399001121521,-9.578309059143066
1781031013721658000,10.663658203125,1.8657779693603516,-0.6863420009613037,-9.59623908996582
1781031013741177600,10.683177490234375,1.7898449897766113,-0.6541360020637512,-9.612936973571777
1781031013760698600,10.70269873046875,1.717972993850708,-0.6198229789733887,-9.628313064575195
1781031013780216000,10.722216064453125,1.6522400379180908,-0.5836799740791321,-9.642065048217773
1781031013799737000,10.741737060546875,1.5904639959335327,-0.543487012386322,-9.654793739318848
1781031013819261200,10.76126123046875,1.5904639959335327,-0.543487012386322,-9.654793739318848
1781031013838782700,10.78078271484375,1.4742920398712158,-0.45004498958587646,-9.678011894226074
1781031013858305500,10.800305419921875,1.422139048576355,-0.3971709907054901,-9.688125610351562
1781031013877826800,10.819826904296875,1.3745230436325073,-0.3424000144004822,-9.697084426879883
1781031013897346000,10.839345947265626,1.330494999885559,-0.286761999130249,-9.705026626586914
1781031013916864000,10.858864013671875,1.330494999885559,-0.286761999130249,-9.705026626586914
1781031013936380400,10.87838037109375,1.29196298122406,-0.2341880053281784,-9.711641311645508
1781031013955895800,10.897895751953126,1.242398977279663,-0.1420309990644455,-9.719890594482422
1781031013975412700,10.917412841796875,1.2316279411315918,-0.1045679971575737,-9.721736907958984
1781031013994933000,10.93693310546875,1.2316279411315918,-0.1045679971575737,-9.721736907958984
1781031014014454000,10.9564541015625,1.2379640340805054,-0.07530099898576736,-9.72120189666748
1781031014033972700,10.97597265625,1.2621619701385498,-0.05580899864435196,-9.718221664428711
1781031014053489700,10.99548974609375,1.310986042022705,-0.0468129999935627,-9.711801528930664
1781031014073011700,11.01501171875,1.3827300071716309,-0.049490999430418015,-9.701834678649902
1781031014092534300,11.0345341796875,1.4747439622879028,-0.06520800292491913,-9.68818187713623
1781031014112053500,11.054053466796875,1.5844080448150635,-0.09356199949979782,-9.670620918273926
1781031014131566300,11.07356640625,1.7017899751663208,-0.13236400485038757,-9.650201797485352
1781031014151076400,11.093076416015625,1.8257570266723633,-0.17983399331569672,-9.626748085021973
1781031014170588700,11.112588623046875,1.9504209756851196,-0.23403899371623993,-9.60109806060791
1781031014190098400,11.132098388671874,2.077873945236206,-0.29365700483322144,-9.572680473327637
1781031014209609700,11.151609619140626,2.2090039253234863,-0.35770899057388306,-9.54108715057373
1781031014229127400,11.17112744140625,2.343147039413452,-0.42566901445388794,-9.506233215332031
1781031014248643300,11.190643310546875,2.479796886444092,-0.49725499749183655,-9.468016624450684
1781031014268159700,11.21015966796875,2.615894079208374,-0.5717759728431702,-9.42709732055664
1781031014287671600,11.229671630859375,2.7485640048980713,-0.648472011089325,-9.384288787841797
1781031014307182000,11.24918212890625,2.8724629878997803,-0.725678026676178,-9.341431617736816
1781031014326695000,11.26869482421875,2.9836530685424805,-0.8021489977836609,-9.3002347946167
1781031014346202000,11.2882021484375,3.0784080028533936,-0.8769789934158325,-9.262521743774414
1781031014365708000,11.3077080078125,3.1541099548339844,-0.9496530294418335,-9.229828834533691
1781031014385217000,11.327217041015626,3.2081849575042725,-1.019642949104309,-9.203688621520996
1781031014404726800,11.346726806640625,3.241166114807129,-1.0869230031967163,-9.184412956237793
1781031014424234000,11.36623388671875,3.253467082977295,-1.1500459909439087,-9.172368049621582
1781031014443743000,11.385742919921874,3.2468159198760986,-1.2085260152816772,-9.167204856872559
1781031014463259400,11.40525927734375,3.2239830493927,-1.2608319520950317,-9.168219566345215
1781031014482768600,11.4247685546875,3.1862480640411377,-1.3043899536132812,-9.175314903259277
1781031014502278400,11.4442783203125,3.1380350589752197,-1.3379559516906738,-9.187088966369629
1781031014521799700,11.463799560546875,3.0818850994110107,-1.359529972076416,-9.20291519165039
1781031014541319000,11.48331884765625,3.0195770263671875,-1.3700239658355713,-9.221994400024414
1781031014560836900,11.5028369140625,2.952263116836548,-1.3697079420089722,-9.243810653686523
1781031014580358700,11.522358642578125,2.882746934890747,-1.3603960275650024,-9.267097473144531
1781031014599881500,11.541881591796875,2.8098061084747314,-1.3448410034179688,-9.29173755645752
1781031014619402800,11.56140283203125,2.8098061084747314,-1.3448410034179688,-9.29173755645752
1781031014638923300,11.58092333984375,2.6427690982818604,-1.297052025794983,-9.34737491607666
1781031014658443800,11.60044384765625,2.5413079261779785,-1.265192985534668,-9.37982177734375
1781031014677964000,11.619964111328125,2.4277069568634033,-1.226951003074646,-9.414925575256348
1781031014697483300,11.639483154296874,2.3022379875183105,-1.1814199686050415,-9.452192306518555
1781031014717002500,11.65900244140625,2.3022379875183105,-1.1814199686050415,-9.452192306518555
1781031014736520400,11.6785205078125,2.0446360111236572,-1.0680660009384155,-9.524636268615723
1781031014756038700,11.69803857421875,1.921623945236206,-1.0016000270843506,-9.557413101196289
1781031014775564300,11.717564208984374,1.8061909675598145,-0.9294379949569702,-9.587169647216797
1781031014795088000,11.737087890625,1.8061909675598145,-0.9294379949569702,-9.587169647216797
1781031014814608100,11.756608154296876,1.6023989915847778,-0.7717610001564026,-9.637255668640137
1781031014834130000,11.7761298828125,1.6023989915847778,-0.7717610001564026,-9.637255668640137
1781031014853651700,11.795651611328125,1.5061039924621582,-0.68715900182724,-9.659165382385254
1781031014873171000,11.8151708984375,1.4122209548950195,-0.6003100275993347,-9.679115295410156
1781031014892686600,11.8346865234375,1.3211050033569336,-0.5130940079689026,-9.696980476379395
1781031014912203500,11.85420361328125,1.2349309921264648,-0.42828598618507385,-9.712441444396973
1781031014931724500,11.873724609375,1.154845952987671,-0.3487580120563507,-9.725465774536133
1781031014951245000,11.8932451171875,1.083569049835205,-0.2771489918231964,-9.735966682434082
1781031014970762800,11.9127626953125,1.025650978088379,-0.21525999903678894,-9.743803977966309
1781031014990279200,11.932279052734375,0.9828450083732605,-0.1641400009393692,-9.749208450317383
1781031015009794800,11.951794921875,0.9556760191917419,-0.12380500137805939,-9.752504348754883
1781031015029311500,11.9713115234375,0.9439939856529236,-0.09366799890995026,-9.753978729248047
1781031015048832000,11.99083203125,0.947318971157074,-0.0727280005812645,-9.75383472442627
1781031015068352500,12.0103525390625,0.9643549919128418,-0.05963699892163277,-9.752253532409668
1781031015087869000,12.029868896484375,0.9938089847564697,-0.05298300087451935,-9.749336242675781
1781031015107387400,12.049387451171874,1.0337690114974976,-0.051235001534223557,-9.745187759399414
1781031015126908700,12.06890869140625,1.0821549892425537,-0.05327799916267395,-9.739922523498535
1781031015146429200,12.08842919921875,1.1378270387649536,-0.05822800099849701,-9.73354721069336
1781031015165951000,12.107950927734375,1.200232982635498,-0.06573999673128128,-9.72600269317627
1781031015185472800,12.12747265625,1.2701159715652466,-0.07626300305128098,-9.717046737670898
1781031015204993000,12.146992919921875,1.3490359783172607,-0.0906979963183403,-9.706279754638672
1781031015224516900,12.166516845703125,1.4408849477767944,-0.11102999746799469,-9.692858695983887
1781031015244042000,12.1860419921875,1.5467170476913452,-0.13856899738311768,-9.676180839538574
1781031015263565300,12.2055654296875,1.6668269634246826,-0.17457599937915802,-9.655630111694336
1781031015283086300,12.22508642578125,1.7983510494232178,-0.21913400292396545,-9.631091117858887
1781031015302607600,12.244607666015625,1.9362679719924927,-0.2712729871273041,-9.602983474731445
1781031015322129000,12.26412890625,2.07171893119812,-0.3290010094642639,-9.572864532470703
1781031015341646300,12.283646240234376,2.199639081954956,-0.38979199528694153,-9.541994094848633
1781031015361163300,12.303163330078124,2.3144679069519043,-0.45201098918914795,-9.512041091918945
1781031015380680200,12.32268017578125,2.409950017929077,-0.5138710141181946,-9.485151290893555
1781031015400193800,12.34219384765625,2.4815618991851807,-0.5745840072631836,-9.463175773620605
1781031015419708400,12.36170849609375,2.5301051139831543,-0.6334789991378784,-9.446548461914062
1781031015458748700,12.400748779296874,2.5777089595794678,-0.743241012096405,-9.425657272338867
1781031015478269200,12.420269287109376,2.581489086151123,-0.7918639779090881,-9.420661926269531
1781031015497784600,12.43978466796875,2.5740699768066406,-0.8337429761886597,-9.41907787322998
1781031015517298200,12.459298095703126,2.5591280460357666,-0.8667439818382263,-9.420170783996582
1781031015536819000,12.47881884765625,2.5591280460357666,-0.8667439818382263,-9.420170783996582
1781031015556341500,12.498341552734376,2.5344579219818115,-0.8873649835586548,-9.424918174743652
1781031015575862800,12.51786279296875,2.4986701011657715,-0.8952940106391907,-9.433721542358398
1781031015595383000,12.537383056640625,2.396501064300537,-0.8774279952049255,-9.461865425109863
1781031015614903000,12.556903076171874,2.396501064300537,-0.8774279952049255,-9.461865425109863
1781031015634425600,12.576425537109374,2.2652029991149902,-0.829056978225708,-9.49850082397461
1781031015653949400,12.595949462890625,2.2652029991149902,-0.829056978225708,-9.49850082397461
1781031015673470700,12.615470703125,2.193526029586792,-0.800258994102478,-9.517773628234863
1781031015692988000,12.63498779296875,2.1204700469970703,-0.7713170051574707,-9.536702156066895
1781031015712502500,12.65450244140625,2.0466220378875732,-0.7430959939956665,-9.555057525634766
1781031015732018700,12.674018798828126,1.9713879823684692,-0.7154150009155273,-9.572972297668457
1781031015751533600,12.693533447265626,1.8968009948730469,-0.6886789798736572,-9.589987754821777
1781031015771045600,12.713045654296875,1.8242440223693848,-0.6624780297279358,-9.605897903442383
1781031015790562000,12.73256201171875,1.7579660415649414,-0.6354849934577942,-9.620068550109863
1781031015810082300,12.752082275390626,1.696485996246338,-0.6061099767684937,-9.632993698120117
1781031015829601000,12.77160107421875,1.6387569904327393,-0.572396993637085,-9.645042419433594
1781031015849117700,12.79111767578125,1.583122968673706,-0.5322089791297913,-9.656628608703613
1781031015868632300,12.81063232421875,1.5273009538650513,-0.483474999666214,-9.668174743652344
1781031015888144600,12.83014453125,1.4696619510650635,-0.42518600821495056,-9.679840087890625
1781031015907661300,12.849661376953126,1.4058949947357178,-0.35760200023651123,-9.692035675048828
1781031015927181300,12.869181396484375,1.338096022605896,-0.2825450003147125,-9.70410442352295
1781031015946700800,12.88870068359375,1.2685320377349854,-0.2032569944858551,-9.715426445007324
1781031015966220000,12.908219970703126,1.2008960247039795,-0.123928003013134,-9.72535228729248
1781031015985742600,12.92774267578125,1.1395180225372314,-0.04902299866080284,-9.73340129852295
1781031016005265700,12.947265625,1.0887880325317383,0.017482999712228775,-9.739314079284668
1781031016024785400,12.966785400390625,1.05240797996521,0.07203800231218338,-9.743061065673828
1781031016044305000,12.986304931640625,1.0378650426864624,0.11215399950742722,-9.744242668151855
1781031016063823400,13.0058232421875,1.0458940267562866,0.1366109997034073,-9.743073463439941
1781031016083344400,13.025344482421875,1.0760899782180786,0.14477300643920898,-9.739665031433105
1781031016102865700,13.04486572265625,1.1278250217437744,0.13711099326610565,-9.733920097351074
1781031016122379500,13.064379638671875,1.1979880332946777,0.11417099833488464,-9.725831031799316
1781031016141892900,13.083892822265625,1.2841750383377075,0.07617300003767014,-9.71519947052002
1781031016161408000,13.103407958984375,1.3800239562988281,0.024669000878930092,-9.702315330505371
1781031016180924400,13.12292431640625,1.4860119819641113,-0.0384880006313324,-9.686603546142578
1781031016200441900,13.14244189453125,1.6010199785232544,-0.11059500277042389,-9.667704582214355
1781031016219958000,13.1619580078125,1.7253450155258179,-0.18979400396347046,-9.645058631896973
1781031016239477000,13.18147705078125,1.8586390018463135,-0.2738089859485626,-9.618236541748047
1781031016258996700,13.200996826171876,1.996433973312378,-0.3594279885292053,-9.58775520324707
1781031016278516700,13.220516845703125,2.1348509788513184,-0.4451630115509033,-9.554278373718262
1781031016298036000,13.240035888671875,2.2699599266052246,-0.5302839875221252,-9.518722534179688
1781031016317556200,13.25955615234375,2.4001710414886475,-0.6148729920387268,-9.481619834899902
1781031016337079300,13.279079345703124,2.4001710414886475,-0.6148729920387268,-9.481619834899902
1781031016356600300,13.298600341796876,2.626054048538208,-0.7791820168495178,-9.409395217895508
1781031016376119300,13.318119384765625,2.7135989665985107,-0.8597519993782043,-9.377484321594238
1781031016395637500,13.337637451171876,2.7808640003204346,-0.9396650195121765,-9.35007095336914
1781031016415156200,13.35715625,2.7808640003204346,-0.9396650195121765,-9.35007095336914
1781031016434675000,13.376675048828124,2.824028968811035,-1.0181729793548584,-9.328890800476074
1781031016454189800,13.39618994140625,2.8417210578918457,-1.0945550203323364,-9.31485652923584
1781031016473703200,13.415703125,2.8362319469451904,-1.1682809591293335,-9.307572364807129
1781031016493223400,13.435223388671876,2.8093791007995605,-1.2374680042266846,-9.306774139404297
1781031016512740600,13.45474072265625,2.7690300941467285,-1.3000359535217285,-9.31033706665039
1781031016532262400,13.474262451171874,2.718355894088745,-1.3536529541015625,-9.317625999450684
1781031016551789600,13.49378955078125,2.662087917327881,-1.3967609405517578,-9.327505111694336
1781031016571310000,13.51331005859375,2.60191011428833,-1.4278730154037476,-9.339765548706055
1781031016590831000,13.5328310546875,2.540081024169922,-1.4471980333328247,-9.353801727294922
1781031016610354700,13.552354736328125,2.4767160415649414,-1.4551039934158325,-9.369555473327637
1781031016629879300,13.57187939453125,2.4119439125061035,-1.4531320333480835,-9.38674259185791
1781031016649406200,13.59140625,2.3416008949279785,-1.4430099725723267,-9.406094551086426
1781031016668932400,13.610932373046875,2.2653379440307617,-1.4256409406661987,-9.427395820617676
1781031016688456200,13.630456298828125,2.1828510761260986,-1.4015120267868042,-9.450446128845215
1781031016707978500,13.649978515625,2.092618942260742,-1.3694900274276733,-9.475517272949219
1781031016727500500,13.66950048828125,1.994439959526062,-1.3284169435501099,-9.502500534057617
1781031016747026400,13.6890263671875,1.8892550468444824,-1.2771060466766357,-9.530986785888672
1781031016766550300,13.70855029296875,1.7829649448394775,-1.215366005897522,-9.559494018554688
1781031016786072600,13.728072509765624,1.6780539751052856,-1.144752025604248,-9.587162017822266
1781031016805595400,13.747595458984375,1.5770469903945923,-1.0673589706420898,-9.613202095031738
1781031016825117200,13.7671171875,1.4825359582901,-0.9860410094261169,-9.636898040771484
1781031016844636000,13.786635986328125,1.395027995109558,-0.9026749730110168,-9.658109664916992
1781031016864157200,13.8061572265625,1.3139840364456177,-0.8186950087547302,-9.67694091796875
1781031016883681500,13.825681640625,1.238713026046753,-0.7349810004234314,-9.693574905395508
1781031016903200300,13.8452001953125,1.1681209802627563,-0.6522259712219238,-9.708248138427734
1781031016922716700,13.864716552734375,1.1013269424438477,-0.5713649988174438,-9.721142768859863
1781031016942234600,13.884234619140624,1.0400010347366333,-0.4942449927330017,-9.732118606567383
1781031016961749500,13.90374951171875,0.9839730262756348,-0.421781986951828,-9.741350173950195
1781031016981266000,13.923265869140625,0.9363139867782593,-0.3554239869117737,-9.74869155883789
1781031017000783600,13.94278369140625,0.9005849957466125,-0.2965500056743622,-9.75402545928955
1781031017020300500,13.962300537109375,0.8807920217514038,-0.24685999751091003,-9.757214546203613
1781031017039817700,13.981817626953125,0.8786669969558716,-0.20753400027751923,-9.758323669433594
1781031017059337700,14.001337646484375,0.8936100006103516,-0.1791120022535324,-9.757529258728027
1781031017078860000,14.020860107421875,0.9341070055961609,-0.16410699486732483,-9.754000663757324
1781031017098380500,14.040380615234374,0.9986929893493652,-0.1643030047416687,-9.74759578704834
1781031017117899500,14.0598994140625,1.0848220586776733,-0.18120600283145905,-9.738085746765137
1781031017137418000,14.07941796875,1.1879199743270874,-0.2148119956254959,-9.725363731384277
1781031017156935000,14.098934814453125,1.1879199743270874,-0.2148119956254959,-9.725363731384277
1781031017176454100,14.1184541015625,1.4274259805679321,-0.329118013381958,-9.689897537231445
1781031017195977700,14.137977783203125,1.5523450374603271,-0.4052959978580475,-9.667779922485352
1781031017215504000,14.15750390625,1.676745057106018,-0.4902549982070923,-9.643037796020508
1781031017235026700,14.177026611328126,1.800447940826416,-0.5808709859848022,-9.615662574768066
1781031017254545000,14.196544921875,1.800447940826416,-0.5808709859848022,-9.615662574768066
1781031017274061600,14.2160615234375,1.92392897605896,-0.6739670038223267,-9.585627555847168
1781031017293580800,14.235580810546875,2.0473079681396484,-0.7666810154914856,-9.553047180175781
1781031017313099300,14.255099365234376,2.1671841144561768,-0.8574740290641785,-9.51882553100586
1781031017332619000,14.274618896484375,2.2801380157470703,-0.9445390105247498,-9.484134674072266
1781031017352140800,14.294140869140625,2.2801380157470703,-0.9445390105247498,-9.484134674072266
1781031017391179800,14.3331796875,2.5295770168304443,-1.1705809831619263,-9.395263671875
1781031017410704400,14.352704345703126,2.5737099647521973,-1.2354589700698853,-9.37494945526123
1781031017430226000,14.372225830078126,2.595160961151123,-1.295719027519226,-9.360889434814453
1781031017449743000,14.3917431640625,2.5934550762176514,-1.3512550592422485,-9.353507995605469
1781031017469260500,14.411260498046875,2.57295298576355,-1.4030300378799438,-9.351546287536621
1781031017488780000,14.430780029296875,2.534640073776245,-1.4495400190353394,-9.354914665222168
1781031017508299300,14.45029931640625,2.48217511177063,-1.4897470474243164,-9.362663269042969
1781031017527817000,14.46981689453125,2.4196670055389404,-1.5224800109863281,-9.37375545501709
1781031017547338500,14.48933837890625,2.351840019226074,-1.5473250150680542,-9.38693904876709
1781031017566864000,14.50886376953125,2.282166004180908,-1.5644700527191162,-9.401283264160156
1781031017586388200,14.52838818359375,2.2113239765167236,-1.5735559463500977,-9.416685104370117
1781031017605909500,14.547909423828125,2.139791965484619,-1.574470043182373,-9.43304443359375
1781031017625425000,14.5674248046875,2.0689010620117188,-1.567762017250061,-9.44996166229248
1781031017644939300,14.586939208984376,2.000494956970215,-1.5547709465026855,-9.466821670532227
1781031017664458500,14.60645849609375,1.9343639612197876,-1.5363399982452393,-9.483558654785156
1781031017683981000,14.62598095703125,1.8632149696350098,-1.5121309757232666,-9.501678466796875
1781031017703504100,14.645504150390625,1.7841479778289795,-1.4813439846038818,-9.521682739257812
1781031017723020300,14.665020263671876,1.6937999725341797,-1.4428110122680664,-9.544073104858398
1781031017742535400,14.684535400390626,1.5896910429000854,-1.395395040512085,-9.568999290466309
1781031017762051600,14.704051513671875,1.4725580215454102,-1.3377480506896973,-9.59593677520752
1781031017781568300,14.723568359375,1.345181941986084,-1.2708799839019775,-9.623685836791992
1781031017801085400,14.74308544921875,1.224526047706604,-1.1972739696502686,-9.649198532104492
1781031017820601300,14.762601318359375,1.120690941810608,-1.120455026626587,-9.671021461486816
1781031017840117000,14.782116943359375,1.0387719869613647,-1.0447479486465454,-9.688624382019043
1781031017859630300,14.80163037109375,0.9811540246009827,-0.9739630222320557,-9.701995849609375
1781031017879141600,14.8211416015625,0.9452090263366699,-0.9101020097732544,-9.711761474609375
1781031017898655000,14.840655029296874,0.9224969744682312,-0.8532270193099976,-9.719104766845703
1781031017918172200,14.860172119140625,0.9049310088157654,-0.8028010129928589,-9.72504997253418
1781031017937690400,14.8796904296875,0.8880529999732971,-0.7587519884109497,-9.730141639709473
1781031017957204500,14.89920458984375,0.8880529999732971,-0.7587519884109497,-9.730141639709473
1781031017976722700,14.91872265625,0.8665770292282104,-0.7178440093994141,-9.735180854797363
1781031017996244200,14.938244140625,0.8106439709663391,-0.6401780247688293,-9.745409965515137
1781031018015768600,14.9577685546875,0.8106439709663391,-0.6401780247688293,-9.745409965515137
1781031018035291000,14.977290771484375,0.7721710205078125,-0.5644689798355103,-9.753210067749023
1781031018054807800,14.996807861328126,0.7661610245704651,-0.5267099738121033,-9.755796432495117
1781031018074326500,15.016326416015625,0.7661610245704651,-0.5267099738121033,-9.755796432495117
1781031018093846000,15.035845947265624,0.7847340106964111,-0.4925589859485626,-9.756104469299316
1781031018113364200,15.0553642578125,0.8299810290336609,-0.46337300539016724,-9.753789901733398
1781031018132884200,15.07488427734375,0.9016820192337036,-0.4398899972438812,-9.74851131439209
1781031018152405800,15.09440576171875,0.9962009787559509,-0.4225359857082367,-9.740074157714844
1781031018171926500,15.113926513671874,1.1095420122146606,-0.4109779894351959,-9.728309631347656
1781031018191449600,15.13344970703125,1.235813021659851,-0.40421900153160095,-9.713359832763672
1781031018210969300,15.15296923828125,1.363299012184143,-0.4006820023059845,-9.696435928344727
1781031018230487000,15.172487060546874,1.4892959594726562,-0.399150013923645,-9.677947998046875
1781031018250007000,15.192007080078126,1.6123780012130737,-0.3987570106983185,-9.658220291137695
1781031018269528000,15.211528076171875,1.732869029045105,-0.3995029926300049,-9.637299537658691
1781031018289052000,15.231052001953126,1.8520859479904175,-0.40168601274490356,-9.615009307861328
1781031018308577000,15.250576904296874,1.9720669984817505,-0.40612199902534485,-9.590934753417969
1781031018328100000,15.27010009765625,2.0943350791931152,-0.4134489893913269,-9.564664840698242
1781031018347621600,15.28962158203125,2.218686103820801,-0.42400500178337097,-9.536123275756836
1781031018367148500,15.3091484375,2.344557046890259,-0.43794599175453186,-9.505327224731445
1781031018386674200,15.328674072265626,2.4689059257507324,-0.45484399795532227,-9.472993850708008
1781031018406196000,15.348196044921876,2.5820391178131104,-0.4739440083503723,-9.441845893859863
1781031018425720000,15.367719970703124,2.674628973007202,-0.493818998336792,-9.415014266967773
1781031018445247200,15.387247314453125,2.7403318881988525,-0.512474000453949,-9.395103454589844
1781031018464776400,15.4067763671875,2.7735400199890137,-0.5281500220298767,-9.38448429107666
1781031018484304000,15.426303955078126,2.7735140323638916,-0.5398319959640503,-9.383827209472656
1781031018503828500,15.445828369140624,2.748703956604004,-0.5470460057258606,-9.390706062316895
1781031018523349500,15.465349609375,2.7079830169677734,-0.5500209927558899,-9.402356147766113
1781031018542868000,15.484867919921875,2.660896062850952,-0.5493350028991699,-9.4158296585083
1781031018562390500,15.504390625,2.6153290271759033,-0.5470269918441772,-9.428722381591797
1781031018581918000,15.52391796875,2.5765390396118164,-0.5439749956130981,-9.439573287963867
1781031018601443600,15.543443603515625,2.545013904571533,-0.5402929782867432,-9.448331832885742
1781031018620969500,15.562969482421876,2.5135140419006348,-0.5361189842224121,-9.456998825073242
1781031018640492300,15.5824921875,2.481990098953247,-0.5310570001602173,-9.465606689453125
1781031018660017200,15.60201708984375,2.4491569995880127,-0.5249419808387756,-9.474494934082031
1781031018679544000,15.6215439453125,2.4067749977111816,-0.5164219737052917,-9.485817909240723
1781031018699063800,15.641063720703125,2.3543410301208496,-0.5055500268936157,-9.499553680419922
1781031018718581200,15.660581298828125,2.2923789024353027,-0.49296000599861145,-9.515355110168457
1781031018738099000,15.680098876953124,2.2224600315093994,-0.4792439937591553,-9.532628059387207
1781031018757613300,15.69961328125,2.145076036453247,-0.4653190076351166,-9.551027297973633
1781031018777130000,15.7191298828125,2.145076036453247,-0.4653190076351166,-9.551027297973633
1781031018796644900,15.738644775390625,1.9728889465332031,-0.43974900245666504,-9.58928108215332
1781031018816154600,15.758154541015625,1.8845219612121582,-0.42934998869895935,-9.60750961303711
1781031018835663600,15.77766357421875,1.8845219612121582,-0.42934998869895935,-9.60750961303711
1781031018855180500,15.7971806640625,1.717980980873108,-0.4125080108642578,-9.639416694641113
1781031018874701800,15.816701904296876,1.717980980873108,-0.4125080108642578,-9.639416694641113
1781031018894222800,15.836222900390625,1.6415899991989136,-0.40482500195503235,-9.653046607971191
1781031018913741300,15.8557412109375,1.5722310543060303,-0.3967840075492859,-9.664917945861816
1781031018933254100,15.875254150390624,1.5100129842758179,-0.3874019980430603,-9.675214767456055
1781031018952771800,15.894771728515625,1.4544650316238403,-0.37594500184059143,-9.684172630310059
1781031018972296000,15.9142958984375,1.3999700546264648,-0.36198198795318604,-9.692730903625488
1781031018991819000,15.933819091796876,1.3473000526428223,-0.3454720079898834,-9.70079517364502
1781031019011341300,15.95334130859375,1.2938100099563599,-0.3267340064048767,-9.708723068237305
1781031019030864100,15.972864013671876,1.2397149801254272,-0.3064059913158417,-9.71644115447998
1781031019050388200,15.99238818359375,1.1877919435501099,-0.2861419916152954,-9.723542213439941
1781031019069912300,16.011912353515626,1.1426880359649658,-0.26777300238609314,-9.72946834564209
1781031019089433300,16.031433349609376,1.1171040534973145,-0.25370699167251587,-9.732816696166992
1781031019108950300,16.0509501953125,1.1146769523620605,-0.2460940033197403,-9.73328971862793
1781031019128468200,16.07046826171875,1.1384520530700684,-0.24650700390338898,-9.7305269241333
1781031019147989000,16.089989013671875,1.1884609460830688,-0.25591298937797546,-9.724302291870117
1781031019167515400,16.109515380859374,1.2606040239334106,-0.27341899275779724,-9.714736938476562
1781031019187041500,16.12904150390625,1.3417550325393677,-0.29711100459098816,-9.703165054321289
1781031019206564000,16.148564208984375,1.4202569723129272,-0.32418298721313477,-9.691118240356445
1781031019226087700,16.168087646484373,1.4935489892959595,-0.3517659902572632,-9.679132461547852
1781031019245612500,16.187612548828124,1.559188961982727,-0.3775320053100586,-9.667801856994629
1781031019265137400,16.207137451171874,1.6179529428482056,-0.3997820019721985,-9.657245635986328
1781031019284660200,16.22666015625,1.678393006324768,-0.4183740019798279,-9.646137237548828
1781031019304180000,16.246179931640626,1.7484380006790161,-0.43477699160575867,-9.632960319519043
1781031019323698200,16.2656982421875,1.8290760517120361,-0.4512859880924225,-9.617215156555176
1781031019343215000,16.285215087890624,1.9211009740829468,-0.470551997423172,-9.598329544067383
1781031019362728400,16.304728515625,2.025325059890747,-0.4946430027484894,-9.575666427612305
1781031019382241300,16.3242412109375,2.140302896499634,-0.5244380235671997,-9.549034118652344
1781031019401756400,16.34375634765625,2.257456064224243,-0.5599290132522583,-9.519998550415039
1781031019421273300,16.3632734375,2.3738460540771484,-0.6002709865570068,-9.489179611206055
1781031019440788000,16.3827880859375,2.474323034286499,-0.6437810063362122,-9.460616111755371
1781031019460302300,16.40230224609375,2.5572140216827393,-0.6883879899978638,-9.435399055480957
1781031019479810800,16.421810791015623,2.6150779724121094,-0.731419026851654,-9.41628360748291
1781031019499319300,16.4413193359375,2.644813060760498,-0.770691990852356,-9.404840469360352
1781031019518835200,16.460835205078126,2.6473679542541504,-0.8050479888916016,-9.401241302490234
1781031019538351000,16.48035107421875,2.625922918319702,-0.8333230018615723,-9.404790878295898
1781031019557870600,16.49987060546875,2.595561981201172,-0.85486900806427,-9.411282539367676
1781031019577388300,16.51938818359375,2.555651903152466,-0.8684419989585876,-9.420957565307617
1781031019596898600,16.538898681640624,2.555651903152466,-0.8684419989585876,-9.420957565307617
1781031019616408800,16.558408935546876,2.5108470916748047,-0.8730639815330505,-9.432571411132812
1781031019635920400,16.57792041015625,2.465852975845337,-0.8698769807815552,-9.444726943969727
1781031019655434800,16.597434814453123,2.421804904937744,-0.8595229983329773,-9.45706558227539
1781031019674949400,16.616949462890624,2.327470064163208,-0.8207499980926514,-9.48415756225586
1781031019694464800,16.63646484375,2.270340919494629,-0.7940790057182312,-9.500262260437012
1781031019713980700,16.655980712890624,2.270340919494629,-0.7940790057182312,-9.500262260437012
1781031019733496800,16.675496826171877,2.202889919281006,-0.7636510133743286,-9.518619537353516
1781031019753010000,16.695010009765625,2.121201992034912,-0.7286790013313293,-9.539892196655273
1781031019772518000,16.714517822265623,2.0247740745544434,-0.6893219947814941,-9.563739776611328
1781031019792029700,16.73402978515625,1.9225679636001587,-0.6465319991111755,-9.587791442871094
1781031019811549000,16.753548828125,1.8252350091934204,-0.6023910045623779,-9.609663963317871
1781031019831070500,16.773070556640626,1.7431689500808716,-0.5591149926185608,-9.627500534057617
1781031019850592500,16.792592529296876,1.6843769550323486,-0.5190989971160889,-9.64019775390625
1781031019870120000,16.812119873046875,1.651676058769226,-0.4835990071296692,-9.647699356079102
1781031019889651200,16.831651123046875,1.6378200054168701,-0.4522460103034973,-9.651581764221191
1781031019909177300,16.85117724609375,1.6305160522460938,-0.42206600308418274,-9.654184341430664
1781031019928702200,16.8707021484375,1.618487000465393,-0.38931500911712646,-9.657584190368652
1781031019948227800,16.890227783203127,1.5889379978179932,-0.3495180010795593,-9.664011001586914
1781031019967747800,16.909747802734376,1.535794973373413,-0.29933199286460876,-9.674283027648926
1781031019987263700,16.929263671875,1.4576200246810913,-0.2378229945898056,-9.688074111938477
1781031020006782700,16.94878271484375,1.3627220392227173,-0.1662379950284958,-9.703367233276367
1781031020026307600,16.9683076171875,1.257972002029419,-0.08833300322294235,-9.718523025512695
1781031020045830000,16.987829833984375,1.1623209714889526,-0.009289000183343887,-9.73082447052002
1781031020065350100,17.00735009765625,1.084017038345337,0.06485199928283691,-9.739646911621094
1781031020084872000,17.026871826171874,1.0305559635162354,0.12864400446414948,-9.744813919067383
1781031020104392200,17.04639208984375,1.0132540464401245,0.17813700437545776,-9.745849609375
1781031020123911400,17.065911376953125,1.032884955406189,0.211216002702713,-9.743127822875977
1781031020143434200,17.085434326171875,1.0943050384521484,0.2276269942522049,-9.736050605773926
1781031020162960400,17.10496044921875,1.1867350339889526,0.22857999801635742,-9.725193977355957
1781031020182484000,17.12448388671875,1.3059769868850708,0.21598400175571442,-9.710189819335938
1781031020202008000,17.144008056640626,1.4457420110702515,0.19216400384902954,-9.69086742401123
1781031020221531000,17.16353076171875,1.5923969745635986,0.16002100706100464,-9.668437004089355
1781031020241052000,17.183052001953126,1.7414120435714722,0.1224989965558052,-9.643260955810547
1781031020260576500,17.202576416015624,1.883381962776184,0.08211199939250946,-9.616971015930176
1781031020280100600,17.2221005859375,2.017133951187134,0.040828000754117966,-9.590072631835938
1781031020299621400,17.241621337890624,2.1434919834136963,-0.00012700000661425292,-9.562711715698242
1781031020319140600,17.261140625,2.26515793800354,-0.040821000933647156,-9.534537315368652
1781031020338663400,17.280663330078124,2.3853940963745117,-0.08230999857187271,-9.504899978637695
1781031020358187800,17.300187744140626,2.5060501098632812,-0.1259859949350357,-9.473321914672852
1781031020377714000,17.3197138671875,2.6265790462493896,-0.17296800017356873,-9.439870834350586
1781031020397237500,17.339237548828127,2.744541883468628,-0.22377699613571167,-9.405179977416992
1781031020416762000,17.35876220703125,2.744541883468628,-0.22377699613571167,-9.405179977416992
1781031020436284400,17.378284423828124,2.8485100269317627,-0.2779580056667328,-9.37276554107666
1781031020455800800,17.39780078125,2.9999139308929443,-0.3946180045604706,-9.321200370788574
1781031020475323400,17.417323486328126,3.040950059890747,-0.45645999908447266,-9.305066108703613
1781031020494852900,17.436852783203125,3.0592188835144043,-0.5208280086517334,-9.295692443847656
1781031020514378200,17.456378173828124,3.0592188835144043,-0.5208280086517334,-9.295692443847656
1781031020533900800,17.47590087890625,3.059317111968994,-0.5876060128211975,-9.291678428649902
1781031020553419300,17.495419189453123,3.050326108932495,-0.6569870114326477,-9.289989471435547
1781031020572935400,17.514935302734376,3.032474994659424,-0.7269459962844849,-9.290620803833008
1781031020592455000,17.534454833984373,3.006208896636963,-0.794107973575592,-9.293658256530762
1781031020611978500,17.553978515625,2.9758260250091553,-0.8556050062179565,-9.297978401184082
1781031020631502600,17.573502685546874,2.940093994140625,-0.907712996006012,-9.304402351379395
1781031020651028700,17.59302880859375,2.8971190452575684,-0.9489669799804688,-9.313761711120605
1781031020670554000,17.61255419921875,2.844935894012451,-0.9777200222015381,-9.326864242553711
1781031020690074400,17.632074462890625,2.7848060131073,-0.9944289922714233,-9.343231201171875
1781031020709596000,17.651595947265626,2.7128989696502686,-1.0006669759750366,-9.363698959350586
1781031020729120800,17.671120849609373,2.6301350593566895,-0.9975360035896301,-9.387615203857422
1781031020748642300,17.690642333984375,2.5315170288085938,-0.9864569902420044,-9.415855407714844
1781031020768162600,17.71016259765625,2.4173591136932373,-0.9680190086364746,-9.447714805603027
1781031020787682600,17.7296826171875,2.2896668910980225,-0.9429649710655212,-9.48199462890625
1781031020807198000,17.749197998046874,2.1505300998687744,-0.9114770293235779,-9.517584800720215
1781031020826714600,17.768714599609375,2.0094969272613525,-0.8736590147018433,-9.551892280578613
1781031020846231300,17.788231201171875,1.8709059953689575,-0.830036997795105,-9.583880424499512
1781031020865745700,17.80774560546875,1.7457289695739746,-0.7811830043792725,-9.611564636230469
1781031020885264000,17.827263916015625,1.6381219625473022,-0.7275030016899109,-9.634692192077637
1781031020904781600,17.846781494140625,1.5481829643249512,-0.6684169769287109,-9.653825759887695
1781031020924296400,17.86629638671875,1.474830985069275,-0.6039469838142395,-9.66954517364502
1781031020943818200,17.885818359375,1.4132989645004272,-0.5341119766235352,-9.682836532592773
1781031020963341300,17.90534130859375,1.3582589626312256,-0.4595490097999573,-9.694531440734863
1781031020982860800,17.92486083984375,1.305588960647583,-0.3814089894294739,-9.705150604248047
1781031021002381800,17.9443818359375,1.2528890371322632,-0.3017820119857788,-9.714896202087402
1781031021021906400,17.963906494140623,1.2037650346755981,-0.22397999465465546,-9.723207473754883
1781031021041432800,17.983432861328126,1.160295009613037,-0.15103599429130554,-9.729896545410156
1781031021060963300,18.00296337890625,1.12466299533844,-0.0858059972524643,-9.73487377166748
1781031021080492000,18.022491943359373,1.0999209880828857,-0.03064199909567833,-9.738030433654785
1781031021100017400,18.042017333984376,1.0886670351028442,0.012636999599635601,-9.739336013793945
1781031021119542300,18.061542236328126,1.0935850143432617,0.04296899959445,-9.738697052001953
1781031021139064800,18.08106494140625,1.1138420104980469,0.06069200113415718,-9.736307144165039
1781031021158588400,18.10058837890625,1.1498290300369263,0.06625600159168243,-9.732086181640625
1781031021178114000,18.120114013671873,1.2021950483322144,0.06010499969124794,-9.725796699523926
1781031021197635000,18.139635009765627,1.2677650451660156,0.04339800029993057,-9.717555046081543
1781031021217154000,18.159154052734376,1.3429850339889526,0.017280999571084976,-9.707528114318848
1781031021236673300,18.17867333984375,1.3429850339889526,0.017280999571084976,-9.707528114318848
1781031021256194300,18.1981943359375,1.4235379695892334,-0.017239000648260117,-9.696043014526367
1781031021275713500,18.217713623046876,1.5974730253219604,-0.10847300291061401,-9.668314933776855
1781031021295229400,18.2372294921875,1.6906930208206177,-0.1640399992465973,-9.651665687561035
1781031021314748000,18.256747802734374,1.7921099662780762,-0.2265630066394806,-9.632081985473633
1781031021334269700,18.276269775390624,1.7921099662780762,-0.2265630066394806,-9.632081985473633
1781031021353791700,18.295791748046874,1.9056559801101685,-0.29663699865341187,-9.608356475830078
1781031021373308000,18.315307861328126,2.032133102416992,-0.37329599261283875,-9.579721450805664
1781031021392820700,18.33482080078125,2.1683878898620605,-0.4553939998149872,-9.54624080657959
1781031021412335000,18.354335205078126,2.311959981918335,-0.5422629714012146,-9.507933616638184
1781031021431850800,18.373850830078126,2.455502986907959,-0.6323410272598267,-9.466290473937988
1781031021451365600,18.39336572265625,2.5867021083831787,-0.7244210243225098,-9.424657821655273
1781031021470881800,18.4128818359375,2.6977109909057617,-0.8174729943275452,-9.385844230651855
1781031021490400800,18.43240087890625,2.7820959091186523,-0.9116600155830383,-9.352476119995117
1781031021509921800,18.451921875,2.838123083114624,-1.0074280500411987,-9.32577896118164
1781031021529444600,18.471444580078124,2.865262985229492,-1.1038579940795898,-9.30654525756836
1781031021548964000,18.490964111328125,2.8669118881225586,-1.198781967163086,-9.29428482055664
1781031021568485000,18.510485107421875,2.851625919342041,-1.2882970571517944,-9.287008285522461
1781031021588005400,18.53000537109375,2.821310043334961,-1.367251992225647,-9.284977912902832
1781031021607525000,18.549525146484374,2.7815370559692383,-1.432026982307434,-9.287214279174805
1781031021627044900,18.569044921875,2.732487916946411,-1.4784409999847412,-9.294500350952148
1781031021646564900,18.58856494140625,2.674694061279297,-1.504552960395813,-9.307111740112305
1781031021666087400,18.60808740234375,2.608285903930664,-1.510571002960205,-9.324967384338379
1781031021685609200,18.627609130859376,2.5344860553741455,-1.4993159770965576,-9.347107887268066
1781031021705129200,18.647129150390626,2.45426607131958,-1.4743059873580933,-9.372459411621094
1781031021724647700,18.666647705078127,2.3659379482269287,-1.4382120370864868,-9.400737762451172
1781031021744167200,18.686167236328124,2.2674179077148438,-1.3930250406265259,-9.431770324707031
1781031021763690800,18.705690673828126,2.1578409671783447,-1.3410359621047974,-9.464953422546387
1781031021783215600,18.725215576171873,2.03621506690979,-1.2831230163574219,-9.499863624572754
1781031021802735600,18.744735595703126,1.904440999031067,-1.2195039987564087,-9.535507202148438
1781031021822251300,18.764251220703127,1.7733500003814697,-1.1514559984207153,-9.569188117980957
1781031021841763000,18.78376318359375,1.654539942741394,-1.0792449712753296,-9.59883975982666
1781031021861276700,18.803276611328126,1.5591249465942383,-1.0034819841384888,-9.623001098632812
1781031021880791000,18.822791015625,1.491529941558838,-0.925370991230011,-9.641526222229004
1781031021900304000,18.842303955078126,1.4489799737930298,-0.8438540101051331,-9.655482292175293
1781031021919819500,18.861819580078127,1.4181419610977173,-0.7582060098648071,-9.667160034179688
1781031021939344100,18.88134423828125,1.3838969469070435,-0.6668069958686829,-9.678853034973145
1781031021958871000,18.90087109375,1.3339829444885254,-0.5706260204315186,-9.692001342773438
1781031021978392300,18.920392333984374,1.2601820230484009,-0.4717240035533905,-9.707183837890625
1781031021997910500,18.93991064453125,1.1620910167694092,-0.37159401178359985,-9.72375774383545
1781031022017428500,18.959428466796876,1.1620910167694092,-0.37159401178359985,-9.72375774383545
1781031022036946200,18.9789462890625,1.0487710237503052,-0.27462801337242126,-9.739849090576172
1781031022056463600,18.998463623046874,0.8494560122489929,-0.10053099691867828,-9.762598037719727
1781031022075987200,19.0179873046875,0.7799580097198486,-0.027374999597668648,-9.768875122070312
1781031022095516000,19.037515869140623,0.7799580097198486,-0.027374999597668648,-9.768875122070312
1781031022115040000,19.0570400390625,0.7324860095977783,0.07948499917984009,-9.772263526916504
1781031022134558700,19.076558837890627,0.7324860095977783,0.07948499917984009,-9.772263526916504
1781031022154076700,19.09607666015625,0.7608640193939209,0.11114200204610825,-9.769786834716797
1781031022173600300,19.115600341796874,0.8183640241622925,0.1264840066432953,-9.764951705932617
1781031022193122600,19.13512255859375,0.9042609930038452,0.12405599653720856,-9.757403373718262
1781031022212642000,19.15464208984375,1.0123660564422607,0.10461200028657913,-9.74700927734375
1781031022232160000,19.174159912109374,1.135619044303894,0.07168599963188171,-9.733716011047363
1781031022251673300,19.19367333984375,1.2719299793243408,0.026975000277161598,-9.717071533203125
1781031022271185200,19.21318505859375,1.4123810529708862,-0.025111999362707138,-9.697657585144043
1781031022290700500,19.232700439453126,1.5568039417266846,-0.0818059965968132,-9.675209045410156
1781031022310220500,19.252220458984375,1.7052639722824097,-0.14146900177001953,-9.649458885192871
1781031022329742800,19.271742919921873,1.8594659566879272,-0.20326100289821625,-9.619827270507812
1781031022349262800,19.291262939453127,2.014522075653076,-0.26710399985313416,-9.586986541748047
1781031022368780300,19.3107802734375,2.170896053314209,-0.3334139883518219,-9.550708770751953
1781031022388297000,19.330296875,2.327359914779663,-0.40230700373649597,-9.511127471923828
1781031022407813000,19.349813232421877,2.479365110397339,-0.4737449884414673,-9.469335556030273
1781031022427325200,19.3693251953125,2.615199089050293,-0.547091007232666,-9.428754806518555
1781031022446837800,19.388837646484376,2.724658966064453,-0.6217780113220215,-9.393062591552734
1781031022466352600,19.4083525390625,2.8022921085357666,-0.6970070004463196,-9.364898681640625
1781031022485865500,19.427865478515624,2.842811107635498,-0.7712529897689819,-9.346847534179688
1781031022505377300,19.447377197265624,2.846096992492676,-0.8431450128555298,-9.339637756347656
1781031022524890400,19.466890380859375,2.8209071159362793,-0.9107329845428467,-9.340933799743652
1781031022544405500,19.486405517578124,2.7784368991851807,-0.9730250239372253,-9.347379684448242
1781031022563921400,19.50592138671875,2.729572057723999,-1.0286940336227417,-9.355812072753906
1781031022583436500,19.5254365234375,2.685455083847046,-1.076537013053894,-9.363194465637207
1781031022602952000,19.544951904296877,2.6497089862823486,-1.1163519620895386,-9.36871337890625
1781031022622470000,19.564469970703126,2.619680881500244,-1.1465870141983032,-9.373505592346191
1781031022641985500,19.583985595703126,2.585616111755371,-1.1670900583267212,-9.380431175231934
1781031022661500700,19.603500732421875,2.546483039855957,-1.1783499717712402,-9.389723777770996
1781031022681019400,19.623019287109376,2.4982969760894775,-1.1793739795684814,-9.402530670166016
1781031022700536800,19.642536865234376,2.4401559829711914,-1.1699869632720947,-9.41895866394043
1781031022720052500,19.662052490234377,2.3731439113616943,-1.1513830423355103,-9.438353538513184
1781031022739573200,19.6815732421875,2.2943029403686523,-1.1251310110092163,-9.460984230041504
1781031022759090400,19.70109033203125,2.2053399085998535,-1.0921119451522827,-9.485977172851562
1781031022778605800,19.720605712890624,2.10479998588562,-1.0515300035476685,-9.5133638381958
1781031022798124500,19.74012451171875,1.9947179555892944,-1.0039080381393433,-9.542183876037598
1781031022817644000,19.75964404296875,1.9947179555892944,-1.0039080381393433,-9.542183876037598
1781031022837163800,19.779163818359375,1.8792190551757812,-0.9497630000114441,-9.571126937866211
1781031022856679700,19.7986796875,1.6443779468536377,-0.8256800174713135,-9.625709533691406
1781031022876201500,19.818201416015626,1.5349340438842773,-0.7600650191307068,-9.64915943145752
1781031022895731700,19.837731689453125,1.5349340438842773,-0.7600650191307068,-9.64915943145752
1781031022915254800,19.8572548828125,1.3471649885177612,-0.6325709819793701,-9.686330795288086
1781031022934773200,19.876773193359377,1.2725169658660889,-0.5722640156745911,-9.700165748596191
1781031022954290000,19.8962900390625,1.2725169658660889,-0.5722640156745911,-9.700165748596191
1781031022973804000,19.915803955078125,1.2076640129089355,-0.5150319933891296,-9.711657524108887
1781031022993318400,19.935318359375,1.1542739868164062,-0.4609990119934082,-9.72085952758789
1781031023012830500,19.95483056640625,1.1128380298614502,-0.410504013299942,-9.72795295715332
1781031023032344300,19.97434423828125,1.0836650133132935,-0.3637630045413971,-9.733105659484863
1781031023051863000,19.993863037109374,1.0676480531692505,-0.321835994720459,-9.73635196685791
1781031023071375000,20.013375,1.0605510473251343,-0.2855969965457916,-9.73825740814209
1781031023090885400,20.032885498046873,1.066141963005066,-0.25505301356315613,-9.738494873046875
1781031023110401500,20.052401611328126,1.0845680236816406,-0.2301190048456192,-9.737081527709961
1781031023129921500,20.071921630859375,1.1159449815750122,-0.21060599386692047,-9.733977317810059
1781031023149440800,20.091440673828124,1.1590629816055298,-0.1957249939441681,-9.729248046875
1781031023168961500,20.11096142578125,1.2132010459899902,-0.1853490024805069,-9.722848892211914
1781031023188483300,20.1304833984375,1.2769739627838135,-0.17949000000953674,-9.714786529541016
1781031023208002600,20.15000244140625,1.3488160371780396,-0.17836900055408478,-9.705095291137695
1781031023247037700,20.18903759765625,1.5139249563217163,-0.19196100533008575,-9.680453300476074
1781031023266560000,20.20856005859375,1.6067980527877808,-0.20653800666332245,-9.66517162322998
1781031023286082600,20.22808251953125,1.707543969154358,-0.22601200640201569,-9.647446632385254
1781031023305606700,20.247606689453125,1.8162200450897217,-0.24978099763393402,-9.62699031829834
1781031023325131800,20.2671318359375,1.9321390390396118,-0.2773919999599457,-9.603639602661133
1781031023344657700,20.28665771484375,2.0536720752716064,-0.30834299325942993,-9.57744026184082
1781031023364185600,20.306185546875,2.177077054977417,-0.3424000144004822,-9.548983573913574
1781031023383714000,20.325714111328125,2.299175977706909,-0.37972700595855713,-9.51890754699707
1781031023403241700,20.34524169921875,2.4152379035949707,-0.4201270043849945,-9.488419532775879
1781031023422769200,20.36476904296875,2.5196280479431152,-0.46351200342178345,-9.459207534790039
1781031023442295600,20.384295654296874,2.6083669662475586,-0.5089510083198547,-9.432782173156738
1781031023461822700,20.40382275390625,2.6811089515686035,-0.5553950071334839,-9.409738540649414
1781031023481348600,20.4233486328125,2.7362680435180664,-0.6018379926681519,-9.390986442565918
1781031023500874800,20.442874755859375,2.771353006362915,-0.6468049883842468,-9.377699851989746
1781031023520403700,20.46240380859375,2.787688970565796,-0.6897379755973816,-9.369793891906738
1781031023539929300,20.481929443359373,2.790057897567749,-0.7300930023193359,-9.3660306930542
1781031023559450600,20.50145068359375,2.7816479206085205,-0.7667199969291687,-9.365606307983398
1781031023578973700,20.5209736328125,2.7622931003570557,-0.7988560199737549,-9.368648529052734
1781031023598497800,20.540497802734375,2.7335219383239746,-0.8254920244216919,-9.374776840209961
1781031023618018300,20.560018310546877,2.7335219383239746,-0.8254920244216919,-9.374776840209961
1781031023637537800,20.579537841796874,2.6534409523010254,-0.8573489785194397,-9.394903182983398
1781031023657060400,20.599060302734376,2.6534409523010254,-0.8573489785194397,-9.394903182983398
1781031023676586500,20.61858642578125,2.600377082824707,-0.859857976436615,-9.409499168395996
1781031023696109000,20.638109130859377,2.468997001647949,-0.8402929902076721,-9.44658374786377
1781031023715625500,20.65762548828125,2.394351005554199,-0.8213940262794495,-9.467437744140625
1781031023735145200,20.677145263671875,2.3163540363311768,-0.7996950149536133,-9.488677024841309
1781031023754669600,20.696669677734373,2.233889102935791,-0.7756459712982178,-9.510420799255371
1781031023774192600,20.716192626953124,2.233889102935791,-0.7756459712982178,-9.510420799255371
1781031023793714000,20.7357138671875,2.148224115371704,-0.7516530156135559,-9.532058715820312
1781031023813235500,20.7552353515625,1.9657069444656372,-0.7038400173187256,-9.574999809265137
1781031023832759300,20.77475927734375,1.9657069444656372,-0.7038400173187256,-9.574999809265137
1781031023852286000,20.794285888671876,1.870190978050232,-0.6790440082550049,-9.595898628234863
1781031023871813600,20.813813720703124,1.7785719633102417,-0.6535660028457642,-9.615068435668945
1781031023891342300,20.83334228515625,1.6927310228347778,-0.6277199983596802,-9.632270812988281
1781031023910869200,20.852869140625,1.61387300491333,-0.601311981678009,-9.647478103637695
1781031023930395000,20.872394775390624,1.5431640148162842,-0.5743039846420288,-9.660683631896973
1781031023949920800,20.891920654296875,1.481387972831726,-0.5468530058860779,-9.671940803527832
1781031023969444600,20.911444580078125,1.420009970664978,-0.5177029967308044,-9.682744979858398
1781031023988970000,20.930969970703124,1.3552290201187134,-0.4860309958457947,-9.693663597106934
1781031023998731800,20.940731689453123,1.3552290201187134,-0.4860309958457947,-9.693663597106934
1781031024008497000,20.950496826171875,1.2880719900131226,-0.45137500762939453,-9.704490661621094
1781031024028023800,20.97002392578125,1.2197489738464355,-0.4140090048313141,-9.71497917175293
1781031024047552300,20.98955224609375,1.1517640352249146,-0.3748820126056671,-9.724860191345215
1781031024067082000,21.00908203125,1.0866320133209229,-0.3354850113391876,-9.733790397644043
1781031024086608600,21.028608642578124,1.0333770513534546,-0.2979249954223633,-9.74080753326416
1781031024106131500,21.04813134765625,0.9925190210342407,-0.26383399963378906,-9.746040344238281
1781031024125654500,21.067654541015624,0.9654549956321716,-0.23477700352668762,-9.74950122833252
1781031024145177300,21.08717724609375,0.9542809724807739,-0.2117840051651001,-9.751127243041992
1781031024164698600,21.10669873046875,0.966372013092041,-0.1954990029335022,-9.75027847290039
1781031024184220200,21.12622021484375,1.0008840560913086,-0.1862650066614151,-9.746975898742676
1781031024203743500,21.145743408203124,1.05697500705719,-0.18414799869060516,-9.741093635559082
1781031024223265800,21.165265869140626,1.1332679986953735,-0.18995699286460876,-9.732399940490723
1781031024242781400,21.184781494140626,1.225484013557434,-0.20243699848651886,-9.720968246459961
1781031024262300700,21.20430078125,1.3306430578231812,-0.22193799912929535,-9.706706047058105
1781031024281826800,21.223826904296875,1.4401639699935913,-0.24785000085830688,-9.690434455871582
1781031024301351000,21.243350830078125,1.5529019832611084,-0.2788499891757965,-9.672163009643555
1781031024320871400,21.262871337890626,1.6688979864120483,-0.31448400020599365,-9.651729583740234
1781031024340391200,21.28239111328125,1.788578987121582,-0.3536199927330017,-9.628911972045898
1781031024359908900,21.301908935546876,1.9139349460601807,-0.39662501215934753,-9.603099822998047
1781031024379426300,21.32142626953125,2.0438570976257324,-0.4418559968471527,-9.574309349060059
1781031024398940200,21.340940185546874,2.1765730381011963,-0.48881301283836365,-9.542724609375
1781031024418451700,21.36045166015625,2.1765730381011963,-0.48881301283836365,-9.542724609375
1781031024437968600,21.37996875,2.4347848892211914,-0.5873990058898926,-9.474533081054688
1781031024457483500,21.3994833984375,2.54525089263916,-0.636913001537323,-9.44224739074707
1781031024476996900,21.418996826171874,2.6345291137695312,-0.6854329705238342,-9.414320945739746
1781031024496520000,21.43852001953125,2.6984269618988037,-0.7327979803085327,-9.392630577087402
1781031024516045600,21.458045654296875,2.6984269618988037,-0.7327979803085327,-9.392630577087402
1781031024535568600,21.477568603515625,2.7375130653381348,-0.8199509978294373,-9.374096870422363
1781031024555090700,21.497090576171875,2.72381591796875,-0.8586080074310303,-9.374626159667969
1781031024574606600,21.516606689453123,2.697746992111206,-0.8928470015525818,-9.378965377807617
1781031024594124000,21.5361240234375,2.697746992111206,-0.8928470015525818,-9.378965377807617
1781031024613646300,21.555646240234374,2.661591053009033,-0.920727014541626,-9.3865966796875
1781031024633166300,21.575166259765624,2.6190779209136963,-0.941743016242981,-9.396464347839355
1781031024652687400,21.594687255859377,2.57503604888916,-0.9561920166015625,-9.407172203063965
1781031024672206600,21.61420654296875,2.5276379585266113,-0.9636920094490051,-9.4192533493042
1781031024691723800,21.633723876953123,2.4698550701141357,-0.9636470079421997,-9.434574127197266
1781031024711246000,21.65324609375,2.4030749797821045,-0.9564189910888672,-9.452537536621094
1781031024730770400,21.6727705078125,2.329901933670044,-0.943789005279541,-9.47210693359375
1781031024750293000,21.69229296875,2.2522149085998535,-0.9263650178909302,-9.492596626281738
1781031024769815800,21.71181591796875,2.1672749519348145,-0.9046739935874939,-9.514435768127441
1781031024789333500,21.73133349609375,2.078695058822632,-0.8796979784965515,-9.536517143249512
1781031024808851700,21.750851806640625,1.9874670505523682,-0.852150022983551,-9.558442115783691
1781031024828373000,21.770373046875,1.8934890031814575,-0.822288990020752,-9.58011245727539
1781031024847893200,21.789893310546876,1.7967489957809448,-0.7903569936752319,-9.601407051086426
1781031024867412700,21.809412841796874,1.697105050086975,-0.7562959790229797,-9.622257232666016
1781031024886933200,21.828933349609375,1.5999499559402466,-0.7200080156326294,-9.641667366027832
1781031024906458000,21.8484580078125,1.5048600435256958,-0.6812340021133423,-9.659777641296387
1781031024925984300,21.867984375,1.412680983543396,-0.6401330232620239,-9.676495552062988
1781031024945508600,21.887508544921875,1.3243470191955566,-0.597100019454956,-9.691726684570312
1781031024965029000,21.907029052734377,1.2396299839019775,-0.5523980259895325,-9.705574035644531
1781031024984548400,21.92654833984375,1.1568419933319092,-0.5057820081710815,-9.718328475952148
1781031025004068900,21.94606884765625,1.0750759840011597,-0.45737001299858093,-9.730109214782715
1781031025023589600,21.965589599609373,0.9963700175285339,-0.4077970087528229,-9.74068546295166
1781031025043112700,21.98511279296875,0.9203709959983826,-0.3582339882850647,-9.750106811523438
1781031025062642000,22.004641845703127,0.8490849733352661,-0.31024599075317383,-9.758216857910156
1781031025082168000,22.02416796875,0.7852569818496704,-0.26551100611686707,-9.764880180358887
1781031025101689900,22.04368994140625,0.7328640222549438,-0.22558799386024475,-9.769954681396484
1781031025121214000,22.0632138671875,0.6983450055122375,-0.19214700162410736,-9.773198127746582
1781031025140740600,22.08274072265625,0.6792280077934265,-0.16496999561786652,-9.775040626525879
1781031025160266800,22.102266845703124,0.6790590286254883,-0.14454300701618195,-9.775376319885254
1781031025179788300,22.121788330078125,0.6990640163421631,-0.13126499950885773,-9.774153709411621
1781031025199306500,22.141306396484374,0.7423099875450134,-0.126910001039505,-9.771021842956543
1781031025218829300,22.160829345703124,0.7423099875450134,-0.126910001039505,-9.771021842956543
1781031025238352000,22.180351806640626,0.9087299704551697,-0.14463600516319275,-9.756704330444336
1781031025257874700,22.199874755859376,1.0254449844360352,-0.16545900702476501,-9.744796752929688
1781031025277399600,22.219399658203123,1.1598999500274658,-0.1925860047340393,-9.72921085357666
1781031025296923000,22.2389228515625,1.1598999500274658,-0.1925860047340393,-9.72921085357666
1781031025316444700,22.258444580078127,1.460819959640503,-0.25575000047683716,-9.687135696411133
1781031025335967700,22.2779677734375,1.610874056816101,-0.2877509891986847,-9.662416458129883
1781031025355491800,22.297491943359375,1.755741000175476,-0.3195750117301941,-9.63614273071289
1781031025375016700,22.3170166015625,1.8943760395050049,-0.35152700543403625,-9.608734130859375
1781031025394541600,22.33654150390625,1.8943760395050049,-0.35152700543403625,-9.608734130859375
1781031025414067500,22.3560673828125,2.027276039123535,-0.3847160041332245,-9.580300331115723
1781031025433589000,22.375589111328125,2.153681993484497,-0.4196870028972626,-9.5512056350708
1781031025453103400,22.395103271484373,2.272623062133789,-0.4564659893512726,-9.521912574768066
1781031025472615400,22.414615478515625,2.3834469318389893,-0.4951690137386322,-9.492838859558105
1781031025492127700,22.434127685546876,2.4841489791870117,-0.5357239842414856,-9.464776039123535
1781031025511641000,22.45364111328125,2.5716569423675537,-0.5779110193252563,-9.438887596130371
1781031025531155200,22.4731552734375,2.642620086669922,-0.6207370162010193,-9.416540145874023
1781031025550672100,22.492672119140625,2.693603992462158,-0.6634299755096436,-9.399168014526367
1781031025570190000,22.512190185546874,2.722501039505005,-0.7048479914665222,-9.387821197509766
1781031025589705200,22.531705322265626,2.7305378913879395,-0.7440459728240967,-9.38245964050293
1781031025609220900,22.551220947265627,2.7197840213775635,-0.7795959711074829,-9.382697105407715
1781031025628739000,22.570739013671876,2.692950963973999,-0.8099120259284973,-9.387866973876953
1781031025648258800,22.5902587890625,2.653122901916504,-0.8334439992904663,-9.397143363952637
1781031025667777500,22.609777587890626,2.6045150756835938,-0.8491140007972717,-9.409330368041992
1781031025687290000,22.6292900390625,2.5506579875946045,-0.856357991695404,-9.423418045043945
1781031025706803700,22.6488037109375,2.4928159713745117,-0.8549889922142029,-9.439007759094238
1781031025726321200,22.668321044921875,2.431011915206909,-0.8453860282897949,-9.455977439880371
1781031025745836000,22.6878359375,2.3684380054473877,-0.8296849727630615,-9.47323226928711
1781031025765350700,22.7073505859375,2.3070709705352783,-0.8100389838218689,-9.490060806274414
1781031025784868400,22.726868408203124,2.247596025466919,-0.788457989692688,-9.50613784790039
1781031025804388000,22.74638818359375,2.1880269050598145,-0.7660009860992432,-9.521858215332031
1781031025823914800,22.765914794921876,2.1215810775756836,-0.7432640194892883,-9.538681983947754
1781031025843439900,22.78543994140625,2.0486690998077393,-0.7206140160560608,-9.556342124938965
1781031025862960600,22.804960693359376,1.9665069580078125,-0.6971390247344971,-9.575325012207031
1781031025882481400,22.8244814453125,1.8739099502563477,-0.6723530292510986,-9.595643997192383
1781031025902003500,22.84400341796875,1.7708309888839722,-0.6459839940071106,-9.617009162902832
1781031025921525000,22.86352490234375,1.6603100299835205,-0.6182730197906494,-9.638522148132324
1781031025941045800,22.883045654296875,1.551589012145996,-0.5894740223884583,-9.65842056274414
1781031025960566800,22.90256689453125,1.4472179412841797,-0.5594919919967651,-9.676390647888184
1781031025980088300,22.92208837890625,1.3502329587936401,-0.5283669829368591,-9.692145347595215
1781031025999609900,22.94160986328125,1.262194037437439,-0.4954090118408203,-9.705742835998535
1781031026019132000,22.9611318359375,1.262194037437439,-0.4954090118408203,-9.705742835998535
1781031026038654700,22.98065478515625,1.1126840114593506,-0.4256190061569214,-9.72732162475586
1781031026058177300,23.00017724609375,1.0512659549713135,-0.3895080089569092,-9.735662460327148
1781031026077698600,23.019698486328124,0.9979749917984009,-0.353859007358551,-9.742630004882812
1781031026097223200,23.03922314453125,0.9979749917984009,-0.353859007358551,-9.742630004882812
1781031026116746000,23.05874609375,0.9524999856948853,-0.32008498907089233,-9.748348236083984
1781031026136265200,23.07826513671875,0.8917779922485352,-0.2621630132198334,-9.755818367004395
1781031026155784400,23.097784423828124,0.8917779922485352,-0.2621630132198334,-9.755818367004395
1781031026175302100,23.11730224609375,0.8873540163040161,-0.22148899734020233,-9.757230758666992
1781031026194820900,23.13682080078125,0.9101899862289429,-0.20892900228500366,-9.755404472351074
1781031026214340900,23.1563408203125,0.9101899862289429,-0.20892900228500366,-9.755404472351074
1781031026233860900,23.17586083984375,0.9544180035591125,-0.20200499892234802,-9.751322746276855
1781031026253384700,23.195384765625,1.0191220045089722,-0.20131400227546692,-9.744786262512207
1781031026272911000,23.2149111328125,1.1964789628982544,-0.21991199254989624,-9.724201202392578
1781031026292439000,23.23443896484375,1.1964789628982544,-0.21991199254989624,-9.724201202392578
1781031026311966000,23.253966064453124,1.2991540431976318,-0.23790700733661652,-9.710592269897461
1781031026331488500,23.273488525390626,1.4068989753723145,-0.2604700028896332,-9.694988250732422
1781031026351007700,23.2930078125,1.5149680376052856,-0.2861500084400177,-9.677964210510254
1781031026370527200,23.31252734375,1.6228259801864624,-0.314067006111145,-9.65959644317627
1781031026390051000,23.332051025390626,1.7318209409713745,-0.34395599365234375,-9.639631271362305
1781031026409578500,23.35157861328125,1.844277024269104,-0.37667301297187805,-9.617523193359375
1781031026429099800,23.371099853515624,1.9617589712142944,-0.41233301162719727,-9.592782974243164
1781031026448618800,23.39061865234375,2.0827488899230957,-0.45145198702812195,-9.56547737121582
1781031026468146000,23.41014599609375,2.2055869102478027,-0.4949069917201996,-9.535746574401855
1781031026487672800,23.4296728515625,2.32794189453125,-0.5431320071220398,-9.503982543945312
1781031026507199200,23.44919921875,2.4472169876098633,-0.5959230065345764,-9.470797538757324
1781031026526727400,23.4687275390625,2.5589139461517334,-0.6523979902267456,-9.43749713897705
1781031026546251000,23.4882509765625,2.659271001815796,-0.711696982383728,-9.405411720275879
1781031026565775600,23.507775634765625,2.7436540126800537,-0.7724509835243225,-9.376336097717285
1781031026585304000,23.527303955078125,2.8062520027160645,-0.8321009874343872,-9.352676391601562
1781031026604832800,23.546832763671876,2.842331886291504,-0.8873779773712158,-9.336686134338379
1781031026624357600,23.566357666015627,2.8511109352111816,-0.9345329999923706,-9.329405784606934
1781031026643875800,23.585875732421876,2.83422589302063,-0.9715510010719299,-9.330769538879395
1781031026663397000,23.605397216796874,2.7958920001983643,-0.996711015701294,-9.339675903320312
1781031026682922800,23.6249228515625,2.7419540882110596,-1.0095150470733643,-9.354280471801758
1781031026702449000,23.644448974609375,2.6793229579925537,-1.0104689598083496,-9.372308731079102
1781031026721975600,23.6639755859375,2.6123440265655518,-1.0017319917678833,-9.392134666442871
1781031026741498000,23.683498046875,2.5405099391937256,-0.9856060147285461,-9.413520812988281
1781031026761018600,23.7030185546875,2.4653260707855225,-0.9642549753189087,-9.435696601867676
1781031026780543000,23.72254296875,2.3873090744018555,-0.9402480125427246,-9.458154678344727
1781031026800069000,23.742069091796875,2.3082919120788574,-0.9161990284919739,-9.4801025390625
1781031026819593200,23.76159326171875,2.3082919120788574,-0.9161990284919739,-9.4801025390625
1781031026839112200,23.7811123046875,2.148822069168091,-0.8762940168380737,-9.52127456665039
1781031026858628900,23.80062890625,2.070574998855591,-0.8609820008277893,-9.53999137878418
1781031026878147300,23.820147216796876,1.9950510263442993,-0.848825991153717,-9.557158470153809
1781031026897670000,23.839669921875,1.9231970310211182,-0.8386170268058777,-9.572775840759277
1781031026917194000,23.859194091796876,1.9231970310211182,-0.8386170268058777,-9.572775840759277
1781031026936719400,23.87871923828125,1.853863000869751,-0.8282549977302551,-9.587345123291016
1781031026956243200,23.8982431640625,1.7191499471664429,-0.7998129725456238,-9.614822387695312
1781031026975761200,23.91776123046875,1.651507019996643,-0.7805730104446411,-9.628251075744629
1781031026995275300,23.937275146484374,1.5795689821243286,-0.7550950050354004,-9.64234447479248
1781031027014792400,23.95679248046875,1.5021400451660156,-0.7231559753417969,-9.657154083251953
1781031027034311400,23.9763115234375,1.5021400451660156,-0.7231559753417969,-9.657154083251953
1781031027053833200,23.995833251953126,1.4187589883804321,-0.6844779849052429,-9.67257022857666
1781031027073358300,24.0153583984375,1.3320679664611816,-0.639710009098053,-9.687949180603027
1781031027092880400,24.03488037109375,1.2466020584106445,-0.58924800157547,-9.702513694763184
1781031027112400100,24.054400146484376,1.2466020584106445,-0.58924800157547,-9.702513694763184
1781031027151441400,24.09344140625,1.0286879539489746,-0.42542099952697754,-9.736571311950684
1781031027170961200,24.112961181640625,0.98021399974823,-0.372855007648468,-9.74372386932373
1781031027190480000,24.13247998046875,0.9488120079040527,-0.32562199234962463,-9.748523712158203
1781031027210002000,24.152001953125,0.9364699721336365,-0.286749005317688,-9.750938415527344
1781031027229528300,24.1715283203125,0.9449920058250427,-0.2579210102558136,-9.750920295715332
1781031027249050000,24.191050048828124,0.9746009707450867,-0.24097099900245667,-9.748440742492676
1781031027268567000,24.210567138671873,1.0243380069732666,-0.23542200028896332,-9.743474960327148
1781031027288088300,24.23008837890625,1.0909249782562256,-0.23950999975204468,-9.73614501953125
1781031027307609600,24.249609619140625,1.1689070463180542,-0.2506380081176758,-9.726810455322266
1781031027327127300,24.269127197265625,1.2515259981155396,-0.2655479907989502,-9.716129302978516
1781031027346644000,24.28864404296875,1.3340699672698975,-0.2816169857978821,-9.704686164855957
1781031027366160100,24.30816015625,1.413262963294983,-0.29642999172210693,-9.693029403686523
1781031027385677000,24.327677001953123,1.4886549711227417,-0.30903398990631104,-9.681344032287598
1781031027405193200,24.347193115234376,1.5627870559692383,-0.3202059864997864,-9.669288635253906
1781031027424708900,24.366708984375,1.6358970403671265,-0.33073100447654724,-9.656835556030273
1781031027444226000,24.38622607421875,1.7128360271453857,-0.3431519865989685,-9.643051147460938
1781031027463742000,24.405741943359374,1.7928110361099243,-0.35851800441741943,-9.62794303894043
1781031027483256800,24.4252568359375,1.8754370212554932,-0.3780680000782013,-9.611440658569336
1781031027502772000,24.44477197265625,1.9586570262908936,-0.4028190076351166,-9.593819618225098
1781031027522286800,24.464286865234374,2.0388519763946533,-0.4335559904575348,-9.575756072998047
1781031027541803800,24.4838037109375,2.114046096801758,-0.47053998708724976,-9.55768871307373
1781031027561320000,24.50331982421875,2.17946195602417,-0.5108460187911987,-9.540911674499512
1781031027580837000,24.522837158203124,2.232240915298462,-0.5529299974441528,-9.526350975036621
1781031027600351700,24.542351806640625,2.2712340354919434,-0.5960100293159485,-9.51452922821045
1781031027619865900,24.561865966796876,2.2712340354919434,-0.5960100293159485,-9.51452922821045
1781031027639381800,24.5813818359375,2.3026740550994873,-0.6792979836463928,-9.501381874084473
1781031027658899200,24.600899169921874,2.2990241050720215,-0.7177850008010864,-9.499435424804688
1781031027678417400,24.62041748046875,2.284214973449707,-0.7538290023803711,-9.500215530395508
1781031027697932800,24.639932861328123,2.262218952178955,-0.7861499786376953,-9.502859115600586
1781031027717448000,24.659447998046875,2.234606981277466,-0.8144099712371826,-9.507012367248535
1781031027736965600,24.678965576171876,2.234606981277466,-0.8144099712371826,-9.507012367248535
1781031027756482800,24.69848291015625,2.161565065383911,-0.8527820110321045,-9.520524978637695
1781031027775997400,24.71799755859375,2.1168220043182373,-0.8613399863243103,-9.529803276062012
1781031027795517700,24.737517578125,2.0659139156341553,-0.8618289828300476,-9.540925025939941
1781031027815042800,24.757042724609374,2.007420063018799,-0.8550080060958862,-9.55401611328125
1781031027834569500,24.776569580078124,2.007420063018799,-0.8550080060958862,-9.55401611328125
1781031027854091300,24.79609130859375,1.939950942993164,-0.8405979871749878,-9.569220542907715
1781031027873605000,24.815605224609374,1.8654760122299194,-0.8219640254974365,-9.585633277893066
1781031027893118500,24.835118408203126,1.7830740213394165,-0.7999809980392456,-9.603158950805664
1781031027912633300,24.85463330078125,1.6937910318374634,-0.7762470245361328,-9.621253967285156
1781031027932149200,24.874149169921875,1.6017980575561523,-0.752888023853302,-9.638849258422852
1781031027951667200,24.893667236328124,1.511512041091919,-0.7311949729919434,-9.6550874710083
1781031027971182000,24.91318212890625,1.4276779890060425,-0.712306022644043,-9.6692476272583
1781031027990696700,24.93269677734375,1.35829496383667,-0.6962460279464722,-9.680407524108887
1781031028010210300,24.952210205078124,1.3023109436035156,-0.6809380054473877,-9.68918514251709
1781031028029725200,24.97172509765625,1.258180022239685,-0.6642410159111023,-9.696172714233398
1781031028049245200,24.9912451171875,1.2223529815673828,-0.6434159874916077,-9.702157974243164
1781031028068766000,25.010765869140624,1.1892809867858887,-0.616034984588623,-9.708044052124023
1781031028088286500,25.030286376953125,1.1480430364608765,-0.5803790092468262,-9.715202331542969
1781031028107805200,25.04980517578125,1.0908429622650146,-0.5354800224304199,-9.72436809539795
1781031028127323400,25.069323486328123,1.0184420347213745,-0.4827429950237274,-9.73497486114502
1781031028146839800,25.08883984375,0.9342489838600159,-0.4249739944934845,-9.746105194091797
1781031028166354200,25.108354248046876,0.8439189791679382,-0.36582401394844055,-9.75674057006836
1781031028185872000,25.127871826171877,0.7558069825172424,-0.30943599343299866,-9.765910148620605
1781031028205392000,25.147391845703126,0.6894479990005493,-0.25923898816108704,-9.772279739379883
1781031028224914200,25.1669140625,0.6502529978752136,-0.21880799531936646,-9.775955200195312
