time,seconds_elapsed,z,y,x
1780563580354290700,0.446290771484375,9.317829132080078,2.985459089279175,-0.5523499846458435
1780563580364046300,0.45604638671875,9.35800838470459,2.862312078475952,-0.5242589712142944
1780563580383558700,0.47555859375,9.406156539916992,2.706199884414673,-0.49059098958969116
1780563580403077000,0.4950771484375,9.454133033752441,2.539975881576538,-0.45595601201057434
1780563580422599000,0.514598876953125,9.50108814239502,2.3645989894866943,-0.4219070076942444
1780563580442121500,0.53412158203125,9.546629905700684,2.1795740127563477,-0.38898399472236633
1780563580461647000,0.553647216796875,9.589980125427246,1.98615300655365,-0.3570390045642853
1780563580481173000,0.573173095703125,9.630086898803711,1.78746497631073,-0.32616400718688965
1780563580500694300,0.5926943359375,9.666261672973633,1.5860730409622192,-0.29622599482536316
1780563580520216000,0.612216064453125,9.697834014892578,1.3857970237731934,-0.26752498745918274
1780563580539742000,0.631741943359375,9.724971771240234,1.186458945274353,-0.23925499618053436
1780563580559266300,0.651266357421875,9.747775077819824,0.9881740212440491,-0.21069100499153137
1780563580578790100,0.6707900390625,9.766317367553711,0.7911099791526794,-0.18215300142765045
1780563580598313200,0.690313232421875,9.780701637268066,0.5952190160751343,-0.15359799563884735
1780563580617836300,0.709836181640625,9.791003227233887,0.4007909893989563,-0.12496499717235565
1780563580637357800,0.72935791015625,9.79727554321289,0.21021300554275513,-0.09580300003290176
1780563580656879600,0.748879638671875,9.799747467041016,0.023878000676631927,-0.06627599895000458
1780563580676405500,0.768405517578125,9.798675537109375,-0.15701699256896973,-0.03596799820661545
1780563580695926500,0.787926513671875,9.794356346130371,-0.33250701427459717,-0.005092000123113394
1780563580715444500,0.807444580078125,9.787001609802246,-0.5038520097732544,0.026930000633001328
1780563580734967300,0.82696728515625,9.776775360107422,-0.6715750098228455,0.06043099984526634
1780563580754495000,0.846494873046875,9.763608932495117,-0.8383299708366394,0.09561800211668015
1780563580774021000,0.866021240234375,9.747513771057129,-1.0040309429168701,0.13374300301074982
1780563580793542700,0.885542724609375,9.728570938110352,-1.1682369709014893,0.17356599867343903
1780563580813067000,0.90506689453125,9.706872940063477,-1.33058500289917,0.21486200392246246
1780563580832593000,0.924593017578125,9.682806968688965,-1.4893360137939453,0.2552050054073334
1780563580852115500,0.944115478515625,9.656676292419434,-1.643779993057251,0.2942329943180084
1780563580871634700,0.963634765625,9.633726119995117,-1.7676199674606323,0.3268679976463318
1780563580891153700,0.983153564453125,9.615057945251465,-1.861719012260437,0.35305601358413696
1780563580910673700,1.002673583984375,9.6012544631958,-1.9275850057601929,0.3746100068092346
1780563580930190600,1.022190673828125,9.59284496307373,-1.9656120538711548,0.3920400142669678
1780563580949710800,1.0417109375,9.589986801147461,-1.976472020149231,0.40708300471305847
1780563580969235200,1.061235107421875,9.589986801147461,-1.976472020149231,0.40708300471305847
1780563580988756700,1.0807568359375,9.595996856689453,-1.9423459768295288,0.4291189908981323
1780563581008278300,1.1002783203125,9.595996856689453,-1.9423459768295288,0.4291189908981323
1780563581027806500,1.119806396484375,9.603399276733398,-1.9021250009536743,0.44344499707221985
1780563581047337500,1.13933740234375,9.60759162902832,-1.8803720474243164,0.4453960061073303
1780563581066863900,1.15886376953125,9.60759162902832,-1.8803720474243164,0.4453960061073303
1780563581086386400,1.178386474609375,9.612256050109863,-1.8565740585327148,0.44459399580955505
1780563581105905000,1.19790478515625,9.617252349853516,-1.8308780193328857,0.44309499859809875
1780563581125427000,1.217427001953125,9.622528076171875,-1.8035720586776733,0.4405359923839569
1780563581144959200,1.236959228515625,9.627996444702148,-1.7750279903411865,0.4369930028915405
1780563581164489700,1.25648974609375,9.633657455444336,-1.7454110383987427,0.43150898814201355
1780563581184013000,1.276012939453125,9.644604682922363,-1.6877330541610718,0.4161129891872406
1780563581203536100,1.2955361328125,9.644604682922363,-1.6877330541610718,0.4161129891872406
1780563581223060200,1.315060302734375,9.649683952331543,-1.6611089706420898,0.40534499287605286
1780563581242585600,1.334585693359375,9.65466022491455,-1.6352030038833618,0.39199098944664
1780563581262111200,1.354111328125,9.6597261428833,-1.6088260412216187,0.3759880065917969
1780563581281638000,1.373637939453125,9.664935111999512,-1.5814989805221558,0.3576189875602722
1780563581301163000,1.3931630859375,9.670368194580078,-1.552590012550354,0.3368290066719055
1780563581320689700,1.412689697265625,9.676013946533203,-1.5221450328826904,0.3127860128879547
1780563581340217900,1.4322177734375,9.681642532348633,-1.491433024406433,0.2853499948978424
1780563581359745300,1.451745361328125,9.687117576599121,-1.4613100290298462,0.2536199986934662
1780563581379270100,1.471270263671875,9.692122459411621,-1.4337470531463623,0.21709999442100525
1780563581398792200,1.490792236328125,9.69644546508789,-1.4099810123443604,0.17576700448989868
1780563581418311000,1.510310791015625,9.699966430664062,-1.3906339406967163,0.12961800396442413
1780563581437829000,1.5298291015625,9.702608108520508,-1.3758740425109863,0.07980599999427795
1780563581457353500,1.549353515625,9.704496383666992,-1.364549994468689,0.027506999671459198
1780563581476876500,1.56887646484375,9.705781936645508,-1.355394959449768,-0.026491999626159668
1780563581496393700,1.588393798828125,9.706615447998047,-1.3471349477767944,-0.08274900168180466
1780563581515911200,1.6079111328125,9.707010269165039,-1.3392109870910645,-0.14301200211048126
1780563581535431000,1.627430908203125,9.706754684448242,-1.3325320482254028,-0.20800800621509552
1780563581554954200,1.646954345703125,9.70561695098877,-1.3280889987945557,-0.27780699729919434
1780563581574478600,1.666478515625,9.703496932983398,-1.3264909982681274,-0.35008400678634644
1780563581593997300,1.685997314453125,9.700098991394043,-1.3299700021743774,-0.4233730137348175
1780563581613516300,1.705516357421875,9.695368766784668,-1.3398009538650513,-0.49472999572753906
1780563581633045000,1.725044921875,9.689334869384766,-1.3565319776535034,-0.5626770257949829
1780563581652576500,1.744576416015625,9.682126998901367,-1.3798589706420898,-0.62642902135849
1780563581672099000,1.76409912109375,9.673744201660156,-1.409242033958435,-0.6875370144844055
1780563581691618600,1.78361865234375,9.664080619812012,-1.443966031074524,-0.7486630082130432
1780563581711142700,1.803142578125,9.65356731414795,-1.4813569784164429,-0.8088279962539673
1780563581730670000,1.822670166015625,9.642597198486328,-1.5194870233535767,-0.8668779730796814
1780563581750197500,1.842197509765625,9.63164234161377,-1.5573309659957886,-0.9198809862136841
1780563581769724200,1.86172412109375,9.63164234161377,-1.5573309659957886,-0.9198809862136841
1780563581789249500,1.88124951171875,9.620855331420898,-1.5946170091629028,-0.9676480293273926
1780563581808771800,1.900771728515625,9.610528945922852,-1.6303590536117554,-1.0097839832305908
1780563581828297700,1.920297607421875,9.590880393981934,-1.7020319700241089,-1.0761549472808838
1780563581847825000,1.939824951171875,9.590880393981934,-1.7020319700241089,-1.0761549472808838
1780563581867347700,1.95934765625,9.570427894592285,-1.7856379747390747,-1.1217880249023438
1780563581886874600,1.97887451171875,9.570427894592285,-1.7856379747390747,-1.1217880249023438
1780563581906401000,1.998401123046875,9.559493064880371,-1.8332430124282837,-1.1381150484085083
1780563581925925400,2.01792529296875,9.548222541809082,-1.8838130235671997,-1.1500840187072754
1780563581945451800,2.03745166015625,9.536873817443848,-1.9348900318145752,-1.159409999847412
1780563581964980500,2.05698046875,9.5258150100708,-1.9843850135803223,-1.1666450500488281
1780563581984507100,2.076507080078125,9.515316009521484,-2.0300230979919434,-1.1737849712371826
1780563582004028400,2.0960283203125,9.505559921264648,-2.0718131065368652,-1.17979097366333
1780563582023554800,2.115554931640625,9.496767044067383,-2.109689950942993,-1.1834800243377686
1780563582043082800,2.135082763671875,9.488856315612793,-2.1450939178466797,-1.183290958404541
1780563582062606300,2.1546064453125,9.481499671936035,-2.180314064025879,-1.1778780221939087
1780563582082135600,2.174135498046875,9.474418640136719,-2.2166290283203125,-1.1670279502868652
1780563582101665500,2.19366552734375,9.467671394348145,-2.253664970397949,-1.1507329940795898
1780563582121193200,2.213193115234375,9.46150016784668,-2.289971113204956,-1.1296240091323853
1780563582140716300,2.23271630859375,9.456260681152344,-2.3233940601348877,-1.1049729585647583
1780563582160238000,2.252238037109375,9.452215194702148,-2.3525259494781494,-1.0776100158691406
1780563582179761000,2.271760986328125,9.449095726013184,-2.377751111984253,-1.049232006072998
1780563582199281200,2.29128125,9.44704532623291,-2.398343086242676,-1.0204299688339233
1780563582218801000,2.31080078125,9.445951461791992,-2.414757013320923,-0.9914349913597107
1780563582238322700,2.33032275390625,9.445772171020508,-2.4272429943084717,-0.962224006652832
1780563582257846500,2.349846435546875,9.446340560913086,-2.4369330406188965,-0.9316719770431519
1780563582277368800,2.369368896484375,9.447304725646973,-2.4458138942718506,-0.8980129957199097
1780563582296887600,2.388887451171875,9.448726654052734,-2.4540040493011475,-0.8598939776420593
1780563582316405000,2.408405029296875,9.449986457824707,-2.463360071182251,-0.8183090090751648
1780563582335925500,2.427925537109375,9.450505256652832,-2.475008010864258,-0.7760639786720276
1780563582355446800,2.44744677734375,9.449786186218262,-2.489809036254883,-0.736473023891449
1780563582374967800,2.4669677734375,9.447699546813965,-2.5078399181365967,-0.7012230157852173
1780563582394492200,2.4864921875,9.444177627563477,-2.5292270183563232,-0.6712070107460022
1780563582414014000,2.506013916015625,9.439247131347656,-2.5539910793304443,-0.6463310122489929
1780563582433533700,2.52553369140625,9.43314266204834,-2.5816359519958496,-0.6252869963645935
1780563582453055200,2.54505517578125,9.426034927368164,-2.61159610748291,-0.6078109741210938
1780563582472577300,2.564577392578125,9.417885780334473,-2.6445140838623047,-0.5915870070457458
1780563582492103700,2.584103759765625,9.408834457397461,-2.67991304397583,-0.5761160254478455
1780563582511625200,2.603625244140625,9.399073600769043,-2.717258930206299,-0.5602740049362183
1780563582531145500,2.6231455078125,9.38869857788086,-2.7563889026641846,-0.5428169965744019
1780563582550668500,2.64266845703125,9.377725601196289,-2.7972910404205322,-0.5228919982910156
1780563582570192000,2.66219189453125,9.366181373596191,-2.840151071548462,-0.4981920123100281
1780563582589718300,2.68171826171875,9.366181373596191,-2.840151071548462,-0.4981920123100281
1780563582609243600,2.70124365234375,9.342947959899902,-2.9274580478668213,-0.4234539866447449
1780563582628769800,2.720769775390625,9.331905364990234,-2.969085931777954,-0.3742769956588745
1780563582648294400,2.74029443359375,9.321810722351074,-3.007051944732666,-0.3185409903526306
1780563582667816700,2.759816650390625,9.312470436096191,-3.041511058807373,-0.2590300142765045
1780563582687338200,2.779338134765625,9.312470436096191,-3.041511058807373,-0.2590300142765045
1780563582706858500,2.7988583984375,9.302369117736816,-3.076282024383545,-0.20592699944972992
1780563582726379000,2.81837890625,9.290513038635254,-3.114485025405884,-0.16230100393295288
1780563582745899500,2.8378994140625,9.276790618896484,-3.1572179794311523,-0.11461800336837769
1780563582765427500,2.857427490234375,9.261560440063477,-3.2031850814819336,-0.05579100176692009
1780563582784954600,2.87695458984375,9.245163917541504,-3.2506470680236816,0.015413000248372555
1780563582804474400,2.896474365234375,9.227603912353516,-3.298619031906128,0.10214199870824814
1780563582823992300,2.915992431640625,9.20877456665039,-3.3456010818481445,0.21310800313949585
1780563582843511300,2.93551123046875,9.188227653503418,-3.390842914581299,0.34446901082992554
1780563582863032800,2.95503271484375,9.166470527648926,-3.4329450130462646,0.48030900955200195
1780563582882556000,2.974555908203125,9.144588470458984,-3.4705140590667725,0.6099680066108704
1780563582902076400,2.994076416015625,9.123208999633789,-3.5028419494628906,0.7329080104827881
1780563582921597700,3.01359765625,9.10270881652832,-3.5296781063079834,0.849744975566864
1780563582941121800,3.033121826171875,9.083576202392578,-3.549875020980835,0.9628260135650635
1780563582960644000,3.05264404296875,9.066153526306152,-3.5623619556427,1.0744420289993286
1780563582980167000,3.0721669921875,9.050127029418945,-3.567564010620117,1.186460018157959
1780563582999691000,3.09169091796875,9.034785270690918,-3.5674309730529785,1.2984939813613892
1780563583019212300,3.11121240234375,9.019460678100586,-3.5644659996032715,1.4085099697113037
1780563583038734000,3.130734130859375,9.004005432128906,-3.5599470138549805,1.5148099660873413
1780563583058253300,3.15025341796875,8.989001274108887,-3.553057909011841,1.6166709661483765
1780563583077768700,3.169768798828125,8.97490119934082,-3.542551040649414,1.7150739431381226
1780563583097288000,3.189287841796875,8.961278915405273,-3.528883934020996,1.81175696849823
1780563583116810500,3.208810546875,8.947443962097168,-3.513519048690796,1.907467007637024
1780563583136333000,3.2283330078125,8.933584213256836,-3.4970929622650146,2.000351905822754
1780563583155854300,3.247854248046875,8.921793937683105,-3.480196952819824,2.080821990966797
1780563583175374800,3.267374755859375,8.913148880004883,-3.4627320766448975,2.1459898948669434
1780563583194899000,3.28689892578125,8.909404754638672,-3.4451560974121094,2.1893839836120605
1780563583214420200,3.306420166015625,8.910961151123047,-3.4279069900512695,2.2100279331207275
1780563583233938000,3.32593798828125,8.918153762817383,-3.4116721153259277,2.206139087677002
1780563583253458000,3.3454580078125,8.930540084838867,-3.3969919681549072,2.178508996963501
1780563583272978000,3.36497802734375,8.946025848388672,-3.3832321166992188,2.1359660625457764
1780563583292497000,3.384496826171875,8.963584899902344,-3.3671600818634033,2.0871939659118652
1780563583312014300,3.404014404296875,8.983288764953613,-3.3465569019317627,2.0349619388580322
1780563583331531300,3.42353125,9.007580757141113,-3.321652889251709,1.96725594997406
1780563583351049500,3.443049560546875,9.037102699279785,-3.2934749126434326,1.8771729469299316
1780563583370574000,3.462573974609375,9.071022033691406,-3.262392997741699,1.7644660472869873
1780563583390099200,3.48209912109375,9.109127044677734,-3.2271199226379395,1.627729058265686
1780563583409621000,3.50162109375,9.109127044677734,-3.2271199226379395,1.627729058265686
1780563583429143800,3.521143798828125,9.152057647705078,-3.1858880519866943,1.4594409465789795
1780563583448664300,3.540664306640625,9.241325378417969,-3.0839040279388428,1.0618089437484741
1780563583468182000,3.56018212890625,9.241325378417969,-3.0839040279388428,1.0618089437484741
1780563583487704000,3.5797041015625,9.316325187683105,-2.9656589031219482,0.6715260148048401
1780563583507232000,3.59923193359375,9.316325187683105,-2.9656589031219482,0.6715260148048401
1780563583526763800,3.618763671875,9.346136093139648,-2.9071760177612305,0.48791199922561646
1780563583546290000,3.6382900390625,9.369399070739746,-2.855902910232544,0.31332799792289734
1780563583565816000,3.657816162109375,9.386219024658203,-2.8138270378112793,0.14581899344921112
1780563583585343000,3.677343017578125,9.397394180297852,-2.7800590991973877,-0.015728000551462173
1780563583604869400,3.696869384765625,9.404727935791016,-2.749691963195801,-0.1740110069513321
1780563583624397300,3.716397216796875,9.409188270568848,-2.720707893371582,-0.3239080011844635
1780563583643923700,3.735923828125,9.411937713623047,-2.6905128955841064,-0.4653480052947998
1780563583663449300,3.755449462890625,9.412906646728516,-2.6612050533294678,-0.5959659814834595
1780563583682974700,3.774974609375,9.411977767944336,-2.6347999572753906,-0.7158870100975037
1780563583702495500,3.79449560546875,9.409496307373047,-2.610883951187134,-0.8274400234222412
1780563583722014200,3.81401416015625,9.406025886535645,-2.5878560543060303,-0.9325609803199768
1780563583741535000,3.833534912109375,9.402039527893066,-2.5654048919677734,-1.029729962348938
1780563583761053000,3.853052978515625,9.398731231689453,-2.5450379848480225,-1.107537031173706
1780563583780573400,3.872573486328125,9.396608352661133,-2.5285520553588867,-1.1619640588760376
1780563583800097500,3.89209765625,9.396159172058105,-2.51800799369812,-1.188209056854248
1780563583819620000,3.9116201171875,9.397452354431152,-2.515110969543457,-1.184103012084961
1780563583839140400,3.931140380859375,9.40005111694336,-2.5207390785217285,-1.151039958000183
1780563583858662400,3.950662353515625,9.403179168701172,-2.5348150730133057,-1.0931260585784912
1780563583878182100,3.97018212890625,9.40550708770752,-2.5560901165008545,-1.0211900472640991
1780563583897701000,3.989701171875,9.407054901123047,-2.5829720497131348,-0.9357140064239502
1780563583917224700,4.009224609375,9.407825469970703,-2.613830089569092,-0.8370810151100159
1780563583936743400,4.028743408203125,9.407779693603516,-2.6472220420837402,-0.7251909971237183
1780563583956259600,4.048259521484375,9.40665054321289,-2.6819560527801514,-0.6016889810562134
1780563583975779300,4.067779296875,9.404117584228516,-2.7169671058654785,-0.46974799036979675
1780563583995295500,4.08729541015625,9.39955997467041,-2.7526729106903076,-0.33325400948524475
1780563584014811400,4.106811279296875,9.391937255859375,-2.7917089462280273,-0.1945990025997162
1780563584034332200,4.126332275390625,9.3809814453125,-2.8344249725341797,-0.0568230003118515
1780563584053856000,4.14585595703125,9.366249084472656,-2.8822250366210938,0.07835900038480759
1780563584073375700,4.165375732421875,9.347894668579102,-2.9349379539489746,0.20733100175857544
1780563584092894000,4.18489404296875,9.325578689575195,-2.993880033493042,0.332053005695343
1780563584112411600,4.20441162109375,9.300484657287598,-3.0559980869293213,0.44928398728370667
1780563584131930600,4.2239306640625,9.274222373962402,-3.117213010787964,0.558368980884552
1780563584151454500,4.243454345703125,9.247550964355469,-3.175719976425171,0.6615089774131775
1780563584170980000,4.26297998046875,9.220808982849121,-3.230315923690796,0.7627220153808594
1780563584190505500,4.28250537109375,9.192765235900879,-3.2817111015319824,0.8737459778785706
1780563584210026800,4.30202685546875,9.163640975952148,-3.328855037689209,0.9931849837303162
1780563584229553200,4.32155322265625,9.163640975952148,-3.328855037689209,0.9931849837303162
1780563584249085400,4.34108544921875,9.099990844726562,-3.416184902191162,1.248937964439392
1780563584268611800,4.36061181640625,9.066631317138672,-3.4553940296173096,1.3771120309829712
1780563584288134400,4.380134521484375,9.03276252746582,-3.492418050765991,1.5007280111312866
1780563584307660000,4.399659912109375,9.03276252746582,-3.492418050765991,1.5007280111312866
1780563584327185200,4.41918505859375,8.999601364135742,-3.5272610187530518,1.6141860485076904
1780563584346710300,4.438710205078125,8.967425346374512,-3.5605649948120117,1.716873049736023
1780563584366239000,4.458239013671875,8.936996459960938,-3.591010093688965,1.8096270561218262
1780563584385768700,4.477768798828125,8.908954620361328,-3.619004964828491,1.8903239965438843
1780563584405299200,4.49729931640625,8.883746147155762,-3.6444311141967773,1.9588689804077148
1780563584424831200,4.516831298828125,8.861225128173828,-3.6684861183166504,2.0151679515838623
1780563584444356600,4.536356689453125,8.840624809265137,-3.6933350563049316,2.0597620010375977
1780563584463875000,4.555875,8.821548461914062,-3.718966007232666,2.09512996673584
1780563584483396600,4.575396728515625,8.803712844848633,-3.744731903076172,2.1240570545196533
1780563584502923500,4.594923583984375,8.787009239196777,-3.7703540325164795,2.14776611328125
1780563584522457900,4.614457763671875,8.771552085876465,-3.7958710193634033,2.165926933288574
1780563584541992400,4.633992431640625,8.757919311523438,-3.8206350803375244,2.1775190830230713
1780563584561524700,4.653524658203125,8.746920585632324,-3.8433239459991455,2.181796073913574
1780563584581055200,4.67305517578125,8.739446640014648,-3.862704038619995,2.17751407623291
1780563584600584000,4.692583984375,8.737992286682129,-3.8777780532836914,2.1564559936523438
1780563584620111600,4.712111572265625,8.743277549743652,-3.8872759342193604,2.11759090423584
1780563584639634000,4.731634033203125,8.756068229675293,-3.8901729583740234,2.0585949420928955
1780563584659159300,4.7511591796875,8.776723861694336,-3.8855950832366943,1.9776910543441772
1780563584678689500,4.770689453125,8.804829597473145,-3.8733270168304443,1.8741140365600586
1780563584698215400,4.79021533203125,8.838983535766602,-3.8538620471954346,1.7493139505386353
1780563584717739500,4.809739501953125,8.87606143951416,-3.828141927719116,1.612720012664795
1780563584737265200,4.82926513671875,8.914605140686035,-3.797614097595215,1.4655870199203491
1780563584756791800,4.848791748046875,8.953484535217285,-3.763079881668091,1.3093229532241821
1780563584776321500,4.868321533203125,8.992115020751953,-3.7248148918151855,1.1435060501098633
1780563584795852500,4.8878525390625,9.030732154846191,-3.6824700832366943,0.9619190096855164
1780563584815383600,4.907383544921875,9.068164825439453,-3.6348791122436523,0.7720339894294739
1780563584834908700,4.92690869140625,9.104326248168945,-3.5801329612731934,0.5778319835662842
1780563584854428400,4.946428466796875,9.138311386108398,-3.519294023513794,0.38189300894737244
1780563584873951000,4.965950927734375,9.169450759887695,-3.4532859325408936,0.18968099355697632
1780563584893472300,4.98547216796875,9.197159767150879,-3.384113073348999,0.005412000231444836
1780563584912993300,5.0049931640625,9.220528602600098,-3.315941095352173,-0.16243299841880798
1780563584932520700,5.024520751953125,9.239378929138184,-3.2515439987182617,-0.31834399700164795
1780563584952052000,5.044052001953125,9.253166198730469,-3.194783926010132,-0.46073800325393677
1780563584971583000,5.0635830078125,9.26258373260498,-3.1463820934295654,-0.5872060060501099
1780563584991110000,5.08310986328125,9.268308639526367,-3.1063640117645264,-0.6992539763450623
1780563585010639000,5.10263916015625,9.271698951721191,-3.0723769664764404,-0.7975469827651978
1780563585030165800,5.122165771484375,9.27448844909668,-3.0409369468688965,-0.8812289834022522
1780563585049687600,5.1416875,9.27448844909668,-3.0409369468688965,-0.8812289834022522
1780563585069210400,5.16121044921875,9.28006362915039,-2.9898340702056885,-0.9906079769134521
1780563585088734200,5.180734130859375,9.283273696899414,-2.9709889888763428,-1.0168869495391846
1780563585108259800,5.200259765625,9.283273696899414,-2.9709889888763428,-1.0168869495391846
1780563585127783700,5.21978369140625,9.289749145507812,-2.953242063522339,-1.0094130039215088
1780563585147308300,5.239308349609375,9.291729927062988,-2.9577438831329346,-0.9774979948997498
1780563585166838000,5.258838134765625,9.291729927062988,-2.9577438831329346,-0.9774979948997498
1780563585186366700,5.27836669921875,9.291690826416016,-2.9717350006103516,-0.9344949722290039
1780563585205891800,5.297891845703125,9.289226531982422,-2.998792886734009,-0.8703500032424927
1780563585225417500,5.31741748046875,9.28391170501709,-3.0380189418792725,-0.7870349884033203
1780563585244945700,5.336945556640625,9.276052474975586,-3.0870680809020996,-0.6818159818649292
1780563585264473000,5.35647314453125,9.266408920288086,-3.14125394821167,-0.5533480048179626
1780563585284000800,5.376000732421875,9.255361557006836,-3.1964969635009766,-0.4008679986000061
1780563585303531300,5.39553125,9.243154525756836,-3.2484450340270996,-0.22731700539588928
1780563585323058400,5.415058349609375,9.229442596435547,-3.2947490215301514,-0.044874999672174454
1780563585342587000,5.4345869140625,9.213715553283691,-3.335731029510498,0.14259900152683258
1780563585362118100,5.4541181640625,9.194881439208984,-3.3742270469665527,0.32975101470947266
1780563585381643000,5.47364306640625,9.171797752380371,-3.4141969680786133,0.5112670063972473
1780563585401164500,5.49316455078125,9.143959999084473,-3.4583380222320557,0.6840239763259888
1780563585420689700,5.512689697265625,9.112526893615723,-3.506416082382202,0.8407739996910095
1780563585440217000,5.532217041015625,9.078808784484863,-3.556334972381592,0.9837210178375244
1780563585459743000,5.551742919921875,9.043997764587402,-3.6055240631103516,1.1163829565048218
1780563585479270700,5.571270751953125,9.008877754211426,-3.6517679691314697,1.2428640127182007
1780563585498801700,5.5908017578125,8.973885536193848,-3.693466901779175,1.3666269779205322
1780563585518329300,5.610329345703125,8.93962574005127,-3.72898006439209,1.4892230033874512
1780563585537852000,5.629851806640625,8.90587043762207,-3.756989002227783,1.6157020330429077
1780563585557375700,5.649375732421875,8.873727798461914,-3.7767128944396973,1.7416629791259766
1780563585576902400,5.66890234375,8.844184875488281,-3.7880940437316895,1.8629889488220215
1780563585596424400,5.688424560546875,8.817914009094238,-3.7917020320892334,1.976714015007019
1780563585615945500,5.707945556640625,8.795514106750488,-3.7881600856781006,2.0805699825286865
1780563585635470300,5.72747021484375,8.777411460876465,-3.778341054916382,2.1728250980377197
1780563585654997200,5.746997314453125,8.765449523925781,-3.761823892593384,2.248457908630371
1780563585674523600,5.766523681640625,8.758844375610352,-3.740144968032837,2.30953311920166
1780563585694049300,5.78604931640625,8.757818222045898,-3.713602066040039,2.355792999267578
1780563585713574700,5.80557470703125,8.761189460754395,-3.6835670471191406,2.3901689052581787
1780563585733102600,5.8251025390625,8.768381118774414,-3.6511969566345215,2.4133479595184326
1780563585752631000,5.844631103515625,8.77757453918457,-3.618799924850464,2.4286749362945557
1780563585772156400,5.864156494140625,8.786331176757812,-3.588624954223633,2.4417479038238525
1780563585791681300,5.883681396484375,8.795331001281738,-3.560758113861084,2.4501330852508545
1780563585811208700,5.903208740234375,8.804252624511719,-3.536638021469116,2.4530270099639893
1780563585830744000,5.922744140625,8.813969612121582,-3.517319917678833,2.4458940029144287
1780563585850276400,5.9422763671875,8.824549674987793,-3.503943920135498,2.426867961883545
1780563585869800000,5.961800048828125,8.824549674987793,-3.503943920135498,2.426867961883545
1780563585889332200,5.981332275390625,8.839309692382812,-3.4936320781707764,2.387701988220215
1780563585908864000,6.000864013671875,8.881325721740723,-3.475740909576416,2.2541658878326416
1780563585928390400,6.020390380859375,8.908390998840332,-3.4636149406433105,2.1642420291900635
1780563585947917300,6.039917236328125,8.908390998840332,-3.4636149406433105,2.1642420291900635
1780563585967445500,6.059445556640625,8.976167678833008,-3.417665958404541,1.9462709426879883
1780563585986972400,6.078972412109375,8.976167678833008,-3.417665958404541,1.9462709426879883
1780563586006501600,6.098501708984375,9.01578140258789,-3.3809831142425537,1.8233569860458374
1780563586026033000,6.118032958984375,9.057912826538086,-3.3369998931884766,1.6907509565353394
1780563586045559300,6.137559326171875,9.100951194763184,-3.2882139682769775,1.5492990016937256
1780563586065082600,6.15708251953125,9.142633438110352,-3.237978935241699,1.40276300907135
1780563586084606000,6.17660595703125,9.182064056396484,-3.1887869834899902,1.2495290040969849
1780563586104133400,6.19613330078125,9.218989372253418,-3.1414029598236084,1.0871119499206543
1780563586123661600,6.21566162109375,9.252031326293945,-3.097470998764038,0.9195590019226074
1780563586143186000,6.23518603515625,9.280832290649414,-3.056874990463257,0.7494350075721741
1780563586162711800,6.2547119140625,9.305084228515625,-3.01963210105896,0.580702006816864
1780563586182237000,6.27423681640625,9.324755668640137,-2.9862658977508545,0.41367098689079285
1780563586201756000,6.293755859375,9.339571952819824,-2.9576170444488525,0.254720002412796
1780563586221275600,6.313275634765625,9.349308967590332,-2.935744047164917,0.10880400240421295
1780563586240798200,6.332798095703125,9.354378700256348,-2.921497106552124,-0.021358000114560127
1780563586260319700,6.35231982421875,9.355377197265625,-2.9152519702911377,-0.1349789947271347
1780563586279840300,6.37184033203125,9.352853775024414,-2.917181968688965,-0.23273499310016632
1780563586299361300,6.391361328125,9.347208023071289,-2.92745304107666,-0.31578201055526733
1780563586318882600,6.410882568359375,9.338852882385254,-2.94583797454834,-0.38453200459480286
1780563586338403800,6.43040380859375,9.328760147094727,-2.9700911045074463,-0.439083993434906
1780563586357926100,6.449926025390625,9.318047523498535,-2.997389078140259,-0.47921401262283325
1780563586377450000,6.469449951171875,9.30778980255127,-3.025007963180542,-0.504347026348114
1780563586396975400,6.488975341796875,9.298727035522461,-3.051137924194336,-0.514037013053894
1780563586416503800,6.50850390625,9.29106616973877,-3.0754470825195312,-0.5076559782028198
1780563586436032000,6.528031982421875,9.284536361694336,-3.0989370346069336,-0.48371100425720215
1780563586455558400,6.547558349609375,9.27839183807373,-3.1237680912017822,-0.4399090111255646
1780563586475086600,6.567086669921875,9.271110534667969,-3.1544759273529053,-0.368490993976593
1780563586494611700,6.58661181640625,9.261707305908203,-3.191488027572632,-0.27417701482772827
1780563586514136300,6.60613623046875,9.250029563903809,-3.2327001094818115,-0.16312499344348907
1780563586533661200,6.6256611328125,9.236059188842773,-3.276190996170044,-0.04216599836945534
1780563586553183500,6.64518359375,9.219854354858398,-3.3206939697265625,0.08522500097751617
1780563586572707600,6.66470751953125,9.201239585876465,-3.3661370277404785,0.21517999470233917
1780563586592230000,6.68422998046875,9.180130004882812,-3.4128470420837402,0.34305599331855774
1780563586611752700,6.703752685546875,9.155680656433105,-3.463062047958374,0.46979600191116333
1780563586631274800,6.723274658203125,9.127264976501465,-3.51861310005188,0.593625009059906
1780563586650794500,6.74279443359375,9.095565795898438,-3.578907012939453,0.7085819840431213
1780563586670318300,6.762318359375,9.061406135559082,-3.642549991607666,0.8140940070152283
1780563586689844700,6.7818447265625,9.061406135559082,-3.642549991607666,0.8140940070152283
1780563586709369600,6.80136962890625,9.024470329284668,-3.709714889526367,0.9148399829864502
1780563586728895700,6.820895751953125,8.98514175415039,-3.777909994125366,1.0171610116958618
1780563586748423200,6.840423095703125,8.943729400634766,-3.8456130027770996,1.122926950454712
1780563586767953000,6.859952880859375,8.900568008422852,-3.910789966583252,1.2351560592651367
1780563586787481000,6.879481201171875,8.856219291687012,-3.970005989074707,1.3588340282440186
1780563586807007500,6.899007568359375,8.812206268310547,-4.020053863525391,1.4913630485534668
1780563586826531000,6.918531005859375,8.771015167236328,-4.0573248863220215,1.627081036567688
1780563586846056000,6.938055908203125,8.734870910644531,-4.081703186035156,1.755486011505127
1780563586865583000,6.9575830078125,8.70395565032959,-4.094779014587402,1.8745490312576294
1780563586885110300,6.9771103515625,8.677811622619629,-4.099669933319092,1.9819879531860352
1780563586904636200,6.99663623046875,8.65574836730957,-4.099606990814209,2.0763518810272217
1780563586924159200,7.0161591796875,8.637653350830078,-4.09653902053833,2.1562259197235107
1780563586943682000,7.03568212890625,8.623488426208496,-4.092080116271973,2.2204320430755615
1780563586963206400,7.055206298828125,8.61289119720459,-4.087650775909424,2.2691850662231445
1780563586982730500,7.07473046875,8.605072975158691,-4.0845441818237305,2.3041749000549316
1780563587002252300,7.094252197265625,8.598895072937012,-4.083837985992432,2.328356981277466
1780563587021775400,7.113775390625,8.59359359741211,-4.085803985595703,2.3444290161132812
1780563587041302300,7.13330224609375,8.588935852050781,-4.0905327796936035,2.3532350063323975
1780563587060830200,7.152830322265625,8.586164474487305,-4.098121166229248,2.350147008895874
1780563587080358000,7.17235791015625,8.585123062133789,-4.108736991882324,2.3353679180145264
1780563587099885600,7.191885498046875,8.585325241088867,-4.122866153717041,2.3095788955688477
1780563587119414300,7.211414306640625,8.586585998535156,-4.1400861740112305,2.2738099098205566
1780563587138938400,7.2309384765625,8.58930778503418,-4.1592631340026855,2.2280728816986084
1780563587158464300,7.25046435546875,8.598072052001953,-4.173226833343506,2.167332887649536
1780563587177995000,7.2699951171875,8.612425804138184,-4.180241107940674,2.0956380367279053
1780563587197522200,7.289522216796875,8.633015632629395,-4.178706169128418,2.0123229026794434
1780563587217050600,7.309050537109375,8.65976333618164,-4.167512893676758,1.9184190034866333
1780563587236585700,7.328585693359375,8.691191673278809,-4.146174907684326,1.8200039863586426
1780563587256121000,7.34812109375,8.726848602294922,-4.115210056304932,1.7167279720306396
1780563587275644000,7.367643798828125,8.765984535217285,-4.077714920043945,1.6030429601669312
1780563587295164700,7.38716455078125,8.811695098876953,-4.0268659591674805,1.4759340286254883
1780563587314693000,7.406693115234375,8.864701271057129,-3.9625210762023926,1.3249499797821045
1780563587334221800,7.426221923828125,8.922247886657715,-3.884803056716919,1.158355951309204
1780563587353744100,7.445744140625,8.97950553894043,-3.8021719455718994,0.9756850004196167
1780563587373265000,7.465264892578125,9.032990455627441,-3.7201058864593506,0.7783859968185425
1780563587392791600,7.48479150390625,9.077032089233398,-3.6483991146087646,0.5802239775657654
1780563587412319500,7.504319580078125,9.10806655883789,-3.5972208976745605,0.3783159852027893
1780563587431846400,7.523846435546875,9.126372337341309,-3.565722942352295,0.186939999461174
1780563587451371300,7.543371337890625,9.134581565856934,-3.5495591163635254,0.006897000130265951
1780563587470897700,7.562897705078125,9.137598991394043,-3.5379230976104736,-0.16545699536800385
1780563587490424800,7.5824248046875,9.13734245300293,-3.528057098388672,-0.3190400004386902
1780563587509952000,7.601951904296875,9.135198593139648,-3.5191469192504883,-0.4513849914073944
1780563587529479400,7.6214794921875,9.132214546203613,-3.5123889446258545,-0.5529770255088806
1780563587548999700,7.640999755859375,9.128769874572754,-3.5089869499206543,-0.6265450119972229
1780563587568521200,7.660521240234375,9.124726295471191,-3.5090150833129883,-0.6827639937400818
1780563587588051000,7.680051025390625,9.124726295471191,-3.5090150833129883,-0.6827639937400818
1780563587607581700,7.699581787109375,9.117759704589844,-3.5170679092407227,-0.7325980067253113
1780563587627108000,7.719108154296875,9.117759704589844,-3.5170679092407227,-0.7325980067253113
1780563587646630100,7.738630126953125,9.115605354309082,-3.5200629234313965,-0.7449100017547607
1780563587666155000,7.758155029296875,9.114558219909668,-3.52331805229187,-0.742339015007019
1780563587685683200,7.77768310546875,9.113805770874023,-3.52949595451355,-0.7219499945640564
1780563587705209000,7.797208984375,9.11252498626709,-3.5405149459838867,-0.6831120252609253
1780563587724737000,7.816737060546875,9.109901428222656,-3.5562119483947754,-0.6348749995231628
1780563587744267000,7.83626708984375,9.104188919067383,-3.5810000896453857,-0.5746240019798279
1780563587763790800,7.855790771484375,9.092247009277344,-3.6242740154266357,-0.48548200726509094
1780563587783315700,7.875315673828125,9.073298454284668,-3.6843509674072266,-0.3752500116825104
1780563587802842600,7.894842529296875,9.048062324523926,-3.7564289569854736,-0.24863000214099884
1780563587822367200,7.9143671875,9.018157005310059,-3.8340349197387695,-0.11411099880933762
1780563587841892900,7.933892822265625,8.98530387878418,-3.9120430946350098,0.015542999841272831
1780563587861415700,7.953415771484375,8.950385093688965,-3.988905906677246,0.13868099451065063
1780563587880937200,7.972937255859375,8.914015769958496,-4.063532829284668,0.26081499457359314
1780563587900462600,7.992462646484375,8.872173309326172,-4.14451789855957,0.3840779960155487
1780563587919987500,8.011987548828126,8.823587417602539,-4.2337422370910645,0.5096309781074524
1780563587939512600,8.0315126953125,8.768250465393066,-4.331859111785889,0.6267409920692444
1780563587959040800,8.051040771484375,8.709672927856445,-4.432251930236816,0.7326300144195557
1780563587978568400,8.070568359375,8.650291442871094,-4.531293869018555,0.824521005153656
1780563587998096600,8.0900966796875,8.596132278442383,-4.620910167694092,0.8908939957618713
1780563588017623300,8.109623291015625,8.550238609313965,-4.695193767547607,0.9426419734954834
1780563588037148200,8.129148193359375,8.511090278625488,-4.756104946136475,0.990352988243103
1780563588056676900,8.1486767578125,8.476428031921387,-4.806729793548584,1.041875958442688
1780563588076209200,8.168209228515625,8.441503524780273,-4.853076934814453,1.1084409952163696
1780563588095738000,8.187738037109375,8.407023429870605,-4.894577980041504,1.1853489875793457
1780563588115262700,8.2072626953125,8.373591423034668,-4.9302167892456055,1.2711880207061768
1780563588134785800,8.226785888671875,8.342808723449707,-4.960017204284668,1.3548990488052368
1780563588154311000,8.246310791015626,8.316106796264648,-4.984388828277588,1.4276679754257202
1780563588173841000,8.2658408203125,8.293343544006348,-5.003081798553467,1.493185043334961
1780563588193367000,8.285366943359374,8.277162551879883,-5.0158281326293945,1.5394890308380127
1780563588212892200,8.30489208984375,8.265863418579102,-5.024590969085693,1.5713030099868774
1780563588232420000,8.324420166015624,8.257952690124512,-5.029491901397705,1.5969959497451782
1780563588251948800,8.34394873046875,8.25334358215332,-5.030695915222168,1.6169159412384033
1780563588271476200,8.363476318359375,8.25209903717041,-5.0280609130859375,1.6314009428024292
1780563588290997500,8.38299755859375,8.253453254699707,-5.022218227386475,1.6425119638442993
1780563588310517800,8.402517822265626,8.2540283203125,-5.015520095825195,1.6599949598312378
1780563588330041000,8.422041015625,8.25390911102295,-5.007744789123535,1.6838849782943726
1780563588349566000,8.44156591796875,8.254444122314453,-4.999692916870117,1.7050570249557495
1780563588369091600,8.461091552734375,8.256120681762695,-4.9912190437316895,1.721680998802185
1780563588388614400,8.480614501953125,8.258562088012695,-4.983337879180908,1.7327699661254883
1780563588408136200,8.50013623046875,8.258562088012695,-4.983337879180908,1.7327699661254883
1780563588427656400,8.519656494140625,8.263396263122559,-4.973817825317383,1.737069010734558
1780563588447175700,8.53917578125,8.263396263122559,-4.973817825317383,1.737069010734558
1780563588466701800,8.558701904296875,8.265996932983398,-4.971244812011719,1.7320530414581299
1780563588486231800,8.578231689453125,8.270188331604004,-4.9683380126953125,1.7203459739685059
1780563588505758700,8.5977587890625,8.277840614318848,-4.962891101837158,1.6991339921951294
1780563588525277200,8.617277099609375,8.292196273803711,-4.951961994171143,1.6605859994888306
1780563588544800300,8.63680029296875,8.315058708190918,-4.931849956512451,1.6051839590072632
1780563588564327000,8.656326904296876,8.347611427307129,-4.89994478225708,1.5322999954223633
1780563588583848400,8.675848388671875,8.387920379638672,-4.85736608505249,1.4452580213546753
1780563588603369200,8.695369140625,8.433181762695312,-4.806406021118164,1.3490389585494995
1780563588622887700,8.7148876953125,8.481389045715332,-4.749151229858398,1.2456330060958862
1780563588642409500,8.734409423828126,8.53249740600586,-4.687492847442627,1.1242270469665527
1780563588661933300,8.753933349609374,8.586082458496094,-4.621615886688232,0.9797229766845703
1780563588681462500,8.773462646484376,8.641484260559082,-4.551424026489258,0.8057820200920105
1780563588700994300,8.792994384765626,8.69620418548584,-4.477107048034668,0.6095420122146606
1780563588720523500,8.8125234375,8.74478530883789,-4.405663013458252,0.3985700011253357
1780563588740050400,8.832050537109374,8.785734176635742,-4.337719917297363,0.18726399540901184
1780563588759578400,8.851578369140626,8.818190574645996,-4.275454998016357,-0.0016199999954551458
1780563588779105500,8.87110546875,8.842620849609375,-4.221106052398682,-0.17410500347614288
1780563588798635300,8.89063525390625,8.860108375549316,-4.175265789031982,-0.3250190019607544
1780563588818160400,8.910160400390625,8.871979713439941,-4.136775016784668,-0.4637509882450104
1780563588837678800,8.929678955078124,8.882038116455078,-4.099124908447266,-0.5887140035629272
1780563588857200400,8.949200439453126,8.890130043029785,-4.0639448165893555,-0.6999539732933044
1780563588876722200,8.96872216796875,8.896744728088379,-4.031284809112549,-0.7979239821434021
1780563588896244700,8.98824462890625,8.903185844421387,-4.001399040222168,-0.8729739785194397
1780563588915768300,9.007768310546876,8.90941333770752,-3.9737210273742676,-0.9337499737739563
1780563588935290600,9.02729052734375,8.915484428405762,-3.9491090774536133,-0.9791190028190613
1780563588954816500,9.04681640625,8.921510696411133,-3.927696943283081,-1.0098700523376465
1780563588974343000,9.066343017578125,8.927037239074707,-3.909092903137207,-1.0329519510269165
1780563588993861600,9.085861572265625,8.932209014892578,-3.893887996673584,-1.0455989837646484
1780563589013379600,9.105379638671875,8.937155723571777,-3.883073091506958,-1.0435470342636108
1780563589032900400,9.124900390625,8.941776275634766,-3.8785040378570557,-1.0207029581069946
1780563589052425000,9.144425048828126,8.945296287536621,-3.8809878826141357,-0.9795979857444763
1780563589071947800,9.16394775390625,8.947420120239258,-3.888561964035034,-0.9288529753684998
1780563589091470300,9.18347021484375,8.94825267791748,-3.900412082672119,-0.869225025177002
1780563589110995000,9.202994873046874,8.947587013244629,-3.9180870056152344,-0.7932720184326172
1780563589130516200,9.22251611328125,8.944121360778809,-3.9434120655059814,-0.7015569806098938
1780563589150037800,9.242037841796876,8.936635971069336,-3.977924108505249,-0.5938439965248108
1780563589169560300,9.261560302734376,8.936635971069336,-3.977924108505249,-0.5938439965248108
1780563589189082000,9.28108203125,8.924352645874023,-4.021273136138916,-0.4746420085430145
1780563589208607000,9.30060693359375,8.883731842041016,-4.131683826446533,-0.22024300694465637
1780563589228138800,9.320138671875,8.883731842041016,-4.131683826446533,-0.22024300694465637
1780563589247667200,9.339667236328125,8.856941223144531,-4.193796157836914,-0.0816740021109581
1780563589267192000,9.359192138671874,8.826025009155273,-4.258703231811523,0.0687830001115799
1780563589286719000,9.378718994140625,8.789840698242188,-4.32719612121582,0.23251500725746155
1780563589306247700,9.39824755859375,8.747597694396973,-4.400163173675537,0.3976289927959442
1780563589325780500,9.417780517578125,8.703315734863281,-4.470751762390137,0.5519689917564392
1780563589345312500,9.4373125,8.658514022827148,-4.538643836975098,0.6861780285835266
1780563589364846300,9.456846435546876,8.617632865905762,-4.600149154663086,0.7842360138893127
1780563589384382500,9.476382568359375,8.58106803894043,-4.653212070465088,0.867688000202179
1780563589403914800,9.495914794921875,8.548246383666992,-4.698947906494141,0.9420030117034912
1780563589423448600,9.515448486328125,8.516874313354492,-4.738561153411865,1.0241559743881226
1780563589442983000,9.53498291015625,8.483439445495605,-4.777291774749756,1.1174659729003906
1780563589462514400,9.554514404296874,8.448673248291016,-4.813074111938477,1.222391963005066
1780563589482047000,9.574046875,8.413249015808105,-4.844900131225586,1.3357319831848145
1780563589501578500,9.59357861328125,8.380328178405762,-4.8728132247924805,1.4372819662094116
1780563589521112000,9.613112060546875,8.35053539276123,-4.895647048950195,1.5300990343093872
1780563589540647000,9.63264697265625,8.325613021850586,-4.912162780761719,1.6108410358428955
1780563589560179200,9.65217919921875,8.305910110473633,-4.922217845916748,1.6803630590438843
1780563589579707100,9.67170703125,8.289451599121094,-4.926967144012451,1.7464170455932617
1780563589599235000,9.691235107421875,8.27509880065918,-4.928575038909912,1.8088330030441284
1780563589618765800,9.710765869140625,8.262170791625977,-4.928792953491211,1.8664230108261108
1780563589638298600,9.730298583984375,8.251969337463379,-4.928013801574707,1.913027048110962
1780563589657834200,9.749834228515626,8.244213104248047,-4.926540851593018,1.9499080181121826
1780563589677372400,9.769372314453125,8.236713409423828,-4.9256591796875,1.983544945716858
1780563589696914000,9.788913818359376,8.228299140930176,-4.927267074584961,2.0142290592193604
1780563589716458800,9.808458740234375,8.218496322631836,-4.932738780975342,2.040684938430786
1780563589736000300,9.828000244140625,8.208612442016602,-4.942831039428711,2.055989980697632
1780563589755536600,9.84753662109375,8.199173927307129,-4.956858158111572,2.059880018234253
1780563589775073300,9.8670732421875,8.191126823425293,-4.972932815551758,2.0531399250030518
1780563589794617000,9.8866171875,8.186620712280273,-4.988193035125732,2.0340020656585693
1780563589814160400,9.906160400390625,8.18587875366211,-5.00165319442749,2.0037050247192383
1780563589833694000,9.92569384765625,8.194422721862793,-5.007208824157715,1.954298973083496
1780563589853223400,9.945223388671875,8.21328353881836,-5.003810882568359,1.8825050592422485
1780563589872753400,9.96475341796875,8.24668025970459,-4.983613967895508,1.787695050239563
1780563589892283400,9.984283447265625,8.292815208435059,-4.947865009307861,1.669679045677185
1780563589911814000,10.00381396484375,8.348302841186523,-4.898672103881836,1.5325939655303955
1780563589931345400,10.023345458984375,8.411713600158691,-4.836206912994385,1.376289963722229
1780563589950878500,10.04287841796875,8.47496223449707,-4.7696099281311035,1.2107139825820923
1780563589970410000,10.062409912109375,8.537620544433594,-4.698301792144775,1.036816954612732
1780563589989938700,10.081938720703125,8.537620544433594,-4.698301792144775,1.036816954612732
1780563590009470700,10.101470703125,8.600936889648438,-4.619328022003174,0.8518750071525574
1780563590029001200,10.121001220703125,8.735349655151367,-4.420180797576904,0.44234299659729004
1780563590048532000,10.140531982421875,8.735349655151367,-4.420180797576904,0.44234299659729004
1780563590068063000,10.16006298828125,8.87130069732666,-4.164118766784668,-0.011230000294744968
1780563590087589600,10.179589599609375,8.87130069732666,-4.164118766784668,-0.011230000294744968
1780563590107114500,10.199114501953124,8.87130069732666,-4.164118766784668,-0.011230000294744968
1780563590126637800,10.218637939453124,8.978475570678711,-3.9011080265045166,-0.45644599199295044
1780563590146164500,10.23816455078125,9.013504028320312,-3.7882919311523438,-0.6675260066986084
1780563590165696000,10.257696044921875,9.035950660705566,-3.693211078643799,-0.8670660257339478
1780563590185222700,10.27722265625,9.046820640563965,-3.6163740158081055,-1.0568269491195679
1780563590204753000,10.2967529296875,9.047557830810547,-3.560594081878662,-1.2263189554214478
1780563590224284000,10.316283935546876,9.04304027557373,-3.5180630683898926,-1.373553991317749
1780563590243809300,10.335809326171875,9.035158157348633,-3.48824405670166,-1.496021032333374
1780563590263338800,10.3553388671875,9.026314735412598,-3.469019889831543,-1.5910810232162476
1780563590282871600,10.37487158203125,9.019269943237305,-3.4557089805603027,-1.6585659980773926
1780563590302399700,10.394399658203126,9.016515731811523,-3.4426279067993164,-1.7002229690551758
1780563590321925600,10.413925537109375,9.01870346069336,-3.4252851009368896,-1.7234890460968018
1780563590341453000,10.433453125,9.026910781860352,-3.4036529064178467,-1.7233749628067017
1780563590360979000,10.45297900390625,9.03976058959961,-3.3802731037139893,-1.7019059658050537
1780563590380503800,10.47250390625,9.055633544921875,-3.358583927154541,-1.6599390506744385
1780563590400031000,10.492031005859374,9.072973251342773,-3.341594934463501,-1.5984050035476685
1780563590419553500,10.511553466796874,9.090457916259766,-3.3308188915252686,-1.5196110010147095
1780563590439075000,10.531074951171876,9.104653358459473,-3.333527088165283,-1.4257899522781372
1780563590458597000,10.55059716796875,9.115641593933105,-3.3486719131469727,-1.3158470392227173
1780563590478120400,10.570120361328126,9.120291709899902,-3.382988929748535,-1.1898189783096313
1780563590497648600,10.589648681640625,9.119333267211914,-3.4328999519348145,-1.0454449653625488
1780563590517183700,10.609183837890624,9.112871170043945,-3.4953999519348145,-0.8819029927253723
1780563590536718300,10.62871826171875,9.100285530090332,-3.5680429935455322,-0.7027620077133179
1780563590556245800,10.648245849609374,9.084632873535156,-3.639075994491577,-0.5163040161132812
1780563590575773000,10.66777294921875,9.065476417541504,-3.7068378925323486,-0.3413099944591522
1780563590595302400,10.687302490234375,9.043221473693848,-3.7716801166534424,-0.18596500158309937
1780563590614833000,10.7068330078125,9.01655387878418,-3.8391060829162598,-0.05482900142669678
1780563590634360600,10.726360595703126,8.984231948852539,-3.914160966873169,0.05402500182390213
1780563590653888500,10.745888427734375,8.946767807006836,-3.9967010021209717,0.1473349928855896
1780563590673416000,10.765416015625,8.903247833251953,-4.0887980461120605,0.2321619987487793
1780563590692938800,10.784938720703124,8.857977867126465,-4.1805739402771,0.3146879971027374
1780563590712460300,10.804460205078126,8.815585136413574,-4.26193380355835,0.401731014251709
1780563590731981300,10.823981201171875,8.777859687805176,-4.328958034515381,0.49929100275039673
1780563590751503600,10.843503662109375,8.746868133544922,-4.377715110778809,0.6065449714660645
1780563590771030000,10.863030029296874,8.724016189575195,-4.40648889541626,0.7172139883041382
1780563590790556400,10.882556396484375,8.711506843566895,-4.412989139556885,0.8216800093650818
1780563590810080800,10.902080810546876,8.70603084564209,-4.404695987701416,0.9185280203819275
1780563590829604000,10.92160400390625,8.70603084564209,-4.385563850402832,1.0059139728546143
1780563590849125000,10.941125,8.70603084564209,-4.385563850402832,1.0059139728546143
1780563590868645400,10.960645263671875,8.719025611877441,-4.325926780700684,1.1423369646072388
1780563590888168400,10.98016845703125,8.719025611877441,-4.325926780700684,1.1423369646072388
1780563590907693800,10.99969384765625,8.739168167114258,-4.260000228881836,1.2326120138168335
1780563590927219500,11.019219482421875,8.739168167114258,-4.260000228881836,1.2326120138168335
1780563590946747000,11.038746826171876,8.748858451843262,-4.230048179626465,1.2665560245513916
1780563590966272800,11.058272705078124,8.759946823120117,-4.199648857116699,1.2908400297164917
1780563590985796900,11.077796875,8.773097038269043,-4.1676530838012695,1.3051559925079346
1780563591005326300,11.097326416015624,8.788681983947754,-4.133082866668701,1.3102200031280518
1780563591024857000,11.116857177734374,8.80615234375,-4.0960001945495605,1.3093780279159546
1780563591044383500,11.136383544921875,8.824808120727539,-4.057663917541504,1.3031259775161743
1780563591063913000,11.155912841796875,8.843168258666992,-4.020802021026611,1.2928719520568848
1780563591083448300,11.1754482421875,8.860456466674805,-3.986988067626953,1.27914297580719
1780563591102984000,11.19498388671875,8.876866340637207,-3.9558050632476807,1.2620819807052612
1780563591122518500,11.2145185546875,8.893492698669434,-3.9251410961151123,1.2405920028686523
1780563591142046200,11.234046142578125,8.912001609802246,-3.8916280269622803,1.2130420207977295
1780563591161576700,11.25357666015625,8.936098098754883,-3.8468849658966064,1.1779730319976807
1780563591181116200,11.2731162109375,8.96678638458252,-3.7893168926239014,1.1304069757461548
1780563591200649000,11.29264892578125,9.00414752960205,-3.7165908813476562,1.073425054550171
1780563591220177400,11.312177490234374,9.04800033569336,-3.6270360946655273,1.0091029405593872
1780563591239709400,11.33170947265625,9.097896575927734,-3.519845962524414,0.937529981136322
1780563591259243300,11.3512431640625,9.15340518951416,-3.3958730697631836,0.8504189848899841
1780563591278774300,11.370774169921875,9.210936546325684,-3.2620110511779785,0.7469409704208374
1780563591298309000,11.39030908203125,9.269058227539062,-3.118614912033081,0.6315000057220459
1780563591317846000,11.409845947265625,9.32638931274414,-2.9667000770568848,0.5070970058441162
1780563591337379600,11.429379638671875,9.378705978393555,-2.81817889213562,0.37113499641418457
1780563591356914400,11.44891455078125,9.422218322753906,-2.685336112976074,0.22534500062465668
1780563591376448300,11.4684482421875,9.456109046936035,-2.572067975997925,0.08040399849414825
1780563591395974400,11.487974365234376,9.480194091796875,-2.4823670387268066,-0.0613740012049675
1780563591415497500,11.50749755859375,9.494898796081543,-2.418186902999878,-0.19817399978637695
1780563591435025000,11.52702490234375,9.500774383544922,-2.379560947418213,-0.3360860049724579
1780563591454550800,11.54655078125,9.50031852722168,-2.3586230278015137,-0.4699150025844574
1780563591474074400,11.566074462890626,9.496597290039062,-2.346914052963257,-0.5887640118598938
1780563591493602300,11.585602294921875,9.490249633789062,-2.3452389240264893,-0.6892009973526001
1780563591513137700,11.6051376953125,9.482146263122559,-2.3527300357818604,-0.7704259753227234
1780563591532674800,11.6246748046875,9.473193168640137,-2.368232011795044,-0.8307170271873474
1780563591552210400,11.64421044921875,9.463809967041016,-2.3910179138183594,-0.8713979721069336
1780563591571744800,11.663744873046875,9.4545316696167,-2.418855905532837,-0.8949620127677917
1780563591591281000,11.683281005859374,9.444686889648438,-2.4517199993133545,-0.9093719720840454
1780563591610820400,11.7028203125,9.434185028076172,-2.489943027496338,-0.9145150184631348
1780563591630361300,11.722361328125,9.423027992248535,-2.534518003463745,-0.9070619940757751
1780563591649899500,11.7418994140625,9.423027992248535,-2.534518003463745,-0.9070619940757751
1780563591669435100,11.76143505859375,9.410698890686035,-2.587161064147949,-0.8861879706382751
1780563591688971500,11.780971435546874,9.381176948547363,-2.718930959701538,-0.8005689978599548
1780563591708506000,11.800506103515625,9.381176948547363,-2.718930959701538,-0.8005689978599548
1780563591728037400,11.820037353515625,9.34013557434082,-2.8928709030151367,-0.658145010471344
1780563591747569400,11.8395693359375,9.34013557434082,-2.8928709030151367,-0.658145010471344
1780563591767103000,11.85910302734375,9.34013557434082,-2.8928709030151367,-0.658145010471344
1780563591786636000,11.878635986328124,9.273881912231445,-3.1366729736328125,-0.44316500425338745
1780563591806167300,11.898167236328124,9.228293418884277,-3.2845969200134277,-0.3000220060348511
1780563591825699000,11.917698974609374,9.17260456085205,-3.4474079608917236,-0.1367429941892624
1780563591845233400,11.9372333984375,9.10693645477295,-3.6196680068969727,0.041682999581098557
1780563591864767500,11.956767578125,9.032281875610352,-3.79538893699646,0.23000699281692505
1780563591884299500,11.976299560546876,8.953473091125488,-3.962347984313965,0.41847801208496094
1780563591903827500,11.995827392578125,8.872629165649414,-4.118555068969727,0.5949519872665405
1780563591923355400,12.01535546875,8.791189193725586,-4.265517234802246,0.7485650181770325
1780563591942888700,12.034888671875,8.713285446166992,-4.398745059967041,0.8773260116577148
1780563591962419500,12.05441943359375,8.641310691833496,-4.51733922958374,0.9805049896240234
1780563591981948400,12.073948486328124,8.573603630065918,-4.626963138580322,1.060426950454712
1780563592001482200,12.093482177734375,8.509387969970703,-4.7297282218933105,1.1224859952926636
1780563592021017900,12.113017822265626,8.447504043579102,-4.825629234313965,1.180243968963623
1780563592040548600,12.132548583984375,8.388840675354004,-4.910964012145996,1.244899034500122
1780563592060073000,12.152072998046876,8.330492973327637,-4.990065097808838,1.3198989629745483
1780563592079597300,12.171597412109374,8.2713041305542,-5.06595516204834,1.400575041770935
1780563592099119900,12.191119873046874,8.213709831237793,-5.134696006774902,1.4865590333938599
1780563592118642000,12.210641845703124,8.160757064819336,-5.19297981262207,1.5732150077819824
1780563592138166800,12.230166748046875,8.11604118347168,-5.238887786865234,1.6504329442977905
1780563592157694700,12.24969482421875,8.080316543579102,-5.271859169006348,1.7192929983139038
1780563592177224400,12.269224365234376,8.052870750427246,-5.292903900146484,1.7822550535202026
1780563592196755700,12.288755615234376,8.031106948852539,-5.3038249015808105,1.8468259572982788
1780563592216288300,12.308288330078126,8.014240264892578,-5.308520793914795,1.9056600332260132
1780563592235821600,12.327821533203124,8.000847816467285,-5.3097991943359375,1.9576669931411743
1780563592255356200,12.347356201171875,7.991339206695557,-5.307773113250732,2.0015060901641846
1780563592274887200,12.36688720703125,7.986705780029297,-5.301714897155762,2.0357658863067627
1780563592294417000,12.3864169921875,7.987881183624268,-5.290647983551025,2.059803009033203
1780563592313947100,12.405947021484375,7.9956889152526855,-5.272960186004639,2.074815034866333
1780563592333476000,12.42547607421875,8.008710861206055,-5.247679233551025,2.0886380672454834
1780563592353007000,12.445007080078126,8.028093338012695,-5.21626091003418,2.092924118041992
1780563592372541000,12.464541015625,8.051898956298828,-5.181538105010986,2.0877230167388916
1780563592392070700,12.484070556640624,8.079346656799316,-5.145674228668213,2.070312023162842
1780563592411595300,12.50359521484375,8.109692573547363,-5.1101508140563965,2.039418935775757
1780563592431114800,12.52311474609375,8.141773223876953,-5.0762529373168945,1.995792031288147
1780563592450634200,12.54263427734375,8.175100326538086,-5.044015884399414,1.9405239820480347
1780563592470161000,12.562160888671874,8.208449363708496,-5.013519763946533,1.8777589797973633
1780563592489690400,12.5816904296875,8.208449363708496,-5.013519763946533,1.8777589797973633
1780563592509222100,12.60122216796875,8.28184986114502,-4.95391321182251,1.705788016319275
1780563592528750600,12.62075048828125,8.28184986114502,-4.95391321182251,1.705788016319275
1780563592548278000,12.640278076171874,8.323732376098633,-4.919213771820068,1.5990060567855835
1780563592567808300,12.659808349609374,8.429329872131348,-4.813436031341553,1.3480509519577026
1780563592587340500,12.679340576171874,8.429329872131348,-4.813436031341553,1.3480509519577026
1780563592606875600,12.698875732421875,8.4950590133667,-4.73284387588501,1.2141519784927368
1780563592626408400,12.718408447265626,8.56822681427002,-4.632875919342041,1.0779420137405396
1780563592645940700,12.737940673828126,8.648350715637207,-4.513668060302734,0.9342510104179382
1780563592665473500,12.7574736328125,8.731961250305176,-4.380583763122559,0.7767339944839478
1780563592684999200,12.776999267578125,8.8154296875,-4.238763809204102,0.6008859872817993
1780563592704520000,12.79652001953125,8.894988059997559,-4.092793941497803,0.41015198826789856
1780563592724045600,12.816045654296875,8.965933799743652,-3.9506049156188965,0.21154999732971191
1780563592743573000,12.835572998046874,9.025378227233887,-3.8186678886413574,0.017613999545574188
1780563592763100400,12.855100341796875,9.072405815124512,-3.701759099960327,-0.1685979962348938
1780563592782629000,12.874629150390625,9.107678413391113,-3.6015079021453857,-0.345441997051239
1780563592802161700,12.89416162109375,9.133087158203125,-3.5163090229034424,-0.5121430158615112
1780563592821699000,12.913698974609375,9.151394844055176,-3.443294048309326,-0.6600610017776489
1780563592841237000,12.933237060546874,9.165057182312012,-3.3798580169677734,-0.7863069772720337
1780563592860772600,12.952772705078125,9.175718307495117,-3.3250679969787598,-0.8888859748840332
1780563592880305700,12.9723056640625,9.184287071228027,-3.2794840335845947,-0.9663609862327576
1780563592899837400,12.99183740234375,9.191142082214355,-3.2439939975738525,-1.0195109844207764
1780563592919362800,13.01136279296875,9.196271896362305,-3.2192320823669434,-1.0512490272521973
1780563592938889700,13.0308896484375,9.198899269104004,-3.2048680782318115,-1.0719469785690308
1780563592958425600,13.050425537109374,9.199483871459961,-3.200153112411499,-1.0809799432754517
1780563592977958100,13.069958251953125,9.198745727539062,-3.203648090362549,-1.0768990516662598
1780563592997488400,13.08948828125,9.197745323181152,-3.2136149406433105,-1.0555390119552612
1780563593017016600,13.1090166015625,9.197047233581543,-3.229422092437744,-1.0124950408935547
1780563593036547000,13.128547119140626,9.196229934692383,-3.2518770694732666,-0.9458569884300232
1780563593056081000,13.148080810546874,9.194367408752441,-3.281723976135254,-0.856673002243042
1780563593075615200,13.167615234375,9.19051742553711,-3.3185789585113525,-0.7492780089378357
1780563593095150000,13.187150146484376,9.184331893920898,-3.362529993057251,-0.6176049709320068
1780563593114681900,13.206681884765626,9.176477432250977,-3.4079649448394775,-0.46695101261138916
1780563593134211600,13.226211669921875,9.166242599487305,-3.4538118839263916,-0.3019450008869171
1780563593153739000,13.245739013671875,9.153336524963379,-3.4985809326171875,-0.12784400582313538
1780563593173268700,13.265268798828124,9.137242317199707,-3.542323112487793,0.0523810014128685
1780563593192808400,13.284808349609374,9.116557121276855,-3.588623046875,0.2239679992198944
1780563593212344600,13.304344482421875,9.091870307922363,-3.637847900390625,0.3794020116329193
1780563593231872000,13.3238720703125,9.06218147277832,-3.693376064300537,0.5252019762992859
1780563593251405600,13.343405517578125,9.028149604797363,-3.753308057785034,0.6672189831733704
1780563593270939000,13.36293896484375,8.990120887756348,-3.816267967224121,0.8085899949073792
1780563593290469400,13.382469482421875,8.949202537536621,-3.8806049823760986,0.9448109865188599
1780563593309995500,13.40199560546875,8.908201217651367,-3.9421770572662354,1.0691959857940674
1780563593329517600,13.421517578125,8.869518280029297,-3.998249053955078,1.1771310567855835
1780563593349039000,13.4410390625,8.869518280029297,-3.998249053955078,1.1771310567855835
1780563593368564200,13.460564208984374,8.803717613220215,-4.083303928375244,1.3642510175704956
1780563593388091400,13.48009130859375,8.775781631469727,-4.113213062286377,1.451591968536377
1780563593407613400,13.499613525390625,8.750185012817383,-4.134471893310547,1.5428550243377686
1780563593427137300,13.51913720703125,8.750185012817383,-4.134471893310547,1.5428550243377686
1780563593446669800,13.538669921875,8.726314544677734,-4.147780895233154,1.6393049955368042
1780563593466201600,13.55820166015625,8.70419692993164,-4.152470111846924,1.7418229579925537
1780563593485728300,13.577728271484375,8.685107231140137,-4.150472164154053,1.8391519784927368
1780563593505259500,13.597259521484375,8.669276237487793,-4.141173839569092,1.9324430227279663
1780563593524790500,13.61679052734375,8.657312393188477,-4.1267828941345215,2.015094041824341
1780563593544321000,13.636321044921875,8.64896297454834,-4.108547210693359,2.0869300365448
1780563593563853300,13.655853271484375,8.643538475036621,-4.085142135620117,2.1542680263519287
1780563593583385600,13.675385498046875,8.64134693145752,-4.05704402923584,2.215290069580078
1780563593602915600,13.69491552734375,8.642457008361816,-4.025784015655518,2.2673749923706055
1780563593622443500,13.714443603515624,8.64687442779541,-3.993285894393921,2.307642936706543
1780563593641971700,13.7339716796875,8.654300689697266,-3.961225986480713,2.33489990234375
1780563593661503500,13.75350341796875,8.664178848266602,-3.930553913116455,2.3500499725341797
1780563593681036000,13.7730361328125,8.67562484741211,-3.901947021484375,2.3554930686950684
1780563593700567000,13.792567138671876,8.687224388122559,-3.876910924911499,2.354077100753784
1780563593720098800,13.812098876953126,8.697150230407715,-3.858280897140503,2.3480310440063477
1780563593739629000,13.831629150390626,8.703953742980957,-3.8484749794006348,2.3388969898223877
1780563593759157800,13.85115771484375,8.707331657409668,-3.847870111465454,2.3272910118103027
1780563593778685200,13.870685302734374,8.708282470703125,-3.8544809818267822,2.312748908996582
1780563593798211600,13.890211669921875,8.708419799804688,-3.865159034729004,2.294334888458252
1780563593817739800,13.90973974609375,8.709839820861816,-3.876699924468994,2.269331932067871
1780563593837268200,13.929268310546876,8.71678638458252,-3.8855130672454834,2.2272040843963623
1780563593856796700,13.948796630859375,8.731916427612305,-3.887407064437866,2.163723945617676
1780563593876325600,13.96832568359375,8.758267402648926,-3.8793039321899414,2.069722890853882
1780563593895857000,13.98785693359375,8.795052528381348,-3.859330892562866,1.9474589824676514
1780563593915390000,14.007389892578125,8.838082313537598,-3.827147960662842,1.8114140033721924
1780563593934924500,14.026924560546876,8.883291244506836,-3.7839879989624023,1.675879955291748
1780563593954459600,14.046459716796875,8.928881645202637,-3.7336909770965576,1.540984034538269
1780563593973985500,14.065985595703125,8.97497272491455,-3.675045967102051,1.4085079431533813
1780563593993506600,14.085506591796875,9.02291202545166,-3.6088171005249023,1.2662889957427979
1780563594013036800,14.105036865234375,9.072382926940918,-3.5364649295806885,1.1069209575653076
1780563594032574000,14.124573974609374,9.122554779052734,-3.460753917694092,0.9176999926567078
1780563594052109600,14.144109619140625,9.167121887207031,-3.392822027206421,0.701882004737854
1780563594071645700,14.163645751953124,9.20291805267334,-3.3337719440460205,0.4819340109825134
1780563594091184600,14.1831845703125,9.228375434875488,-3.2878050804138184,0.25964799523353577
1780563594110720300,14.20272021484375,9.243450164794922,-3.255213975906372,0.04697500169277191
1780563594130258700,14.2222587890625,9.249154090881348,-3.2358670234680176,-0.14935900270938873
1780563594149798000,14.2417978515625,9.249154090881348,-3.2358670234680176,-0.14935900270938873
1780563594169335600,14.26133544921875,9.240583419799805,-3.235901117324829,-0.42491498589515686
1780563594188877800,14.2808779296875,9.233478546142578,-3.2416810989379883,-0.5238190293312073
1780563594208418000,14.30041796875,9.226913452148438,-3.2480409145355225,-0.595225989818573
1780563594227951600,14.31995166015625,9.222097396850586,-3.2540268898010254,-0.6357809901237488
1780563594247484000,14.33948388671875,9.222097396850586,-3.2540268898010254,-0.6357809901237488
1780563594267016400,14.359016357421876,9.21902847290039,-3.2614998817443848,-0.6419820189476013
1780563594286548500,14.378548583984376,9.217156410217285,-3.275131940841675,-0.5979380011558533
1780563594306085600,14.398085693359375,9.217156410217285,-3.275131940841675,-0.5979380011558533
1780563594325622300,14.417622314453125,9.21805477142334,-3.2811410427093506,-0.5491589903831482
1780563594345155600,14.437155517578125,9.21915054321289,-3.286746025085449,-0.4945409893989563
1780563594364692500,14.4566923828125,9.21934986114502,-3.295880079269409,-0.42517098784446716
1780563594384225500,14.4762255859375,9.21699047088623,-3.3118789196014404,-0.3443030118942261
1780563594403754000,14.49575390625,9.210770606994629,-3.336491107940674,-0.2636919915676117
1780563594423290000,14.5152900390625,9.199795722961426,-3.3720309734344482,-0.18199600279331207
1780563594442829600,14.53482958984375,9.18432903289795,-3.417556047439575,-0.09172099828720093
1780563594462365400,14.554365478515624,9.163606643676758,-3.4738988876342773,0.01862099952995777
1780563594481900000,14.573900146484375,9.13670539855957,-3.540595054626465,0.15746299922466278
1780563594501434600,14.5934345703125,9.10323429107666,-3.615010976791382,0.3206309974193573
1780563594520970200,14.61297021484375,9.064329147338867,-3.6928069591522217,0.49103501439094543
1780563594540508200,14.632508056640624,9.021910667419434,-3.7706780433654785,0.6535339951515198
1780563594560045000,14.652045166015625,8.977154731750488,-3.848970890045166,0.797569990158081
1780563594579578400,14.671578369140626,8.929301261901855,-3.931020975112915,0.9244710206985474
1780563594599101400,14.691101318359374,8.877001762390137,-4.020029067993164,1.0383700132369995
1780563594618620000,14.710619873046875,8.820047378540039,-4.116109848022461,1.1421040296554565
1780563594638142200,14.73014208984375,8.759159088134766,-4.215435981750488,1.243880033493042
1780563594657671400,14.74967138671875,8.699637413024902,-4.3084001541137695,1.3394030332565308
1780563594677209900,14.7692099609375,8.6441650390625,-4.3925580978393555,1.4226150512695312
1780563594696747000,14.7887470703125,8.593446731567383,-4.464822769165039,1.5026799440383911
1780563594716283100,14.808283203125,8.548434257507324,-4.523427963256836,1.582044005393982
1780563594735818200,14.827818359375,8.509261131286621,-4.567777156829834,1.6636929512023926
1780563594755354000,14.84735400390625,8.478833198547363,-4.59915018081665,1.731245994567871
1780563594774893300,14.866893310546875,8.4497709274292,-4.626597881317139,1.7988790273666382
1780563594794428400,14.886428466796875,8.420061111450195,-4.651979923248291,1.871269941329956
1780563594813959200,14.905959228515625,8.391054153442383,-4.67716121673584,1.937620997428894
1780563594833490400,14.925490478515625,8.364279747009277,-4.701717853546143,1.9931559562683105
1780563594853027600,14.945027587890625,8.341949462890625,-4.724820137023926,2.0317370891571045
1780563594872567600,14.964567626953125,8.321806907653809,-4.74667501449585,2.063154935836792
1780563594892103200,14.984103271484376,8.304288864135742,-4.7672038078308105,2.086276054382324
1780563594911640000,15.00364013671875,8.289795875549316,-4.785384178161621,2.10223388671875
1780563594931176400,15.023176513671874,8.276920318603516,-4.79939603805542,2.1209380626678467
1780563594950711800,15.0427119140625,8.267338752746582,-4.8090667724609375,2.1363439559936523
1780563594970248700,15.062248779296874,8.260334014892578,-4.814539909362793,2.1510679721832275
1780563594989782500,15.081782470703125,8.260334014892578,-4.814539909362793,2.1510679721832275
1780563595009314300,15.101314208984375,8.254011154174805,-4.816061973571777,2.171830892562866
1780563595028849400,15.120849365234376,8.248730659484863,-4.813014984130859,2.198478937149048
1780563595048384300,15.14038427734375,8.238344192504883,-4.800555229187012,2.2637031078338623
1780563595067915500,15.15991552734375,8.233148574829102,-4.795522212982178,2.2930779457092285
1780563595087445800,15.17944580078125,8.226630210876465,-4.7940568923950195,2.3193910121917725
1780563595106973400,15.198973388671876,8.226630210876465,-4.7940568923950195,2.3193910121917725
1780563595126502700,15.218502685546875,8.219207763671875,-4.79606819152832,2.3414409160614014
1780563595146033000,15.238032958984375,8.212002754211426,-4.800286769866943,2.3580119609832764
1780563595165566500,15.25756640625,8.207616806030273,-4.803656101226807,2.366413116455078
1780563595185104100,15.277104248046875,8.209982872009277,-4.803549766540527,2.3584089279174805
1780563595204639200,15.29663916015625,8.221783638000488,-4.7967529296875,2.3309690952301025
1780563595224173000,15.316173095703125,8.243980407714844,-4.7812628746032715,2.2839229106903076
1780563595243698000,15.335697998046875,8.273876190185547,-4.7577619552612305,2.224108934402466
1780563595263215900,15.3552158203125,8.308815002441406,-4.727809906005859,2.1567130088806152
1780563595282732500,15.374732666015625,8.346904754638672,-4.69301700592041,2.08440899848938
1780563595302249200,15.394249267578125,8.38891315460205,-4.653637886047363,2.0024449825286865
1780563595321775600,15.413775634765624,8.437747955322266,-4.608936786651611,1.8979229927062988
1780563595341305900,15.433305908203126,8.496537208557129,-4.5537519454956055,1.764145016670227
1780563595360837000,15.452837158203126,8.564478874206543,-4.488142013549805,1.5957030057907104
1780563595380373800,15.472373779296875,8.635798454284668,-4.416088104248047,1.4004149436950684
1780563595399909600,15.49190966796875,8.710144996643066,-4.331686019897461,1.1873780488967896
1780563595419443500,15.511443359375,8.7844877243042,-4.23415994644165,0.9719390273094177
1780563595438973400,15.530973388671875,8.856489181518555,-4.124266147613525,0.7700780034065247
1780563595458503700,15.550503662109374,8.925469398498535,-4.003608226776123,0.5891680121421814
1780563595478035000,15.570034912109374,8.990460395812988,-3.8760058879852295,0.43380600214004517
1780563595497565400,15.5895654296875,9.055215835571289,-3.735239028930664,0.3017350137233734
1780563595517098200,15.60909814453125,9.119341850280762,-3.583738088607788,0.18554900586605072
1780563595536628000,15.6286279296875,9.183433532714844,-3.420146942138672,0.08440399914979935
1780563595556159500,15.648159423828124,9.249086380004883,-3.2395029067993164,-0.0023880000226199627
1780563595575690500,15.6676904296875,9.313485145568848,-3.0484979152679443,-0.07507500052452087
1780563595595218200,15.68721826171875,9.377613067626953,-2.843000888824463,-0.13312099874019623
1780563595614749400,15.70674951171875,9.440848350524902,-2.6222081184387207,-0.18548600375652313
1780563595634280700,15.72628076171875,9.501697540283203,-2.3881618976593018,-0.23324599862098694
1780563595653812700,15.745812744140625,9.557830810546875,-2.1474170684814453,-0.276529997587204
1780563595673341400,15.765341552734375,9.606889724731445,-1.9103150367736816,-0.3136340081691742
1780563595692868600,15.78486865234375,9.649345397949219,-1.6772669553756714,-0.3419179916381836
1780563595712401400,15.8044013671875,9.685477256774902,-1.4504400491714478,-0.3574259877204895
1780563595731935200,15.823935302734375,9.715899467468262,-1.2299660444259644,-0.35844600200653076
1780563595751470600,15.843470703125,9.7412109375,-1.0153189897537231,-0.34339699149131775
1780563595771011300,15.86301123046875,9.762106895446777,-0.8053950071334839,-0.30429399013519287
1780563595790550000,15.882550048828126,9.778647422790527,-0.6006050109863281,-0.23942500352859497
1780563595810089000,15.9020888671875,9.790573120117188,-0.4028550088405609,-0.1496019959449768
1780563595829630700,15.921630615234376,9.790573120117188,-0.4028550088405609,-0.1496019959449768
1780563595849163000,15.9411630859375,9.799721717834473,-0.026778999716043472,0.06876099854707718
1780563595868691500,15.96069140625,9.79715347290039,0.15095500648021698,0.1816900074481964
1780563595888223000,15.980222900390626,9.79715347290039,0.15095500648021698,0.1816900074481964
1780563595907760000,15.999760009765625,9.780460357666016,0.4763599932193756,0.39455199241638184
1780563595927298800,16.019298828125,9.767546653747559,0.6155170202255249,0.5061339735984802
1780563595946832400,16.038832275390625,9.767546653747559,0.6155170202255249,0.5061339735984802
1780563595966365700,16.05836572265625,9.75229263305664,0.7395979762077332,0.6211119890213013
1780563595985900000,16.077900146484374,9.734945297241211,0.8593860268592834,0.7295860052108765
1780563596005433600,16.09743359375,9.715970993041992,0.9786139726638794,0.8259620070457458
1780563596024969500,16.116969482421876,9.6951265335083,1.101662039756775,0.9115129709243774
1780563596044503800,16.13650390625,9.673389434814453,1.2296799421310425,0.9764339923858643
1780563596064031700,16.15603173828125,9.651013374328613,1.3623950481414795,1.0206929445266724
1780563596083562000,16.17556201171875,9.629169464111328,1.4940329790115356,1.0425770282745361
1780563596103097300,16.195097412109376,9.609712600708008,1.6129779815673828,1.0448570251464844
1780563596122630000,16.2146298828125,9.5936279296875,1.7135369777679443,1.0325160026550293
1780563596142162000,16.234161865234373,9.582201957702637,1.792114019393921,1.0048550367355347
1780563596161695500,16.253695556640626,9.57695198059082,1.843196988105774,0.961562991142273
1780563596181223700,16.2732236328125,9.576745986938477,1.8737939596176147,0.9026790261268616
1780563596200752400,16.29275244140625,9.580307960510254,1.8885409832000732,0.8313310146331787
1780563596220281600,16.312281494140624,9.585650444030762,1.8927350044250488,0.7568699717521667
1780563596239810800,16.331810791015624,9.591167449951172,1.8931820392608643,0.6821789741516113
1780563596259341000,16.351341064453123,9.595526695251465,1.8961169719696045,0.6087719798088074
1780563596288633600,16.380633544921874,9.596800804138184,1.911262035369873,0.5371080040931702
1780563596298398000,16.39039794921875,9.59463119506836,1.9402439594268799,0.46744999289512634
1780563596317928700,16.4099287109375,9.589559555053711,1.9801599979400635,0.39911898970603943
1780563596337459700,16.429459716796874,9.582780838012695,2.0249850749969482,0.33125799894332886
1780563596356991700,16.44899169921875,9.575682640075684,2.068031072616577,0.26371899247169495
1780563596376526000,16.468526123046875,9.569109916687012,2.105518102645874,0.19728699326515198
1780563596396058600,16.48805859375,9.56359577178955,2.135427951812744,0.13261599838733673
1780563596415592400,16.507592529296875,9.559318542480469,2.1574289798736572,0.07023599743843079
1780563596435127600,16.52712744140625,9.556243896484375,2.172111988067627,0.011351999826729298
1780563596454663400,16.546663330078125,9.553831100463867,2.182326078414917,-0.04198199883103371
1780563596474197000,16.566197021484374,9.551512718200684,2.1910529136657715,-0.08880899846553802
1780563596493729000,16.58572900390625,9.54837703704834,2.2027618885040283,-0.1277489960193634
1780563596513260500,16.605260498046874,9.54436206817627,2.217956066131592,-0.16067300736904144
1780563596532786000,16.624785888671877,9.53926944732666,2.237649917602539,-0.18775199353694916
1780563596552315400,16.6443154296875,9.533093452453613,2.261831045150757,-0.21033699810504913
1780563596571853600,16.663853515625,9.525993347167969,2.289712905883789,-0.2294899970293045
1780563596591392300,16.683392333984376,9.518264770507812,2.3199760913848877,-0.24563400447368622
1780563596610926300,16.70292626953125,9.511001586914062,2.348007917404175,-0.2601880133152008
1780563596630455800,16.722455810546876,9.504712104797363,2.3720591068267822,-0.2716340124607086
1780563596649989000,16.741989013671876,9.499896049499512,2.390285015106201,-0.28018200397491455
1780563596669525500,16.761525390625,9.499896049499512,2.390285015106201,-0.28018200397491455
1780563596689063200,16.781063232421875,9.496293067932129,2.4039180278778076,-0.2856470048427582
1780563596708602400,16.800602294921877,9.493629455566406,2.4141719341278076,-0.2877059876918793
1780563596728138200,16.82013818359375,9.49171257019043,2.421849012374878,-0.286422997713089
1780563596747673000,16.839673095703127,9.489031791687012,2.4333229064941406,-0.27786099910736084
1780563596767207400,16.85920751953125,9.489031791687012,2.4333229064941406,-0.27786099910736084
1780563596786741200,16.8787412109375,9.487661361694336,2.4392809867858887,-0.272367000579834
1780563596806276400,16.8982763671875,9.48604679107666,2.446274995803833,-0.26579800248146057
1780563596825809700,16.9178095703125,9.484286308288574,2.453934907913208,-0.25792598724365234
1780563596845343500,16.937343505859374,9.482430458068848,2.4620020389556885,-0.24908800423145294
1780563596864877800,16.9568779296875,9.48050308227539,2.470355987548828,-0.23962099850177765
1780563596884410000,16.97641015625,9.478535652160645,2.478818893432617,-0.2298559993505478
1780563596903943400,16.995943359375,9.476678848266602,2.486790895462036,-0.2200459986925125
1780563596923479600,17.0154794921875,9.475020408630371,2.4939420223236084,-0.21036699414253235
1780563596943015200,17.03501513671875,9.473710060119629,2.4996891021728516,-0.20091499388217926
1780563596962549200,17.05454931640625,9.472738265991211,2.5041050910949707,-0.19155600666999817
1780563596982078700,17.07407861328125,9.472016334533691,2.5075490474700928,-0.18193399906158447
1780563597001608400,17.0936083984375,9.471468925476074,2.510345935821533,-0.1716109961271286
1780563597021144800,17.113144775390627,9.471037864685059,2.512734889984131,-0.1600400060415268
1780563597040680200,17.13268017578125,9.470783233642578,2.5144848823547363,-0.14706100523471832
1780563597060212500,17.15221240234375,9.470779418945312,2.5153050422668457,-0.13258600234985352
1780563597079745500,17.17174560546875,9.471261024475098,2.514267921447754,-0.11696100234985352
