time,seconds_elapsed,z,y,x
1780564641497415000,0.501414794921875,8.629545211791992,4.508839130401611,-1.1141400337219238
1780564641507175200,0.511175048828125,8.599723815917969,4.563417911529541,-1.1224759817123413
1780564641526699500,0.530699462890625,8.575119972229004,4.6068267822265625,-1.1333409547805786
1780564641546223900,0.550223876953125,8.55559253692627,4.63948392868042,-1.1476140022277832
1780564641565747500,0.56974755859375,8.538934707641602,4.665747165679932,-1.1650669574737549
1780564641585274400,0.5892744140625,8.522872924804688,4.689941883087158,-1.1853660345077515
1780564641604796700,0.608796630859375,8.505387306213379,4.716158866882324,-1.2067430019378662
1780564641624318000,0.62831787109375,8.481212615966797,4.7551350593566895,-1.223816990852356
1780564641643843300,0.64784326171875,8.452934265136719,4.80329704284668,-1.2313469648361206
1780564641663365600,0.66736572265625,8.421422958374023,4.85982084274292,-1.2254650592803955
1780564641682883600,0.686883544921875,8.393091201782227,4.914024829864502,-1.203484058380127
1780564641702399000,0.70639892578125,8.371109962463379,4.960652828216553,-1.1646660566329956
1780564641721909800,0.72590966796875,8.361562728881836,4.989134788513184,-1.1102999448776245
1780564641741415200,0.745415283203125,8.364038467407227,4.99943208694458,-1.0433340072631836
1780564641760925000,0.764925048828125,8.37671184539795,4.993686199188232,-0.9663349986076355
1780564641780442600,0.784442626953125,8.396906852722168,4.9755449295043945,-0.8808559775352478
1780564641799964000,0.8039638671875,8.41819953918457,4.954983234405518,-0.7886930108070374
1780564641819483600,0.823483642578125,8.41819953918457,4.954983234405518,-0.7886930108070374
1780564641839005000,0.8430048828125,8.447790145874023,4.931849002838135,-0.5930619835853577
1780564641858529300,0.862529296875,8.449529647827148,4.939785003662109,-0.4939360022544861
1780564641878054100,0.88205419921875,8.44045352935791,4.963811874389648,-0.3991450071334839
1780564641897577700,0.90157763671875,8.44045352935791,4.963811874389648,-0.3991450071334839
1780564641917101000,0.92110107421875,8.44045352935791,4.963811874389648,-0.3991450071334839
1780564641936623000,0.940623046875,8.412302017211914,5.01958703994751,-0.27734899520874023
1780564641956144400,0.960144287109375,8.400898933410645,5.040013790130615,-0.25130099058151245
1780564641975670300,0.979670166015625,8.395251274108887,5.049434185028076,-0.2508940100669861
1780564641995196700,0.99919677734375,8.39954662322998,5.041110992431641,-0.27350500226020813
1780564642014719500,1.018719482421875,8.414316177368164,5.013853073120117,-0.31711098551750183
1780564642034236700,1.038236572265625,8.432001113891602,4.9807448387146,-0.365431010723114
1780564642053757000,1.0577568359375,8.450352668762207,4.945381164550781,-0.4180389940738678
1780564642073280500,1.077280517578125,8.467145919799805,4.911649227142334,-0.47237399220466614
1780564642092800500,1.096800537109375,8.479313850402832,4.885255813598633,-0.5248879790306091
1780564642112319700,1.11631982421875,8.479242324829102,4.880008220672607,-0.5726690292358398
1780564642131840500,1.135840576171875,8.467497825622559,4.895674228668213,-0.6114389896392822
1780564642151363800,1.15536376953125,8.446290969848633,4.928764820098877,-0.6383119821548462
1780564642170886100,1.17488623046875,8.418014526367188,4.975244045257568,-0.6511260271072388
1780564642190410800,1.19441064453125,8.384817123413086,5.031256198883057,-0.6490640044212341
1780564642209940000,1.21393994140625,8.348331451416016,5.093481063842773,-0.6338899731636047
1780564642229468700,1.23346875,8.315666198730469,5.149314880371094,-0.6117579936981201
1780564642248996600,1.25299658203125,8.285717964172363,5.199724197387695,-0.5913959741592407
1780564642268522500,1.2725224609375,8.25722885131836,5.245937824249268,-0.5816439986228943
1780564642288046800,1.292046875,8.22887134552002,5.28851318359375,-0.5977510213851929
1780564642307569700,1.311569580078125,8.19665241241455,5.331841945648193,-0.6529510021209717
1780564642327091500,1.331091552734375,8.157979011535645,5.37655782699585,-0.7615799903869629
1780564642346613500,1.350613525390625,8.108043670654297,5.423145771026611,-0.9429180026054382
1780564642366133800,1.3701337890625,8.036946296691895,5.472272872924805,-1.2254470586776733
1780564642385657600,1.38965771484375,7.931808948516846,5.516891002655029,-1.6402209997177124
1780564642405183000,1.409182861328125,7.772857189178467,5.547242164611816,-2.20245099067688
1780564642424707600,1.42870751953125,7.544549942016602,5.539931774139404,-2.9032609462738037
1780564642444234200,1.448234130859375,7.237605094909668,5.458587169647217,-3.723022937774658
1780564642463760600,1.4677607421875,6.86447811126709,5.263218879699707,-4.606241226196289
1780564642502812700,1.506812744140625,6.077593803405762,4.514835834503174,-6.22246789932251
1780564642522337500,1.526337646484375,5.752636909484863,4.024715900421143,-6.837310791015625
1780564642541865700,1.54586572265625,5.500035762786865,3.51300311088562,-7.310842037200928
1780564642561393400,1.565393310546875,5.315610885620117,3.0229439735412598,-7.6580729484558105
1780564642580918000,1.58491796875,5.177164077758789,2.5831010341644287,-7.9097747802734375
1780564642600438800,1.604438720703125,5.054337978363037,2.206028938293457,-8.101056098937988
1780564642619962000,1.623962158203125,4.93021821975708,1.8860939741134644,-8.256851196289062
1780564642639487500,1.643487548828125,4.93021821975708,1.8860939741134644,-8.256851196289062
1780564642659009800,1.663009765625,4.6427741050720215,1.3913840055465698,-8.517552375793457
1780564642678533600,1.68253369140625,4.48956298828125,1.19417405128479,-8.628890991210938
1780564642698056700,1.702056640625,4.48956298828125,1.19417405128479,-8.628890991210938
1780564642717581300,1.721581298828125,4.350045204162598,1.0226589441299438,-8.721883773803711
1780564642737105700,1.741105712890625,4.350045204162598,1.0226589441299438,-8.721883773803711
1780564642756625400,1.76062548828125,4.1406660079956055,0.7369570136070251,-8.851653099060059
1780564642776148500,1.7801484375,4.066893100738525,0.620169997215271,-8.89470386505127
1780564642795677700,1.799677734375,4.0101752281188965,0.5206050276756287,-8.926783561706543
1780564642815200800,1.81920068359375,3.96376895904541,0.43647098541259766,-8.951984405517578
1780564642834718200,1.83871826171875,3.919887065887451,0.36531099677085876,-8.974465370178223
1780564642854237700,1.85823779296875,3.878153085708618,0.30493998527526855,-8.994828224182129
1780564642873753300,1.87775341796875,3.8383090496063232,0.2540999948978424,-9.013479232788086
1780564642893266400,1.897266357421875,3.802082061767578,0.2110379934310913,-9.029930114746094
1780564642912779500,1.916779541015625,3.771177053451538,0.1731719970703125,-9.043684959411621
1780564642932292600,1.936292724609375,3.748560905456543,0.1368740051984787,-9.053704261779785
1780564642951810300,1.955810302734375,3.739466905593872,0.09792400151491165,-9.057968139648438
1780564642971322600,1.975322509765625,3.7552061080932617,0.05206799879670143,-9.051834106445312
1780564642990827800,1.994827880859375,3.803112030029297,-0.005243000108748674,-9.031959533691406
1780564643010335700,2.014335693359375,3.892414093017578,-0.0774729996919632,-8.99350357055664
1780564643029843500,2.033843505859375,4.025767803192139,-0.1642650067806244,-8.933431625366211
1780564643049349400,2.053349365234375,4.202838897705078,-0.2510780096054077,-8.849469184875488
1780564643068856000,2.07285595703125,4.411067008972168,-0.32143300771713257,-8.74523639678955
1780564643088365800,2.09236572265625,4.622912883758545,-0.3629179894924164,-8.633479118347168
1780564643107880700,2.111880615234375,4.811281204223633,-0.3621000051498413,-8.529973983764648
1780564643127391200,2.13139111328125,4.948787212371826,-0.31195399165153503,-8.452939987182617
1780564643146897000,2.15089697265625,5.017453193664551,-0.21101899445056915,-8.415498733520508
1780564643166403300,2.1704033203125,5.011643886566162,-0.07937099784612656,-8.42123031616211
1780564643185916000,2.189916015625,4.93971586227417,0.06499899923801422,-8.4637451171875
1780564643205428200,2.20942822265625,4.823851108551025,0.20477700233459473,-8.528101921081543
1780564643224939500,2.228939453125,4.689389228820801,0.32833901047706604,-8.598942756652832
1780564643244455400,2.248455322265625,4.5550031661987305,0.4313650131225586,-8.666363716125488
1780564643263976000,2.267975830078125,4.432285785675049,0.5162249803543091,-8.725156784057617
1780564643283495400,2.287495361328125,4.3209919929504395,0.5901550054550171,-8.776145935058594
1780564643303013400,2.307013427734375,4.216536045074463,0.6557220220565796,-8.822178840637207
1780564643322534400,2.326534423828125,4.113377094268799,0.7192639708518982,-8.865819931030273
1780564643342058200,2.346058349609375,4.008440971374512,0.7815470099449158,-8.908512115478516
1780564643361583000,2.3655830078125,3.9018819332122803,0.8436949849128723,-8.950055122375488
1780564643381111600,2.385111572265625,3.79591703414917,0.9035450220108032,-8.989694595336914
1780564643400634400,2.40463427734375,3.6908740997314453,0.960174024105072,-9.027486801147461
1780564643420146000,2.42414599609375,3.588165044784546,1.0125659704208374,-9.063098907470703
1780564643439661000,2.4436611328125,3.487689971923828,1.060256004333496,-9.096805572509766
1780564643459178000,2.463177978515625,3.388179063796997,1.103247046470642,-9.129243850708008
1780564643478691600,2.482691650390625,3.288625955581665,1.1433279514312744,-9.160662651062012
1780564643498202600,2.50220263671875,3.1888580322265625,1.183506965637207,-9.19078254699707
1780564643517717200,2.52171728515625,3.1888580322265625,1.183506965637207,-9.19078254699707
1780564643537235500,2.5412353515625,3.1888580322265625,1.183506965637207,-9.19078254699707
1780564643556753700,2.560753662109375,2.990241050720215,1.2772350311279297,-9.244842529296875
1780564643576268800,2.580268798828125,2.889333963394165,1.3341699838638306,-9.268858909606934
1780564643595783200,2.599783203125,2.786391019821167,1.3986350297927856,-9.290846824645996
1780564643615296800,2.619296875,2.6821041107177734,1.4704569578170776,-9.31042766571045
1780564643634808600,2.63880859375,2.57551908493042,1.5472110509872437,-9.3280668258667
1780564643654322700,2.65832275390625,2.4674079418182373,1.6257630586624146,-9.343916893005371
1780564643673839900,2.67783984375,2.3590409755706787,1.7031960487365723,-9.358099937438965
1780564643693358800,2.69735888671875,2.2539620399475098,1.7771350145339966,-9.370243072509766
1780564643712877000,2.716876953125,2.1563780307769775,1.8455369472503662,-9.379979133605957
1780564643732398300,2.7363984375,2.0742619037628174,1.9055579900741577,-9.386495590209961
1780564643751918600,2.755918701171875,2.0159249305725098,1.9550130367279053,-9.389034271240234
1780564643771433200,2.77543310546875,1.9824390411376953,1.9907879829406738,-9.38864803314209
1780564643790940700,2.794940673828125,1.98272705078125,2.011388063430786,-9.384195327758789
1780564643810444300,2.8144443359375,2.0181100368499756,2.016448974609375,-9.375561714172363
1780564643829954300,2.833954345703125,2.0874099731445312,2.005750894546509,-9.362674713134766
1780564643849470000,2.853469970703125,2.181997060775757,1.980023980140686,-9.34657096862793
1780564643868984300,2.872984375,2.2870709896087646,1.942613959312439,-9.32928466796875
1780564643888493600,2.89249365234375,2.4003310203552246,1.8980849981307983,-9.309977531433105
1780564643908006400,2.91200634765625,2.5110061168670654,1.8516349792480469,-9.290118217468262
1780564643927521000,2.93152099609375,2.6143789291381836,1.8069859743118286,-9.270374298095703
1780564643947034600,2.95103466796875,2.7077109813690186,1.7668919563293457,-9.25129222869873
1780564643966547500,2.97054736328125,2.79066801071167,1.731971025466919,-9.233224868774414
1780564643986060800,2.990060791015625,2.8712658882141113,1.7010339498519897,-9.214245796203613
1780564644005578200,3.009578125,2.950640916824341,1.6708389520645142,-9.194673538208008
1780564644025098000,3.029097900390625,3.031636953353882,1.6378259658813477,-9.174241065979004
1780564644044616400,3.048616455078125,3.1173579692840576,1.5988550186157227,-9.152362823486328
1780564644064134400,3.068134521484375,3.2094860076904297,1.551764965057373,-9.128593444824219
1780564644083655200,3.0876552734375,3.307404041290283,1.4955140352249146,-9.102994918823242
1780564644103174400,3.10717431640625,3.407080888748169,1.4292759895324707,-9.076836585998535
1780564644122695000,3.12669482421875,3.504196882247925,1.3532320261001587,-9.051483154296875
1780564644142219000,3.146218994140625,3.595794916152954,1.269260048866272,-9.027692794799805
1780564644161744100,3.165744140625,3.6782870292663574,1.1789449453353882,-9.00667953491211
1780564644181271300,3.185271240234375,3.750117063522339,1.0849440097808838,-8.98885440826416
1780564644200796200,3.204796142578125,3.808603048324585,0.9900389909744263,-8.97520923614502
1780564644220319700,3.22431982421875,3.8542449474334717,0.8983889818191528,-8.965360641479492
1780564644239839700,3.24383984375,3.8883869647979736,0.8147439956665039,-8.958606719970703
1780564644259355600,3.263355712890625,3.9095399379730225,0.7428749799728394,-8.955648422241211
1780564644278871000,3.28287109375,3.9162518978118896,0.6862480044364929,-8.957233428955078
1780564644298386700,3.30238671875,3.9051449298858643,0.6469640135765076,-8.96500301361084
1780564644317902300,3.32190234375,3.9051449298858643,0.6469640135765076,-8.96500301361084
1780564644337412900,3.341412841796875,3.871156930923462,0.6279900074005127,-8.9810791015625
1780564644356921900,3.360921875,3.871156930923462,0.6279900074005127,-8.9810791015625
1780564644376428500,3.380428466796875,3.7312710285186768,0.6508790254592896,-9.038471221923828
1780564644395936800,3.399936767578125,3.628232955932617,0.6878380179405212,-9.07759952545166
1780564644415448300,3.4194482421875,3.628232955932617,0.6878380179405212,-9.07759952545166
1780564644434961000,3.4389609375,3.36893892288208,0.8020219802856445,-9.167715072631836
1780564644454477600,3.4584775390625,3.225040912628174,0.8737159967422485,-9.21280288696289
1780564644473996500,3.47799658203125,3.0837481021881104,0.9512630105018616,-9.253408432006836
1780564644493512400,3.497512451171875,2.9378299713134766,1.0336179733276367,-9.291974067687988
1780564644513023000,3.51702294921875,2.794706106185913,1.118857979774475,-9.326188087463379
1780564644532529200,3.536529052734375,2.6545441150665283,1.2054309844970703,-9.356298446655273
1780564644552035000,3.55603515625,2.5187690258026123,1.293421983718872,-9.382051467895508
1780564644571541800,3.575541748046875,2.387809991836548,1.3834669589996338,-9.403423309326172
1780564644591044900,3.595044921875,2.255199909210205,1.476472020149231,-9.422000885009766
1780564644610550800,3.61455078125,2.126887083053589,1.574154019355774,-9.436016082763672
1780564644630063900,3.63406396484375,1.999356985092163,1.677299976348877,-9.446123123168945
1780564644649575000,3.653574951171875,1.8711220026016235,1.786044955253601,-9.4524564743042
1780564644669083600,3.673083740234375,1.741500973701477,1.8985209465026855,-9.455305099487305
1780564644688592400,3.69259228515625,1.6118049621582031,2.011315107345581,-9.454981803894043
1780564644708106200,3.712106201171875,1.4858249425888062,2.121490001678467,-9.451539039611816
1780564644727620400,3.731620361328125,1.3675650358200073,2.2255120277404785,-9.445466995239258
1780564644747132200,3.751132080078125,1.262434959411621,2.3212509155273438,-9.437056541442871
1780564644766648800,3.77064892578125,1.175258994102478,2.4075510501861572,-9.426688194274902
1780564644786166300,3.790166259765625,1.1089390516281128,2.4839670658111572,-9.41489028930664
1780564644805681400,3.809681396484375,1.0643810033798218,2.549928903579712,-9.40239143371582
1780564644825197600,3.829197509765625,1.0413119792938232,2.6054999828338623,-9.389730453491211
1780564644844718000,3.848718017578125,1.0405329465866089,2.652318000793457,-9.376699447631836
1780564644864242200,3.8682421875,1.0667970180511475,2.69083309173584,-9.362764358520508
1780564644883765800,3.887765869140625,1.1192619800567627,2.7206709384918213,-9.348005294799805
1780564644903288300,3.907288330078125,1.1975109577178955,2.740847110748291,-9.332402229309082
1780564644922807600,3.9268076171875,1.300845980644226,2.7504758834838867,-9.315722465515137
1780564644942320000,3.946320068359375,1.4246139526367188,2.7503340244293213,-9.297640800476074
1780564644961830400,3.965830322265625,1.5639859437942505,2.740725040435791,-9.278058052062988
1780564644981342000,3.985342041015625,1.7082500457763672,2.7231929302215576,-9.257759094238281
1780564645000852200,4.004852294921875,1.8515520095825195,2.699657917022705,-9.237076759338379
1780564645020362800,4.02436279296875,1.9911860227584839,2.673051118850708,-9.21574592590332
1780564645039871700,4.043871826171875,2.1250500679016113,2.644735097885132,-9.193995475769043
1780564645059378700,4.063378662109375,2.2577710151672363,2.614121913909912,-9.171087265014648
1780564645078889700,4.0828896484375,2.3982019424438477,2.5766100883483887,-9.146020889282227
1780564645098405400,4.1024052734375,2.5480480194091797,2.526616096496582,-9.11941146850586
1780564645117921500,4.121921630859375,2.5480480194091797,2.526616096496582,-9.11941146850586
1780564645137434000,4.14143408203125,2.70733904838562,2.459326982498169,-9.091865539550781
1780564645156944000,4.16094384765625,2.70733904838562,2.459326982498169,-9.091865539550781
1780564645176457000,4.18045703125,3.0100109577178955,2.27026104927063,-9.045758247375488
1780564645195971800,4.199971923828125,3.1414968967437744,2.153165102005005,-9.02966594696045
1780564645215486700,4.21948681640625,3.2457120418548584,2.02852201461792,-9.021665573120117
1780564645235000800,4.239000732421875,3.321510076522827,1.9032870531082153,-9.021367073059082
1780564645254513400,4.258513427734375,3.3703949451446533,1.783614993095398,-9.027687072753906
1780564645274027500,4.278027587890625,3.402611017227173,1.6726830005645752,-9.036833763122559
1780564645293542100,4.297542236328125,3.4184110164642334,1.5740200281143188,-9.04858684539795
1780564645313056800,4.317056884765625,3.4185829162597656,1.489922046661377,-9.062748908996582
1780564645332571400,4.3365712890625,3.404325008392334,1.4215569496154785,-9.079081535339355
1780564645352089000,4.356089111328125,3.3759500980377197,1.3685270547866821,-9.097805976867676
1780564645371602000,4.375601806640625,3.3340840339660645,1.3296730518341064,-9.118982315063477
1780564645391111400,4.395111328125,3.2808520793914795,1.3031929731369019,-9.142084121704102
1780564645410623000,4.414623046875,3.220694065093994,1.286784052848816,-9.16576862335205
1780564645430140000,4.434139892578125,3.1582529544830322,1.2778819799423218,-9.188713073730469
1780564645449657300,4.4536572265625,3.0953519344329834,1.2736740112304688,-9.210676193237305
1780564645469174000,4.473174072265625,3.0294570922851562,1.2727810144424438,-9.232682228088379
1780564645488683500,4.49268359375,2.960484027862549,1.275354027748108,-9.254674911499023
1780564645508185900,4.512185791015625,2.8852078914642334,1.2830979824066162,-9.277350425720215
1780564645527690000,4.53168994140625,2.798321008682251,1.2979539632797241,-9.301865577697754
1780564645547195600,4.551195556640625,2.6954190731048584,1.321593999862671,-9.328885078430176
1780564645566704600,4.57070458984375,2.5776569843292236,1.3558800220489502,-9.35720443725586
1780564645586219800,4.5902197265625,2.4516730308532715,1.4005049467086792,-9.384449005126953
1780564645605738000,4.609738037109375,2.3217620849609375,1.4539779424667358,-9.409322738647461
1780564645625254000,4.62925390625,2.192850112915039,1.5131700038909912,-9.430892944335938
1780564645644770300,4.648770263671875,2.070457935333252,1.5760910511016846,-9.448234558105469
1780564645664284400,4.668284423828125,1.95661199092865,1.6406279802322388,-9.461501121520996
1780564645683790600,4.68779052734375,1.8499259948730469,1.7057520151138306,-9.471440315246582
1780564645703297500,4.707297607421875,1.7478209733963013,1.7727769613265991,-9.478521347045898
1780564645722807600,4.7268076171875,1.6466870307922363,1.8426870107650757,-9.483297348022461
1780564645742314200,4.746314208984375,1.553915023803711,1.9149409532546997,-9.484637260437012
1780564645761817300,4.7658173828125,1.4672420024871826,1.9880330562591553,-9.483403205871582
1780564645781321000,4.785321044921875,1.3890279531478882,2.0608620643615723,-9.479633331298828
1780564645800832800,4.804832763671875,1.322659969329834,2.1295011043548584,-9.473953247070312
1780564645820345900,4.824345947265625,1.2726969718933105,2.1890029907226562,-9.467232704162598
1780564645839858200,4.843858154296875,1.2438009977340698,2.2353339195251465,-9.460244178771973
1780564645859371500,4.86337158203125,1.235105037689209,2.267577886581421,-9.45370864868164
1780564645878881500,4.882881591796875,1.2491259574890137,2.2859559059143066,-9.44743824005127
1780564645898393900,4.902393798828125,1.2858400344848633,2.2908871173858643,-9.441315650939941
1780564645917906400,4.921906494140625,1.2858400344848633,2.2908871173858643,-9.441315650939941
1780564645937413400,4.941413330078125,1.3468860387802124,2.2840769290924072,-9.434452056884766
1780564645956925200,4.96092529296875,1.3468860387802124,2.2840769290924072,-9.434452056884766
1780564645976438500,4.9804384765625,1.543172001838684,2.2459781169891357,-9.413512229919434
1780564645995950800,4.999950927734375,1.6671040058135986,2.218502998352051,-9.398884773254395
1780564646015460900,5.0194609375,1.80532705783844,2.186081886291504,-9.380929946899414
1780564646034965200,5.03896533203125,1.9558420181274414,2.1492369174957275,-9.359245300292969
1780564646054471200,5.05847119140625,2.112730026245117,2.1090919971466064,-9.334242820739746
1780564646073979400,5.0779794921875,2.2684569358825684,2.065474033355713,-9.307411193847656
1780564646093486300,5.097486328125,2.422895908355713,2.018497943878174,-9.278751373291016
1780564646112993500,5.11699365234375,2.568948984146118,1.9669189453125,-9.25049877166748
1780564646132503000,5.1365029296875,2.708087921142578,1.909114956855774,-9.222880363464355
1780564646152014800,5.156014892578125,2.8415489196777344,1.8437190055847168,-9.195993423461914
1780564646171529200,5.175529296875,2.9681129455566406,1.7698750495910645,-9.170488357543945
1780564646191047200,5.195047119140625,3.0861570835113525,1.6886730194091797,-9.146803855895996
1780564646210564900,5.21456494140625,3.190990924835205,1.601686954498291,-9.12645435333252
1780564646230082800,5.234082763671875,3.283613920211792,1.5119819641113281,-9.108885765075684
1780564646249598000,5.253597900390625,3.359100103378296,1.4230200052261353,-9.095683097839355
1780564646269111000,5.273111083984375,3.415321111679077,1.3379169702529907,-9.08765983581543
1780564646288627700,5.292627685546875,3.454798936843872,1.2592929601669312,-9.08397102355957
1780564646308146200,5.312146240234375,3.47867488861084,1.1876490116119385,-9.08450984954834
1780564646327666200,5.331666259765625,3.490839958190918,1.1239089965820312,-9.087950706481934
1780564646347188200,5.351188232421875,3.493889093399048,1.0689690113067627,-9.093406677246094
1780564646366705400,5.370705322265625,3.4887030124664307,1.0239779949188232,-9.10057258605957
1780564646386222600,5.39022265625,3.475243091583252,0.9898999929428101,-9.109487533569336
1780564646405744600,5.40974462890625,3.4560000896453857,0.9676539897918701,-9.119194030761719
1780564646425268200,5.429268310546875,3.433617115020752,0.9571530222892761,-9.128751754760742
1780564646444791600,5.44879150390625,3.4096689224243164,0.957053005695343,-9.137735366821289
1780564646464314400,5.468314453125,3.3799209594726562,0.9661890268325806,-9.147820472717285
1780564646483836200,5.487836181640625,3.343106985092163,0.9840520024299622,-9.159435272216797
1780564646503356700,5.507356689453125,3.2962870597839355,1.011078953742981,-9.17345142364502
1780564646522876400,5.52687646484375,3.227811098098755,1.0484730005264282,-9.193581581115723
1780564646542395000,5.546394775390625,3.133042097091675,1.0975099802017212,-9.220602035522461
1780564646561915600,5.56591552734375,3.0113420486450195,1.1575089693069458,-9.253754615783691
1780564646581433300,5.585433349609375,2.8721940517425537,1.2274830341339111,-9.28890609741211
1780564646600948200,5.6049482421875,2.7230029106140137,1.3061000108718872,-9.323055267333984
1780564646620465200,5.624465087890625,2.567765951156616,1.3910330533981323,-9.35476303100586
1780564646639985700,5.643985595703125,2.4171979427337646,1.4790409803390503,-9.381342887878418
1780564646659505700,5.663505615234375,2.275322914123535,1.567836046218872,-9.402382850646973
1780564646679024000,5.683024169921875,2.1363940238952637,1.6581579446792603,-9.419465065002441
1780564646698542300,5.702542236328125,2.001811981201172,1.7498819828033447,-9.432424545288086
1780564646718062800,5.722062744140625,1.866366982460022,1.843080997467041,-9.442442893981934
1780564646737586400,5.74158642578125,1.866366982460022,1.843080997467041,-9.442442893981934
1780564646757111600,5.761111572265625,1.866366982460022,1.843080997467041,-9.442442893981934
1780564646776631300,5.78063134765625,1.63407301902771,2.0153539180755615,-9.450300216674805
1780564646796147200,5.800147216796875,1.544927954673767,2.091644048690796,-9.448714256286621
1780564646815666200,5.819666259765625,1.4921690225601196,2.157257080078125,-9.442439079284668
1780564646835185400,5.839185302734375,1.4723279476165771,2.208812952041626,-9.43363094329834
1780564646854701800,5.858701904296875,1.4873679876327515,2.2426559925079346,-9.423280715942383
1780564646874215700,5.878215576171875,1.5242960453033447,2.2621490955352783,-9.412714958190918
1780564646893731800,5.89773193359375,1.582327961921692,2.2673330307006836,-9.401885032653809
1780564646913250000,5.91725,1.6580140590667725,2.2608370780944824,-9.390399932861328
1780564646932764400,5.936764404296875,1.7416260242462158,2.2464449405670166,-9.378710746765137
1780564646952275700,5.956275634765625,1.831089973449707,2.2288970947265625,-9.365848541259766
1780564646971793000,5.97579296875,1.9241670370101929,2.2118780612945557,-9.351213455200195
1780564646991315500,5.9953154296875,2.019479990005493,2.1975510120391846,-9.334477424621582
1780564647010834400,6.01483447265625,2.11543607711792,2.1849019527435303,-9.31617546081543
1780564647030355000,6.03435498046875,2.212415933609009,2.1723999977111816,-9.296552658081055
1780564647049878800,6.053878662109375,2.3113820552825928,2.1560490131378174,-9.27625846862793
1780564647069400800,6.07340087890625,2.4151289463043213,2.1317200660705566,-9.255426406860352
1780564647088921900,6.092921875,2.5286459922790527,2.095350980758667,-9.23338794708252
1780564647108443600,6.112443603515625,2.6575090885162354,2.044200897216797,-9.208630561828613
1780564647127965000,6.13196484375,2.8083040714263916,1.9769200086593628,-9.178519248962402
1780564647147488300,6.15148828125,2.975296974182129,1.8924479484558105,-9.143644332885742
1780564647167010300,6.17101025390625,3.147413969039917,1.7947410345077515,-9.10564136505127
1780564647186531300,6.19053125,3.310606002807617,1.6887420415878296,-9.067967414855957
1780564647206055200,6.21005517578125,3.4464809894561768,1.5808429718017578,-9.036742210388184
1780564647225581600,6.22958154296875,3.549967050552368,1.4772889614105225,-9.014175415039062
1780564647245106400,6.2491064453125,3.613481044769287,1.3819609880447388,-9.004050254821777
1780564647264629800,6.268629638671875,3.6413960456848145,1.297598958015442,-9.00535774230957
1780564647284153000,6.288153076171875,3.6453590393066406,1.222121000289917,-9.014309883117676
1780564647303673000,6.307673095703125,3.6371469497680664,1.15378999710083,-9.026619911193848
1780564647323192800,6.32719287109375,3.6310911178588867,1.0899399518966675,-9.03699016571045
1780564647342716400,6.34671630859375,3.618638038635254,1.0333850383758545,-9.048623085021973
1780564647362236400,6.366236328125,3.6039950847625732,0.9817379713058472,-9.060210227966309
1780564647381753900,6.38575390625,3.585853099822998,0.9354810118675232,-9.072294235229492
1780564647401272600,6.4052724609375,3.551995038986206,0.8966829776763916,-9.089515686035156
1780564647420792800,6.424792724609375,3.5016980171203613,0.8683609962463379,-9.111754417419434
1780564647440311000,6.44431103515625,3.4329450130462646,0.8531879782676697,-9.139307975769043
1780564647459831600,6.46383154296875,3.4329450130462646,0.8531879782676697,-9.139307975769043
1780564647479353600,6.483353515625,3.2601449489593506,0.8619210124015808,-9.201549530029297
1780564647498875400,6.50287548828125,3.1529839038848877,0.8861989974975586,-9.23652172088623
1780564647518399700,6.522399658203125,3.0380818843841553,0.9233530163764954,-9.27132511138916
1780564647537921000,6.541921142578125,3.0380818843841553,0.9233530163764954,-9.27132511138916
1780564647557442800,6.56144287109375,2.914130926132202,0.9722390174865723,-9.306051254272461
1780564647576963800,6.5809638671875,2.914130926132202,0.9722390174865723,-9.306051254272461
1780564647596483600,6.600483642578125,2.654707908630371,1.0905139446258545,-9.370342254638672
1780564647616006100,6.620006103515625,2.525301933288574,1.1548069715499878,-9.398365020751953
1780564647635528400,6.639528564453125,2.4001410007476807,1.2223529815673828,-9.422588348388672
1780564647655048200,6.659048095703125,2.281589984893799,1.2948509454727173,-9.442336082458496
1780564647674568200,6.678568115234375,2.167815923690796,1.3726509809494019,-9.458138465881348
1780564647694090000,6.698090087890625,2.054210901260376,1.457311987876892,-9.470821380615234
1780564647713613600,6.717613525390625,1.9372999668121338,1.5495400428771973,-9.480812072753906
1780564647733134600,6.737134521484375,1.8156449794769287,1.648071050643921,-9.48827075958252
1780564647752656400,6.756656494140625,1.6914869546890259,1.7502319812774658,-9.492920875549316
1780564647772175000,6.776175048828125,1.5736329555511475,1.8509260416030884,-9.49409008026123
1780564647791692300,6.7956923828125,1.4683729410171509,1.945857048034668,-9.491971015930176
1780564647811211000,6.8152109375,1.3863710165023804,2.0308189392089844,-9.486503601074219
1780564647830727200,6.83472705078125,1.3309979438781738,2.1013801097869873,-9.479063987731934
1780564647850243300,6.854243408203125,1.3050249814987183,2.1557040214538574,-9.47047233581543
1780564647869761000,6.873760986328125,1.3076980113983154,2.1913130283355713,-9.46192741394043
1780564647889282300,6.8932822265625,1.331853985786438,2.2078800201416016,-9.454704284667969
1780564647908802000,6.912802001953125,1.3743469715118408,2.2068378925323486,-9.448864936828613
1780564647928319500,6.932319580078125,1.4319339990615845,2.1929221153259277,-9.443551063537598
1780564647947837200,6.951837158203125,1.5006229877471924,2.172785997390747,-9.437539100646973
1780564647967349800,6.971349853515625,1.5748720169067383,2.1509459018707275,-9.430439949035645
1780564647986865000,6.990864990234375,1.6507500410079956,2.1323060989379883,-9.42169189453125
1780564648006382000,7.010382080078125,1.7264670133590698,2.120743989944458,-9.410725593566895
1780564648025900800,7.02990087890625,1.8015999794006348,2.1164779663085938,-9.397592544555664
1780564648045422300,7.04942236328125,1.8739850521087646,2.1182661056518555,-9.383023262023926
1780564648064941600,7.068941650390625,1.95101797580719,2.120620012283325,-9.366776466369629
1780564648084460500,7.08846044921875,2.0344789028167725,2.1220688819885254,-9.348674774169922
1780564648103982600,7.107982666015625,2.1287779808044434,2.120595932006836,-9.327988624572754
1780564648123501600,7.12750146484375,2.234002113342285,2.1116271018981934,-9.305388450622559
1780564648143019800,7.147019775390625,2.350224018096924,2.0920040607452393,-9.281161308288574
1780564648162538000,7.1665380859375,2.473489999771118,2.0604350566864014,-9.256157875061035
1780564648182056200,7.18605615234375,2.5981171131134033,2.01991605758667,-9.230911254882812
1780564648201575200,7.2055751953125,2.722568988800049,1.969256043434143,-9.20595645904541
1780564648221092900,7.2250927734375,2.84096097946167,1.9086509943008423,-9.182918548583984
1780564648240610300,7.2446103515625,2.949044942855835,1.8391070365905762,-9.163013458251953
1780564648260128300,7.264128173828125,3.0457489490509033,1.7641689777374268,-9.146098136901855
1780564648279648800,7.283648681640625,3.131589889526367,1.6857049465179443,-9.13189697265625
1780564648299173600,7.303173583984375,3.131589889526367,1.6857049465179443,-9.13189697265625
1780564648318697200,7.322697265625,3.2679359912872314,1.5250910520553589,-9.112336158752441
1780564648338216200,7.34221630859375,3.319478988647461,1.4476850032806396,-9.106330871582031
1780564648357735400,7.3617353515625,3.319478988647461,1.4476850032806396,-9.106330871582031
1780564648377252600,7.381252685546875,3.319478988647461,1.4476850032806396,-9.106330871582031
1780564648396769500,7.40076953125,3.374459981918335,1.3164550065994263,-9.106040000915527
1780564648416288500,7.42028857421875,3.374501943588257,1.2666200399398804,-9.113089561462402
1780564648435806000,7.439805908203125,3.354311943054199,1.2306549549102783,-9.125462532043457
1780564648455326000,7.459325927734375,3.313883066177368,1.2093440294265747,-9.14306640625
1780564648474847000,7.478846923828125,3.2579269409179688,1.2033300399780273,-9.163946151733398
1780564648494369800,7.498369873046875,3.196716070175171,1.2102349996566772,-9.1845703125
1780564648513894700,7.517894775390625,3.1319189071655273,1.228714942932129,-9.20442008972168
1780564648533415000,7.537414794921875,3.06125807762146,1.255486011505127,-9.224555969238281
1780564648552937700,7.556937744140625,2.9862220287323,1.2874759435653687,-9.244722366333008
1780564648572462600,7.576462646484375,2.9059669971466064,1.3227570056915283,-9.26529312133789
1780564648591985400,7.5959853515625,2.8166229724884033,1.3598560094833374,-9.28748607635498
1780564648611508200,7.61550830078125,2.715385913848877,1.3981389999389648,-9.311922073364258
1780564648631031000,7.635031005859375,2.602670907974243,1.4380830526351929,-9.337987899780273
1780564648650552300,7.65455224609375,2.484158992767334,1.4797019958496094,-9.363728523254395
1780564648670072600,7.674072509765625,2.361349105834961,1.5225770473480225,-9.388596534729004
1780564648689592600,7.693592529296875,2.237502098083496,1.565750002861023,-9.411802291870117
1780564648709116200,7.7131162109375,2.1155989170074463,1.6067650318145752,-9.433055877685547
1780564648728639500,7.732639404296875,2.000319004058838,1.644685983657837,-9.451651573181152
1780564648748159200,7.7521591796875,1.8936270475387573,1.6780040264129639,-9.467759132385254
1780564648767682800,7.771682861328125,1.7974870204925537,1.7065249681472778,-9.481392860412598
1780564648787208400,7.79120849609375,1.7122559547424316,1.7307380437850952,-9.492773056030273
1780564648806728000,7.81072802734375,1.6367019414901733,1.7515100240707397,-9.50228500366211
1780564648826248000,7.830248046875,1.5696020126342773,1.7712520360946655,-9.509943008422852
1780564648845772500,7.8497724609375,1.5081629753112793,1.7911629676818848,-9.516153335571289
1780564648865300000,7.869300048828125,1.449741005897522,1.8109309673309326,-9.521489143371582
1780564648884826600,7.88882666015625,1.4002759456634521,1.8297209739685059,-9.525300025939941
1780564648904354300,7.908354248046875,1.361525058746338,1.8458590507507324,-9.527804374694824
1780564648923880000,7.9278798828125,1.3419150114059448,1.8572380542755127,-9.528375625610352
1780564648943406600,7.947406494140625,1.343587040901184,1.8610379695892334,-9.527397155761719
1780564648962935300,7.966935302734375,1.3745629787445068,1.8525660037994385,-9.524630546569824
1780564648982463500,7.98646337890625,1.435520052909851,1.830996036529541,-9.519807815551758
1780564649001994000,8.005993896484375,1.523695945739746,1.79511296749115,-9.512934684753418
1780564649021518800,8.025518798828125,1.6408940553665161,1.7443890571594238,-9.502872467041016
1780564649041039600,8.04503955078125,1.781290054321289,1.6790380477905273,-9.489354133605957
1780564649060564700,8.064564697265626,1.9426679611206055,1.6004060506820679,-9.471259117126465
1780564649080091000,8.0840908203125,2.1146581172943115,1.5123800039291382,-9.448858261108398
1780564649099615500,8.103615478515625,2.2941229343414307,1.4178409576416016,-9.421608924865723
1780564649119140600,8.123140625,2.473555088043213,1.3198820352554321,-9.390390396118164
1780564649138661400,8.142661376953125,2.6476969718933105,1.2211610078811646,-9.356199264526367
1780564649158181400,8.162181396484375,2.814452886581421,1.1233240365982056,-9.319710731506348
1780564649177708300,8.181708251953125,2.814452886581421,1.1233240365982056,-9.319710731506348
1780564649197235200,8.201235107421875,2.814452886581421,1.1233240365982056,-9.319710731506348
1780564649216761900,8.220761962890625,3.121082067489624,0.9336270093917847,-9.242683410644531
1780564649236289000,8.2402890625,3.261341094970703,0.8391450047492981,-9.203231811523438
1780564649255819000,8.259819091796874,3.3878719806671143,0.7447190284729004,-9.165573120117188
1780564649275349200,8.279349365234374,3.4994800090789795,0.6511390209197998,-9.130698204040527
1780564649294872300,8.298872314453124,3.5932741165161133,0.5599370002746582,-9.100266456604004
1780564649314395000,8.318394775390624,3.6688170433044434,0.47238901257514954,-9.075056076049805
1780564649333919200,8.337919189453125,3.7223730087280273,0.39123499393463135,-9.057088851928711
1780564649353449000,8.357448974609374,3.755808115005493,0.31862300634384155,-9.046125411987305
1780564649372977000,8.376976806640625,3.7733700275421143,0.25621500611305237,-9.040797233581543
1780564649392504000,8.396504150390625,3.774275064468384,0.20502200722694397,-9.041726112365723
1780564649412034600,8.41603466796875,3.761167049407959,0.16604100167751312,-9.047986030578613
1780564649431564000,8.43556396484375,3.735250949859619,0.13982200622558594,-9.059158325195312
1780564649451097000,8.45509716796875,3.6971590518951416,0.12634800374507904,-9.074968338012695
1780564649470632200,8.474632080078125,3.651392936706543,0.12525500357151031,-9.093493461608887
1780564649490163000,8.494162841796875,3.594942092895508,0.1359580010175705,-9.115804672241211
1780564649509693700,8.513693603515625,3.5252320766448975,0.15923400223255157,-9.14261245727539
1780564649529224400,8.533224365234375,3.435128927230835,0.19611500203609467,-9.17613410949707
1780564649548752100,8.552752197265624,3.324320077896118,0.24851800501346588,-9.215591430664062
1780564649568279300,8.572279296875,3.1933839321136475,0.31849798560142517,-9.259634971618652
1780564649587807200,8.59180712890625,3.046154022216797,0.4066370129585266,-9.30567455291748
1780564649607333400,8.61133349609375,2.893784999847412,0.5124499797821045,-9.348978996276855
1780564649626862800,8.63086279296875,2.7427220344543457,0.6328380107879639,-9.387064933776855
1780564649646390800,8.650390869140624,2.601741075515747,0.7640299797058105,-9.417388916015625
1780564649665919700,8.669919677734375,2.4726738929748535,0.9014570116996765,-9.439981460571289
1780564649685451000,8.689450927734375,2.355907917022705,1.0414409637451172,-9.455426216125488
1780564649704983800,8.70898388671875,2.236625909805298,1.1813069581985474,-9.46794605255127
1780564649724510000,8.728510009765625,2.1086440086364746,1.3195949792861938,-9.479043960571289
1780564649744031500,8.748031494140625,1.9719070196151733,1.4546350240707397,-9.488710403442383
1780564649763556600,8.767556640625,1.8273580074310303,1.584954023361206,-9.496771812438965
1780564649783081200,8.787081298828125,1.6827889680862427,1.7082480192184448,-9.502111434936523
1780564649802609000,8.80660888671875,1.5411189794540405,1.823881983757019,-9.50465202331543
1780564649822138600,8.826138671875,1.4137259721755981,1.932858943939209,-9.50291633605957
1780564649841665800,8.845665771484375,1.3047490119934082,2.0355379581451416,-9.497063636779785
1780564649861191000,8.86519091796875,1.2135239839553833,2.1329619884490967,-9.487771987915039
1780564649880712700,8.884712646484376,1.140388011932373,2.223459005355835,-9.476061820983887
1780564649900235800,8.90423583984375,1.0882010459899902,2.3048179149627686,-9.462748527526855
1780564649919765200,8.92376513671875,1.0705349445343018,2.3707849979400635,-9.448456764221191
1780564649939293700,8.943293701171875,1.0705349445343018,2.3707849979400635,-9.448456764221191
1780564649958820000,8.962820068359376,1.1822290420532227,2.4391469955444336,-9.417691230773926
1780564649978345200,8.98234521484375,1.305156946182251,2.4427549839019775,-9.400506973266602
1780564649997868500,9.00186865234375,1.4682949781417847,2.4307150840759277,-9.379538536071777
1780564650017394400,9.02139453125,1.4682949781417847,2.4307150840759277,-9.379538536071777
1780564650036920000,9.040920166015624,1.4682949781417847,2.4307150840759277,-9.379538536071777
1780564650056439000,9.06043896484375,1.8186349868774414,2.402777910232544,-9.32519245147705
1780564650075954700,9.07995458984375,1.9723310470581055,2.398509979248047,-9.295001983642578
1780564650095475700,9.099475830078125,2.1078460216522217,2.4036309719085693,-9.263883590698242
1780564650114997200,9.118997314453125,2.232412099838257,2.4161250591278076,-9.231395721435547
1780564650134515000,9.138514892578126,2.346580982208252,2.4330859184265137,-9.198568344116211
1780564650154038800,9.158038818359374,2.4673800468444824,2.4437320232391357,-9.164072036743164
1780564650173564200,9.177564208984375,2.594444990158081,2.4443860054016113,-9.128735542297363
1780564650193083400,9.19708349609375,2.7269649505615234,2.4321579933166504,-9.09330940246582
1780564650212597500,9.216597412109374,2.854957103729248,2.404855966567993,-9.061229705810547
1780564650232112000,9.236112060546875,2.968132972717285,2.362499952316284,-9.035971641540527
1780564650251630000,9.255630126953125,3.063659906387329,2.3076670169830322,-9.018239974975586
1780564650271150800,9.27515087890625,3.139045000076294,2.2437689304351807,-9.00843334197998
1780564650310185200,9.314185302734375,3.2403910160064697,2.095560073852539,-9.008245468139648
1780564650329700400,9.333700439453125,3.286400079727173,2.013484001159668,-9.010297775268555
1780564650349218800,9.35321875,3.331078052520752,1.9292620420455933,-9.012317657470703
1780564650368738600,9.372738525390625,3.372714042663574,1.84573495388031,-9.014325141906738
1780564650388260600,9.392260498046875,3.4073920249938965,1.7655709981918335,-9.017339706420898
1780564650407782000,9.411781982421875,3.4319889545440674,1.6918359994888306,-9.022147178649902
1780564650427301400,9.43130126953125,3.438760995864868,1.6260859966278076,-9.03165340423584
1780564650446826800,9.45082666015625,3.431555986404419,1.5687830448150635,-9.044519424438477
1780564650466355000,9.47035498046875,3.4125308990478516,1.5194660425186157,-9.060124397277832
1780564650485882000,9.489882080078125,3.3845090866088867,1.4783459901809692,-9.077423095703125
1780564650505413600,9.50941357421875,3.3474669456481934,1.4469850063323975,-9.09619140625
1780564650524942300,9.5289423828125,3.2971410751342773,1.427770972251892,-9.117583274841309
1780564650544468500,9.548468505859375,3.2219760417938232,1.4235060214996338,-9.14508056640625
1780564650563992600,9.56799267578125,3.120779037475586,1.4342319965362549,-9.178436279296875
1780564650583513600,9.587513671875,2.9905059337615967,1.4598699808120728,-9.217680931091309
1780564650603032800,9.60703271484375,2.8293039798736572,1.4986499547958374,-9.262240409851074
1780564650622551000,9.626551025390626,2.657371997833252,1.541025996208191,-9.306106567382812
1780564650642070500,9.646070556640625,2.4859399795532227,1.5832699537277222,-9.346302032470703
1780564650661591800,9.665591796875,2.339751958847046,1.619204044342041,-9.377832412719727
1780564650681115600,9.68511572265625,2.2214479446411133,1.6468340158462524,-9.40176010131836
1780564650700638200,9.70463818359375,2.1347250938415527,1.6651890277862549,-9.418603897094727
1780564650720160300,9.72416015625,2.0752620697021484,1.675475001335144,-9.430061340332031
1780564650739681500,9.743681640625,2.0752620697021484,1.675475001335144,-9.430061340332031
1780564650759201500,9.763201416015624,1.9831910133361816,1.696424961090088,-9.446114540100098
1780564650778723300,9.782723388671876,1.9831910133361816,1.696424961090088,-9.446114540100098
1780564650798244400,9.802244384765626,1.9377729892730713,1.7085130214691162,-9.453360557556152
1780564650817766100,9.82176611328125,1.8884179592132568,1.7227740287780762,-9.4607572555542
1780564650837292800,9.841292724609374,1.8884179592132568,1.7227740287780762,-9.4607572555542
1780564650856820200,9.8608203125,1.806306004524231,1.7491790056228638,-9.471938133239746
1780564650876342000,9.880342041015625,1.7879250049591064,1.7586710453033447,-9.473668098449707
1780564650895864000,9.899864013671875,1.789726972579956,1.760077953338623,-9.473067283630371
1780564650915392000,9.91939208984375,1.8199310302734375,1.7520259618759155,-9.468804359436035
1780564650934919000,9.9389189453125,1.8804630041122437,1.7320560216903687,-9.460646629333496
1780564650954439400,9.958439453125,1.9649380445480347,1.700732946395874,-9.449155807495117
1780564650973951500,9.977951416015625,2.0748300552368164,1.6542739868164062,-9.43389892578125
1780564650993458700,9.997458740234375,2.2001969814300537,1.5922460556030273,-9.416150093078613
1780564651012971800,10.0169716796875,2.3384830951690674,1.516389012336731,-9.395320892333984
1780564651032499000,10.0364990234375,2.4814140796661377,1.4288289546966553,-9.372355461120605
1780564651052029400,10.056029541015626,2.6273019313812256,1.3310199975967407,-9.346960067749023
1780564651071556400,10.075556396484375,2.7742719650268555,1.2234669923782349,-9.319149017333984
1780564651091079700,10.09507958984375,2.9238829612731934,1.106626033782959,-9.2879638671875
1780564651110603500,10.114603515625,3.0775949954986572,0.9801430106163025,-9.252445220947266
1780564651130127600,10.134127685546876,3.2373719215393066,0.8436800241470337,-9.21127700805664
1780564651149650700,10.153650634765626,3.403625965118408,0.696973979473114,-9.163490295410156
1780564651169175300,10.17317529296875,3.5742180347442627,0.5407119989395142,-9.108928680419922
1780564651188699600,10.19269970703125,3.7399539947509766,0.3770639896392822,-9.050447463989258
1780564651208224500,10.212224609375,3.8904809951782227,0.20934200286865234,-8.992237091064453
1780564651227753700,10.231753662109375,4.0208868980407715,0.041439998894929886,-8.937043190002441
1780564651247279900,10.25127978515625,4.1220479011535645,-0.12297999858856201,-8.890084266662598
1780564651266804200,10.27080419921875,4.191032886505127,-0.2810730040073395,-8.854166030883789
1780564651286327800,10.290327880859374,4.229684829711914,-0.4310159981250763,-8.82972240447998
1780564651305848800,10.309848876953126,4.243587970733643,-0.5713790059089661,-8.815071105957031
1780564651325371400,10.329371337890626,4.245514869689941,-0.7011939883232117,-8.804767608642578
1780564651344893700,10.348893798828126,4.2378458976745605,-0.8184840083122253,-8.79833698272705
1780564651364418800,10.368418701171874,4.2295122146606445,-0.9239060282707214,-8.79190731048584
1780564651383948300,10.3879482421875,4.222719192504883,-1.0142489671707153,-8.785210609436035
1780564651403476200,10.407476318359375,4.216031074523926,-1.0874459743499756,-8.779666900634766
1780564651423004700,10.427004638671875,4.203816890716553,-1.141113042831421,-8.778712272644043
1780564651442531600,10.446531494140626,4.179566860198975,-1.1758559942245483,-8.785703659057617
1780564651462056200,10.46605615234375,4.134695053100586,-1.1916940212249756,-8.804780006408691
1780564651481581800,10.485581787109375,4.070368766784668,-1.1865750551223755,-8.8353910446167
1780564651501106700,10.505106689453125,3.9817841053009033,-1.1621700525283813,-8.878893852233887
1780564651520633600,10.524633544921874,3.8707759380340576,-1.1187909841537476,-8.933385848999023
1780564651540162800,10.544162841796876,3.7431440353393555,-1.0572450160980225,-8.9950590133667
1780564651559687000,10.56368701171875,3.598160982131958,-0.9759780168533325,-9.063151359558105
1780564651579209500,10.58320947265625,3.4449949264526367,-0.8761749863624573,-9.132596969604492
1780564651598733000,10.602733154296875,3.282294988632202,-0.7585909962654114,-9.202775001525879
1780564651618251800,10.622251708984376,3.282294988632202,-0.7585909962654114,-9.202775001525879
1780564651637772300,10.641772216796875,3.118809938430786,-0.625469982624054,-9.269401550292969
1780564651657297200,10.661297119140626,3.118809938430786,-0.625469982624054,-9.269401550292969
1780564651676822000,10.680822021484374,2.8193259239196777,-0.3249509930610657,-9.380075454711914
1780564651696345900,10.700345947265625,2.687851905822754,-0.16230399906635284,-9.422796249389648
1780564651715871200,10.719871337890625,2.567979097366333,0.00595200015231967,-9.457560539245605
1780564651735395000,10.73939501953125,2.4579169750213623,0.17845000326633453,-9.48508358001709
1780564651754916600,10.75891650390625,2.3515310287475586,0.3549250066280365,-9.507067680358887
1780564651774436000,10.77843603515625,2.2370290756225586,0.5359359979629517,-9.526198387145996
1780564651793952800,10.797952880859375,2.122037887573242,0.7190150022506714,-9.54043960571289
1780564651813472800,10.81747265625,2.0120739936828613,0.9007989764213562,-9.548828125
1780564651832996600,10.83699658203125,1.9113049507141113,1.0775020122528076,-9.551224708557129
1780564651852516000,10.85651611328125,1.829835057258606,1.243818998336792,-9.546969413757324
1780564651872036900,10.876036865234376,1.7738560438156128,1.395166039466858,-9.536611557006836
1780564651891560000,10.895559814453126,1.7476190328598022,1.5267399549484253,-9.521286010742188
1780564651911081700,10.915081787109376,1.7526700496673584,1.6348680257797241,-9.502386093139648
1780564651930600700,10.9346005859375,1.7830439805984497,1.7176140546798706,-9.482117652893066
1780564651950116400,10.954116455078125,1.8422809839248657,1.77394700050354,-9.460396766662598
1780564651969631700,10.9736318359375,1.9206290245056152,1.804811954498291,-9.438953399658203
1780564651989152500,10.993152587890625,2.0150959491729736,1.8130170106887817,-9.417661666870117
1780564652008672800,11.0126728515625,2.1227619647979736,1.8026599884033203,-9.39597225189209
1780564652028192000,11.03219189453125,2.2350358963012695,1.7775709629058838,-9.3746919631958
1780564652047713800,11.0517138671875,2.351762056350708,1.7412519454956055,-9.352928161621094
1780564652067238100,11.071238037109374,2.4701309204101562,1.6982640027999878,-9.330291748046875
1780564652086761200,11.09076123046875,2.590970993041992,1.6505370140075684,-9.306052207946777
1780564652106280200,11.1102802734375,2.7152609825134277,1.599498987197876,-9.279492378234863
1780564652125797400,11.12979736328125,2.8429200649261475,1.545443058013916,-9.250373840332031
1780564652145318100,11.149318115234376,2.9740331172943115,1.4883359670639038,-9.218459129333496
1780564652164835000,11.1688349609375,3.108459949493408,1.427662968635559,-9.183639526367188
1780564652184352000,11.18835205078125,3.2436089515686035,1.3622369766235352,-9.14676570892334
1780564652203874800,11.207874755859375,3.375369071960449,1.2926969528198242,-9.109106063842773
1780564652223397600,11.227397705078126,3.49993896484375,1.219668984413147,-9.072091102600098
1780564652242919000,11.2469189453125,3.6075050830841064,1.1462479829788208,-9.039470672607422
1780564652262438100,11.266438232421875,3.697326898574829,1.0739580392837524,-9.012011528015137
1780564652281958000,11.2859580078125,3.765397071838379,1.0041029453277588,-8.991860389709473
1780564652301475600,11.3054755859375,3.8113949298858643,0.9378719925880432,-8.979623794555664
1780564652320995600,11.32499560546875,3.8377420902252197,0.8750659823417664,-8.97474193572998
1780564652340521200,11.344521240234375,3.8477718830108643,0.8156099915504456,-8.976048469543457
1780564652360043800,11.364043701171875,3.8524270057678223,0.7578979730606079,-8.979108810424805
1780564652379562500,11.3835625,3.8524270057678223,0.7578979730606079,-8.979108810424805
1780564652399084000,11.403083984375,3.851238965988159,0.7031329870223999,-8.9840726852417
1780564652418610700,11.422610595703125,3.845660924911499,0.6537089943885803,-8.990192413330078
1780564652438141000,11.442140869140625,3.825774908065796,0.6177510023117065,-9.001212120056152
1780564652457665800,11.461665771484375,3.7860219478607178,0.5995399951934814,-9.019234657287598
1780564652477181200,11.48118115234375,3.7860219478607178,0.5995399951934814,-9.019234657287598
1780564652496699000,11.500698974609374,3.638014078140259,0.6315320134162903,-9.077775955200195
1780564652516218600,11.520218505859376,3.5326590538024902,0.679934024810791,-9.11581039428711
1780564652535734500,11.539734619140624,3.4193289279937744,0.7447860240936279,-9.153877258300781
1780564652555255800,11.559255859375,3.3120439052581787,0.8167489767074585,-9.187127113342285
1780564652574776300,11.5787763671875,3.2223060131073,0.8913459777832031,-9.21207046508789
1780564652594294800,11.598294677734375,3.150167942047119,0.9639130234718323,-9.229697227478027
1780564652613816800,11.61781689453125,3.0944619178771973,1.034796953201294,-9.240859985351562
1780564652633339100,11.637339111328124,3.0445520877838135,1.105085015296936,-9.249296188354492
1780564652652858400,11.6568583984375,2.9891738891601562,1.1767640113830566,-9.258513450622559
1780564652672377600,11.676377685546875,2.9196760654449463,1.252012014389038,-9.270811080932617
1780564652691897600,11.695897705078124,2.8304760456085205,1.3320200443267822,-9.287309646606445
1780564652711417600,11.71541748046875,2.723655939102173,1.4174489974975586,-9.306585311889648
1780564652730938600,11.734938720703125,2.600166082382202,1.507338047027588,-9.327756881713867
1780564652750461400,11.75446142578125,2.468018054962158,1.600383996963501,-9.348135948181152
1780564652769983200,11.773983154296875,2.330367088317871,1.6952099800109863,-9.366730690002441
1780564652789511000,11.793510986328124,2.1948440074920654,1.788862943649292,-9.382038116455078
1780564652809038800,11.813038818359376,2.069364070892334,1.8791370391845703,-9.392900466918945
1780564652828553700,11.8325537109375,1.9551869630813599,1.962833046913147,-9.400240898132324
1780564652848070100,11.852070068359374,1.8551900386810303,2.038301944732666,-9.40444564819336
1780564652867596000,11.871595947265625,1.7717280387878418,2.1042449474334717,-9.40601634979248
1780564652887119400,11.891119384765625,1.7059639692306519,2.160583019256592,-9.405401229858398
1780564652906642200,11.91064208984375,1.6574219465255737,2.208178997039795,-9.40302562713623
1780564652926171400,11.93017138671875,1.6198920011520386,2.2485690116882324,-9.399993896484375
1780564652945700000,11.9497001953125,1.591817021369934,2.2819440364837646,-9.396746635437012
1780564652965224200,11.96922412109375,1.5720479488372803,2.3077809810638428,-9.393763542175293
1780564652984752400,11.98875244140625,1.5689799785614014,2.3236958980560303,-9.39035415649414
1780564653004279600,12.008279541015625,1.5911810398101807,2.3271000385284424,-9.385773658752441
1780564653023808500,12.02780859375,1.6486530303955078,2.3106319904327393,-9.379921913146973
1780564653043340300,12.04734033203125,1.7545729875564575,2.2705531120300293,-9.370489120483398
1780564653062868700,12.06686865234375,1.9084299802780151,2.2041759490966797,-9.356254577636719
1780564653082395600,12.086395751953125,2.106812000274658,2.1138510704040527,-9.334504127502441
1780564653101923800,12.105923828125,2.3287899494171143,2.0046119689941406,-9.30582046508789
1780564653121445600,12.125445556640624,2.5526978969573975,1.8826249837875366,-9.272510528564453
1780564653140964600,12.144964599609375,2.7564799785614014,1.7592920064926147,-9.238327980041504
1780564653160484000,12.164484130859375,2.9210948944091797,1.6429359912872314,-9.209124565124512
1780564653180003800,12.18400390625,3.0457770824432373,1.539613962173462,-9.186556816101074
1780564653199524000,12.203524169921875,3.0457770824432373,1.539613962173462,-9.186556816101074
1780564653219047400,12.22304736328125,3.2002270221710205,1.3718279600143433,-9.160602569580078
1780564653238574800,12.242574951171875,3.2589659690856934,1.3003909587860107,-9.150306701660156
1780564653258100200,12.262100341796875,3.3226230144500732,1.230111002922058,-9.13712215423584
1780564653277623600,12.28162353515625,3.3226230144500732,1.230111002922058,-9.13712215423584
1780564653297148000,12.30114794921875,3.3226230144500732,1.230111002922058,-9.13712215423584
1780564653316672300,12.32067236328125,3.4705069065093994,1.0778180360794067,-9.101311683654785
1780564653336194000,12.340194091796874,3.5509719848632812,0.9924600124359131,-9.079957008361816
1780564653355715000,12.359715087890624,3.624567985534668,0.9026719927787781,-9.060226440429688
1780564653375239700,12.37923974609375,3.6871650218963623,0.8119540214538574,-9.043536186218262
1780564653394766000,12.39876611328125,3.7327589988708496,0.7251030206680298,-9.032204627990723
1780564653414292700,12.418292724609374,3.7627038955688477,0.6456500291824341,-9.02580738067627
1780564653433825800,12.43782568359375,3.7770519256591797,0.5776050090789795,-9.02442455291748
1780564653453358600,12.457358642578125,3.776099920272827,0.5231069922447205,-9.028146743774414
1780564653472884700,12.476884765625,3.760127067565918,0.48336800932884216,-9.037023544311523
1780564653492412400,12.496412353515625,3.7295351028442383,0.4585219919681549,-9.050985336303711
1780564653511943000,12.51594287109375,3.6832549571990967,0.4478690028190613,-9.07044792175293
1780564653531474400,12.535474365234375,3.6240010261535645,0.4502129852771759,-9.094168663024902
1780564653551004000,12.55500390625,3.5566279888153076,0.46379899978637695,-9.120049476623535
1780564653570533400,12.574533447265624,3.485793113708496,0.48665499687194824,-9.146169662475586
1780564653590064400,12.594064453125,3.4095571041107178,0.5175939798355103,-9.173168182373047
1780564653609588700,12.613588623046875,3.3238348960876465,0.5567899942398071,-9.202288627624512
1780564653629107700,12.633107666015626,3.2293190956115723,0.6057469844818115,-9.232797622680664
1780564653648628500,12.65262841796875,3.1179370880126953,0.6663190126419067,-9.26684856414795
1780564653668152300,12.67215234375,2.985265016555786,0.7394779920578003,-9.304910659790039
1780564653687673000,12.691673095703125,2.8299601078033447,0.8249719738960266,-9.346161842346191
1780564653707190500,12.7111904296875,2.6667540073394775,0.9210100173950195,-9.385102272033691
1780564653726708000,12.7307080078125,2.5055289268493652,1.023995041847229,-9.41879653930664
1780564653746229500,12.7502294921875,2.3528289794921875,1.1294560432434082,-9.446084976196289
1780564653765749200,12.769749267578124,2.219409942626953,1.2329519987106323,-9.465413093566895
1780564653785265400,12.789265380859375,2.1075439453125,1.3316019773483276,-9.47761058807373
1780564653804783600,12.80878369140625,2.015273094177246,1.4238460063934326,-9.484267234802246
1780564653824306700,12.828306640625,1.9309049844741821,1.509950041770935,-9.48850154876709
1780564653843832600,12.84783251953125,1.8494369983673096,1.5907020568847656,-9.491535186767578
1780564653863355100,12.867355224609375,1.7667540311813354,1.6666289567947388,-9.494257926940918
1780564653882874400,12.886874267578126,1.6855050325393677,1.7373019456863403,-9.496359825134277
1780564653902396000,12.90639599609375,1.606834053993225,1.8024059534072876,-9.49786376953125
1780564653921918500,12.92591845703125,1.5356570482254028,1.8616559505462646,-9.498209953308105
1780564653941442000,12.945442138671876,1.478667974472046,1.9127349853515625,-9.49710464477539
1780564653960967000,12.964966796875,1.441017985343933,1.9534989595413208,-9.494593620300293
1780564653980490800,12.98449072265625,1.426529049873352,1.9828089475631714,-9.490704536437988
1780564654000020200,13.004020263671874,1.432873010635376,2.000375986099243,-9.486062049865723
1780564654019548700,13.023548583984375,1.432873010635376,2.000375986099243,-9.486062049865723
1780564654039073300,13.0430732421875,1.5160499811172485,2.0031139850616455,-9.472545623779297
1780564654058598000,13.062597900390625,1.5160499811172485,2.0031139850616455,-9.472545623779297
1780564654078120200,13.0821201171875,1.6702020168304443,1.9687039852142334,-9.453815460205078
1780564654097642200,13.101642333984374,1.6702020168304443,1.9687039852142334,-9.453815460205078
1780564654117167900,13.12116796875,1.6702020168304443,1.9687039852142334,-9.453815460205078
1780564654136694800,13.14069482421875,1.8732960224151611,1.9152480363845825,-9.426694869995117
1780564654156216000,13.160216064453126,1.9861830472946167,1.8828940391540527,-9.410088539123535
1780564654175736300,13.179736328125,2.10636305809021,1.8467819690704346,-9.391093254089355
1780564654214792400,13.21879248046875,2.3651340007781982,1.7639570236206055,-9.345297813415527
1780564654234320400,13.2383203125,2.5032958984375,1.7140040397644043,-9.318568229675293
1780564654253845800,13.257845703125,2.647800922393799,1.6568260192871094,-9.288922309875488
1780564654273373000,13.277373046875,2.7970659732818604,1.591994047164917,-9.256455421447754
1780564654292904700,13.29690478515625,2.9462730884552,1.519927978515625,-9.222216606140137
1780564654312434200,13.31643408203125,3.0821499824523926,1.4418549537658691,-9.190288543701172
1780564654331957500,13.33595751953125,3.198590040206909,1.3611669540405273,-9.162763595581055
1780564654351484400,13.355484375,3.289591073989868,1.2815109491348267,-9.142007827758789
1780564654371014000,13.375013916015625,3.3515539169311523,1.2062410116195679,-9.129734992980957
1780564654390537200,13.394537109375,3.3847360610961914,1.137650966644287,-9.126297950744629
1780564654410058000,13.41405810546875,3.3938939571380615,1.0764169692993164,-9.130322456359863
1780564654429583600,13.43358349609375,3.3906049728393555,1.022264003753662,-9.13776683807373
1780564654449109000,13.45310888671875,3.378671884536743,0.9759489893913269,-9.147244453430176
1780564654468628200,13.472628173828125,3.3554399013519287,0.9398210048675537,-9.159571647644043
1780564654488146700,13.492146728515625,3.314992904663086,0.9168030023574829,-9.176617622375488
1780564654507665400,13.51166552734375,3.2557919025421143,0.909587025642395,-9.198502540588379
1780564654527190000,13.53118994140625,3.175952911376953,0.9194089770317078,-9.2253999710083
1780564654546719000,13.550718994140626,3.081338882446289,0.9462820291519165,-9.254722595214844
1780564654566246000,13.570245849609375,2.9722208976745605,0.9880689978599548,-9.285990715026855
1780564654585772000,13.58977197265625,2.8566980361938477,1.0404930114746094,-9.316471099853516
1780564654605294300,13.60929443359375,2.7456231117248535,1.0993850231170654,-9.343066215515137
1780564654624814800,13.62881494140625,2.6398420333862305,1.1602790355682373,-9.366161346435547
1780564654644338700,13.648338623046875,2.542167901992798,1.2217739820480347,-9.385342597961426
1780564654663864300,13.6678642578125,2.4464850425720215,1.2854419946670532,-9.402252197265625
1780564654683387000,13.687386962890624,2.352570056915283,1.3526630401611328,-9.416777610778809
1780564654702910700,13.70691064453125,2.2565510272979736,1.424873948097229,-9.429619789123535
1780564654722436600,13.7264365234375,2.1545960903167725,1.5028480291366577,-9.441352844238281
1780564654741963000,13.745962890625,2.046304941177368,1.5877619981765747,-9.45154094696045
1780564654761488400,13.76548828125,1.9301179647445679,1.6799830198287964,-9.460036277770996
1780564654781014000,13.785013916015625,1.806872010231018,1.7769370079040527,-9.466663360595703
1780564654800540400,13.80454052734375,1.678110957145691,1.8771480321884155,-9.47102165222168
1780564654820070100,13.824070068359376,1.5465760231018066,1.9787989854812622,-9.472722053527832
1780564654839600600,13.8436005859375,1.5465760231018066,1.9787989854812622,-9.472722053527832
1780564654859130000,13.863130126953125,1.4138020277023315,2.078882932662964,-9.47203254699707
1780564654878660900,13.882660888671875,1.1544150114059448,2.268944025039673,-9.463573455810547
1780564654898189300,13.902189208984375,1.1544150114059448,2.268944025039673,-9.463573455810547
1780564654917714000,13.9217138671875,1.0326629877090454,2.354254961013794,-9.456801414489746
1780564654937240000,13.941239990234376,0.8186439871788025,2.4932000637054443,-9.44212818145752
1780564654956770300,13.960770263671876,0.8186439871788025,2.4932000637054443,-9.44212818145752
1780564654976300800,13.98030078125,0.7355759739875793,2.5455501079559326,-9.434993743896484
1780564654995828200,13.999828125,0.6804460287094116,2.58489990234375,-9.428428649902344
1780564655015354000,14.01935400390625,0.653872013092041,2.608107089996338,-9.423918724060059
1780564655034882800,14.0388828125,0.6573789715766907,2.6159698963165283,-9.421493530273438
1780564655054413300,14.058413330078125,0.6928600072860718,2.6080410480499268,-9.421149253845215
1780564655073943600,14.077943603515624,0.76835697889328,2.5827128887176514,-9.422272682189941
1780564655093471700,14.0974716796875,0.8862029910087585,2.541718006134033,-9.423074722290039
1780564655112997600,14.11699755859375,1.0345970392227173,2.485713005065918,-9.422887802124023
1780564655132523500,14.1365234375,1.2079050540924072,2.4181880950927734,-9.41983699798584
1780564655152055000,14.156054931640625,1.392356038093567,2.3435211181640625,-9.413249015808105
1780564655171587800,14.175587890625,1.5813100337982178,2.2674400806427,-9.402030944824219
1780564655191116800,14.19511669921875,1.7632800340652466,2.193972110748291,-9.38708209991455
1780564655210644200,14.214644287109374,1.9286619424819946,2.125572919845581,-9.370283126831055
1780564655230169000,14.234169189453125,2.077219009399414,2.0633039474487305,-9.352429389953613
1780564655249692700,14.253692626953125,2.210629940032959,2.005743980407715,-9.3343505859375
1780564655269219000,14.273218994140626,2.337425947189331,1.9489120244979858,-9.31548023223877
1780564655288745200,14.2927451171875,2.4593660831451416,1.8877960443496704,-9.296651840209961
1780564655308271400,14.312271240234375,2.579576015472412,1.8185549974441528,-9.277856826782227
1780564655327794400,14.33179443359375,2.700972080230713,1.7393200397491455,-9.258482933044434
1780564655347315700,14.351315673828125,2.8239200115203857,1.6493370532989502,-9.23824405670166
1780564655366841300,14.37084130859375,2.944905996322632,1.548406958580017,-9.217914581298828
1780564655386372900,14.390372802734374,3.060590982437134,1.4393680095672607,-9.197879791259766
1780564655405902000,14.409902099609376,3.1646370887756348,1.3256059885025024,-9.1797513961792
1780564655425428500,14.429428466796875,3.2521729469299316,1.2118619680404663,-9.164864540100098
1780564655444956700,14.448956787109376,3.31992506980896,1.1039259433746338,-9.154203414916992
1780564655464484600,14.468484619140625,3.3668711185455322,1.005465030670166,-9.148399353027344
1780564655484006400,14.48800634765625,3.396406888961792,0.9186319708824158,-9.146612167358398
1780564655503525600,14.507525634765624,3.40927791595459,0.8484140038490295,-9.14860725402832
1780564655523051800,14.5270517578125,3.4078431129455566,0.7980350255966187,-9.153674125671387
1780564655542580000,14.546580078125,3.3927559852600098,0.7673860192298889,-9.161893844604492
1780564655562107400,14.566107421875,3.361246109008789,0.75730299949646,-9.174341201782227
1780564655581637400,14.585637451171875,3.3080499172210693,0.7673159837722778,-9.192824363708496
1780564655601166300,14.605166259765625,3.236319065093994,0.7978190183639526,-9.215731620788574
1780564655620692200,14.624692138671875,3.1483609676361084,0.8445910215377808,-9.241995811462402
1780564655640217300,14.64421728515625,3.045531988143921,0.9046890139579773,-9.270719528198242
1780564655659744500,14.66374462890625,3.045531988143921,0.9046890139579773,-9.270719528198242
1780564655679277000,14.683277099609375,2.9280691146850586,0.9766929745674133,-9.301207542419434
1780564655698805800,14.7028056640625,2.6715619564056396,1.140089988708496,-9.359644889831543
1780564655718330000,14.722330078125,2.5413389205932617,1.2264740467071533,-9.384952545166016
1780564655737858600,14.741858642578125,2.4145359992980957,1.3121010065078735,-9.406826972961426
1780564655757389300,14.761389404296875,2.4145359992980957,1.3121010065078735,-9.406826972961426
1780564655776920000,14.780920166015624,2.4145359992980957,1.3121010065078735,-9.406826972961426
1780564655796450000,14.800449951171874,2.2033979892730713,1.4726450443267822,-9.434847831726074
1780564655815979000,14.81997900390625,2.118673086166382,1.5465819835662842,-9.442420959472656
1780564655835501300,14.839501220703125,2.0464749336242676,1.6176509857177734,-9.44643497467041
1780564655855019000,14.85901904296875,1.9744110107421875,1.687580943107605,-9.449539184570312
1780564655874541000,14.878541015625,1.8978179693222046,1.758566975593567,-9.452286720275879
1780564655894069800,14.89806982421875,1.8070319890975952,1.8321009874343872,-9.456110954284668
1780564655913596700,14.9175966796875,1.7016359567642212,1.9088770151138306,-9.460477828979492
1780564655933116000,14.937115966796876,1.5829010009765625,1.9883489608764648,-9.46471881866455
1780564655952635000,14.956634765625,1.455428957939148,2.0675690174102783,-9.4682035446167
1780564655972155600,14.97615576171875,1.3338390588760376,2.1434710025787354,-9.469234466552734
1780564655991679000,14.995678955078125,1.2252869606018066,2.213344097137451,-9.467827796936035
1780564656011204600,15.01520458984375,1.1371029615402222,2.274808883666992,-9.464261054992676
1780564656030729500,15.0347294921875,1.0752860307693481,2.326472043991089,-9.4589262008667
1780564656050253800,15.05425390625,1.04345703125,2.3671019077301025,-9.452407836914062
1780564656069778400,15.0737783203125,1.0428290367126465,2.3957619667053223,-9.4452543258667
1780564656089301500,15.093301513671875,1.0731300115585327,2.4137229919433594,-9.437284469604492
1780564656108823600,15.112823486328125,1.1318939924240112,2.421447992324829,-9.428436279296875
1780564656128346600,15.1323466796875,1.2148669958114624,2.4190940856933594,-9.418708801269531
1780564656147872800,15.151872802734376,1.3167749643325806,2.4069650173187256,-9.408114433288574
1780564656167401000,15.17140087890625,1.4324630498886108,2.3868229389190674,-9.39633560180664
1780564656186928000,15.19092822265625,1.5571719408035278,2.36103892326355,-9.383000373840332
1780564656206454300,15.210454345703125,1.6864659786224365,2.3302419185638428,-9.368339538574219
1780564656225980000,15.22997998046875,1.8180290460586548,2.295229911804199,-9.352362632751465
1780564656245502700,15.249502685546876,1.9511250257492065,2.256748914718628,-9.334891319274902
1780564656265024800,15.269024658203126,2.0844860076904297,2.2154769897460938,-9.31593132019043
1780564656284550700,15.288550537109375,2.218329906463623,2.1718640327453613,-9.295269012451172
1780564656304077800,15.308077880859376,2.354214906692505,2.1241419315338135,-9.272846221923828
1780564656323603000,15.32760302734375,2.4908969402313232,2.071007013320923,-9.249127388000488
1780564656343126800,15.347126708984375,2.62601900100708,2.0116961002349854,-9.224808692932129
1780564656362655500,15.366655517578126,2.7502689361572266,1.9454070329666138,-9.202794075012207
1780564656382185700,15.386185791015626,2.862863063812256,1.872156023979187,-9.183629035949707
1780564656401712400,15.40571240234375,2.960599899291992,1.7920390367507935,-9.168611526489258
1780564656421236700,15.42523681640625,3.039515972137451,1.706318974494934,-9.159137725830078
1780564656440762600,15.4447626953125,3.106048107147217,1.6169580221176147,-9.153026580810547
1780564656460288300,15.464288330078125,3.1594600677490234,1.526689052581787,-9.150246620178223
1780564656479811800,15.483811767578125,3.1594600677490234,1.526689052581787,-9.150246620178223
1780564656499339000,15.503339111328126,3.2053170204162598,1.4397510290145874,-9.148390769958496
1780564656518868000,15.522867919921875,3.242908000946045,1.359192967414856,-9.147465705871582
1780564656538396700,15.542396728515625,3.272768974304199,1.288059949874878,-9.147124290466309
1780564656557924900,15.5619248046875,3.3032119274139404,1.1857759952545166,-9.150012016296387
1780564656577456400,15.581456298828124,3.3032119274139404,1.1857759952545166,-9.150012016296387
1780564656596991700,15.60099169921875,3.3032119274139404,1.1857759952545166,-9.150012016296387
1780564656616524800,15.62052490234375,3.267071008682251,1.1503980159759521,-9.167487144470215
1780564656636055000,15.640054931640625,3.2230589389801025,1.1568900346755981,-9.18223762512207
1780564656655583700,15.659583740234375,3.1633028984069824,1.1774460077285767,-9.200387954711914
1780564656675114000,15.679114013671875,3.091559886932373,1.2091059684753418,-9.220646858215332
1780564656694647000,15.69864697265625,3.0081489086151123,1.247586965560913,-9.243082046508789
1780564656714180900,15.718180908203125,2.9185659885406494,1.287561058998108,-9.266292572021484
1780564656733711400,15.73771142578125,2.82517409324646,1.327057957649231,-9.289633750915527
1780564656753239600,15.757239501953125,2.729991912841797,1.364177942276001,-9.312687873840332
1780564656772770000,15.77677001953125,2.6329469680786133,1.3974579572677612,-9.335668563842773
1780564656792301300,15.79630126953125,2.5336930751800537,1.4262429475784302,-9.358750343322754
1780564656811833600,15.81583349609375,2.4367740154266357,1.453078031539917,-9.380335807800293
1780564656831365600,15.83536572265625,2.3425960540771484,1.4784339666366577,-9.400344848632812
1780564656850895600,15.8548955078125,2.2520809173583984,1.5028990507125854,-9.418567657470703
1780564656870423600,15.874423583984376,2.1658010482788086,1.5274540185928345,-9.434840202331543
1780564656889950200,15.8939501953125,2.082703113555908,1.552886962890625,-9.449385643005371
1780564656909475800,15.913475830078125,2.0021109580993652,1.5810500383377075,-9.462125778198242
1780564656928999000,15.9329990234375,1.9211369752883911,1.612758994102478,-9.473554611206055
1780564656948522000,15.95252197265625,1.8382999897003174,1.6497509479522705,-9.483616828918457
1780564656968049000,15.972048828125,1.752284049987793,1.6929069757461548,-9.492289543151855
1780564656987577300,15.991577392578124,1.663004994392395,1.7418479919433594,-9.499492645263672
1780564657007102200,16.011102294921876,1.5730489492416382,1.795915961265564,-9.504746437072754
1780564657026627000,16.030626953125,1.4855899810791016,1.8526500463485718,-9.507928848266602
1780564657046154500,16.050154541015626,1.4052590131759644,1.908890962600708,-9.509015083312988
1780564657065687000,16.06968701171875,1.3372869491577148,1.9612460136413574,-9.508163452148438
1780564657085220900,16.089220947265623,1.2878329753875732,2.004162073135376,-9.506041526794434
1780564657104754700,16.108754638671876,1.265383005142212,2.0337939262390137,-9.502760887145996
1780564657124288000,16.1282880859375,1.27162504196167,2.047602891921997,-9.49896240234375
1780564657143822000,16.147822021484377,1.3121329545974731,2.045974016189575,-9.493803024291992
1780564657163355600,16.167355712890625,1.3827060461044312,2.030949115753174,-9.487010955810547
1780564657182888200,16.18688818359375,1.4798630475997925,2.0029261112213135,-9.478306770324707
1780564657202419700,16.206419677734374,1.5951379537582397,1.967934012413025,-9.466930389404297
1780564657221949400,16.225949462890625,1.7185349464416504,1.930184006690979,-9.453096389770508
1780564657241481000,16.24548095703125,1.845898985862732,1.8935619592666626,-9.43647575378418
1780564657261012200,16.26501220703125,1.9676350355148315,1.860152006149292,-9.418505668640137
1780564657280540200,16.2845400390625,2.083189010620117,1.8319909572601318,-9.399155616760254
1780564657300072400,16.304072509765625,2.1906180381774902,1.8120369911193848,-9.378578186035156
1780564657319606800,16.323606689453126,2.1906180381774902,1.8120369911193848,-9.378578186035156
1780564657339139000,16.34313916015625,2.3911330699920654,1.7887630462646484,-9.33396053314209
1780564657358670000,16.362670166015626,2.491107940673828,1.7812949419021606,-9.309208869934082
1780564657378197500,16.382197509765625,2.5953049659729004,1.7718509435653687,-9.282506942749023
1780564657397729000,16.40172900390625,2.5953049659729004,1.7718509435653687,-9.282506942749023
1780564657417262800,16.421262939453126,2.5953049659729004,1.7718509435653687,-9.282506942749023
1780564657436793600,16.440793701171874,2.804565906524658,1.7275830507278442,-9.229836463928223
1780564657456324000,16.460323974609373,2.9030420780181885,1.6930179595947266,-9.20576000213623
1780564657475850800,16.479850830078124,2.9905738830566406,1.6514569520950317,-9.18526840209961
1780564657495375600,16.499375732421875,3.0628249645233154,1.6053940057754517,-9.1696138381958
1780564657514903600,16.518903564453126,3.1174681186676025,1.557489037513733,-9.159455299377441
1780564657534435300,16.538435302734374,3.158257007598877,1.5115129947662354,-9.153181076049805
1780564657553967000,16.557967041015626,3.1860809326171875,1.467529058456421,-9.150696754455566
1780564657573493500,16.577493408203125,3.2042489051818848,1.425616979598999,-9.150978088378906
1780564657593020400,16.5970205078125,3.215040922164917,1.386307954788208,-9.15323257446289
1780564657612551200,16.61655126953125,3.21718692779541,1.3502730131149292,-9.157864570617676
1780564657632080600,16.63608056640625,3.210114002227783,1.319836974143982,-9.164779663085938
1780564657651606000,16.65560595703125,3.1919820308685303,1.2977739572525024,-9.174259185791016
1780564657671130600,16.675130615234377,3.161081075668335,1.2862659692764282,-9.18657112121582
1780564657690657800,16.69465771484375,3.1179680824279785,1.2872769832611084,-9.201151847839355
1780564657710188000,16.71418798828125,3.059976100921631,1.3018510341644287,-9.218552589416504
1780564657729719600,16.733719482421876,2.990777015686035,1.3301019668579102,-9.237211227416992
1780564657749250000,16.75325,2.9058279991149902,1.3698420524597168,-9.258493423461914
1780564657768776400,16.7727763671875,2.807734966278076,1.418431043624878,-9.281415939331055
1780564657788305200,16.79230517578125,2.7061569690704346,1.4728679656982422,-9.303083419799805
1780564657807832600,16.81183251953125,2.603377103805542,1.5293680429458618,-9.323274612426758
1780564657827359700,16.83135986328125,2.5112740993499756,1.583253026008606,-9.339529037475586
1780564657846886700,16.85088671875,2.433018922805786,1.6304479837417603,-9.352115631103516
1780564657866414800,16.870414794921874,2.378338098526001,1.6695200204849243,-9.359284400939941
1780564657885944600,16.889944580078126,2.3465020656585693,1.699658989906311,-9.361895561218262
1780564657905475300,16.909475341796874,2.321744918823242,1.722452998161316,-9.36390209197998
1780564657925008000,16.9290078125,2.3000268936157227,1.7414109706878662,-9.365753173828125
1780564657944539400,16.948539306640626,2.2659850120544434,1.759909987449646,-9.370593070983887
1780564657964075300,16.9680751953125,2.217292070388794,1.7830289602279663,-9.37786865234375
1780564657983612700,16.98761279296875,2.150352954864502,1.8132200241088867,-9.387662887573242
1780564658003148300,17.007148193359374,2.067596912384033,1.8532990217208862,-9.398421287536621
1780564658022684200,17.02668408203125,1.9780019521713257,1.9020860195159912,-9.407953262329102
1780564658042215400,17.04621533203125,1.8864109516143799,1.956894040107727,-9.415520668029785
1780564658061746000,17.065745849609375,1.803994059562683,2.015723943710327,-9.419260025024414
1780564658100804400,17.104804443359374,1.6728190183639526,2.1278328895568848,-9.418810844421387
1780564658120334600,17.12433447265625,1.6257699728012085,2.1740899085998535,-9.416485786437988
1780564658139868400,17.143868408203126,1.6257699728012085,2.1740899085998535,-9.416485786437988
1780564658159401700,17.163401611328126,1.5934669971466064,2.2105140686035156,-9.41352653503418
1780564658178934500,17.1829345703125,1.5756410360336304,2.234937906265259,-9.410759925842285
1780564658198467600,17.202467529296875,1.6007369756698608,2.248655080795288,-9.403255462646484
1780564658217997300,17.221997314453127,1.6452369689941406,2.240873098373413,-9.397429466247559
1780564658237524500,17.2415244140625,1.6452369689941406,2.240873098373413,-9.397429466247559
1780564658257056500,17.261056396484374,1.6452369689941406,2.240873098373413,-9.397429466247559
1780564658276590600,17.280590576171875,1.818632960319519,2.2052249908447266,-9.373876571655273
1780564658296122400,17.300122314453127,1.9424359798431396,2.1794450283050537,-9.355050086975098
1780564658315651600,17.319651611328126,2.0827019214630127,2.1495070457458496,-9.331771850585938
1780564658335179500,17.339179443359374,2.236222982406616,2.1131880283355713,-9.3045015335083
1780564658354708500,17.35870849609375,2.3985989093780518,2.070981025695801,-9.27349853515625
1780564658374237200,17.3782373046875,2.558202028274536,2.021929979324341,-9.241612434387207
1780564658393768000,17.397767822265624,2.704174041748047,1.9677720069885254,-9.211694717407227
1780564658413298000,17.4172978515625,2.833059072494507,1.91069495677948,-9.18493366241455
1780564658432827600,17.43682763671875,2.935828924179077,1.852789044380188,-9.164501190185547
1780564658452355800,17.45635595703125,3.0103869438171387,1.796447992324829,-9.151521682739258
1780564658471884300,17.47588427734375,3.0542469024658203,1.7425479888916016,-9.147409439086914
1780564658491415300,17.495415283203126,3.069772958755493,1.6916309595108032,-9.151768684387207
1780564658510942500,17.5149423828125,3.0726699829101562,1.6413439512252808,-9.15994930267334
1780564658530464300,17.53446435546875,3.0670270919799805,1.5905430316925049,-9.170797348022461
1780564658549993500,17.553993408203127,3.0680949687957764,1.5369889736175537,-9.179567337036133
1780564658569526000,17.573526123046875,3.0769670009613037,1.4791879653930664,-9.186091423034668
1780564658589055500,17.593055419921875,3.0964279174804688,1.4183820486068726,-9.189141273498535
1780564658608588500,17.612588623046875,3.1237258911132812,1.3563810586929321,-9.189263343811035
1780564658628121300,17.632121337890624,3.1474270820617676,1.2966970205307007,-9.189791679382324
1780564658647650600,17.651650634765623,3.161518096923828,1.242777943611145,-9.192404747009277
1780564658667185400,17.671185302734376,3.156986951828003,1.1991870403289795,-9.199749946594238
1780564658686718700,17.69071875,3.13456392288208,1.1692739725112915,-9.211259841918945
1780564658706246400,17.710246337890624,3.095335006713867,1.1543010473251343,-9.226401329040527
1780564658725772500,17.7297724609375,3.041304111480713,1.15461003780365,-9.244314193725586
1780564658745297700,17.749297607421877,2.9707820415496826,1.1705889701843262,-9.265213012695312
1780564658764822500,17.768822509765624,2.886699914932251,1.2020070552825928,-9.287740707397461
1780564658784349400,17.788349365234374,2.7845559120178223,1.2472809553146362,-9.31291675567627
1780564658803881200,17.807881103515626,2.6673099994659424,1.3035470247268677,-9.339499473571777
1780564658823413800,17.827413818359375,2.541588068008423,1.3680280447006226,-9.3652982711792
1780564658842943200,17.846943115234374,2.408231019973755,1.4361790418624878,-9.390304565429688
1780564658862472700,17.86647265625,2.2815170288085938,1.504220962524414,-9.411269187927246
1780564658882004500,17.88600439453125,2.1654539108276367,1.5693769454956055,-9.428035736083984
1780564658901539800,17.905539794921875,2.0690460205078125,1.6300870180130005,-9.43937873840332
1780564658921079600,17.92507958984375,1.9908440113067627,1.6870169639587402,-9.446189880371094
1780564658940614000,17.94461376953125,1.9198689460754395,1.7423709630966187,-9.450833320617676
1780564658960138800,17.964138671875,1.8547749519348145,1.7989530563354492,-9.453231811523438
1780564658979666000,17.983666015625,1.8547749519348145,1.7989530563354492,-9.453231811523438
1780564658999193600,18.003193603515626,1.7159819602966309,1.9164149761199951,-9.456360816955566
1780564659018723000,18.02272314453125,1.7159819602966309,1.9164149761199951,-9.456360816955566
1780564659038257700,18.042257568359375,1.5662850141525269,2.033452033996582,-9.457897186279297
1780564659057795300,18.06179541015625,1.5662850141525269,2.033452033996582,-9.457897186279297
1780564659077328600,18.08132861328125,1.5662850141525269,2.033452033996582,-9.457897186279297
1780564659096857600,18.100857666015624,1.4399429559707642,2.1296119689941406,-9.456812858581543
1780564659116386000,18.120385986328124,1.3947780132293701,2.167072057723999,-9.455072402954102
1780564659135914500,18.13991455078125,1.363981008529663,2.195755958557129,-9.452946662902832
1780564659155444500,18.159444580078127,1.349977970123291,2.2177131175994873,-9.449831008911133
1780564659174973700,18.1789736328125,1.358536958694458,2.2314789295196533,-9.445362091064453
1780564659194499300,18.198499267578125,1.3850029706954956,2.2409119606018066,-9.43928337097168
1780564659214023700,18.218023681640624,1.4293919801712036,2.2453670501708984,-9.431604385375977
1780564659233551000,18.237551025390626,1.4903910160064697,2.24680495262146,-9.421815872192383
1780564659253079300,18.257079345703126,1.5659979581832886,2.246575117111206,-9.409599304199219
1780564659272603600,18.276603759765624,1.652871012687683,2.243161916732788,-9.395544052124023
1780564659292124700,18.296124755859374,1.7470660209655762,2.237968921661377,-9.379725456237793
1780564659311648000,18.31564794921875,1.850234031677246,2.2297050952911377,-9.361892700195312
1780564659331174700,18.335174560546875,1.965751051902771,2.216404914855957,-9.341486930847168
1780564659350701000,18.354701171875,2.100895881652832,2.1941959857940674,-9.317281723022461
1780564659370226400,18.374226318359376,2.2568929195404053,2.160114049911499,-9.288721084594727
1780564659389755400,18.39375537109375,2.4335100650787354,2.1132891178131104,-9.254837989807129
1780564659409284400,18.413284423828124,2.6246581077575684,2.053622007369995,-9.21595287322998
1780564659428810500,18.432810546875,2.8160219192504883,1.9840519428253174,-9.174614906311035
1780564659448334000,18.452333984375,2.992659091949463,1.9090240001678467,-9.134528160095215
1780564659467860000,18.47185986328125,3.1377360820770264,1.8333250284194946,-9.101292610168457
1780564659487384600,18.491384521484374,3.2462329864501953,1.7602260112762451,-9.077640533447266
1780564659506909400,18.510909423828124,3.314462900161743,1.6910909414291382,-9.066120147705078
1780564659526435000,18.53043505859375,3.3451459407806396,1.6263359785079956,-9.066699028015137
1780564659545958000,18.5499580078125,3.351407051086426,1.5638959407806396,-9.075366973876953
1780564659565483500,18.5694833984375,3.3436241149902344,1.5030590295791626,-9.088508605957031
1780564659585009200,18.589009033203126,3.330609083175659,1.445233941078186,-9.102655410766602
1780564659604530200,18.6085302734375,3.3088810443878174,1.3924189805984497,-9.118797302246094
1780564659624055800,18.628055908203127,3.2808330059051514,1.3494360446929932,-9.13537883758545
1780564659643585500,18.64758544921875,3.2452828884124756,1.3187370300292969,-9.152544021606445
1780564659663115500,18.667115478515626,3.1969549655914307,1.3056800365447998,-9.171405792236328
1780564659682645200,18.686645263671874,3.1360549926757812,1.3104389905929565,-9.191729545593262
1780564659702173200,18.706173095703125,3.060978889465332,1.331151008605957,-9.214035034179688
1780564659721699600,18.725699462890624,2.9793310165405273,1.366750955581665,-9.235560417175293
1780564659741223000,18.745222900390626,2.8889079093933105,1.412263035774231,-9.257414817810059
1780564659760745000,18.764744873046876,2.786815881729126,1.4658830165863037,-9.28034782409668
1780564659780269300,18.784269287109375,2.6757259368896484,1.5223430395126343,-9.303921699523926
1780564659799798300,18.80379833984375,2.555556058883667,1.5803829431533813,-9.327997207641602
1780564659819324700,18.82332470703125,2.555556058883667,1.5803829431533813,-9.327997207641602
1780564659838848300,18.84284814453125,2.2986199855804443,1.6946419477462769,-9.374674797058105
1780564659858371300,18.862371337890625,2.1682169437408447,1.7482060194015503,-9.395882606506348
1780564659877893600,18.8818935546875,2.046034097671509,1.7967449426651,-9.414109230041504
1780564659897415400,18.90141552734375,2.046034097671509,1.7967449426651,-9.414109230041504
1780564659916939800,18.920939697265624,2.046034097671509,1.7967449426651,-9.414109230041504
1780564659936463000,18.940463134765626,1.8476929664611816,1.880545973777771,-9.438727378845215
1780564659955986200,18.959986083984376,1.7639869451522827,1.918887972831726,-9.447022438049316
1780564659975510800,18.9795107421875,1.6799910068511963,1.9574790000915527,-9.454412460327148
1780564659995031300,18.99903125,1.5929219722747803,1.9997459650039673,-9.4606351852417
1780564660014547500,19.01854736328125,1.4990570545196533,2.047826051712036,-9.46568775177002
1780564660034071600,19.038071533203127,1.3919299840927124,2.1018710136413574,-9.470198631286621
1780564660073128200,19.077128173828125,1.152569055557251,2.223565101623535,-9.474562644958496
1780564660092657000,19.096656982421877,1.0375109910964966,2.2868459224700928,-9.472797393798828
1780564660112185600,19.116185546875,0.9341210126876831,2.3468899726867676,-9.468871116638184
1780564660131714300,19.13571435546875,0.8476049900054932,2.4001059532165527,-9.463669776916504
1780564660151240400,19.155240478515626,0.7869030237197876,2.443553924560547,-9.457792282104492
1780564660170769200,19.17476904296875,0.7547569870948792,2.475281000137329,-9.452160835266113
1780564660190300200,19.194300048828126,0.7583789825439453,2.493709087371826,-9.447025299072266
1780564660209831000,19.213830810546874,0.8040630221366882,2.498974084854126,-9.441853523254395
1780564660229363000,19.233363037109374,0.8884440064430237,2.4912729263305664,-9.436325073242188
1780564660248894000,19.25289404296875,1.0063740015029907,2.471972942352295,-9.429557800292969
1780564660268425200,19.27242529296875,1.1459159851074219,2.4430510997772217,-9.42116641998291
1780564660287954000,19.291953857421873,1.2996350526809692,2.407017946243286,-9.410484313964844
1780564660307482000,19.311482177734376,1.4570380449295044,2.368182897567749,-9.397274017333984
1780564660327009800,19.331009765625,1.6085649728775024,2.32785701751709,-9.382622718811035
1780564660346532400,19.350532470703126,1.7548019886016846,2.2885499000549316,-9.366066932678223
1780564660366054400,19.370054443359376,1.8979309797286987,2.2520270347595215,-9.346989631652832
1780564660385579500,19.38957958984375,2.0407419204711914,2.21754789352417,-9.32512092590332
1780564660405105000,19.40910498046875,2.186692953109741,2.1827690601348877,-9.300209045410156
1780564660424628500,19.42862841796875,2.3360369205474854,2.144460916519165,-9.272767066955566
1780564660444151300,19.4481513671875,2.4906458854675293,2.1006031036376953,-9.242518424987793
1780564660463672600,19.467672607421875,2.6469309329986572,2.0498390197753906,-9.210424423217773
1780564660483200300,19.4872001953125,2.7987120151519775,1.9922109842300415,-9.178142547607422
1780564660502729200,19.506729248046874,2.932828903198242,1.9287190437316895,-9.149784088134766
1780564660522252300,19.526252197265624,3.0407140254974365,1.8617420196533203,-9.12841510772705
1780564660541780500,19.545780517578127,3.1226871013641357,1.792983055114746,-9.114496231079102
1780564660561305000,19.56530517578125,3.1824018955230713,1.7245819568634033,-9.107037544250488
1780564660580828200,19.584828125,3.218674898147583,1.6571179628372192,-9.106815338134766
1780564660600356000,19.604356201171875,3.234628915786743,1.5916340351104736,-9.11284065246582
1780564660619883500,19.623883544921874,3.234628915786743,1.5916340351104736,-9.11284065246582
1780564660639412200,19.643412109375,3.2425758838653564,1.4736870527267456,-9.129837036132812
1780564660658938600,19.662938720703124,3.2425758838653564,1.4736870527267456,-9.129837036132812
1780564660678460700,19.682460693359374,3.2185869216918945,1.3848179578781128,-9.15221118927002
1780564660697981200,19.701981201171876,3.2185869216918945,1.3848179578781128,-9.15221118927002
1780564660717501200,19.721501220703125,3.1812500953674316,1.3572850227355957,-9.169374465942383
1780564660737023000,19.74102294921875,3.1812500953674316,1.3572850227355957,-9.169374465942383
1780564660756541700,19.760541748046876,3.0583910942077637,1.3468669652938843,-9.212610244750977
1780564660776064500,19.780064453125,2.9796268939971924,1.3616009950637817,-9.236226081848145
1780564660795597000,19.79959716796875,2.8943839073181152,1.3856840133666992,-9.259719848632812
1780564660815130000,19.819130126953127,2.804327964782715,1.4169210195541382,-9.282676696777344
1780564660834659300,19.838659423828126,2.716352939605713,1.452517032623291,-9.303313255310059
1780564660854187800,19.858187744140626,2.6270151138305664,1.4897459745407104,-9.323060035705566
1780564660873716700,19.877716796875,2.539254903793335,1.5283629894256592,-9.341107368469238
1780564660893242000,19.8972421875,2.445847988128662,1.5686390399932861,-9.359336853027344
1780564660912768000,19.91676806640625,2.349574089050293,1.61067795753479,-9.37684440612793
1780564660932296200,19.936296142578126,2.250775098800659,1.6556400060653687,-9.393235206604004
1780564660951820300,19.9558203125,2.149167060852051,1.703052043914795,-9.408543586730957
1780564660971348200,19.97534814453125,2.0438098907470703,1.7516679763793945,-9.423083305358887
1780564660990882300,19.99488232421875,1.9347209930419922,1.8013230562210083,-9.43674087524414
1780564661010408200,20.014408203125,1.8216240406036377,1.8524680137634277,-9.4493408203125
1780564661029930000,20.033929931640625,1.7047139406204224,1.9062310457229614,-9.460455894470215
1780564661049452300,20.053452392578127,1.583333969116211,1.9615939855575562,-9.470226287841797
1780564661068971000,20.072970947265624,1.4597729444503784,2.0180869102478027,-9.478206634521484
1780564661088490200,20.092490234375,1.3391029834747314,2.0752689838409424,-9.483673095703125
1780564661108008700,20.1120087890625,1.2335710525512695,2.1309869289398193,-9.485630989074707
1780564661127528200,20.131528076171875,1.1547199487686157,2.182871103286743,-9.483758926391602
1780564661147054000,20.15105419921875,1.106281042098999,2.2266950607299805,-9.47934341430664
1780564661166580700,20.170580810546873,1.0934909582138062,2.261301040649414,-9.472634315490723
1780564661186103600,20.190103515625,1.1183810234069824,2.2840709686279297,-9.464261054992676
1780564661205621000,20.20962109375,1.1799360513687134,2.2939040660858154,-9.454404830932617
1780564661225142000,20.22914208984375,1.2690930366516113,2.2894949913024902,-9.44391918182373
1780564661244667400,20.24866748046875,1.3729020357131958,2.2727200984954834,-9.43344497680664
1780564661264190700,20.268190673828126,1.4897569417953491,2.245811939239502,-9.422151565551758
1780564661283711700,20.287711669921876,1.6122560501098633,2.2117919921875,-9.410026550292969
1780564661303239400,20.307239501953124,1.7411789894104004,2.174561023712158,-9.395719528198242
1780564661322768400,20.326768310546875,1.8726509809494019,2.1342709064483643,-9.379663467407227
1780564661342295300,20.34629541015625,2.0056140422821045,2.0922911167144775,-9.361615180969238
1780564661361827300,20.365827392578126,2.1419479846954346,2.0483639240264893,-9.341105461120605
1780564661381361200,20.385361083984375,2.2788050174713135,2.0032498836517334,-9.318477630615234
1780564661400888600,20.404888671875,2.4179999828338623,1.9555480480194092,-9.293498039245605
1780564661420411400,20.424411376953124,2.5536649227142334,1.903095006942749,-9.26806354522705
1780564661439936000,20.44393603515625,2.6873788833618164,1.8456549644470215,-9.241836547851562
1780564661459465500,20.463465576171874,2.6873788833618164,1.8456549644470215,-9.241836547851562
1780564661478996700,20.482996826171874,2.9337949752807617,1.71499502658844,-9.191932678222656
1780564661498524400,20.5025244140625,2.9337949752807617,1.71499502658844,-9.191932678222656
1780564661518049500,20.522049560546876,3.152211904525757,1.5552400350570679,-9.14793872833252
1780564661537576200,20.541576171875,3.152211904525757,1.5552400350570679,-9.14793872833252
1780564661557104600,20.561104736328126,3.152211904525757,1.5552400350570679,-9.14793872833252
1780564661576632600,20.580632568359373,3.3352808952331543,1.3661270141601562,-9.113154411315918
1780564661596160300,20.60016015625,3.4173789024353027,1.264490008354187,-9.097394943237305
1780564661615688400,20.6196884765625,3.4912381172180176,1.1620709896087646,-9.08299732208252
1780564661635214000,20.639214111328126,3.555377960205078,1.0610790252685547,-9.07046890258789
1780564661654734800,20.65873486328125,3.6091859340667725,0.9659600257873535,-9.059840202331543
1780564661674258700,20.6782587890625,3.6492950916290283,0.8812339901924133,-9.052407264709473
1780564661693784600,20.69778466796875,3.671837091445923,0.8100829720497131,-9.049938201904297
1780564661713309700,20.717309814453124,3.6671559810638428,0.755640983581543,-9.056543350219727
1780564661732835600,20.736835693359374,3.6316490173339844,0.719622015953064,-9.073768615722656
1780564661752360400,20.7563603515625,3.5679409503936768,0.7040759921073914,-9.100223541259766
1780564661771885300,20.77588525390625,3.475275993347168,0.7086809873580933,-9.135656356811523
1780564661791412000,20.795411865234374,3.3571999073028564,0.7326719760894775,-9.177821159362793
1780564661810936000,20.81493603515625,3.217726945877075,0.77394700050354,-9.224274635314941
1780564661830457600,20.83445751953125,3.0686941146850586,0.8293399810791016,-9.270130157470703
1780564661849980000,20.85397998046875,2.9183011054992676,0.8954229950904846,-9.312450408935547
1780564661869504000,20.87350390625,2.7763619422912598,0.9669020175933838,-9.348631858825684
1780564661889031000,20.893031005859374,2.6495730876922607,1.0390750169754028,-9.377636909484863
1780564661908559000,20.91255908203125,2.5416059494018555,1.1072349548339844,-9.399694442749023
1780564661928085800,20.932085693359376,2.454521894454956,1.168478012084961,-9.415410995483398
1780564661947608800,20.95160888671875,2.3878860473632812,1.2226979732513428,-9.42565631866455
1780564661967132000,20.9711318359375,2.332537889480591,1.2714489698410034,-9.433064460754395
1780564662006182700,21.0101826171875,2.2163898944854736,1.3606760501861572,-9.448607444763184
1780564662025713400,21.02971337890625,2.145029067993164,1.4059690237045288,-9.458439826965332
1780564662045246500,21.04924658203125,2.062474012374878,1.4538040161132812,-9.469564437866211
1780564662064777700,21.06877783203125,1.9752949476242065,1.5016050338745117,-9.480685234069824
1780564662084308200,21.08830810546875,1.8900309801101685,1.5479509830474854,-9.490608215332031
1780564662103833000,21.1078330078125,1.8149319887161255,1.591178059577942,-9.498113632202148
1780564662123358500,21.1273583984375,1.7554349899291992,1.6309709548950195,-9.502545356750488
1780564662142886000,21.146885986328126,1.7143909931182861,1.6674220561981201,-9.503713607788086
1780564662162415400,21.166415283203126,1.691283941268921,1.7004120349884033,-9.502006530761719
1780564662181941200,21.185941162109376,1.6764830350875854,1.7307560443878174,-9.499152183532715
1780564662201462500,21.205462646484374,1.6699789762496948,1.7569769620895386,-9.4954833984375
1780564662220987000,21.22498681640625,1.6738920211791992,1.7776050567626953,-9.49095344543457
1780564662240513500,21.244513427734375,1.697275996208191,1.7894760370254517,-9.484567642211914
1780564662260040000,21.2640400390625,1.7423369884490967,1.7821940183639526,-9.477766036987305
1780564662279564800,21.283564697265625,1.813599944114685,1.7541309595108032,-9.469629287719727
1780564662299087400,21.30308740234375,1.916003942489624,1.7043980360031128,-9.458538055419922
1780564662318608100,21.322608154296876,2.051888942718506,1.6338859796524048,-9.442466735839844
1780564662338130700,21.342130615234375,2.2136011123657227,1.5440189838409424,-9.421037673950195
1780564662357653000,21.361653076171876,2.2136011123657227,1.5440189838409424,-9.421037673950195
1780564662377174800,21.3811748046875,2.2136011123657227,1.5440189838409424,-9.421037673950195
1780564662396695600,21.400695556640624,2.5623090267181396,1.3312129974365234,-9.364958763122559
1780564662416219000,21.420218994140626,2.7408740520477295,1.2181140184402466,-9.329727172851562
1780564662435745300,21.439745361328125,2.9136369228363037,1.1036200523376465,-9.29154109954834
1780564662455268400,21.459268310546875,3.0726940631866455,0.9895110130310059,-9.253074645996094
1780564662474793000,21.47879296875,3.209929943084717,0.8777499794960022,-9.217694282531738
1780564662494319000,21.498319091796876,3.329457998275757,0.7665749788284302,-9.18515396118164
1780564662513843200,21.51784326171875,3.4291460514068604,0.65829998254776,-9.15683364868164
1780564662533370600,21.53737060546875,3.511277914047241,0.5543619990348816,-9.132556915283203
1780564662552900000,21.556900146484374,3.574544906616211,0.45513999462127686,-9.11347770690918
1780564662572427300,21.57642724609375,3.619157075881958,0.3606730103492737,-9.100089073181152
1780564662591954400,21.595954345703124,3.6528360843658447,0.271355003118515,-9.089728355407715
1780564662611485400,21.6154853515625,3.678256034851074,0.1873980015516281,-9.08159065246582
1780564662631016700,21.6350166015625,3.6979880332946777,0.10891900211572647,-9.074856758117676
1780564662650545700,21.654545654296875,3.7112860679626465,0.03632200136780739,-9.070008277893066
1780564662670075000,21.674074951171875,3.721112012863159,-0.02892100065946579,-9.06600570678711
1780564662689604600,21.6936044921875,3.728076934814453,-0.08499900251626968,-9.06279182434082
1780564662709134600,21.713134521484374,3.7282071113586426,-0.13033999502658844,-9.062200546264648
1780564662728664600,21.73266455078125,3.7174570560455322,-0.16339899599552155,-9.066080093383789
1780564662748198400,21.752198486328126,3.6936628818511963,-0.18358099460601807,-9.075414657592773
1780564662767734000,21.771734130859375,3.655951976776123,-0.19093899428844452,-9.090518951416016
1780564662787263500,21.791263427734375,3.6131720542907715,-0.18619099259376526,-9.107707023620605
1780564662806784800,21.81078466796875,3.5675249099731445,-0.17010100185871124,-9.125997543334961
1780564662826308400,21.830308349609375,3.517853021621704,-0.14236000180244446,-9.145733833312988
1780564662845836500,21.84983642578125,3.4527719020843506,-0.10074499994516373,-9.171052932739258
1780564662865368000,21.8693681640625,3.365238904953003,-0.035829998552799225,-9.204014778137207
1780564662884895500,21.8888955078125,3.2543060779571533,0.055006999522447586,-9.243725776672363
1780564662904418800,21.908418701171875,3.107956886291504,0.17436100542545319,-9.292481422424316
1780564662923943000,21.92794287109375,2.925326108932495,0.3226200044155121,-9.347640037536621
1780564662943467300,21.94746728515625,2.713809013366699,0.4965839982032776,-9.403651237487793
1780564662962995000,21.966994873046875,2.503833055496216,0.686286985874176,-9.449858665466309
1780564662982522000,21.986522216796875,2.3057820796966553,0.8790640234947205,-9.484230041503906
1780564663002049000,22.006049072265625,2.1259520053863525,1.0674970149993896,-9.506879806518555
1780564663021575000,22.025574951171876,1.9738190174102783,1.2459299564361572,-9.517966270446777
1780564663041099500,22.045099609375,1.8541300296783447,1.4099160432815552,-9.519156455993652
1780564663060625000,22.064625,1.7677279710769653,1.5572799444198608,-9.512622833251953
1780564663080151800,22.08415185546875,1.7003979682922363,1.691290020942688,-9.502009391784668
1780564663099682300,22.103682373046876,1.7003979682922363,1.691290020942688,-9.502009391784668
1780564663119210800,22.123210693359376,1.618569016456604,1.9142340421676636,-9.473960876464844
1780564663138738200,22.14273828125,1.618569016456604,1.9142340421676636,-9.473960876464844
1780564663158266600,22.1622666015625,1.5948959589004517,2.00331711769104,-9.459546089172363
1780564663177790700,22.181790771484376,1.5782450437545776,2.0785140991210938,-9.44610595703125
1780564663197312800,22.201312744140626,1.5782450437545776,2.0785140991210938,-9.44610595703125
1780564663216835000,22.2208349609375,1.5546660423278809,2.186508893966675,-9.425613403320312
1780564663236359000,22.24035888671875,1.5455399751663208,2.2209808826446533,-9.419053077697754
1780564663255887600,22.2598876953125,1.5429530143737793,2.2558019161224365,-9.411198616027832
1780564663275415300,22.279415283203125,1.5429530143737793,2.2558019161224365,-9.411198616027832
1780564663294939000,22.29893896484375,1.5612720251083374,2.252898931503296,-9.4088716506958
1780564663314458600,22.318458740234377,1.6558250188827515,2.202644109725952,-9.404605865478516
1780564663333981000,22.33798095703125,1.6558250188827515,2.202644109725952,-9.404605865478516
1780564663353507800,22.3575078125,1.734475016593933,2.1549808979034424,-9.401471138000488
1780564663373034800,22.37703466796875,1.8323719501495361,2.0944299697875977,-9.396583557128906
1780564663392559900,22.396559814453123,1.942399024963379,2.0226500034332275,-9.390206336975098
1780564663412084700,22.416084716796874,2.056162118911743,1.9458719491958618,-9.38220500946045
1780564663431608800,22.43560888671875,2.1712539196014404,1.8657490015029907,-9.372547149658203
1780564663451131000,22.455130859375,2.293294906616211,1.781398057937622,-9.359883308410645
1780564663470652000,22.47465185546875,2.4265151023864746,1.69370698928833,-9.34255599975586
1780564663490175000,22.494175048828126,2.5684969425201416,1.5979260206222534,-9.321451187133789
1780564663509701000,22.513701171875,2.725024938583374,1.4906280040740967,-9.294743537902832
1780564663529227000,22.53322705078125,2.8924989700317383,1.3698760271072388,-9.26266098022461
1780564663548756200,22.552756103515627,3.066077947616577,1.2363560199737549,-9.225540161132812
1780564663568287700,22.572287841796875,3.2282121181488037,1.0938119888305664,-9.188156127929688
1780564663587817500,22.5918173828125,3.3677868843078613,0.9470900297164917,-9.154290199279785
1780564663607343900,22.61134375,3.4833741188049316,0.8041449785232544,-9.124659538269043
1780564663626865000,22.630864990234375,3.5683650970458984,0.672203004360199,-9.10246753692627
1780564663646388500,22.650388427734374,3.615401029586792,0.5590770244598389,-9.091551780700684
1780564663665920500,22.66992041015625,3.6257150173187256,0.4707689881324768,-9.092445373535156
1780564663685450000,22.689449951171873,3.606597900390625,0.4105370044708252,-9.102960586547852
1780564663704977700,22.708977783203125,3.5592238903045654,0.3808079957962036,-9.122878074645996
1780564663724506600,22.728506591796876,3.4875919818878174,0.3776949942111969,-9.150630950927734
1780564663744031200,22.74803125,3.400749921798706,0.3967970013618469,-9.182454109191895
1780564663763551700,22.7675517578125,3.3110620975494385,0.43075600266456604,-9.213648796081543
1780564663783072500,22.787072509765625,3.2288479804992676,0.47228801250457764,-9.240750312805176
1780564663802593500,22.806593505859375,3.1574909687042236,0.5155559778213501,-9.263069152832031
1780564663822115000,22.826114990234377,3.102781057357788,0.5562530159950256,-9.27918815612793
1780564663841638100,22.84563818359375,3.063436985015869,0.5945879817008972,-9.289876937866211
1780564663861161000,22.865160888671873,3.0374090671539307,0.6301789879798889,-9.296074867248535
1780564663880683000,22.88468310546875,3.014082908630371,0.6678019762039185,-9.301039695739746
1780564663900204800,22.904204833984377,2.9828150272369385,0.711080014705658,-9.307909965515137
1780564663919726300,22.923726318359375,2.9828150272369385,0.711080014705658,-9.307909965515137
1780564663958771500,22.962771484375,2.871182918548584,0.829475998878479,-9.333181381225586
1780564663978292700,22.982292724609376,2.675034999847412,1.0014959573745728,-9.374497413635254
1780564663997811000,23.00181103515625,2.675034999847412,1.0014959573745728,-9.374497413635254
1780564664017333200,23.021333251953124,2.675034999847412,1.0014959573745728,-9.374497413635254
1780564664036856300,23.040856201171874,2.427187919616699,1.2166739702224731,-9.416393280029297
1780564664056376800,23.060376953125,2.2984941005706787,1.3324830532073975,-9.432995796203613
1780564664075903200,23.0799033203125,2.175523042678833,1.4473739862442017,-9.445220947265625
1780564664095430000,23.099429931640625,2.060621976852417,1.5575499534606934,-9.453457832336426
1780564664114953200,23.118953125,1.9579119682312012,1.6616790294647217,-9.457558631896973
1780564664134480000,23.13847998046875,1.863495945930481,1.7578530311584473,-9.459246635437012
1780564664154007000,23.158007080078125,1.7790470123291016,1.8450980186462402,-9.458890914916992
1780564664173535200,23.17753515625,1.7059379816055298,1.9239319562911987,-9.45665168762207
1780564664193066800,23.197066650390624,1.6514300107955933,1.9938169717788696,-9.451849937438965
1780564664212595000,23.216594970703124,1.6169610023498535,2.0540659427642822,-9.444906234741211
1780564664232119800,23.236119873046874,1.6046240329742432,2.1012299060821533,-9.436631202697754
1780564664251646000,23.25564599609375,1.6252490282058716,2.1327569484710693,-9.42602252960205
1780564664271175200,23.275175048828125,1.6795580387115479,2.1447949409484863,-9.413763046264648
1780564664290705700,23.29470556640625,1.7674540281295776,2.1353440284729004,-9.399808883666992
1780564664310233000,23.314233154296875,1.8807770013809204,2.1049959659576416,-9.384650230407715
1780564664329753300,23.33375341796875,2.015036106109619,2.0555999279022217,-9.367718696594238
1780564664349274000,23.353274169921875,2.1629080772399902,1.9926329851150513,-9.34832763671875
1780564664368800000,23.372800048828125,2.308922052383423,1.9229270219802856,-9.327980995178223
1780564664388328400,23.392328369140625,2.4445269107818604,1.855417013168335,-9.307080268859863
1780564664407856000,23.411856201171876,2.56626296043396,1.795788049697876,-9.285981178283691
1780564664427382300,23.43138232421875,2.6726529598236084,1.7473750114440918,-9.265181541442871
1780564664446907600,23.45090771484375,2.765639066696167,1.7109960317611694,-9.244659423828125
1780564664466430000,23.470429931640624,2.8491320610046387,1.684414029121399,-9.224163055419922
1780564664485951700,23.48995166015625,2.929145097732544,1.6640559434890747,-9.20277214050293
1780564664505473300,23.509473388671875,3.014193058013916,1.6446950435638428,-9.178759574890137
1780564664524995600,23.52899560546875,3.1097819805145264,1.6201510429382324,-9.15119457244873
1780564664544519000,23.548518798828123,3.2161331176757812,1.5875869989395142,-9.120089530944824
1780564664564044500,23.56804443359375,3.3280370235443115,1.5449379682540894,-9.087206840515137
1780564664583574300,23.58757421875,3.441972017288208,1.4935890436172485,-9.053288459777832
1780564664603103000,23.60710302734375,3.5400209426879883,1.4367799758911133,-9.024627685546875
1780564664622631000,23.626630859375,3.617928981781006,1.3784509897232056,-9.002802848815918
1780564664642158000,23.646157958984375,3.664057970046997,1.3262189626693726,-8.991985321044922
1780564664661678300,23.66567822265625,3.6779959201812744,1.2847859859466553,-8.99231243133545
1780564664681197600,23.685197509765626,3.664128065109253,1.2573469877243042,-9.001846313476562
1780564664700722200,23.70472216796875,3.6242051124572754,1.2438340187072754,-9.019867897033691
1780564664720248800,23.724248779296875,3.5755560398101807,1.242285966873169,-9.039475440979004
1780564664739776300,23.7437763671875,3.5755560398101807,1.242285966873169,-9.039475440979004
1780564664759301400,23.76330126953125,3.520364999771118,1.2502069473266602,-9.060022354125977
1780564664778826500,23.782826416015624,3.402582883834839,1.2827119827270508,-9.100388526916504
1780564664798354000,23.80235400390625,3.3331658840179443,1.302839994430542,-9.123190879821777
1780564664817883600,23.821883544921874,3.2561559677124023,1.325613021850586,-9.147687911987305
1780564664837408800,23.84140869140625,3.2561559677124023,1.325613021850586,-9.147687911987305
1780564664856932600,23.8609326171875,3.2561559677124023,1.325613021850586,-9.147687911987305
1780564664876460300,23.880460205078126,3.0576319694519043,1.3830540180206299,-9.207500457763672
1780564664895987200,23.8999873046875,2.9350900650024414,1.4183659553527832,-9.241942405700684
1780564664915513300,23.919513427734376,2.799712896347046,1.457139015197754,-9.277841567993164
1780564664935034600,23.93903466796875,2.6536290645599365,1.499899983406067,-9.31389045715332
1780564664954558200,23.95855810546875,2.4981749057769775,1.5448600053787231,-9.349466323852539
1780564664974082000,23.97808203125,2.3409879207611084,1.590114951133728,-9.382499694824219
1780564664993605000,23.997605224609377,2.188823938369751,1.6341259479522705,-9.41162395477295
1780564665013132800,24.0171328125,2.0471010208129883,1.6756969690322876,-9.436176300048828
1780564665032659500,24.036659423828127,1.919877052307129,1.7132619619369507,-9.456151008605957
1780564665052182300,24.056182373046877,1.8095959424972534,1.7467999458312988,-9.471750259399414
1780564665071703800,24.075703857421875,1.7152459621429443,1.7781339883804321,-9.483469009399414
1780564665091228000,24.095227783203125,1.6310980319976807,1.8088710308074951,-9.4924955368042
1780564665110759200,24.11475927734375,1.5475449562072754,1.841871976852417,-9.500137329101562
1780564665130292000,24.1342919921875,1.4601409435272217,1.8785059452056885,-9.506797790527344
1780564665149822500,24.153822509765625,1.3669209480285645,1.9199949502944946,-9.512368202209473
1780564665169351200,24.17335107421875,1.2684329748153687,1.9655489921569824,-9.516706466674805
1780564665188881400,24.19288134765625,1.1684759855270386,2.012458086013794,-9.519698143005371
1780564665208410600,24.21241064453125,1.0810489654541016,2.0576109886169434,-9.520376205444336
1780564665227937500,24.2319375,1.0129159688949585,2.096147060394287,-9.519461631774902
1780564665247465000,24.25146484375,0.976377010345459,2.124366044998169,-9.517024040222168
1780564665266994400,24.270994384765626,0.9745889902114868,2.1375370025634766,-9.51425838470459
1780564665286522000,24.290522216796877,1.0092250108718872,2.1358768939971924,-9.511018753051758
1780564665306049500,24.310049560546876,1.0778189897537231,2.120313882827759,-9.506975173950195
1780564665325572600,24.329572509765626,1.1681749820709229,2.0940840244293213,-9.502115249633789
1780564665345095200,24.34909521484375,1.2748570442199707,2.0631089210510254,-9.495173454284668
1780564665364620000,24.3686201171875,1.3866610527038574,2.0321249961853027,-9.486181259155273
1780564665384142800,24.388142822265625,1.499811053276062,2.00673508644104,-9.474364280700684
1780564665403664000,24.407663818359374,1.612252950668335,1.9890910387039185,-9.459607124328613
1780564665423188200,24.427188232421877,1.724871039390564,1.9791380167007446,-9.441813468933105
1780564665442716400,24.44671630859375,1.8434460163116455,1.9753700494766235,-9.420169830322266
1780564665462244000,24.466244140625,1.9698469638824463,1.974661946296692,-9.394700050354004
1780564665481771500,24.485771484375,2.1063010692596436,1.9745899438858032,-9.365066528320312
1780564665501300000,24.505300048828126,2.256118059158325,1.9743759632110596,-9.330154418945312
1780564665520829400,24.524829345703125,2.417171001434326,1.9706920385360718,-9.290513038635254
1780564665540356400,24.5443564453125,2.586388111114502,1.962494969367981,-9.246578216552734
1780564665559881700,24.5638818359375,2.586388111114502,1.962494969367981,-9.246578216552734
1780564665579408600,24.58340869140625,2.7528040409088135,1.9489450454711914,-9.201287269592285
1780564665598936800,24.602936767578125,3.041433095932007,1.90842604637146,-9.1185302734375
1780564665618465000,24.622465087890625,3.1504859924316406,1.8830599784851074,-9.086722373962402
1780564665637992400,24.641992431640624,3.230462074279785,1.8553199768066406,-9.06432056427002
1780564665657516800,24.661516845703126,3.230462074279785,1.8553199768066406,-9.06432056427002
1780564665677039600,24.68103955078125,3.230462074279785,1.8553199768066406,-9.06432056427002
1780564665696558000,24.70055810546875,3.295991897583008,1.79591703414917,-9.052684783935547
1780564665716080600,24.72008056640625,3.291198968887329,1.7663609981536865,-9.06024169921875
1780564665735606800,24.739606689453126,3.2650699615478516,1.7392430305480957,-9.074929237365723
1780564665755126800,24.759126708984375,3.2214949131011963,1.7176400423049927,-9.094595909118652
1780564665774641700,24.7786416015625,3.162946939468384,1.7041380405426025,-9.117656707763672
1780564665794158800,24.798158935546876,3.0953919887542725,1.700692057609558,-9.141454696655273
1780564665813679600,24.8176796875,3.015933036804199,1.70927095413208,-9.166380882263184
1780564665833199600,24.83719970703125,2.9294869899749756,1.7302969694137573,-9.19044017791748
1780564665852720600,24.856720703125,2.8338770866394043,1.7624579668045044,-9.214276313781738
1780564665872246800,24.876246826171876,2.7289249897003174,1.8036140203475952,-9.23796272277832
1780564665891777300,24.89577734375,2.7289249897003174,1.8036140203475952,-9.23796272277832
1780564665930845700,24.934845703125,2.372499942779541,1.9507780075073242,-9.306218147277832
1780564665950376400,24.95437646484375,2.2476329803466797,2.001410961151123,-9.326440811157227
1780564665969907500,24.973907470703125,2.123990058898926,2.0499320030212402,-9.344861030578613
1780564665989440000,24.99343994140625,2.00433611869812,2.095151901245117,-9.361248970031738
1780564666008968700,25.01296875,1.890241026878357,2.1378939151763916,-9.375307083129883
1780564666028497000,25.032496826171876,1.7855470180511475,2.1782820224761963,-9.386527061462402
1780564666048031000,25.052031005859376,1.6907570362091064,2.215683937072754,-9.395322799682617
1780564666067563300,25.071563232421877,1.6056870222091675,2.249919891357422,-9.402107238769531
1780564666087091200,25.09109130859375,1.5296519994735718,2.2821860313415527,-9.407007217407227
1780564666106622500,25.11062255859375,1.4590959548950195,2.311566114425659,-9.411041259765625
1780564666126154200,25.130154296875,1.3859169483184814,2.3401811122894287,-9.415029525756836
1780564666145685800,25.149685791015624,1.3081769943237305,2.3685390949249268,-9.419059753417969
1780564666165219600,25.169219482421877,1.2261240482330322,2.398435115814209,-9.42253303527832
1780564666184753000,25.1887529296875,1.1399589776992798,2.4318430423736572,-9.424788475036621
1780564666204284000,25.208283935546874,1.0498110055923462,2.467587947845459,-9.425969123840332
1780564666223817500,25.2278173828125,0.9598119854927063,2.507524013519287,-9.425024032592773
1780564666243350000,25.24735009765625,0.8797720074653625,2.550112009048462,-9.421407699584961
1780564666262882000,25.266882080078126,0.8186569809913635,2.5923779010772705,-9.41537857055664
1780564666282418000,25.28641796875,0.7828850150108337,2.6295289993286133,-9.408116340637207
1780564666301948400,25.305948486328123,0.7821490168571472,2.656601905822754,-9.400568962097168
1780564666321474300,25.325474365234374,0.8216450214385986,2.671694040298462,-9.392919540405273
1780564666341001700,25.345001708984373,0.9028369784355164,2.671142101287842,-9.385621070861816
1780564666360528400,25.3645283203125,1.0230979919433594,2.6547679901123047,-9.377924919128418
1780564666380058400,25.384058349609376,1.17044198513031,2.6253600120544434,-9.368966102600098
1780564666399585800,25.403585693359375,1.17044198513031,2.6253600120544434,-9.368966102600098
1780564666419110100,25.423110107421873,1.502729058265686,2.5476019382476807,-9.342994689941406
1780564666438639600,25.4426396484375,1.6728140115737915,2.5058720111846924,-9.325358390808105
1780564666458172700,25.462172607421873,1.8417550325393677,2.4681599140167236,-9.30355453491211
1780564666477706200,25.481706298828126,1.8417550325393677,2.4681599140167236,-9.30355453491211
1780564666497235500,25.5012353515625,1.8417550325393677,2.4681599140167236,-9.30355453491211
1780564666516761900,25.520761962890624,2.1724040508270264,2.408397912979126,-9.247716903686523
1780564666536291300,25.540291259765624,2.333688974380493,2.3824660778045654,-9.215082168579102
1780564666555818000,25.55981787109375,2.484070062637329,2.3583109378814697,-9.181924819946289
1780564666575340800,25.5793408203125,2.623241901397705,2.334049940109253,-9.149359703063965
1780564666594869000,25.598868896484376,2.7486939430236816,2.3071091175079346,-9.119315147399902
