time,seconds_elapsed,z,y,x
1780565036240384500,0.067384521484375,0.41926100850105286,1.9304829835891724,4.884667873382568
1780565036788848600,0.6158486328125,-2.0796220302581787,-1.3867249488830566,-3.6750309467315674
1780565036798604000,0.62560400390625,-3.583307981491089,-1.2322529554367065,-5.572443008422852
1780565036818119200,0.645119140625,-3.510899066925049,-1.0967470407485962,-5.701484203338623
1780565036837635800,0.6646357421875,-3.3609659671783447,-1.2612359523773193,-5.802999019622803
1780565036857152800,0.68415283203125,-3.201443910598755,-1.4692870378494263,-5.75306510925293
1780565036876674000,0.703674072265625,-3.087536096572876,-1.6443450450897217,-5.5110697746276855
1780565036896196000,0.723196044921875,-3.019840955734253,-1.7756329774856567,-5.136311054229736
1780565036915714600,0.742714599609375,-2.999566078186035,-1.8135110139846802,-4.791041851043701
1780565036935234300,0.762234375,-3.0802760124206543,-1.8610670566558838,-4.560536861419678
1780565036954751700,0.781751708984375,-3.105401039123535,-1.8676320314407349,-4.402987957000732
1780565036974261800,0.80126171875,-3.065692901611328,-1.7969859838485718,-4.184591770172119
1780565036993775000,0.820775146484375,-2.975860118865967,-1.7642199993133545,-3.832828998565674
1780565037013294800,0.840294921875,-2.776794910430908,-1.7582600116729736,-3.472001075744629
1780565037032817200,0.859817138671875,-2.6038670539855957,-1.7152830362319946,-3.2231740951538086
1780565037052339500,0.87933935546875,-2.4939639568328857,-1.6825939416885376,-3.0621840953826904
1780565037071862000,0.898862060546875,-2.368088960647583,-1.5749069452285767,-2.9409749507904053
1780565037091380700,0.918380615234375,-2.2033400535583496,-1.366232991218567,-2.732532024383545
1780565037110899200,0.937899169921875,-2.0229060649871826,-1.1376539468765259,-2.40462589263916
1780565037130418400,0.95741845703125,-1.9191279411315918,-0.8239139914512634,-2.0490200519561768
1780565037149933800,0.976933837890625,-1.964053988456726,-0.5331889986991882,-1.7316269874572754
1780565037169451000,0.996450927734375,-2.1116669178009033,-0.2903229892253876,-1.455245018005371
1780565037188972500,1.01597265625,-2.289046049118042,-0.10140900313854218,-1.2233320474624634
1780565037208493600,1.03549365234375,-2.448046922683716,0.03751299902796745,-1.045943021774292
1780565037228015400,1.055015380859375,-2.5136210918426514,0.15461599826812744,-0.8888260126113892
1780565037247534800,1.074534912109375,-2.488158941268921,0.27116701006889343,-0.7619220018386841
1780565037267047700,1.094047607421875,-2.4003748893737793,0.3998660147190094,-0.6603890061378479
1780565037286567400,1.1135673828125,-2.310112953186035,0.49027401208877563,-0.5156880021095276
1780565037306093000,1.133093017578125,-2.1888039112091064,0.5754680037498474,-0.36827799677848816
1780565037325612500,1.152612548828125,-2.0198988914489746,0.6930670142173767,-0.18131700158119202
1780565037345130800,1.172130859375,-1.866562008857727,0.7836790084838867,-0.008177000097930431
1780565037364649500,1.1916494140625,-1.6938329935073853,0.9080010056495667,0.04129999876022339
1780565037384164600,1.21116455078125,-1.6938329935073853,0.9080010056495667,0.04129999876022339
1780565037403680500,1.230680419921875,-1.5753229856491089,1.073315978050232,-0.21648800373077393
1780565037423198700,1.25019873046875,-1.5915659666061401,1.0898510217666626,-0.3418880105018616
1780565037442721800,1.2697216796875,-1.5915659666061401,1.0898510217666626,-0.3418880105018616
1780565037462244900,1.289244873046875,-1.5946509838104248,0.9666889905929565,-0.47030800580978394
1780565037481763600,1.308763671875,-1.5946509838104248,0.9666889905929565,-0.47030800580978394
1780565037501285400,1.328285400390625,-1.373579978942871,0.7611989974975586,-0.5355139970779419
1780565037520808000,1.347807861328125,-1.373579978942871,0.7611989974975586,-0.5355139970779419
1780565037540326400,1.367326416015625,-1.373579978942871,0.7611989974975586,-0.5355139970779419
1780565037559844000,1.386843994140625,-0.8508899807929993,0.4752559959888458,-0.4201900064945221
1780565037579364400,1.4063642578125,-0.789696991443634,0.37488600611686707,-0.3852989971637726
1780565037598884000,1.425884033203125,-0.7457519769668579,0.3078399896621704,-0.33314499258995056
1780565037618405000,1.445405029296875,-0.6682360172271729,0.22279299795627594,-0.24377800524234772
1780565037637929500,1.464929443359375,-0.539650022983551,0.17666800320148468,-0.17931799590587616
1780565037657451800,1.48445166015625,-0.4567610025405884,0.11849399656057358,-0.18996800482273102
1780565037676969200,1.50396923828125,-0.439983993768692,0.011890999972820282,-0.22024300694465637
1780565037696486100,1.523486083984375,-0.4465549886226654,-0.14138400554656982,-0.2415580004453659
1780565037716008400,1.543008544921875,-0.440885990858078,-0.300119012594223,-0.24226699769496918
1780565037735532000,1.562531982421875,-0.3661380112171173,-0.46237799525260925,-0.2778150141239166
1780565037755052500,1.582052490234375,-0.21589800715446472,-0.5772460103034973,-0.4078010022640228
1780565037774573300,1.6015732421875,-0.06012599915266037,-0.6391569972038269,-0.6070650219917297
1780565037794097200,1.62109716796875,0.07668499648571014,-0.6654559969902039,-0.8309199810028076
1780565037813618200,1.6406181640625,0.11494699865579605,-0.6031429767608643,-1.0172120332717896
1780565037833138400,1.660138427734375,-0.03705599904060364,-0.5039860010147095,-1.1116880178451538
1780565037852662500,1.67966259765625,-0.26997700333595276,-0.38174399733543396,-1.0699989795684814
1780565037872184000,1.69918408203125,-0.5153520107269287,-0.2571040093898773,-0.9313780069351196
1780565037891708700,1.718708740234375,-0.6818079948425293,-0.1882449984550476,-0.684939980506897
1780565037911234300,1.738234375,-0.7770460247993469,-0.19146400690078735,-0.3835810124874115
1780565037930755600,1.757755615234375,-0.8080949783325195,-0.25352999567985535,-0.0938740000128746
1780565037950278700,1.777278564453125,-0.819096028804779,-0.3415359854698181,0.14640599489212036
1780565037969799400,1.79679931640625,-0.8234909772872925,-0.4448480010032654,0.2605850100517273
1780565037989319700,1.816319580078125,-0.6874189972877502,-0.49961400032043457,0.26447901129722595
1780565038008839700,1.835839599609375,-0.5830450057983398,-0.4890289902687073,0.20927199721336365
1780565038028360200,1.855360107421875,-0.5248460173606873,-0.43575701117515564,0.13090400397777557
1780565038047882200,1.87488232421875,-0.573203980922699,-0.3180460035800934,0.11191000044345856
1780565038067399400,1.8943994140625,-0.7688239812850952,-0.17922799289226532,0.15734800696372986
1780565038086913300,1.913913330078125,-0.9723299741744995,-0.06369300186634064,0.23501800000667572
1780565038106431700,1.933431640625,-1.1432640552520752,-0.009007999673485756,0.3753040134906769
1780565038125960000,1.9529599609375,-1.2030739784240723,-0.03734799847006798,0.5407009720802307
1780565038145485000,1.972485107421875,-1.1324219703674316,-0.11952800303697586,0.7293570041656494
1780565038165010200,1.99201025390625,-1.0074169635772705,-0.2643660008907318,0.9225209951400757
1780565038184536600,2.01153662109375,-1.0074169635772705,-0.2643660008907318,0.9225209951400757
1780565038204059100,2.03105908203125,-0.7462999820709229,-0.5627670288085938,1.0219730138778687
1780565038223586000,2.0505859375,-0.6558160185813904,-0.5932649970054626,0.9432680010795593
1780565038243107000,2.070107177734375,-0.6558160185813904,-0.5932649970054626,0.9432680010795593
1780565038262623200,2.089623291015625,-0.4060080051422119,-0.30441999435424805,0.8392279744148254
1780565038282144000,2.10914404296875,-0.3124679923057556,-0.05819199979305267,0.956233024597168
1780565038301665800,2.128665771484375,-0.3124679923057556,-0.05819199979305267,0.956233024597168
1780565038321187600,2.1481875,-0.5792710185050964,0.3718869984149933,1.1312190294265747
1780565038340704500,2.16770458984375,-0.5792710185050964,0.3718869984149933,1.1312190294265747
1780565038360220200,2.18722021484375,-0.5792710185050964,0.3718869984149933,1.1312190294265747
1780565038379738400,2.20673828125,-0.40313100814819336,0.6653509736061096,0.2839590013027191
1780565038399260200,2.22626025390625,-0.40313100814819336,0.6653509736061096,0.2839590013027191
1780565038418786000,2.2457861328125,0.34526199102401733,0.2919839918613434,2.2822771072387695
1780565038438307600,2.2653076171875,0.440654993057251,0.039009999483823776,2.4219319820404053
1780565038457825500,2.284825439453125,0.27348899841308594,-0.11951900273561478,2.3613429069519043
1780565038477345500,2.304345458984375,0.021911999210715294,-0.21872000396251678,2.0260820388793945
1780565038496867000,2.3238671875,-0.10613200068473816,-0.2617950141429901,1.6256569623947144
1780565038516388900,2.343388916015625,-0.06038900092244148,-0.2676439881324768,1.4082080125808716
1780565038535909600,2.36290966796875,0.07837600260972977,-0.25464001297950745,1.4085090160369873
1780565038555428900,2.382428955078125,0.18742099404335022,-0.14708900451660156,1.5002820491790771
1780565038574949400,2.401949462890625,0.1572680026292801,-0.007826000452041626,1.563891053199768
1780565038594471400,2.421471435546875,-0.015870999544858932,0.13908199965953827,1.5508049726486206
1780565038613985500,2.440985595703125,-0.11730299890041351,0.2733660042285919,1.4295649528503418
1780565038633495300,2.460495361328125,-0.11826299875974655,0.40088900923728943,1.1920210123062134
1780565038653006600,2.480006591796875,-0.06123200058937073,0.49111101031303406,0.8483970165252686
1780565038672522200,2.499522216796875,0.05114800110459328,0.5926849842071533,0.47594600915908813
1780565038692040200,2.519040283203125,0.1276089996099472,0.725383996963501,0.19081300497055054
1780565038711561700,2.538561767578125,0.1129549965262413,0.8496140241622925,-0.008208000101149082
1780565038731082000,2.55808203125,0.04353100061416626,1.0433440208435059,-0.1693210005760193
1780565038750600700,2.5776005859375,-0.0346359983086586,1.2766820192337036,-0.38554200530052185
1780565038770120000,2.597119873046875,-0.10645200312137604,1.463860034942627,-0.6438779830932617
1780565038789635000,2.616635009765625,-0.07308399677276611,1.5392580032348633,-0.8264170289039612
1780565038809154000,2.636154052734375,0.08586200326681137,1.5179530382156372,-0.9071109890937805
1780565038828673300,2.65567333984375,0.30483299493789673,1.4729750156402588,-0.9192039966583252
1780565038848191200,2.675191162109375,0.5029979944229126,1.3919479846954346,-0.9451540112495422
1780565038867713500,2.694713623046875,0.5558239817619324,1.3067909479141235,-1.0547939538955688
1780565038887239400,2.714239501953125,0.5463320016860962,1.2376949787139893,-1.2232990264892578
1780565038906762000,2.733761962890625,0.5882419943809509,1.1198010444641113,-1.3446969985961914
1780565038926279400,2.753279541015625,0.7097799777984619,1.03622305393219,-1.4147499799728394
1780565038945795600,2.772795654296875,0.834326982498169,0.967519998550415,-1.4193179607391357
1780565038965312500,2.7923125,0.8390970230102539,0.8525580167770386,-1.3676730394363403
1780565038984832000,2.81183203125,0.8390970230102539,0.8525580167770386,-1.3676730394363403
1780565039004354600,2.8313544921875,0.6454039812088013,0.5948460102081299,-1.1921160221099854
1780565039023878100,2.850878173828125,0.6570879817008972,0.43422600626945496,-1.089136004447937
1780565039043398100,2.870398193359375,0.7008619904518127,0.30495598912239075,-0.9680659770965576
1780565039062915800,2.889915771484375,0.7008619904518127,0.30495598912239075,-0.9680659770965576
1780565039082436400,2.909436279296875,0.45472800731658936,0.055059000849723816,-0.7931609749794006
1780565039101957000,2.92895703125,0.2421489953994751,0.03917599841952324,-0.6383939981460571
1780565039121475000,2.94847509765625,0.2421489953994751,0.03917599841952324,-0.6383939981460571
1780565039140993300,2.9679931640625,-0.09202799946069717,0.0019499999471008778,-0.44007501006126404
1780565039160514800,2.987514892578125,-0.09202799946069717,0.0019499999471008778,-0.44007501006126404
1780565039180035800,3.007035888671875,-0.14959099888801575,-0.3834030032157898,-0.6103399991989136
1780565039199554600,3.026554443359375,-0.11237800121307373,-0.7968400120735168,-0.8361279964447021
1780565039219076400,3.046076416015625,0.062417998909950256,-1.1740039587020874,-1.117148995399475
1780565039238601200,3.065601318359375,0.3773219883441925,-1.613440990447998,-1.3967839479446411
1780565039258127000,3.085127197265625,0.6887120008468628,-2.0116219520568848,-1.5711760520935059
1780565039277651500,3.1046513671875,1.0323530435562134,-2.3643929958343506,-1.5996819734573364
1780565039297168000,3.12416796875,1.258741021156311,-2.8378190994262695,-1.5650299787521362
1780565039316683300,3.143683349609375,1.3458119630813599,-3.334878921508789,-1.514577031135559
1780565039336199400,3.163199462890625,1.5086820125579834,-5.001392841339111,-1.4668289422988892
1780565039355715600,3.182715576171875,1.7759159803390503,-5.223245143890381,-1.478687047958374
1780565039375232000,3.20223193359375,2.087636947631836,-5.634871959686279,-1.4339159727096558
1780565039394747400,3.221747314453125,2.387118101119995,-7.161509037017822,-1.2599409818649292
1780565039414261500,3.241261474609375,2.5702290534973145,-7.252748966217041,-1.0736069679260254
1780565039433776400,3.2607763671875,2.6383280754089355,-7.459842205047607,-0.8267329931259155
1780565039453294600,3.280294677734375,2.5741870403289795,-7.676382064819336,-0.5083209872245789
1780565039472814800,3.29981494140625,2.447058916091919,-7.845822811126709,-0.1856819987297058
1780565039492333000,3.3193330078125,2.2635600566864014,-7.93662691116333,0.103814996778965
1780565039511850200,3.338850341796875,2.112346887588501,-7.897343158721924,0.3891569972038269
1780565039531369200,3.358369140625,2.065264940261841,-7.720832824707031,0.7553349733352661
1780565039550887400,3.377887451171875,1.9217469692230225,-7.577355861663818,1.248231053352356
1780565039570403300,3.3974033203125,1.6598470211029053,-7.4671478271484375,1.807695984840393
1780565039589918500,3.41691845703125,1.3318049907684326,-7.450462818145752,2.400763988494873
1780565039609436200,3.436436279296875,1.1843940019607544,-7.407351970672607,3.0203120708465576
1780565039628955600,3.45595556640625,1.2192180156707764,-7.183304786682129,4.419239044189453
1780565039648472000,3.47547216796875,1.218261957168579,-6.849796772003174,4.749320983886719
1780565039667991000,3.494990966796875,1.0354880094528198,-6.383135795593262,5.192132949829102
1780565039687510300,3.51451025390625,0.6426489949226379,-5.816917896270752,5.54810094833374
1780565039707020800,3.534020751953125,0.24229000508785248,-5.210101127624512,5.809807777404785
1780565039726531800,3.55353173828125,-0.003702000016346574,-4.526803970336914,6.0014190673828125
1780565039746047700,3.5730478515625,-0.1077520027756691,-3.802623987197876,6.1089348793029785
1780565039765561900,3.592561767578125,-0.1818459928035736,-3.0672988891601562,6.221290111541748
1780565039785076200,3.612076171875,-0.2680259943008423,-2.3609180450439453,6.308760166168213
1780565039804593400,3.631593505859375,-0.34203198552131653,-1.6231820583343506,6.412318229675293
1780565039824109800,3.65110986328125,-0.45177000761032104,-0.8736860156059265,6.546164035797119
1780565039843627500,3.67062744140625,-0.6137199997901917,-0.2052229940891266,6.666451930999756
1780565039863142100,3.69014208984375,-0.6137199997901917,-0.2052229940891266,6.666451930999756
1780565039882654500,3.709654541015625,-0.8530930280685425,0.8462589979171753,6.931644916534424
1780565039902169300,3.72916943359375,-1.054555058479309,1.7384779453277588,6.652997016906738
1780565039921685800,3.748685791015625,-1.054555058479309,1.7384779453277588,6.652997016906738
1780565039941203200,3.768203125,-1.515599012374878,2.829679012298584,6.574923992156982
1780565039960722700,3.78772265625,-1.515599012374878,2.829679012298584,6.574923992156982
1780565039980240100,3.807240234375,-1.515599012374878,2.829679012298584,6.574923992156982
1780565039999755300,3.82675537109375,-1.3264009952545166,3.3822720050811768,6.197600841522217
1780565040019270100,3.846270263671875,-1.1662590503692627,3.3607189655303955,5.912144184112549
1780565040038783000,3.865782958984375,-1.173143982887268,3.2752859592437744,5.659667015075684
1780565040058298000,3.885298095703125,-1.2795130014419556,3.1117169857025146,5.336053848266602
1780565040077814500,3.904814453125,-1.362022042274475,2.8975958824157715,4.935690879821777
1780565040097331500,3.92433154296875,-1.3097269535064697,2.7583649158477783,4.496750831604004
1780565040116850000,3.943849853515625,-1.1495670080184937,2.6150760650634766,3.993140935897827
1780565040136367900,3.963367919921875,-1.0695250034332275,2.408384084701538,3.490726947784424
1780565040155884300,3.98288427734375,-1.046929955482483,2.252501964569092,2.9193410873413086
1780565040175403000,4.002403076171875,-1.112043023109436,2.2103209495544434,2.258389949798584
1780565040194923300,4.02192333984375,-1.279397964477539,2.0953710079193115,1.5843000411987305
1780565040214440200,4.041440185546875,-1.5120580196380615,1.8030019998550415,0.8588910102844238
1780565040233953800,4.060953857421875,-1.5588749647140503,1.6606299877166748,0.00820900034159422
1780565040253468700,4.08046875,-1.4868299961090088,1.5823049545288086,-1.6981970071792603
1780565040272982500,4.099982421875,-1.4841400384902954,1.1818619966506958,-2.2515358924865723
1780565040292496100,4.11949609375,-1.354910969734192,0.8874760270118713,-4.064950942993164
1780565040312014300,4.139014404296875,-1.1570039987564087,0.6991320252418518,-4.590846061706543
1780565040331536400,4.158536376953125,-1.0915600061416626,0.7548159956932068,-5.160729885101318
1780565040351059700,4.178059814453125,-0.9858670234680176,1.0071719884872437,-6.8527631759643555
1780565040370581500,4.19758154296875,-0.98089998960495,1.2858259677886963,-6.981162071228027
1780565040390104600,4.2171044921875,-1.0774400234222412,1.8411630392074585,-7.3295698165893555
1780565040409628700,4.236628662109375,-1.139449954032898,2.2063028812408447,-8.61633014678955
1780565040429150000,4.25614990234375,-1.2051149606704712,3.67311692237854,-8.710556030273438
1780565040448670000,4.275669921875,-1.3505209684371948,5.164416790008545,-9.92516803741455
1780565040468192300,4.295192138671875,-1.609171986579895,5.105382919311523,-9.762443542480469
1780565040487715300,4.31471533203125,-1.8387730121612549,5.220585823059082,-10.859750747680664
1780565040507236000,4.334236083984375,-1.8736059665679932,6.730831146240234,-10.648026466369629
1780565040526754300,4.35375439453125,-1.7099499702453613,7.056808948516846,-10.219310760498047
1780565040546272800,4.373272705078125,-1.629757046699524,8.417502403259277,-9.581310272216797
1780565040565786400,4.392786376953125,-1.798949956893921,9.934958457946777,-8.828852653503418
1780565040585296600,4.412296630859375,-1.798949956893921,9.934958457946777,-8.828852653503418
1780565040604813800,4.431813720703125,-3.552488088607788,9.917722702026367,-6.971374034881592
1780565040624333300,4.451333251953125,-3.5925800800323486,9.68484115600586,-5.919246196746826
1780565040643850800,4.470850830078125,-3.3542261123657227,9.123497009277344,-4.115642070770264
1780565040663369200,4.490369140625,-2.8297200202941895,8.301244735717773,-3.630825996398926
1780565040682889200,4.50988916015625,-2.8297200202941895,8.301244735717773,-3.630825996398926
1780565040702406400,4.529406494140625,-1.2698869705200195,6.398651123046875,-2.874746084213257
1780565040721922000,4.548922119140625,-0.7176439762115479,5.6538310050964355,-2.5422139167785645
1780565040741441500,4.568441650390625,-0.7176439762115479,5.6538310050964355,-2.5422139167785645
1780565040760962600,4.587962646484375,-0.40380600094795227,4.752400875091553,-1.4633079767227173
1780565040780481000,4.60748095703125,-0.5964969992637634,4.6003899574279785,-0.9232169985771179
1780565040800001300,4.627001220703125,-0.5964969992637634,4.6003899574279785,-0.9232169985771179
1780565040819522300,4.646522216796875,-1.4202359914779663,4.617483139038086,-0.15643300116062164
1780565040839041800,4.666041748046875,-1.6233439445495605,4.527980804443359,0.11293599754571915
1780565040858558700,4.685558837890625,-1.7640739679336548,4.459880828857422,0.3299050033092499
1780565040878073300,4.7050732421875,-1.8231650590896606,4.312570095062256,0.5215479731559753
1780565040897590000,4.724590087890625,-1.7163339853286743,4.130105972290039,0.6009699702262878
1780565040917110500,4.744110595703125,-1.6268069744110107,3.961738109588623,0.6038500070571899
1780565040936632600,4.763632568359375,-1.5685919523239136,3.8346309661865234,0.638700008392334
1780565040956151800,4.78315185546875,-1.5678720474243164,3.8445019721984863,0.7259899973869324
1780565040975669500,4.80266943359375,-1.744310975074768,3.895447015762329,0.8583639860153198
1780565040995188500,4.8221884765625,-1.9854270219802856,3.859013080596924,1.0081310272216797
1780565041014709800,4.841709716796875,-2.092703104019165,3.7087318897247314,1.1566740274429321
1780565041034227200,4.861227294921875,-1.951653003692627,3.4172379970550537,1.2931220531463623
1780565041053741600,4.880741455078125,-1.6646380424499512,3.052367925643921,1.4175130128860474
1780565041073258200,4.90025830078125,-1.4284210205078125,2.622715950012207,1.5310490131378174
1780565041092775000,4.91977490234375,-1.2779250144958496,2.186115026473999,1.5645869970321655
1780565041112292400,4.939292236328125,-1.2252990007400513,1.8344000577926636,1.4637629985809326
1780565041131811800,4.958811767578125,-1.1183170080184937,1.4640469551086426,1.2473939657211304
1780565041151328000,4.978327880859375,-0.8289390206336975,1.1599750518798828,0.9435160160064697
1780565041170841900,4.997841796875,-0.3591560125350952,0.8623030185699463,0.6075189709663391
1780565041190356500,5.0173564453125,0.2013069987297058,0.5700579881668091,0.3157080113887787
1780565041209873200,5.036873046875,0.6376910209655762,0.356564998626709,0.047168001532554626
1780565041229393400,5.056393310546875,0.7780119776725769,0.1045679971575737,-0.19024500250816345
1780565041248908500,5.075908447265625,0.6653159856796265,-0.22547300159931183,-0.35553500056266785
1780565041268421600,5.095421630859375,0.49500399827957153,-0.6497660279273987,-0.3498310148715973
1780565041287933000,5.114932861328125,0.3881939947605133,-1.1660590171813965,0.04909399896860123
1780565041307446300,5.1344462890625,0.4840019941329956,-1.7204209566116333,1.7116190195083618
1780565041326967800,5.1539677734375,0.6350129842758179,-2.310533046722412,3.447348117828369
1780565041346486300,5.173486328125,0.5465360283851624,-2.9894580841064453,3.474813938140869
1780565041366004200,5.193004150390625,0.3716700077056885,-3.5985970497131348,3.015613079071045
1780565041385523000,5.21252294921875,0.3716700077056885,-3.5985970497131348,3.015613079071045
1780565041405040600,5.23204052734375,0.8955990076065063,-4.403862953186035,-0.9135919809341431
1780565041424559400,5.251559326171875,2.524245023727417,-4.426383018493652,-1.2195279598236084
1780565041444076800,5.271076904296875,2.814129114151001,-4.319944858551025,-1.1222269535064697
1780565041463594000,5.290593994140625,2.752774953842163,-4.052762985229492,-0.5233719944953918
1780565041483112700,5.31011279296875,2.752774953842163,-4.052762985229492,-0.5233719944953918
1780565041502630400,5.32963037109375,0.339262992143631,-3.309556007385254,0.9924330115318298
1780565041522149000,5.349149169921875,-0.42724400758743286,-2.7546238899230957,0.985077977180481
1780565041541670000,5.368669921875,-0.42724400758743286,-2.7546238899230957,0.985077977180481
1780565041561187800,5.388187744140625,-1.0016369819641113,-2.343787908554077,0.6978380084037781
1780565041580703200,5.407703125,-1.0016369819641113,-2.343787908554077,0.6978380084037781
1780565041600220700,5.427220703125,-0.23223799467086792,-2.3822460174560547,0.6116290092468262
1780565041619740000,5.446739990234375,0.12058400362730026,-2.302933931350708,0.5161849856376648
1780565041639258400,5.46625830078125,0.2946459949016571,-2.127955913543701,0.33552199602127075
1780565041658775000,5.485775146484375,0.2760399878025055,-1.873852014541626,0.13399100303649902
1780565041678292000,5.5052919921875,0.12822499871253967,-1.5308150053024292,-0.00021399999968707561
1780565041697809700,5.5248095703125,-0.10304500162601471,-1.1449509859085083,-0.06506200134754181
1780565041717323800,5.54432373046875,-0.35293298959732056,-0.772284984588623,-0.12013799697160721
1780565041736839200,5.563839111328125,-0.5253639817237854,-0.46835198998451233,-0.1481499969959259
1780565041756357000,5.583357177734375,-0.5977219939231873,-0.2693699896335602,-0.18462899327278137
1780565041775874300,5.602874267578125,-0.5521469712257385,-0.1380939930677414,-0.22719499468803406
1780565041795389400,5.622389404296875,-0.44795000553131104,-0.06389400362968445,-0.18825200200080872
1780565041814904600,5.641904541015625,-0.38669800758361816,-0.007158000022172928,-0.061181001365184784
1780565041834423600,5.661423583984375,-0.36966198682785034,0.09580600261688232,0.17711199820041656
1780565041853944000,5.680944091796875,-0.41065800189971924,0.23396100103855133,0.45334699749946594
1780565041873464800,5.70046484375,-0.5271940231323242,0.41674500703811646,0.6470530033111572
1780565041892984300,5.719984375,-0.6419219970703125,0.6368319988250732,0.7469189763069153
1780565041912505600,5.739505615234375,-0.7405229806900024,0.8206130266189575,0.7846750020980835
1780565041932027600,5.759027587890625,-0.7482479810714722,0.9212549924850464,0.7571210265159607
1780565041951551200,5.77855126953125,-0.577131986618042,0.9342489838600159,0.668757975101471
1780565041971075300,5.798075439453125,-0.3101769983768463,0.9272590279579163,0.533909022808075
1780565041990601200,5.817601318359375,-0.07945200055837631,0.903747022151947,0.4017300009727478
1780565042010127400,5.83712744140625,0.02392899990081787,0.90556401014328,0.3083690106868744
1780565042029651700,5.856651611328125,-0.008906999602913857,0.9381020069122314,0.25828900933265686
1780565042049176600,5.876176513671875,-0.14973199367523193,0.9622200131416321,0.18421700596809387
1780565042068699000,5.895698974609375,-0.2744849920272827,1.009935975074768,0.07828199863433838
1780565042088214000,5.915214111328125,-0.35435399413108826,1.0343689918518066,-0.024396000429987907
1780565042107727600,5.9347275390625,-0.3948880136013031,1.0303839445114136,-0.08491700142621994
1780565042127244800,5.954244873046875,-0.31523698568344116,1.03288996219635,-0.06219499930739403
1780565042146760700,5.9737607421875,-0.19545899331569672,0.9932810068130493,0.022021999582648277
1780565042166279200,5.993279052734375,-0.06431800127029419,0.9080749750137329,0.13417400419712067
1780565042185797600,6.012797607421875,-0.06431800127029419,0.9080749750137329,0.13417400419712067
1780565042205314600,6.032314453125,0.10943400114774704,0.6400700211524963,0.29312199354171753
1780565042224834300,6.051834228515625,0.22861100733280182,0.5141479969024658,0.3024649918079376
1780565042244356400,6.0713564453125,0.32955700159072876,0.4449650049209595,0.2616249918937683
1780565042263876000,6.0908759765625,0.41088300943374634,0.42270100116729736,0.18033699691295624
1780565042283395600,6.1103955078125,0.41736799478530884,0.4480910003185272,0.07074499875307083
1780565042302916900,6.129916748046875,0.41736799478530884,0.4480910003185272,0.07074499875307083
1780565042322434800,6.149434814453125,0.2226260006427765,0.5509390234947205,-0.0813629999756813
1780565042341954300,6.168954345703125,0.2226260006427765,0.5509390234947205,-0.0813629999756813
1780565042361475300,6.188475341796875,-0.018782999366521835,0.6443910002708435,0.235616996884346
1780565042380993500,6.20799365234375,-0.018782999366521835,0.6443910002708435,0.235616996884346
1780565042400513300,6.22751318359375,-0.09575899690389633,0.6238319873809814,0.5943189859390259
1780565042420034600,6.24703466796875,-0.1031540036201477,0.5446820259094238,0.7142959833145142
1780565042439555000,6.26655517578125,-0.0952180027961731,0.4315589964389801,0.7961559891700745
1780565042459073500,6.286073486328125,-0.041531000286340714,0.25781598687171936,0.8771010041236877
1780565042478593800,6.30559375,0.039413001388311386,0.0889659970998764,0.8504549860954285
1780565042498118400,6.325118408203125,0.1932619959115982,-0.030285999178886414,0.6446840167045593
1780565042517641000,6.344640869140625,0.3153110146522522,-0.12020699679851532,0.39389801025390625
1780565042537159700,6.36415966796875,0.33010101318359375,-0.15500499308109283,0.1842689961194992
1780565042556676400,6.38367626953125,0.2883319854736328,-0.1236879974603653,0.13172300159931183
1780565042576196600,6.403196533203125,0.15106399357318878,-0.07329300045967102,0.17523199319839478
1780565042595717400,6.42271728515625,0.01882299967110157,0.03668399900197983,0.1287519931793213
1780565042615233800,6.44223388671875,-0.07815500348806381,0.10145299881696701,-0.11263100057840347
1780565042634754000,6.461754150390625,-0.07197999954223633,0.08051099628210068,-0.45181000232696533
1780565042654274300,6.4812744140625,0.1026889979839325,-0.011478999629616737,-0.6810399889945984
1780565042673792800,6.500792724609375,0.34454798698425293,-0.16662700474262238,-0.6726559996604919
1780565042693313500,6.5203134765625,0.5645639896392822,-0.28332599997520447,-0.43227601051330566
1780565042712832300,6.539832275390625,0.6366040110588074,-0.3913060128688812,-0.046386998146772385
1780565042732348400,6.559348388671875,0.5376819968223572,-0.4842050075531006,0.3338249921798706
1780565042751867600,6.57886767578125,0.28409698605537415,-0.5877529978752136,0.6734510064125061
1780565042771384600,6.598384521484375,0.048820000141859055,-0.7260220050811768,1.0139490365982056
1780565042790898700,6.617898681640625,-0.07362999767065048,-0.8409379720687866,1.361711025238037
1780565042810415900,6.637415771484375,-0.09542500227689743,-0.9559620022773743,1.6221280097961426
1780565042829933800,6.656933837890625,0.011814000084996223,-1.0383750200271606,1.6955389976501465
1780565042849452000,6.6764521484375,0.11896699666976929,-1.0891480445861816,1.6169379949569702
1780565042868968700,6.69596875,0.17394399642944336,-1.134848952293396,1.4441430568695068
1780565042888485000,6.715485107421875,0.22215500473976135,-1.1042020320892334,1.2907569408416748
1780565042908000300,6.735000244140625,0.23911499977111816,-1.0088750123977661,1.156406044960022
1780565042927518700,6.754518798828125,0.24542300403118134,-0.8615469932556152,0.9960409998893738
1780565042947037700,6.77403759765625,0.23266799747943878,-0.6715760231018066,0.8266969919204712
1780565042966554600,6.7935546875,0.21348600089550018,-0.4919790029525757,0.659525990486145
1780565042986069200,6.8130693359375,0.21348600089550018,-0.4919790029525757,0.659525990486145
1780565043005585000,6.8325849609375,0.2524009943008423,-0.20555199682712555,0.5398190021514893
1780565043025102000,6.85210205078125,0.2763479948043823,-0.09486299753189087,0.5962370038032532
1780565043044616000,6.871615966796875,0.1999260038137436,-0.05589599907398224,0.6972029805183411
1780565043064131600,6.891131591796875,0.07270900160074234,-0.0669810026884079,0.6948930025100708
1780565043083648300,6.910648193359375,-0.051426999270915985,-0.08278500288724899,0.47846001386642456
1780565043103166000,6.930166015625,-0.051426999270915985,-0.08278500288724899,0.47846001386642456
1780565043122686200,6.949686279296875,-0.02479800023138523,-0.004007999785244465,0.2512649893760681
1780565043142204000,6.969203857421875,-0.09811100363731384,0.0893160030245781,0.6659680008888245
1780565043161719800,6.9887197265625,-0.09811100363731384,0.0893160030245781,0.6659680008888245
1780565043181235500,7.0082353515625,-0.09811100363731384,0.0893160030245781,0.6659680008888245
1780565043200746500,7.02774658203125,-1.1774200201034546,0.08925999701023102,2.459033966064453
1780565043220257800,7.0472578125,-1.1774200201034546,0.08925999701023102,2.459033966064453
1780565043239772400,7.0667724609375,-1.4201350212097168,-0.34138599038124084,1.9338170289993286
1780565043259287000,7.086287109375,-1.124243974685669,-0.6031659841537476,1.5931880474090576
1780565043278798300,7.10579833984375,-0.6858239769935608,-0.7672579884529114,1.3044719696044922
1780565043298308900,7.125308837890625,-0.3437019884586334,-0.745032012462616,1.0717469453811646
1780565043317826300,7.144826416015625,-0.3297159969806671,-0.573947012424469,0.96635502576828
1780565043337349000,7.16434912109375,-0.6486309766769409,-0.3187260031700134,0.9214439988136292
1780565043356870400,7.183870361328125,-1.1420999765396118,0.03901499882340431,0.7287420034408569
1780565043376386600,7.203386474609375,-1.563796043395996,0.3161579966545105,0.450560986995697
1780565043395898600,7.222898681640625,-1.6526050567626953,0.489096999168396,0.1501619964838028
1780565043415411500,7.242411376953125,-1.4674190282821655,0.5704699754714966,-0.18761800229549408
1780565043434927400,7.26192724609375,-1.1696350574493408,0.4789179861545563,-0.5869600176811218
1780565043454445300,7.2814453125,-0.8141260147094727,0.4216339886188507,-1.0543849468231201
1780565043473963500,7.300963623046875,-0.4587079882621765,0.46762698888778687,-1.4937009811401367
1780565043493481500,7.3204814453125,-0.19198200106620789,0.5533260107040405,-1.6877089738845825
1780565043513004000,7.340004150390625,-0.08185800164937973,0.7048419713973999,-1.6439520120620728
1780565043532526800,7.35952685546875,-0.1712609976530075,0.7801809906959534,-1.4863590002059937
1780565043552046800,7.379046875,-0.38131698966026306,0.6825630068778992,-1.3695709705352783
1780565043571568400,7.398568359375,-0.49488401412963867,0.5020849704742432,-1.4979079961776733
1780565043591089200,7.418089111328125,-0.4387969970703125,0.2216150015592575,-1.645190954208374
1780565043610607900,7.43760791015625,-0.20030100643634796,-0.008205000311136246,-1.7339990139007568
1780565043630124800,7.457124755859375,0.08797500282526016,-0.14045199751853943,-1.7379300594329834
1780565043649636400,7.47663623046875,0.23973500728607178,-0.24326400458812714,-1.6080729961395264
1780565043669145900,7.496145751953125,0.25748199224472046,-0.3343600034713745,-1.4840240478515625
1780565043688663000,7.5156630859375,0.2349119931459427,-0.5408179759979248,-1.402420997619629
1780565043708183800,7.535183837890625,0.16619199514389038,-0.8565970063209534,-1.4074770212173462
1780565043727702500,7.55470263671875,0.26722899079322815,-1.2040690183639526,-1.4415069818496704
1780565043747220200,7.57422021484375,0.564644992351532,-1.5324820280075073,-1.512442946434021
1780565043766732500,7.593732666015625,0.7900230288505554,-1.79299795627594,-1.6521680355072021
1780565043786243600,7.61324365234375,0.9324939846992493,-1.9448579549789429,-1.7976000308990479
1780565043805760000,7.632760009765625,0.9980649948120117,-2.0496890544891357,-2.0128910541534424
1780565043825273000,7.652273193359375,0.9987630248069763,-2.0998499393463135,-2.188585042953491
1780565043844787500,7.671787353515625,1.0997979640960693,-2.228266954421997,-2.320539951324463
1780565043864306200,7.69130615234375,1.2679380178451538,-2.56522798538208,-2.50650691986084
1780565043883826400,7.710826416015625,1.404255986213684,-3.087841033935547,-2.7395830154418945
1780565043903347500,7.730347412109375,1.6357979774475098,-4.686068058013916,-2.9274330139160156
1780565043922866700,7.74986669921875,1.6357979774475098,-4.686068058013916,-2.9274330139160156
1780565043942381600,7.769381591796875,2.4810049533843994,-5.666172981262207,-2.6260640621185303
1780565043961894000,7.788893798828125,2.6514270305633545,-6.842527866363525,-2.0910630226135254
1780565043981409000,7.808408935546875,2.6514270305633545,-6.842527866363525,-2.0910630226135254
1780565044000924400,7.82792431640625,2.119786024093628,-7.4808149337768555,-1.1264619827270508
1780565044020440000,7.847440185546875,2.119786024093628,-7.4808149337768555,-1.1264619827270508
1780565044039958500,7.86695849609375,1.5356520414352417,-7.871291160583496,1.1794949769973755
1780565044059479800,7.886479736328125,1.5950089693069458,-7.900930881500244,1.60978102684021
1780565044078999300,7.905999267578125,1.6460310220718384,-7.878828048706055,3.280298948287964
1780565044098517200,7.925517333984375,1.5029000043869019,-7.795152187347412,3.8195269107818604
1780565044118035700,7.94503564453125,1.1906750202178955,-7.637242794036865,5.22874116897583
1780565044137553200,7.96455322265625,0.7906090021133423,-7.430517196655273,5.459883213043213
1780565044157067000,7.98406689453125,0.44886499643325806,-7.154808044433594,5.703914165496826
1780565044176577000,8.003576904296875,0.25517600774765015,-6.830563068389893,5.933876037597656
1780565044196085800,8.023085693359375,0.18939000368118286,-6.484618186950684,6.124855041503906
1780565044215599900,8.042599853515625,0.19643700122833252,-6.075806140899658,6.337588787078857
1780565044235116300,8.0621162109375,0.14583000540733337,-5.642905235290527,6.5509490966796875
1780565044254629000,8.081629150390626,-0.006386000197380781,-5.1734209060668945,6.751379013061523
1780565044274142700,8.101142822265626,-0.13982300460338593,-4.698876857757568,6.8943681716918945
1780565044293656600,8.120656494140626,-0.2876029908657074,-4.255035877227783,7.025832176208496
1780565044313173200,8.14017333984375,-0.39562198519706726,-3.78485107421875,7.146642208099365
1780565044332691500,8.15969140625,-0.4210059940814972,-3.287590980529785,7.223955154418945
1780565044352206300,8.179206298828126,-0.4339039921760559,-2.700896978378296,7.271437168121338
1780565044371720000,8.198719970703126,-0.5386989712715149,-1.9750430583953857,7.27581787109375
1780565044391234000,8.218234130859376,-0.8028929829597473,-1.2141679525375366,7.314798831939697
1780565044410752000,8.237751953125,-1.1927560567855835,-0.37446099519729614,7.394570827484131
1780565044430269200,8.257269287109375,-1.6536489725112915,0.5245169997215271,7.4231791496276855
1780565044449782800,8.27678271484375,-1.9272099733352661,1.2981280088424683,7.290308952331543
1780565044469301500,8.296301513671875,-1.8710360527038574,1.973618984222412,6.9782538414001465
1780565044488823300,8.3158232421875,-1.4178760051727295,2.5182158946990967,6.5777387619018555
1780565044508342000,8.335342041015625,-0.8410130143165588,2.929608106613159,6.172245025634766
1780565044527858200,8.354858154296876,-0.4217340052127838,3.3386709690093994,5.812264919281006
1780565044547373600,8.37437353515625,-0.25451499223709106,3.7426280975341797,5.446812152862549
1780565044566884900,8.393884765625,-0.33958500623703003,4.096124172210693,5.0516438484191895
1780565044586396000,8.41339599609375,-0.33958500623703003,4.096124172210693,5.0516438484191895
1780565044605908500,8.432908447265625,-0.2278899997472763,4.38588285446167,4.335740089416504
1780565044625424000,8.452423828125,-0.08527900278568268,4.279499053955078,4.0186309814453125
1780565044644942600,8.471942626953124,0.018572000786662102,4.12632417678833,3.590174913406372
1780565044664454100,8.4914541015625,0.0017549999756738544,3.982996940612793,3.1000049114227295
1780565044683967000,8.510967041015626,-0.05624200031161308,3.8408238887786865,2.5711851119995117
1780565044703487500,8.530487548828125,-0.032986998558044434,3.62876296043396,2.0134150981903076
1780565044723007500,8.550007568359375,-0.032986998558044434,3.62876296043396,2.0134150981903076
1780565044742525000,8.56952490234375,0.23959499597549438,3.2625980377197266,1.1214449405670166
1780565044762041000,8.589041015625,0.11444299668073654,2.944365978240967,0.24842800199985504
1780565044781558800,8.608558837890625,-0.08452100306749344,2.6026930809020996,-0.2632389962673187
1780565044801076200,8.628076171875,-0.08452100306749344,2.6026930809020996,-0.2632389962673187
1780565044820590300,8.64759033203125,-0.08452100306749344,2.6026930809020996,-0.2632389962673187
1780565044840105500,8.66710546875,-1.117954969406128,2.691756010055542,-1.3621180057525635
1780565044859620400,8.686620361328124,-1.5398520231246948,2.4398610591888428,-1.949869990348816
1780565044879133000,8.7061328125,-1.6180510520935059,2.2942240238189697,-3.8309030532836914
1780565044898642200,8.72564208984375,-1.6622979640960693,2.3720829486846924,-5.325043201446533
1780565044918155000,8.745155029296875,-1.403730034828186,1.9684350490570068,-5.762063026428223
1780565044937672700,8.764672607421875,0.171765998005867,1.7510789632797241,-6.1203131675720215
1780565044957188600,8.784188720703124,0.14069800078868866,1.8213599920272827,-8.12749195098877
1780565044976702000,8.803701904296876,0.35704800486564636,1.5798720121383667,-10.086179733276367
1780565044996214000,8.823214111328125,0.3290010094642639,3.0052309036254883,-11.811230659484863
1780565045015726600,8.8427265625,0.0858440026640892,4.890927791595459,-13.275585174560547
1780565045035241500,8.862241455078125,-0.2957949936389923,4.96028995513916,-12.745577812194824
1780565045054757000,8.881757080078126,-0.9850370287895203,6.37368106842041,-12.326034545898438
1780565045074271500,8.901271484375,-1.5358409881591797,8.133238792419434,-12.100354194641113
1780565045093785300,8.920785400390624,-2.057163953781128,8.043092727661133,-11.537832260131836
1780565045113300000,8.940300048828124,-2.5455760955810547,7.9331560134887695,-10.49626636505127
1780565045132816100,8.959816162109375,-2.746306896209717,7.8910231590271,-8.407707214355469
1780565045152335000,8.979335205078126,-2.63411808013916,7.609093189239502,-7.454431056976318
1780565045171855400,8.99885546875,-2.287100076675415,7.107914924621582,-6.607759952545166
1780565045191371800,9.018371826171874,-1.7442280054092407,6.567319869995117,-5.86007022857666
1780565045210886000,9.037885986328124,-1.2208709716796875,6.158395767211914,-5.149472236633301
1780565045230399200,9.057399169921876,-0.9706559777259827,5.962680816650391,-4.514612197875977
1780565045249915100,9.0769150390625,-1.0764750242233276,5.9220662117004395,-3.9088830947875977
1780565045269433000,9.09643310546875,-1.4207769632339478,6.003271102905273,-3.3162119388580322
1780565045288949800,9.11594970703125,-1.849951982498169,6.121453762054443,-2.852519989013672
1780565045308465200,9.135465087890625,-2.1443591117858887,6.244219779968262,-2.539346933364868
1780565045327979800,9.154979736328125,-2.2938120365142822,6.328060150146484,-2.2828121185302734
1780565045347499000,9.1744990234375,-2.5142738819122314,6.217189788818359,-1.9922549724578857
1780565045367019300,9.194019287109375,-2.712161064147949,5.989821910858154,-1.6481209993362427
1780565045386535700,9.21353564453125,-2.80297589302063,5.69961404800415,-1.3437349796295166
1780565045406055200,9.23305517578125,-2.6903109550476074,5.338356971740723,-1.1529040336608887
1780565045425577200,9.2525771484375,-2.2936980724334717,4.958950042724609,-1.0375770330429077
1780565045445097000,9.272096923828125,-1.7566579580307007,4.472568988800049,-0.9814220070838928
1780565045464610800,9.29161083984375,-1.179906964302063,3.965914011001587,-0.9334840178489685
1780565045484123100,9.311123046875,-0.777534008026123,3.6622018814086914,-0.8467720150947571
1780565045503638300,9.33063818359375,-0.8861280083656311,3.551985025405884,-0.7162190079689026
1780565045523156200,9.35015625,-2.4831249713897705,3.5433900356292725,-0.5003550052642822
1780565045542678000,9.369677978515625,-2.8161580562591553,3.5787549018859863,-0.19789600372314453
1780565045562195700,9.38919580078125,-4.1435160636901855,3.453071117401123,0.14629699289798737
1780565045581711000,9.408711181640625,-3.830368995666504,3.253695011138916,0.5674070119857788
1780565045601228000,9.42822802734375,-3.830368995666504,3.253695011138916,0.5674070119857788
1780565045620745500,9.447745361328124,-2.5027740001678467,2.3798060417175293,1.4212629795074463
1780565045640263000,9.467262939453125,-2.5027740001678467,2.3798060417175293,1.4212629795074463
1780565045659781400,9.486781494140626,-0.7754200100898743,1.4960960149765015,1.6258740425109863
1780565045679303000,9.506302978515626,-0.6254709959030151,1.0630569458007812,1.4614859819412231
1780565045698826000,9.525825927734376,-0.6342120170593262,0.8028720021247864,1.2651089429855347
1780565045718349300,9.545349365234374,-0.8122310042381287,0.6730499863624573,1.1088470220565796
1780565045737873000,9.564872802734374,-0.8122310042381287,0.6730499863624573,1.1088470220565796
1780565045757395200,9.584395263671874,-1.0395790338516235,0.5326719880104065,0.9140229821205139
1780565045796437800,9.623437744140626,-0.5970969796180725,0.1967190057039261,1.0323909521102905
1780565045815957800,9.642957763671875,-0.21928000450134277,-0.1348389983177185,1.3295940160751343
1780565045835476500,9.6624765625,0.19192400574684143,-0.5029850006103516,1.753085970878601
1780565045854993200,9.6819931640625,0.5745710134506226,-0.8614479899406433,2.193876028060913
1780565045874515200,9.70151513671875,0.8920140266418457,-1.2437160015106201,2.52138090133667
1780565045894036700,9.72103662109375,1.2067739963531494,-1.5843650102615356,2.6825931072235107
1780565045913555700,9.7405556640625,1.6045000553131104,-1.851246953010559,2.6465420722961426
1780565045933075500,9.760075439453125,2.0312540531158447,-2.1080129146575928,2.377345085144043
1780565045952595500,9.779595458984375,2.4732649326324463,-2.2010679244995117,1.8984099626541138
1780565045972112400,9.7991123046875,2.868673086166382,-2.150067090988159,0.25754401087760925
1780565045991628800,9.81862890625,3.074354887008667,-2.0271289348602295,0.03260200098156929
1780565046011146000,9.83814599609375,3.2174930572509766,-1.8585309982299805,-0.21396799385547638
1780565046030662000,9.857661865234375,3.363847017288208,-1.735200047492981,-0.26378801465034485
1780565046050181000,9.87718115234375,3.411057949066162,-1.6913830041885376,-0.11368700116872787
1780565046069698000,9.896697998046875,3.36588191986084,-1.6619219779968262,0.22424300014972687
1780565046089212400,9.91621240234375,3.1472198963165283,-1.604148030281067,0.6728140115737915
1780565046108729600,9.9357294921875,2.7337279319763184,-1.5575100183486938,1.0945199728012085
1780565046128249000,9.9552490234375,2.2484259605407715,-1.5189729928970337,1.3965070247650146
1780565046147772200,9.974772216796875,1.8113329410552979,-1.4955990314483643,1.5033609867095947
1780565046167290600,9.99429052734375,1.5051820278167725,-1.4983409643173218,1.4258530139923096
1780565046186806500,10.013806640625,1.3809250593185425,-1.4904470443725586,1.2923840284347534
1780565046206329300,10.033329345703125,1.37002694606781,-1.448328971862793,1.2428480386734009
1780565046225853000,10.05285302734375,1.2780630588531494,-1.3455049991607666,1.2484489679336548
1780565046245373700,10.072373779296875,1.0131880044937134,-1.182144045829773,1.268064022064209
1780565046264894200,10.091894287109374,0.5336160063743591,-0.9514999985694885,1.2028919458389282
1780565046284414000,10.1114140625,-0.04003800079226494,-0.709210991859436,1.0248429775238037
1780565046303933400,10.130933349609375,-0.5535709857940674,-0.4707989990711212,0.7301560044288635
1780565046323456300,10.150456298828125,-0.8790090084075928,-0.21444499492645264,0.31122300028800964
1780565046342979000,10.16997900390625,-0.8790090084075928,-0.21444499492645264,0.31122300028800964
1780565046362500600,10.18950048828125,-1.004438042640686,0.19849400222301483,-2.000109910964966
1780565046382022400,10.2090224609375,-0.9270619750022888,0.4588710069656372,-2.11441707611084
1780565046401539800,10.228539794921875,-1.0150760412216187,0.6513800024986267,-2.0981318950653076
1780565046421058600,10.24805859375,-1.0150760412216187,0.6513800024986267,-2.0981318950653076
1780565046440578800,10.267578857421874,-1.0150760412216187,0.6513800024986267,-2.0981318950653076
1780565046460096000,10.287095947265625,-2.422595977783203,0.8444960117340088,0.3058969974517822
1780565046479613400,10.306613525390626,-2.8020989894866943,0.7796630263328552,0.7472190260887146
1780565046499136300,10.32613623046875,-2.879281997680664,0.6842259764671326,1.067903995513916
1780565046518661600,10.34566162109375,-2.767709970474243,0.5208650231361389,1.1686500310897827
1780565046538180000,10.36518017578125,-2.49311900138855,0.3183639943599701,1.0048749446868896
1780565046557700000,10.3847001953125,-2.088697910308838,0.2059909999370575,0.6237329840660095
1780565046577223000,10.404222900390625,-1.6390509605407715,0.22758899629116058,0.18700699508190155
1780565046596746800,10.423746826171875,-1.1833109855651855,0.37654900550842285,-0.18440300226211548
1780565046616269600,10.44326953125,-0.9873549938201904,0.6361100077629089,-0.40586599707603455
1780565046635788800,10.462788818359375,-1.0910539627075195,0.8764110207557678,-0.4272159934043884
1780565046655309000,10.48230908203125,-1.3682140111923218,1.0363659858703613,-0.31499600410461426
1780565046674826500,10.501826416015625,-1.6772099733352661,1.061400055885315,-0.1565759927034378
1780565046694346200,10.52134619140625,-1.7649890184402466,0.9556679725646973,-0.0075980001129209995
1780565046713870300,10.540870361328125,-1.6194219589233398,0.7697229981422424,0.09865099936723709
1780565046733396000,10.56039599609375,-1.3047460317611694,0.5024060010910034,0.13649800419807434
1780565046752920300,10.57992041015625,-0.8975690007209778,0.25259798765182495,0.12574100494384766
1780565046772437200,10.599437255859375,-0.4937039911746979,0.03555599972605705,0.07228600233793259
1780565046791954000,10.618953857421875,-0.12979499995708466,-0.15867400169372559,0.034345000982284546
1780565046811475200,10.63847509765625,0.1586419939994812,-0.2448039948940277,0.05369799956679344
1780565046830992000,10.657991943359375,0.2611759901046753,-0.2880310118198395,0.060826998203992844
1780565046850508300,10.67750830078125,0.22554999589920044,-0.2898179888725281,0.0623369999229908
1780565046870024400,10.6970244140625,0.14681799709796906,-0.24413099884986877,0.04666699841618538
1780565046889536800,10.716536865234374,0.08756600320339203,-0.23608699440956116,-0.014940000139176846
1780565046909049000,10.736049072265626,0.1923229992389679,-0.2406349927186966,-0.022732999175786972
1780565046928567000,10.755567138671875,0.4236220121383667,-0.23740200698375702,-0.018077999353408813
1780565046948084000,10.775083984375,0.6464589834213257,-0.263265997171402,-0.052352000027894974
1780565046967597300,10.794597412109376,0.7594919800758362,-0.26357999444007874,-0.09060599654912949
1780565046987113700,10.81411376953125,0.6987540125846863,-0.23414400219917297,-0.11521200090646744
1780565047006631700,10.833631591796875,0.5168190002441406,-0.21612299978733063,-0.09258700162172318
1780565047026144800,10.853144775390625,0.3018589913845062,-0.21853600442409515,-0.07572799921035767
1780565047045659400,10.872659423828125,0.16326899826526642,-0.2566460072994232,-0.07392500340938568
1780565047065175300,10.89217529296875,0.12528200447559357,-0.3300360143184662,-0.0389459989964962
1780565047084692200,10.911692138671874,0.1608469933271408,-0.393528014421463,0.05821400135755539
1780565047104210200,10.931210205078125,0.23897899687290192,-0.4503909945487976,0.20187999308109283
1780565047123726600,10.9507265625,0.2697330117225647,-0.4904490113258362,0.3194580078125
1780565047143243000,10.970242919921875,0.2518469989299774,-0.5202969908714294,0.39444398880004883
1780565047162761500,10.989761474609375,0.2518469989299774,-0.5202969908714294,0.39444398880004883
1780565047182280000,11.009280029296875,0.06689199805259705,-0.5922030210494995,0.400177001953125
1780565047201799000,11.028798828125,-0.11328700184822083,-0.5669599771499634,0.2901790142059326
1780565047221319700,11.048319580078125,-0.22106100618839264,-0.515824019908905,0.1265060007572174
1780565047240838400,11.06783837890625,-0.22106100618839264,-0.515824019908905,0.1265060007572174
1780565047260354600,11.0873544921875,-0.22106100618839264,-0.515824019908905,0.1265060007572174
1780565047279872000,11.1068720703125,-0.26067399978637695,-0.24860399961471558,-0.6477919816970825
1780565047299393300,11.126393310546876,-0.3048839867115021,-0.11285699903964996,-0.9664149880409241
1780565047318914300,11.145914306640625,-0.3539389967918396,-0.002607000060379505,-1.1406760215759277
1780565047338432800,11.165432861328124,-0.3788850009441376,0.09723600000143051,-1.0421420335769653
1780565047357947400,11.184947509765625,-0.37529900670051575,0.15628500282764435,-0.663336992263794
1780565047377461200,11.204461181640625,-0.400738000869751,0.13180099427700043,-0.09156499803066254
1780565047396975400,11.223975341796875,-0.5289760231971741,0.04501400142908096,0.428617000579834
1780565047416488400,11.243488525390624,-0.6506789922714233,-0.08487699925899506,0.7846440076828003
1780565047436002800,11.2630029296875,-0.6975150108337402,-0.26837900280952454,0.9597390294075012
1780565047455517400,11.282517333984375,-0.5967180132865906,-0.5064889788627625,1.0210740566253662
1780565047475035000,11.302034912109375,-0.304623007774353,-0.7427549958229065,1.0666660070419312
1780565047494554400,11.321554443359375,0.04438700154423714,-0.895576000213623,1.0783100128173828
1780565047514071300,11.3410712890625,0.26010099053382874,-0.943343997001648,1.0518629550933838
1780565047533592600,11.360592529296875,0.2672460079193115,-0.9038940072059631,0.9762960076332092
1780565047553113000,11.380113037109375,0.1065479964017868,-0.7685520052909851,0.8926910161972046
1780565047572627000,11.399626953125,-0.12219099700450897,-0.6383320093154907,0.9182310104370117
1780565047592141600,11.4191416015625,-0.235493004322052,-0.5840250253677368,1.0290939807891846
1780565047611660000,11.438659912109374,-0.22388899326324463,-0.5923929810523987,1.1394590139389038
1780565047631181000,11.45818115234375,-0.15200600028038025,-0.6593049764633179,1.1682039499282837
1780565047650700800,11.47770068359375,-0.03509899973869324,-0.7859569787979126,1.076956033706665
1780565047670219800,11.4972197265625,0.12400499731302261,-0.8741940259933472,0.985276997089386
1780565047689739300,11.5167392578125,0.2593800127506256,-0.8882369995117188,0.8918619751930237
1780565047709259000,11.536259033203125,0.37532100081443787,-0.8002570271492004,0.664726972579956
1780565047728775200,11.555775146484375,0.5041519999504089,-0.5745130181312561,0.3798930048942566
1780565047748289000,11.5752890625,0.5356090068817139,-0.35474899411201477,0.2343990057706833
1780565047767805000,11.594804931640626,0.4902459979057312,-0.13847699761390686,0.2918449938297272
1780565047787323400,11.614323486328125,0.4397830069065094,0.019548999145627022,0.6098080277442932
1780565047806843600,11.63384375,0.26371198892593384,0.1062759980559349,1.063217043876648
1780565047826360600,11.653360595703125,-0.034070998430252075,0.1543550044298172,1.4049910306930542
1780565047845877800,11.672877685546876,-0.37247198820114136,0.17281800508499146,1.520387053489685
1780565047865395000,11.69239501953125,-0.7815150022506714,0.178616002202034,1.4861149787902832
1780565047884917200,11.711917236328125,-1.0119240283966064,0.14875000715255737,1.3779380321502686
1780565047904438500,11.7314384765625,-0.894631028175354,0.17169199883937836,1.2601909637451172
1780565047923956700,11.750956787109375,-0.5776820182800293,0.26343899965286255,1.2295600175857544
1780565047943477500,11.7704775390625,-0.21805599331855774,0.39841100573539734,1.343616008758545
1780565047963001000,11.7900009765625,-0.21805599331855774,0.39841100573539734,1.343616008758545
1780565047982523100,11.809523193359375,-0.2948260009288788,0.732243001461029,1.8157340288162231
1780565048002041000,11.829041015625,-0.5959069728851318,0.8722869753837585,1.9279069900512695
1780565048021560800,11.848560791015625,-0.9018920063972473,0.9120090007781982,1.7538520097732544
1780565048041081600,11.86808154296875,-0.9018920063972473,0.9120090007781982,1.7538520097732544
1780565048060604000,11.88760400390625,-0.9018920063972473,0.9120090007781982,1.7538520097732544
1780565048080129300,11.90712939453125,-0.9653189778327942,0.9445499777793884,0.595920979976654
1780565048099650000,11.926650146484375,-0.731781005859375,0.9952430129051208,0.5180010199546814
1780565048119169800,11.946169677734375,-0.5464529991149902,1.1085690259933472,0.5444989800453186
1780565048138689500,11.965689453125,-0.5514490008354187,1.2254019975662231,0.42118099331855774
1780565048158209000,11.985208984375,-0.7858870029449463,1.2733509540557861,0.1319890022277832
1780565048177731800,12.00473193359375,-1.0127999782562256,1.2856409549713135,-0.2074420005083084
1780565048197251800,12.024251953125,-1.008908987045288,1.2882499694824219,-0.4991550147533417
1780565048216771300,12.043771240234374,-0.7907000184059143,1.2797030210494995,-0.6871740221977234
1780565048236292000,12.0632919921875,-0.4346829950809479,1.346580982208252,-0.8017330169677734
1780565048255809500,12.0828095703125,-0.13606800138950348,1.3118870258331299,-0.8911200165748596
1780565048275330300,12.102330322265624,-0.044220998883247375,1.1414040327072144,-0.981469988822937
1780565048294858200,12.121858154296875,-0.028884999454021454,0.9808980226516724,-1.1437649726867676
1780565048314386700,12.14138671875,-0.033344000577926636,0.8018540143966675,-1.3396769762039185
1780565048333912300,12.160912353515625,-0.047214001417160034,0.7052429914474487,-1.5225540399551392
1780565048353433300,12.180433349609375,0.02364099957048893,0.6906750202178955,-1.6875859498977661
1780565048372949500,12.199949462890626,0.10362999886274338,0.6292440295219421,-1.777938961982727
1780565048392466000,12.2194658203125,0.18209800124168396,0.5225650072097778,-1.8451470136642456
1780565048411984000,12.23898388671875,0.2575100064277649,0.4108160138130188,-1.9070489406585693
1780565048431500000,12.2585,0.27692800760269165,0.29735100269317627,-1.9008350372314453
1780565048451019500,12.27801953125,0.29188400506973267,0.2325190007686615,-1.8041449785232544
1780565048470541000,12.297541015625,0.28232499957084656,0.27592599391937256,-1.6277920007705688
1780565048490058800,12.317058837890626,0.23068800568580627,0.3661159873008728,-1.4396699666976929
1780565048509577500,12.336577392578125,0.04975400120019913,0.3879519999027252,-1.3701080083847046
1780565048529095400,12.356095458984376,-0.08115100115537643,0.429161012172699,-1.5878469944000244
1780565048548609000,12.375609130859376,-0.005781000014394522,0.40714699029922485,-2.0950748920440674
1780565048568126700,12.395126708984375,0.22474299371242523,0.20575399696826935,-2.61024808883667
1780565048587646500,12.414646484375,0.7180759906768799,-0.14545799791812897,-2.8985259532928467
1780565048607166700,12.434166748046875,1.3126829862594604,-0.617376983165741,-2.863168954849243
1780565048626684200,12.45368408203125,1.7938270568847656,-1.2233489751815796,-2.545435905456543
1780565048646198800,12.47319873046875,2.121105909347534,-1.8308659791946411,-2.277338981628418
1780565048665715700,12.4927158203125,2.2262160778045654,-2.3970839977264404,-2.2172889709472656
1780565048685235500,12.5122353515625,2.128171920776367,-3.7973709106445312,-2.251413106918335
1780565048704756500,12.531756591796874,2.0900349617004395,-4.057682991027832,-2.1866629123687744
1780565048724275700,12.551275634765625,2.144089937210083,-4.500166893005371,-2.0330970287323
1780565048743792000,12.570792236328124,2.3253231048583984,-6.078499794006348,-1.8367270231246948
1780565048763309800,12.590309814453125,2.563852071762085,-6.251615047454834,-1.5736600160598755
1780565048782828800,12.609828857421874,2.563852071762085,-6.251615047454834,-1.5736600160598755
1780565048802346200,12.62934619140625,3.0689539909362793,-7.923374176025391,-0.9553189873695374
1780565048821861600,12.648861572265625,3.2534730434417725,-7.97213077545166,-0.4215810000896454
1780565048841382100,12.668382080078125,3.2534730434417725,-7.97213077545166,-0.4215810000896454
1780565048860905700,12.68790576171875,3.097507953643799,-7.94598913192749,1.9480969905853271
1780565048880430000,12.70743017578125,3.097507953643799,-7.94598913192749,1.9480969905853271
1780565048899956700,12.726956787109375,2.669387102127075,-8.204642295837402,2.722240924835205
1780565048919483000,12.74648291015625,2.528791904449463,-8.19033432006836,3.2363789081573486
1780565048939007700,12.7660078125,2.4225809574127197,-8.097029685974121,3.760021924972534
1780565048958528800,12.78552880859375,2.2476229667663574,-7.9220499992370605,4.176845073699951
1780565048978050800,12.80505078125,2.0082919597625732,-7.627274036407471,4.556191921234131
1780565048997570800,12.82457080078125,1.7873799800872803,-7.17214822769165,4.92055082321167
1780565049017090300,12.84409033203125,1.5171689987182617,-6.566930770874023,5.215719223022461
1780565049036610000,12.863610107421875,1.2260470390319824,-5.830556869506836,5.447249889373779
1780565049056125000,12.883125,0.8671470284461975,-5.097196102142334,5.638460159301758
1780565049075639000,12.90263916015625,0.3425689935684204,-4.322052955627441,5.809225082397461
1780565049095157000,12.922156982421875,-0.24490399658679962,-3.4947080612182617,5.966707229614258
1780565049114676500,12.941676513671876,-0.803508996963501,-2.628180980682373,6.197926998138428
1780565049134194200,12.961194091796875,-1.21384596824646,-1.6944910287857056,6.438231945037842
1780565049153716000,12.980716064453125,-1.4887239933013916,-0.8699139952659607,6.617232799530029
1780565049173241000,13.000240966796875,-1.7031559944152832,-0.18259699642658234,6.746082782745361
1780565049192761900,13.019761962890625,-1.9223589897155762,0.4069119989871979,6.777219772338867
1780565049212281000,13.039281005859374,-2.0968029499053955,0.8718569874763489,6.77338981628418
1780565049231803400,13.058803466796874,-2.16925311088562,1.3424220085144043,6.739285945892334
1780565049251326700,13.07832666015625,-2.1404929161071777,1.8150899410247803,6.6502509117126465
1780565049270845000,13.097844970703125,-2.009803056716919,2.1688880920410156,6.51334285736084
1780565049290363100,13.117363037109374,-1.872310996055603,2.406266927719116,6.34194278717041
1780565049309879600,13.136879638671875,-1.7566109895706177,2.4753010272979736,6.161846160888672
1780565049329395200,13.156395263671875,-1.6380059719085693,2.525312900543213,5.980521202087402
1780565049348909000,13.175908935546875,-1.4861960411071777,2.6141889095306396,5.801474094390869
1780565049368420900,13.1954208984375,-1.3224400281906128,2.5938730239868164,5.554393768310547
1780565049387932400,13.214932373046874,-1.1300909519195557,2.607667922973633,5.199697971343994
1780565049407444700,13.23444482421875,-0.9172719717025757,2.6313669681549072,4.742484092712402
1780565049426958600,13.25395849609375,-1.0417009592056274,2.5620949268341064,4.18060302734375
1780565049446475500,13.2734755859375,-1.2411459684371948,2.4116830825805664,3.5327980518341064
1780565049465991000,13.292990966796875,-1.3458670377731323,2.379542112350464,2.7232658863067627
1780565049485502200,13.312502197265625,-1.4413269758224487,2.371220111846924,0.8351070284843445
1780565049505016300,13.332016357421875,-1.2615649700164795,2.0594820976257324,-1.0249689817428589
1780565049524533200,13.351533203125,-0.988178014755249,1.8458540439605713,-1.5732460021972656
1780565049544048400,13.37104833984375,-0.8406460285186768,1.7287060022354126,-3.146509885787964
1780565049563564300,13.390564208984374,-0.7301239967346191,-0.18775799870491028,-3.548460006713867
1780565049583079700,13.41007958984375,-0.7301239967346191,-0.18775799870491028,-3.548460006713867
1780565049602594300,13.42959423828125,-0.2395229935646057,0.4992940127849579,-5.917517185211182
1780565049622111200,13.449111328125,-0.14299499988555908,0.8097090125083923,-6.178783893585205
1780565049641630500,13.46863037109375,-0.2401839941740036,1.1000829935073853,-6.331674098968506
1780565049661149700,13.488149658203126,-0.2401839941740036,1.1000829935073853,-6.331674098968506
1780565049680666000,13.507666015625,-0.738664984703064,2.868927001953125,-7.768731117248535
1780565049700181500,13.527181396484375,-0.738664984703064,2.868927001953125,-7.768731117248535
1780565049719691500,13.54669140625,-0.7749199867248535,5.032468795776367,-9.63333511352539
1780565049739198700,13.56619873046875,-0.7452600002288818,5.363149166107178,-9.640564918518066
1780565049758709000,13.585708984375,-0.9925730228424072,5.6460371017456055,-9.344623565673828
1780565049778221300,13.60522119140625,-1.3081350326538086,7.3396830558776855,-8.975614547729492
1780565049797733600,13.624733642578125,-1.5907620191574097,7.635015964508057,-8.415801048278809
1780565049817243100,13.6442431640625,-1.7949320077896118,8.764031410217285,-7.750854969024658
1780565049836753700,13.663753662109375,-2.007725954055786,8.863271713256836,-6.979757785797119
1780565049856265200,13.68326513671875,-2.3309619426727295,8.823261260986328,-6.040493965148926
1780565049875780600,13.702780517578125,-2.73260498046875,8.66938304901123,-5.231506824493408
1780565049895296800,13.722296875,-3.0697920322418213,8.42795181274414,-4.621222019195557
1780565049914814200,13.741814208984374,-3.090728998184204,8.060656547546387,-4.101103782653809
1780565049934333700,13.761333740234376,-2.752610921859741,7.599343776702881,-3.613779067993164
1780565049953853400,13.780853515625,-2.2329111099243164,6.975149154663086,-3.020479917526245
1780565049973374200,13.800374267578125,-1.6590739488601685,6.277103900909424,-2.352421998977661
1780565049992890000,13.81989013671875,-1.4086120128631592,5.569961071014404,-1.7974510192871094
1780565050012408000,13.839407958984374,-1.4454050064086914,4.9991278648376465,-1.3964630365371704
1780565050031926800,13.8589267578125,-1.5530279874801636,4.633433818817139,-1.1160529851913452
1780565050051445500,13.878445556640624,-1.6847610473632812,4.465775966644287,-0.8383219838142395
1780565050070964200,13.897964111328125,-1.6476600170135498,4.42183780670166,-0.46173399686813354
1780565050090482000,13.91748193359375,-1.5959910154342651,4.372823238372803,-0.05888200178742409
1780565050109999000,13.9369990234375,-1.617408037185669,4.275786876678467,0.22956599295139313
1780565050129519400,13.956519287109375,-1.734694004058838,4.109689235687256,0.4279470145702362
1780565050149043200,13.976043212890625,-1.8664649724960327,3.930540084838867,0.5507450103759766
1780565050168566000,13.99556591796875,-1.9107029438018799,3.8064448833465576,0.65836501121521
1780565050188087600,14.015087646484375,-1.8870840072631836,3.645737886428833,0.7645260095596313
1780565050207607300,14.034607177734374,-1.8318489789962769,3.506938934326172,0.8686149716377258
1780565050227123200,14.054123291015625,-1.7165659666061401,3.3427329063415527,0.9501940011978149
1780565050246635000,14.073635009765624,-1.5794169902801514,3.140204906463623,1.0192450284957886
1780565050266147600,14.093147705078126,-1.48881196975708,3.0290169715881348,1.1304409503936768
1780565050285663500,14.11266357421875,-1.458230972290039,2.6424949169158936,1.2297159433364868
1780565050305176800,14.1321767578125,-1.3961360454559326,2.291311025619507,1.2081700563430786
1780565050324689200,14.151689208984376,-1.1953970193862915,1.990481972694397,1.1041829586029053
1780565050344205800,14.171205810546875,-0.903132975101471,1.5349520444869995,0.9893310070037842
1780565050363723300,14.19072314453125,-0.5514600276947021,1.377308964729309,0.7761390209197998
1780565050383238400,14.21023828125,-0.2593829929828644,1.2661999464035034,0.5708370208740234
1780565050402751700,14.229751708984375,-0.13624800741672516,1.0530550479888916,0.4481070041656494
1780565050422262800,14.2492626953125,-0.1340399980545044,0.9157549738883972,0.329351007938385
1780565050441774800,14.26877490234375,-0.15905900299549103,0.5830169916152954,0.43046998977661133
1780565050461288000,14.288287841796874,-0.15905900299549103,0.5830169916152954,0.43046998977661133
1780565050480800000,14.307800048828126,-0.3310360014438629,-0.3549819886684418,1.3574719429016113
1780565050500315400,14.3273154296875,-0.3310360014438629,-0.3549819886684418,1.3574719429016113
1780565050519836000,14.3468359375,-0.3310360014438629,-0.3549819886684418,1.3574719429016113
1780565050539353900,14.366353759765625,-0.8683440089225769,-1.6762440204620361,3.8570380210876465
1780565050558868200,14.3858681640625,-0.9457129836082458,-2.200326919555664,3.957034111022949
1780565050578383000,14.405383056640625,-0.536566972732544,-2.664858102798462,1.1575210094451904
1780565050597893600,14.4248935546875,1.6364150047302246,-3.067784070968628,-1.865144968032837
1780565050617404200,14.444404052734376,3.4006619453430176,-3.355617046356201,-3.501099109649658
1780565050636920000,14.463920166015624,3.858510971069336,-3.3080461025238037,-3.5761590003967285
1780565050656438500,14.4834384765625,3.876439094543457,-2.950303077697754,-3.1019489765167236
1780565050675952600,14.50295263671875,1.646636962890625,-2.3572518825531006,-0.9992750287055969
1780565050695466200,14.52246630859375,-0.18535399436950684,-1.6416339874267578,-0.5739390254020691
1780565050714983400,14.5419833984375,-0.6349409818649292,-1.1572010517120361,-0.2212039977312088
1780565050734499300,14.561499267578125,-1.09785795211792,-1.0608220100402832,0.10414399951696396
1780565050754017000,14.58101708984375,-1.164829969406128,-1.2116299867630005,0.4173029959201813
1780565050773535500,14.600535400390624,-0.792182981967926,-1.542572021484375,0.6828789710998535
1780565050793052700,14.620052734375,-0.22701400518417358,-1.8690919876098633,0.8016570210456848
1780565050812574500,14.639574462890625,0.36811500787734985,-2.119349956512451,0.8123189806938171
1780565050832098000,14.65909814453125,0.7712759971618652,-2.2394750118255615,0.7883800268173218
1780565050851612700,14.67861279296875,0.8479980230331421,-2.1751608848571777,0.7386599779129028
1780565050871129600,14.698129638671874,0.6972439885139465,-1.914823055267334,0.7048329710960388
1780565050890649300,14.7176494140625,0.3101919889450073,-1.4670089483261108,0.6437879800796509
1780565050910162200,14.737162109375,-0.1339379996061325,-0.964152991771698,0.5966110229492188
1780565050929676300,14.75667626953125,-0.4469670057296753,-0.47381800413131714,0.554747998714447
1780565050949189600,14.776189697265625,-0.6670179963111877,-0.04052300006151199,0.46577900648117065
1780565050968704300,14.795704345703125,-0.7428510189056396,0.25847598910331726,0.35094600915908813
1780565050988218600,14.815218505859375,-0.712103009223938,0.43747401237487793,0.13555499911308289
1780565051007729000,14.83472900390625,-0.5939840078353882,0.5142710208892822,0.03897399827837944
1780565051027239700,14.85423974609375,-0.32685399055480957,0.5315080285072327,0.17019599676132202
1780565051046750000,14.87375,-0.045051999390125275,0.5018960237503052,0.4128760099411011
1780565051066263300,14.89326318359375,0.1446020007133484,0.448837012052536,0.6794030070304871
1780565051085780200,14.9127802734375,0.1849299967288971,0.4046579897403717,0.7627140283584595
1780565051105294300,14.93229443359375,0.1650879979133606,0.40108799934387207,0.6599140167236328
1780565051124807700,14.9518076171875,0.18261000514030457,0.4383620023727417,0.4632439911365509
1780565051144321800,14.97132177734375,0.28813400864601135,0.47286999225616455,0.21252299845218658
1780565051163836400,14.99083642578125,0.5536249876022339,0.5603709816932678,0.028649000450968742
1780565051183349000,15.010348876953126,0.5536249876022339,0.5603709816932678,0.028649000450968742
1780565051202863900,15.02986376953125,0.9806159734725952,0.6512830257415771,0.27861499786376953
1780565051222379500,15.049379638671875,1.0349990129470825,0.6808609962463379,0.7469900250434875
1780565051241890300,15.068890380859376,0.8593710064888,0.6840140223503113,1.2415879964828491
1780565051261399600,15.088399658203125,0.8593710064888,0.6840140223503113,1.2415879964828491
1780565051280908000,15.107907958984375,0.8593710064888,0.6840140223503113,1.2415879964828491
1780565051300417300,15.127417236328125,0.1606599986553192,2.670994997024536,1.0613830089569092
1780565051319924200,15.14692431640625,0.35367000102996826,2.789823055267334,0.7909790277481079
1780565051339426600,15.166426513671874,0.5624669790267944,2.843496084213257,0.7493919730186462
1780565051358929400,15.185929443359376,0.4198800027370453,2.697580099105835,0.7727349996566772
1780565051378432000,15.205431884765625,-0.12687499821186066,2.2389791011810303,0.6738259792327881
1780565051397936000,15.22493603515625,-0.7330260276794434,1.628322958946228,0.34940698742866516
1780565051417447700,15.24444775390625,-1.0207459926605225,1.1318880319595337,-0.03691999986767769
1780565051436960500,15.26396044921875,-0.8891299962997437,0.6158400177955627,-0.13921399414539337
1780565051456469500,15.283469482421875,-0.45264899730682373,0.1246659979224205,0.09336099773645401
1780565051475984000,15.30298388671875,0.0378590002655983,-0.2583779990673065,0.4535819888114929
1780565051495500500,15.32250048828125,0.251675009727478,-0.5220999717712402,0.6422929763793945
1780565051515011600,15.342011474609375,0.1417039930820465,-0.6829739809036255,0.5083379745483398
1780565051534524700,15.361524658203125,-0.14970499277114868,-0.8360580205917358,0.15458400547504425
1780565051554039600,15.38103955078125,-0.3357959985733032,-0.9431930184364319,-0.21960100531578064
1780565051573557800,15.400557861328124,-0.2739180028438568,-0.9876270294189453,-0.4387870132923126
1780565051593070600,15.420070556640624,-0.10227499902248383,-0.9870799779891968,-0.46291300654411316
1780565051612575700,15.43957568359375,0.021263999864459038,-0.8827620148658752,-0.378464013338089
1780565051632081000,15.459080810546874,-0.061813998967409134,-0.7393320202827454,-0.29401999711990356
1780565051651586600,15.478586669921874,-0.25998300313949585,-0.5797340273857117,-0.26446500420570374
1780565051671098400,15.498098388671876,-0.42316699028015137,-0.46723300218582153,-0.2475080043077469
1780565051690610000,15.51760986328125,-0.4702000021934509,-0.4378550052642822,-0.15960000455379486
1780565051710117600,15.53711767578125,-0.3371399939060211,-0.4842410087585449,0.03702700138092041
1780565051729624300,15.556624267578124,-0.04763700067996979,-0.6077309846878052,0.3192099928855896
1780565051749131800,15.5761318359375,0.26088500022888184,-0.694720983505249,0.5663179755210876
1780565051768645600,15.595645751953125,0.4258419871330261,-0.7821710109710693,0.7550920248031616
1780565051788157000,15.615156982421874,0.4097819924354553,-0.8543360233306885,0.8303279876708984
1780565051807659000,15.634658935546875,0.2620129883289337,-0.916297972202301,0.7784559726715088
1780565051827164000,15.654163818359375,0.15625299513339996,-0.9678789973258972,0.5899860262870789
1780565051846673400,15.67367333984375,0.21707899868488312,-0.9560989737510681,0.30107399821281433
1780565051866184400,15.693184326171876,0.39443299174308777,-0.9429069757461548,-0.035673998296260834
1780565051885697500,15.712697509765626,0.5686179995536804,-0.9363150000572205,-0.4061470031738281
1780565051905210600,15.732210693359375,0.7548580169677734,-0.9187849760055542,-0.7440339922904968
1780565051924724000,15.751723876953125,0.9486820101737976,-0.8692399859428406,-0.9943869709968567
1780565051944235000,15.771235107421875,1.057466983795166,-0.7742969989776611,-1.0639009475708008
1780565051963747000,15.7907470703125,1.0717359781265259,-0.626882016658783,-0.902068018913269
1780565051983263200,15.81026318359375,1.0717359781265259,-0.626882016658783,-0.902068018913269
1780565052002780200,15.8297802734375,0.5560160279273987,-0.3507919907569885,0.08801399916410446
1780565052022290400,15.84929052734375,0.2015800029039383,-0.26733899116516113,0.6841049790382385
1780565052041799200,15.868799072265626,-0.05713199824094772,-0.2502500116825104,1.1781560182571411
1780565052061312800,15.888312744140626,-0.05713199824094772,-0.2502500116825104,1.1781560182571411
1780565052080825300,15.907825439453125,-0.05713199824094772,-0.2502500116825104,1.1781560182571411
1780565052100338400,15.92733837890625,0.12670199573040009,-0.5900099873542786,1.311434030532837
1780565052119851500,15.9468515625,0.31666499376296997,-0.6811310052871704,1.0192229747772217
1780565052139367700,15.96636767578125,0.5218700170516968,-0.738523006439209,0.7272049784660339
1780565052158889700,15.9858896484375,0.6923679709434509,-0.7342290282249451,0.5102019906044006
1780565052178413600,16.00541357421875,0.7406749725341797,-0.6713650226593018,0.4397850036621094
1780565052197935900,16.024935791015626,0.6019279956817627,-0.5763540267944336,0.42855000495910645
1780565052217451800,16.04445166015625,0.314969003200531,-0.46139198541641235,0.4189240038394928
1780565052236965000,16.063965087890626,0.01960499957203865,-0.3665420114994049,0.36566901206970215
1780565052256481000,16.08348095703125,-0.10368900001049042,-0.33888399600982666,0.2837730050086975
1780565052275999000,16.1029990234375,-0.027999000623822212,-0.3361940085887909,0.20887599885463715
1780565052295518000,16.12251806640625,0.13962100446224213,-0.368369996547699,0.27299201488494873
1780565052315036200,16.1420361328125,0.24958300590515137,-0.3580879867076874,0.4777269959449768
1780565052334553000,16.161552978515626,0.18450100719928741,-0.2714020013809204,0.7256659865379333
1780565052354071300,16.1810712890625,-0.07786300033330917,-0.12302500009536743,0.9538969993591309
1780565052373587500,16.20058740234375,-0.42600300908088684,0.046059999614953995,0.8530279994010925
1780565052393101300,16.220101318359376,-0.7093939781188965,0.23526200652122498,0.41182398796081543
1780565052412611600,16.239611572265623,-0.8481469750404358,0.39642998576164246,-0.027340000495314598
1780565052432125000,16.259125,-0.7811049818992615,0.5169259905815125,-0.18686899542808533
1780565052451645700,16.278645751953125,-0.6392530202865601,0.6376640200614929,0.026260999962687492
1780565052471165200,16.298165283203126,-0.6675860285758972,0.7104820013046265,0.4500350058078766
1780565052490684000,16.317683837890623,-0.894120991230011,0.6892960071563721,0.7717599868774414
1780565052510203100,16.337203125,-1.2189470529556274,0.5544819831848145,0.8484740257263184
1780565052529720300,16.35672021484375,-1.4267699718475342,0.3280560076236725,0.8118079900741577
1780565052549239000,16.376239013671874,-1.3425719738006592,0.09565400332212448,0.8714619874954224
1780565052568761000,16.395760986328124,-1.0763059854507446,-0.04181699827313423,1.0879130363464355
1780565052588282600,16.41528271484375,-0.9289309978485107,-0.07319799810647964,1.368399977684021
1780565052607803100,16.43480322265625,-1.0658739805221558,-0.03294200077652931,1.5709459781646729
1780565052627321300,16.4543212890625,-1.4567780494689941,0.05856499820947647,1.5745340585708618
1780565052646840300,16.47384033203125,-1.8690929412841797,0.22364600002765656,1.3081389665603638
1780565052666361900,16.49336181640625,-2.027311086654663,0.35487499833106995,0.8937770128250122
1780565052685880800,16.512880859375,-1.8483860492706299,0.43251699209213257,0.5564519762992859
1780565052705396200,16.532396240234377,-1.4052059650421143,0.4001980125904083,0.3826740086078644
1780565052724916000,16.551916015625,-0.8861839771270752,0.22793099284172058,0.2859340012073517
1780565052744437200,16.571437255859376,-0.5514609813690186,0.07815700024366379,0.10669299960136414
1780565052763956500,16.59095654296875,-0.4918380081653595,-0.0646200031042099,-0.20313599705696106
1780565052783478000,16.61047802734375,-0.4918380081653595,-0.0646200031042099,-0.20313599705696106
1780565052802999000,16.6299990234375,-0.6725530028343201,-0.25473499298095703,-0.7407240271568298
1780565052822517200,16.649517333984374,-0.4835749864578247,-0.3813380002975464,-0.7658290266990662
1780565052842035500,16.669035400390626,-0.4835749864578247,-0.3813380002975464,-0.7658290266990662
1780565052861552400,16.688552490234375,0.0665460005402565,-0.580731987953186,-0.7301130294799805
1780565052881067800,16.70806787109375,0.2934040129184723,-0.5931000113487244,-0.7915359735488892
1780565052900586800,16.727586669921877,0.2934040129184723,-0.5931000113487244,-0.7915359735488892
1780565052920109000,16.747109130859375,0.23893499374389648,-0.6382369995117188,-0.8283259868621826
1780565052939628800,16.76662890625,0.06722799688577652,-0.6474180221557617,-0.9806270003318787
1780565052959147000,16.78614697265625,-0.07102599740028381,-0.7717829942703247,-1.3175289630889893
1780565052978669300,16.80566943359375,-0.06380099803209305,-1.0384880304336548,-1.801103949546814
1780565052998190000,16.825190185546877,0.22502200305461884,-1.3854219913482666,-2.344093084335327
1780565053017707800,16.844707763671874,0.5933449864387512,-1.721771001815796,-2.6785778999328613
1780565053037229600,16.8642294921875,0.7888889908790588,-2.0836238861083984,-2.743596076965332
1780565053056750300,16.883750244140625,0.7983109951019287,-2.514699935913086,-2.7458200454711914
1780565053076269800,16.903269775390626,0.6544880270957947,-2.8693289756774902,-2.667289972305298
1780565053095789800,16.922789794921876,0.4308539927005768,-3.3475589752197266,-2.423266887664795
1780565053115307000,16.94230712890625,0.35449498891830444,-4.690937042236328,-2.08835506439209
1780565053134823700,16.96182373046875,0.3159239888191223,-4.829453945159912,-1.6728190183639526
1780565053154342100,16.981342041015626,0.1908169984817505,-5.247222900390625,-1.4064249992370605
1780565053173860000,17.000860107421875,0.08624699711799622,-6.724531173706055,-1.3840099573135376
1780565053193377300,17.020377197265624,0.07346600294113159,-6.8963727951049805,-1.3559470176696777
1780565053212898000,17.03989794921875,0.10076700150966644,-7.08540678024292,-1.230774998664856
1780565053232415700,17.059415771484375,0.022981999441981316,-7.2662529945373535,-0.8914009928703308
1780565053251928600,17.078928466796874,-0.18917100131511688,-7.343100070953369,-0.4648379981517792
1780565053271443200,17.098443115234375,-0.5181480050086975,-7.434747219085693,-0.21948499977588654
1780565053290961200,17.117961181640624,-0.7750070095062256,-7.542144775390625,-0.1109199970960617
1780565053310474500,17.137474609375,-0.941868007183075,-7.524922847747803,-0.059783998876810074
1780565053329991000,17.156990966796876,-1.0988850593566895,-7.436014175415039,0.14871299266815186
1780565053349513700,17.176513671875,-1.2612169981002808,-7.299491882324219,0.440544992685318
1780565053369031400,17.196031494140627,-1.5889769792556763,-7.151281833648682,0.7587029933929443
1780565053388547300,17.21554736328125,-1.8478690385818481,-7.063024044036865,1.1726690530776978
1780565053408063500,17.2350634765625,-1.9835809469223022,-6.9052348136901855,1.5870660543441772
1780565053427580700,17.25458056640625,-2.2385001182556152,-6.762574195861816,2.085160970687866
1780565053447098000,17.27409814453125,-2.518533945083618,-6.56088399887085,2.549570083618164
1780565053466610200,17.293610107421873,-2.9076828956604004,-6.319479942321777,2.8776090145111084
1780565053486126600,17.313126708984374,-3.395437002182007,-6.051167011260986,3.214595079421997
1780565053505648600,17.332648681640624,-3.740839958190918,-5.577518939971924,3.6253409385681152
1780565053525168000,17.352168212890625,-4.016811847686768,-5.091291904449463,5.235188961029053
1780565053544686800,17.371686767578126,-4.363059997558594,-4.611832141876221,5.4134321212768555
1780565053564202200,17.3912021484375,-4.577855110168457,-4.122623920440674,5.646701812744141
1780565053583717000,17.410717041015626,-4.577855110168457,-4.122623920440674,5.646701812744141
1780565053603237000,17.430237060546876,-4.734808921813965,-3.3088769912719727,5.980519771575928
1780565053622760000,17.449760009765626,-4.624086856842041,-2.8394250869750977,6.157784938812256
1780565053642285800,17.469285888671877,-4.4570159912109375,-2.3944718837738037,6.254946231842041
1780565053661807600,17.4888076171875,-4.4570159912109375,-2.3944718837738037,6.254946231842041
1780565053681326300,17.508326416015624,-4.067295074462891,-1.5245670080184937,6.226363182067871
1780565053700847600,17.52784765625,-4.067295074462891,-1.5245670080184937,6.226363182067871
1780565053720369000,17.547368896484375,-4.067295074462891,-1.5245670080184937,6.226363182067871
1780565053739887600,17.5668876953125,-2.5942060947418213,-0.5414770245552063,6.438908100128174
1780565053759408400,17.586408447265626,-2.109468936920166,-0.09563799947500229,6.4050397872924805
1780565053778932200,17.60593212890625,-1.6706839799880981,0.36939701437950134,6.374322891235352
1780565053798455000,17.625455078125,-1.2808879613876343,0.7223849892616272,6.316548824310303
1780565053817976300,17.644976318359376,-0.8900820016860962,1.024150013923645,6.297496795654297
1780565053837495300,17.664495361328125,-0.45741599798202515,1.2742060422897339,6.299592971801758
1780565053857011200,17.68401123046875,0.00824199989438057,1.525154948234558,6.3200178146362305
1780565053876523500,17.7035234375,0.5536119937896729,1.9236700534820557,6.38730001449585
1780565053896036600,17.72303662109375,1.1161119937896729,2.350925922393799,6.518294811248779
1780565053915552800,17.742552734375,1.5385379791259766,2.770689010620117,6.620427131652832
1780565053935070200,17.7620703125,1.7065190076828003,3.119004011154175,6.572522163391113
1780565053954591700,17.781591796875,1.7168550491333008,3.288248062133789,6.258525848388672
1780565053974110700,17.80111083984375,1.74583899974823,3.32029390335083,5.743328094482422
1780565053993628700,17.820628662109375,2.0489680767059326,3.3032050132751465,5.09074592590332
1780565054013149000,17.84014892578125,2.383347988128662,3.2199249267578125,4.389102935791016
1780565054032668400,17.85966845703125,2.4436988830566406,3.076931953430176,3.765894889831543
1780565054052188700,17.879188720703127,2.3830149173736572,2.9191720485687256,3.079655885696411
1780565054071708000,17.8987080078125,2.1987669467926025,2.6191999912261963,2.382011890411377
1780565054091230700,17.918230712890626,2.0748651027679443,2.2832939624786377,1.7463380098342896
1780565054110753800,17.93775390625,1.930129051208496,1.9095770120620728,1.0722630023956299
1780565054130273000,17.95727294921875,1.6464999914169312,1.5786570310592651,0.41032499074935913
1780565054149789000,17.976788818359374,1.3801590204238892,1.369663953781128,-0.2706969976425171
1780565054169307000,17.996306884765627,0.9813519716262817,1.0511679649353027,-1.0453280210494995
1780565054188824300,18.01582421875,0.7746180295944214,0.6950830221176147,-1.8251529932022095
1780565054208339500,18.03533935546875,0.9260339736938477,0.36437198519706726,-3.632035970687866
1780565054227858700,18.054858642578125,1.1449220180511475,0.07562199980020523,-4.054697036743164
1780565054247378700,18.074378662109375,1.4119869470596313,-0.14160600304603577,-4.623763084411621
1780565054266895000,18.09389501953125,1.6199300289154053,-0.15152999758720398,-5.224346160888672
1780565054286410000,18.113409912109375,1.821707010269165,0.028929999098181725,-6.651443004608154
1780565054305927700,18.132927734375,2.05684494972229,0.2325800061225891,-6.821217060089111
1780565054325446400,18.1524462890625,2.127351999282837,0.562391996383667,-7.08886194229126
1780565054344961500,18.17196142578125,2.3223769664764404,1.0219000577926636,-7.318645000457764
1780565054364480000,18.19147998046875,2.471050977706909,1.571491003036499,-7.575336933135986
1780565054383999000,18.2109990234375,2.471050977706909,1.571491003036499,-7.575336933135986
1780565054403514600,18.2305146484375,2.8715291023254395,3.6534550189971924,-8.869786262512207
1780565054423032800,18.25003271484375,2.8715291023254395,3.6534550189971924,-8.869786262512207
1780565054442549500,18.269549560546874,3.376755952835083,5.659183025360107,-10.367104530334473
1780565054462065700,18.289065673828127,2.9146230220794678,6.120530128479004,-9.662006378173828
1780565054481586400,18.30858642578125,2.9146230220794678,6.120530128479004,-9.662006378173828
1780565054501105700,18.328105712890626,2.9146230220794678,6.120530128479004,-9.662006378173828
1780565054520629500,18.34762939453125,2.3359100818634033,9.539088249206543,-8.728066444396973
1780565054540153300,18.3671533203125,2.640069007873535,9.765774726867676,-7.781232833862305
1780565054559670300,18.386670166015627,3.1522231101989746,10.082819938659668,-6.720395088195801
1780565054579182300,18.406182373046875,3.5090270042419434,10.226816177368164,-5.7092790603637695
1780565054598696700,18.42569677734375,3.4067630767822266,10.126379013061523,-4.862117767333984
1780565054618217500,18.445217529296876,2.8569490909576416,9.846426010131836,-4.253637790679932
1780565054637737500,18.464737548828126,2.1593689918518066,9.454947471618652,-3.776819944381714
1780565054657258500,18.484258544921875,1.666944980621338,9.017583847045898,-3.312027931213379
1780565054676778000,18.503778076171876,1.5742030143737793,8.60616683959961,-2.8101561069488525
1780565054696297000,18.523296875,1.7281320095062256,8.242155075073242,-2.3269340991973877
1780565054715816700,18.542816650390623,1.7844669818878174,7.816847801208496,-1.9298969507217407
1780565054735335000,18.5623349609375,1.7746809720993042,7.4645562171936035,-1.6338690519332886
1780565054754851600,18.5818515625,1.4424560070037842,7.210480213165283,-1.4070080518722534
1780565054774365400,18.601365478515625,0.9287289977073669,6.988854885101318,-1.053257942199707
1780565054793880000,18.620880126953125,0.48100799322128296,6.924545764923096,-0.4754810035228729
1780565054813396200,18.640396240234374,-0.01800999976694584,6.878108978271484,0.14386899769306183
1780565054832911400,18.659911376953126,-0.39105701446533203,6.780240058898926,0.547523021697998
1780565054852427300,18.67942724609375,-0.5961419939994812,6.580102920532227,0.49145200848579407
1780565054871946200,18.6989462890625,-0.5813500285148621,6.171494960784912,0.03338100016117096
1780565054891462700,18.718462646484376,-0.22715400159358978,5.674242973327637,-0.41695401072502136
1780565054910976300,18.737976318359376,0.2688719928264618,5.098141193389893,-0.5565919876098633
1780565054930493200,18.7574931640625,0.6156539916992188,4.518517017364502,-0.3553580045700073
1780565054950012700,18.7770126953125,0.6710759997367859,4.013812065124512,0.020858999341726303
1780565054969530600,18.796530517578127,0.3409689962863922,3.549312114715576,0.24739199876785278
1780565054989045000,18.816044921875,-0.14246100187301636,3.076582908630371,0.28715699911117554
1780565055008563200,18.835563232421876,-0.45741501450538635,2.54223895072937,0.363660991191864
1780565055028076800,18.855076904296876,-0.5244669914245605,1.9429550170898438,0.6031559705734253
1780565055047582700,18.874582763671874,-0.3891279995441437,1.2128740549087524,1.0675159692764282
1780565055067094300,18.89409423828125,-0.15001800656318665,0.4099160134792328,2.5090410709381104
1780565055086612500,18.913612548828127,0.12515400350093842,-0.3610909879207611,2.871608018875122
1780565055106133000,18.933133056640624,0.36163198947906494,-1.0824999809265137,3.2388598918914795
1780565055125652200,18.95265234375,0.5016869902610779,-1.737813949584961,3.464498996734619
1780565055145171700,18.972171630859375,0.6987950205802917,-2.2920889854431152,3.4625039100646973
1780565055164690000,18.99168994140625,1.0496100187301636,-2.7250850200653076,3.1661150455474854
1780565055184208000,19.011207763671877,1.0496100187301636,-2.7250850200653076,3.1661150455474854
1780565055203725300,19.030725341796874,1.6825189590454102,-3.112165927886963,1.1929789781570435
1780565055223240200,19.050240234375,1.8594310283660889,-3.1189069747924805,0.7592809796333313
1780565055242759000,19.069759033203123,1.8110140562057495,-3.065078020095825,0.41491198539733887
1780565055262283300,19.089283203125,1.7325559854507446,-2.956756114959717,0.27952200174331665
1780565055281806000,19.10880615234375,1.7325559854507446,-2.956756114959717,0.27952200174331665
1780565055301324500,19.128324462890625,1.5836280584335327,-2.6595349311828613,-0.026208000257611275
1780565055320842000,19.147842041015625,1.5836280584335327,-2.6595349311828613,-0.026208000257611275
1780565055340358100,19.167358154296874,1.5836280584335327,-2.6595349311828613,-0.026208000257611275
1780565055359874600,19.18687451171875,1.2324939966201782,-1.9747639894485474,-0.4379419982433319
1780565055379392500,19.206392578125,1.0228290557861328,-1.6587660312652588,-0.04736199975013733
1780565055398912500,19.22591259765625,1.0228290557861328,-1.6587660312652588,-0.04736199975013733
1780565055418434300,19.245434326171875,0.6766449809074402,-1.366590976715088,0.9231569766998291
1780565055437952800,19.264952880859376,0.4032999873161316,-1.3426330089569092,1.1498490571975708
1780565055457470000,19.284469970703125,0.1572130024433136,-1.340986967086792,1.1346440315246582
1780565055476990700,19.30399072265625,0.012814000248908997,-1.331413984298706,1.0493459701538086
1780565055496511000,19.323510986328124,-0.06530699878931046,-1.3181270360946655,1.002593994140625
1780565055516029400,19.343029541015625,-0.06055299937725067,-1.181676983833313,0.9644539952278137
1780565055535549000,19.362548828125,-0.04938400164246559,-0.9426019787788391,0.9206479787826538
1780565055555067600,19.382067626953123,-0.07420600205659866,-0.6104159951210022,0.8350690007209778
1780565055574585300,19.40158544921875,-0.15769000351428986,-0.2513299882411957,0.7250999808311462
1780565055594107000,19.42110693359375,-0.28236401081085205,0.07554300129413605,0.5721240043640137
1780565055613629000,19.44062890625,-0.36620599031448364,0.377032995223999,0.3374069929122925
1780565055633148700,19.460148681640625,-0.4413900077342987,0.6324229836463928,0.06259799748659134
1780565055652668700,19.479668701171875,-0.49133700132369995,0.872439980506897,-0.2830590009689331
1780565055672188000,19.49918798828125,-0.58269202709198,1.0977610349655151,-0.6438779830932617
1780565055691707000,19.518706787109377,-0.7558979988098145,1.2367299795150757,-0.8620349764823914
1780565055711227100,19.53822705078125,-0.9472529888153076,1.2845319509506226,-0.8415510058403015
1780565055730749400,19.55774951171875,-1.119631052017212,1.250452995300293,-0.5534120202064514
1780565055750274300,19.5772744140625,-1.2057390213012695,1.1349550485610962,-0.04675300046801567
1780565055769797400,19.59679736328125,-1.2287479639053345,0.9948999881744385,0.41768398880958557
1780565055789315000,19.616315185546874,-1.2264070510864258,0.798600971698761,0.6636689901351929
1780565055808835300,19.63583544921875,-1.1413530111312866,0.6086289882659912,0.6791189908981323
1780565055828358400,19.6553583984375,-0.9704210162162781,0.42146098613739014,0.5742059946060181
1780565055847884300,19.67488427734375,-0.7592129707336426,0.27909499406814575,0.42724400758743286
1780565055867411200,19.6944111328125,-0.5710999965667725,0.2775009870529175,0.2729499936103821
1780565055886935800,19.713935791015626,-0.44075798988342285,0.36130398511886597,0.16897499561309814
1780565055906456600,19.73345654296875,-0.4617219865322113,0.5287719964981079,0.09469400346279144
1780565055925977000,19.75297705078125,-0.6335200071334839,0.7303419709205627,0.0850519984960556
1780565055945498400,19.772498291015626,-0.8894969820976257,0.9051390290260315,0.10734699666500092
1780565055965020200,19.792020263671876,-1.1804009675979614,1.0517350435256958,0.040525998920202255
1780565055984546000,19.811546142578123,-1.1804009675979614,1.0517350435256958,0.040525998920202255
1780565056004072000,19.831072021484374,-1.3637399673461914,1.10378897190094,-0.19299599528312683
1780565056023594500,19.850594482421876,-1.1475679874420166,0.9841449856758118,-0.21063600480556488
1780565056043115000,19.870114990234374,-0.8527169823646545,0.83024001121521,-0.10042499750852585
1780565056062636300,19.88963623046875,-0.5829349756240845,0.6705300211906433,0.09385400265455246
1780565056082159400,19.909159423828125,-0.5829349756240845,0.6705300211906433,0.09385400265455246
1780565056101682000,19.928681884765624,-0.5617859959602356,0.4061650037765503,0.44761401414871216
1780565056121208800,19.948208740234374,-0.5951690077781677,0.15354299545288086,0.544975996017456
1780565056140742400,19.967742431640627,-0.5951690077781677,0.15354299545288086,0.544975996017456
1780565056160271600,19.987271728515626,-0.5951690077781677,0.15354299545288086,0.544975996017456
1780565056179792000,20.0067919921875,-0.5867429971694946,-0.3002859950065613,0.4681810140609741
1780565056199315700,20.026315673828126,-0.5867429971694946,-0.3002859950065613,0.4681810140609741
1780565056218838000,20.045838134765624,-0.29300400614738464,-0.26944199204444885,0.1653289943933487
1780565056238359000,20.065359130859374,-0.12858299911022186,-0.23920199275016785,-0.05364999920129776
1780565056257887500,20.084887451171873,-0.03922199830412865,-0.16483600437641144,-0.320933997631073
1780565056277414000,20.104413818359376,-0.07461900264024734,-0.07311999797821045,-0.5832549929618835
1780565056296939300,20.123939208984375,-0.17852799594402313,0.04153899848461151,-0.753832995891571
1780565056316466400,20.143466552734374,-0.2754899859428406,0.2093999981880188,-0.8069210052490234
1780565056335995400,20.162995361328125,-0.40789300203323364,0.38148900866508484,-0.668578028678894
1780565056355522300,20.182522216796876,-0.5443140268325806,0.47623100876808167,-0.3298279941082001
1780565056375042300,20.202042236328126,-0.6648859977722168,0.5093759894371033,0.1472339928150177
1780565056394567200,20.221567138671876,-0.7524620294570923,0.41401201486587524,0.6114220023155212
1780565056414095400,20.241095458984375,-0.7470449805259705,0.1763720065355301,0.9457679986953735
1780565056433615000,20.260614990234377,-0.6683229804039001,-0.08644799888134003,1.0105600357055664
1780565056453132500,20.280132568359374,-0.4565429985523224,-0.3644770085811615,0.8301730155944824
1780565056472650500,20.299650390625,-0.1728059947490692,-0.5772929787635803,0.5749340057373047
1780565056492170200,20.319170166015624,0.14335599541664124,-0.6547229886054993,0.35605499148368835
1780565056511689000,20.33868896484375,0.4110409915447235,-0.6409069895744324,0.27562299370765686
1780565056531206000,20.358205810546874,0.4747689962387085,-0.5191460251808167,0.3295559883117676
1780565056550723300,20.377723388671875,0.3453719913959503,-0.36942699551582336,0.46266499161720276
1780565056570240000,20.397239990234375,0.033675000071525574,-0.27229198813438416,0.5758069753646851
1780565056589754600,20.416754638671875,-0.2789269983768463,-0.2278279960155487,0.6328049898147583
1780565056609273300,20.4362734375,-0.4385629892349243,-0.28199300169944763,0.6707850098609924
1780565056628790000,20.4557900390625,-0.4197919964790344,-0.4045349955558777,0.66702800989151
1780565056648301600,20.475301513671877,-0.17211200296878815,-0.5436499714851379,0.6817650198936462
1780565056667818000,20.49481787109375,0.19965000450611115,-0.6921250224113464,0.7690619826316833
1780565056687334000,20.514333984375,0.4962260127067566,-0.8003929853439331,0.8725510239601135
1780565056706845700,20.533845703125,0.6542050242424011,-0.8482499718666077,0.9787610173225403
1780565056726361600,20.553361572265626,0.652629017829895,-0.8171079754829407,1.0513919591903687
1780565056745885700,20.5728857421875,0.49682098627090454,-0.713932991027832,1.1546549797058105
1780565056765408300,20.592408203125,0.31949201226234436,-0.5850600004196167,1.3454060554504395
1780565056784926200,20.61192626953125,0.09743200242519379,-0.47776100039482117,1.4957489967346191
1780565056804446200,20.6314462890625,-0.07968500256538391,-0.28899601101875305,1.3882609605789185
1780565056823963600,20.650963623046874,-0.08045800030231476,-0.0245130006223917,1.0653239488601685
1780565056843476000,20.67047607421875,0.03494499996304512,0.1393519937992096,0.725866973400116
1780565056862991000,20.6899912109375,0.24882599711418152,0.3056949973106384,0.5259810090065002
1780565056882506000,20.709506103515626,0.3847059905529022,0.3773599863052368,0.5423169732093811
1780565056902015500,20.729015380859376,0.31710198521614075,0.34404999017715454,0.5479059815406799
1780565056921527600,20.748527587890624,0.31710198521614075,0.34404999017715454,0.5479059815406799
1780565056941038300,20.768038330078124,0.31710198521614075,0.34404999017715454,0.5479059815406799
1780565056960541000,20.787541015625,0.06642899662256241,0.5581480264663696,0.20090000331401825
1780565056980049000,20.807048828125,0.12051600217819214,0.5183650255203247,0.7354300022125244
1780565056999565800,20.82656591796875,0.12051600217819214,0.5183650255203247,0.7354300022125244
1780565057019082800,20.846082763671873,-0.08547300100326538,0.4123840034008026,2.5858659744262695
1780565057038601700,20.865601806640626,-0.36184999346733093,0.424919992685318,2.5855801105499268
1780565057058120400,20.885120361328124,-0.6042969822883606,0.4300310015678406,2.430445909500122
1780565057077636400,20.90463623046875,-0.6696950197219849,0.40038999915122986,2.257441997528076
1780565057097153000,20.924153076171876,-0.5268679857254028,0.29848599433898926,2.0889530181884766
1780565057116666000,20.943666015625,-0.28270599246025085,0.20868800580501556,1.867063045501709
1780565057136179500,20.963179443359376,-0.05169599875807762,0.187732994556427,1.500704050064087
1780565057155694300,20.9826943359375,0.06748499721288681,0.24625399708747864,1.0938299894332886
1780565057175207700,21.002207763671876,0.018521999940276146,0.4101170003414154,0.7590839862823486
1780565057194724400,21.021724365234373,-0.1755789965391159,0.5910570025444031,0.5401729941368103
1780565057214240800,21.04124072265625,-0.41468000411987305,0.7817609906196594,0.3758220076560974
1780565057233752800,21.0607529296875,-0.6371150016784668,0.9428369998931885,0.2218489944934845
1780565057253266700,21.0802666015625,-0.763716995716095,1.0007309913635254,0.06736599653959274
1780565057272781600,21.099781494140625,-0.791778028011322,1.0232889652252197,-0.12331099808216095
1780565057292295000,21.119294921875,-0.7921159863471985,0.9840180277824402,-0.28661400079727173
1780565057311812600,21.1388125,-0.762162983417511,0.9435750246047974,-0.4721220135688782
1780565057331333400,21.15833349609375,-0.7651879787445068,0.9198319911956787,-0.6935629844665527
1780565057350855000,21.17785498046875,-0.7582420110702515,0.9353500008583069,-0.9238870143890381
1780565057370372600,21.19737255859375,-0.6965500116348267,0.9981870055198669,-1.0833940505981445
1780565057389891600,21.2168916015625,-0.5933669805526733,1.0667040348052979,-1.0787240266799927
1780565057409413000,21.2364130859375,-0.3841489851474762,1.1116869449615479,-0.9496229887008667
1780565057428937000,21.25593701171875,-0.19640399515628815,1.0552289485931396,-0.95420902967453
1780565057458226700,21.285226806640626,-0.004922000225633383,0.9243130087852478,-1.2862110137939453
1780565057487509200,21.31450927734375,0.3129729926586151,0.34328800439834595,-2.337754011154175
1780565057507035400,21.334035400390626,0.4773919880390167,-0.001690999954007566,-2.6662371158599854
1780565057526561300,21.353561279296876,0.5891270041465759,-0.40195998549461365,-2.698359966278076
1780565057546083000,21.3730830078125,0.6002309918403625,-0.831574022769928,-2.660517930984497
1780565057565604400,21.392604248046876,0.737401008605957,-1.1824170351028442,-2.713192939758301
1780565057585126400,21.41212646484375,0.737401008605957,-1.1824170351028442,-2.713192939758301
1780565057604647700,21.431647705078124,1.3154159784317017,-3.147650957107544,-3.3960421085357666
1780565057624170800,21.451170654296874,2.87062406539917,-3.522145986557007,-3.9646360874176025
1780565057643694300,21.4706943359375,3.426265001296997,-5.1068010330200195,-4.206542015075684
1780565057663219200,21.49021923828125,3.8823959827423096,-5.223031997680664,-4.095077991485596
1780565057682746000,21.50974609375,3.8823959827423096,-5.223031997680664,-4.095077991485596
1780565057702269400,21.52926953125,3.761850118637085,-5.537668228149414,-2.0921590328216553
1780565057721797400,21.54879736328125,3.761850118637085,-5.537668228149414,-2.0921590328216553
1780565057741324800,21.56832470703125,3.23286509513855,-5.978810787200928,0.1537880003452301
1780565057760847600,21.58784765625,3.23286509513855,-5.978810787200928,0.1537880003452301
1780565057780370000,21.607369873046874,3.23286509513855,-5.978810787200928,0.1537880003452301
1780565057799889700,21.6268896484375,3.578207015991211,-7.295474052429199,1.4213670492172241
1780565057819407400,21.646407470703124,3.6518619060516357,-7.663502216339111,1.9051530361175537
1780565057838925600,21.665925537109374,3.624876022338867,-7.974822044372559,2.3197450637817383
1780565057858443500,21.685443603515626,3.4517879486083984,-8.159126281738281,2.619204044342041
1780565057877960700,21.704960693359375,3.149796962738037,-8.162088394165039,2.8394699096679688
1780565057897481000,21.72448095703125,2.8134989738464355,-7.978569984436035,3.0335938930511475
1780565057917004300,21.74400439453125,2.4557580947875977,-7.564774990081787,3.2853879928588867
1780565057936529400,21.763529296875,2.067636013031006,-7.065156936645508,3.6714110374450684
1780565057956056300,21.783056396484376,1.5976510047912598,-6.450149059295654,4.1087260246276855
1780565057975584000,21.802583984375,1.0963950157165527,-5.75315523147583,4.531617164611816
1780565057995108600,21.822108642578126,0.5777680277824402,-4.988821029663086,4.974496841430664
1780565058014630100,21.841630126953124,0.08187299966812134,-4.133121967315674,5.398128032684326
1780565058034156500,21.861156494140626,-0.3588719964027405,-3.2743139266967773,5.844118118286133
1780565058053681700,21.880681640625,-0.7913119792938232,-2.475109100341797,6.268963813781738
1780565058073202200,21.9002021484375,-1.2345689535140991,-1.7893949747085571,6.6178297996521
1780565058092724700,21.919724853515625,-1.655832052230835,-1.212054967880249,6.883237838745117
1780565058112248800,21.939248779296875,-1.981289029121399,-0.6685150265693665,7.048333168029785
1780565058131771000,21.95877099609375,-2.195784091949463,-0.13038499653339386,7.175684928894043
1780565058151292700,21.978292724609375,-2.2494618892669678,0.42222100496292114,7.282586097717285
1780565058170817000,21.997817138671873,-2.226670026779175,0.938962996006012,7.353594779968262
1780565058190340600,22.017340576171875,-2.2578439712524414,1.3264340162277222,7.349163055419922
1780565058209862700,22.036862548828125,-2.3054230213165283,1.608178973197937,7.2774977684021
1780565058229385200,22.05638525390625,-2.2812678813934326,1.8193140029907227,7.160242080688477
1780565058248908800,22.07590869140625,-2.158921003341675,1.983996033668518,6.98514986038208
1780565058268425700,22.09542578125,-1.9693429470062256,2.1333069801330566,6.721591949462891
1780565058287941600,22.114941650390627,-1.8311259746551514,2.249579906463623,6.383979797363281
1780565058307462700,22.134462646484376,-1.8249119520187378,2.3066720962524414,5.911769866943359
1780565058326983000,22.15398291015625,-1.9336429834365845,2.3378000259399414,5.367887020111084
1780565058346505700,22.173505615234376,-2.0145249366760254,2.2637228965759277,4.700965881347656
1780565058366033400,22.193033447265623,-2.002094030380249,2.142518997192383,3.9007339477539062
1780565058385559300,22.212559326171874,-2.002094030380249,2.142518997192383,3.9007339477539062
1780565058405081300,22.232081298828124,-1.6268340349197388,2.4473459720611572,2.140496015548706
1780565058424599300,22.251599365234377,-1.563217043876648,2.169450044631958,1.2689059972763062
1780565058444121300,22.271121337890627,-1.338850975036621,1.7886439561843872,-0.542398989200592
1780565058463647500,22.2906474609375,-1.011672019958496,1.584609031677246,-2.4687490463256836
1780565058483170800,22.3101708984375,-1.011672019958496,1.584609031677246,-2.4687490463256836
1780565058502694000,22.32969384765625,-0.48118099570274353,0.9472339749336243,-4.738546848297119
1780565058522219000,22.349218994140625,-0.3908570110797882,1.0397180318832397,-6.859624862670898
1780565058541745400,22.368745361328124,-0.30170300602912903,1.1092970371246338,-8.665654182434082
1780565058561271800,22.388271728515626,-0.08779799938201904,1.0478789806365967,-8.563475608825684
1780565058580795400,22.40779541015625,0.21499300003051758,1.4578479528427124,-10.641550064086914
1780565058600317200,22.427317138671874,0.21499300003051758,1.4578479528427124,-10.641550064086914
1780565058619841800,22.446841796875,0.07923399657011032,2.82554292678833,-10.938850402832031
1780565058639361000,22.466361083984374,-0.3011530041694641,3.076559066772461,-10.97385025024414
1780565058658881500,22.485881591796876,-0.8101410269737244,5.102537155151367,-10.938871383666992
1780565058678405400,22.5054052734375,-1.2814099788665771,5.194664001464844,-10.273435592651367
1780565058697926400,22.524926513671875,-1.5396080017089844,5.439596176147461,-9.297446250915527
1780565058717449700,22.54444970703125,-1.5296889543533325,6.543136119842529,-8.443527221679688
1780565058736974300,22.563974365234376,-1.361536979675293,6.421284198760986,-7.515426158905029
1780565058756497000,22.583496826171874,-1.1806410551071167,6.388775825500488,-6.648207187652588
1780565058776016600,22.6030166015625,-1.2056260108947754,6.5767621994018555,-5.945666790008545
1780565058795541000,22.622541015625,-1.5547980070114136,6.804160118103027,-5.219429016113281
1780565058815065300,22.6420654296875,-3.128441095352173,8.191947937011719,-4.474118232727051
1780565058834586400,22.66158642578125,-3.2103140354156494,8.173076629638672,-3.666080951690674
1780565058854109400,22.681109375,-3.4172399044036865,8.0789155960083,-1.876350998878479
1780565058873639200,22.70063916015625,-3.6075809001922607,7.819083213806152,-1.2884639501571655
1780565058893173200,22.72017333984375,-3.526547908782959,7.340155124664307,-0.672760009765625
1780565058912702700,22.73970263671875,-3.2678170204162598,6.669814109802246,-0.09203299880027771
1780565058932231200,22.759231201171875,-2.874258041381836,6.000570774078369,0.41337400674819946
1780565058951761000,22.778760986328123,-2.4409940242767334,5.496760845184326,0.837581992149353
1780565058971292000,22.7982919921875,-2.2162749767303467,5.144938945770264,1.1916999816894531
1780565058990823200,22.8178232421875,-2.2017080783843994,4.89276123046875,1.4680349826812744
1780565059010354400,22.8373544921875,-2.3295810222625732,4.7491230964660645,1.6699310541152954
1780565059029881900,22.8568818359375,-2.5068750381469727,4.662466049194336,1.7558560371398926
1780565059049409000,22.876408935546873,-2.7016990184783936,4.541326999664307,1.7857680320739746
1780565059068937700,22.895937744140625,-2.7967960834503174,4.349267959594727,1.77491295337677
1780565059088461300,22.91546142578125,-2.7201099395751953,4.098374843597412,1.7607359886169434
1780565059107985700,22.934985595703125,-2.544400930404663,3.783967971801758,1.7502110004425049
1780565059127513600,22.954513671875,-2.2853989601135254,3.4513230323791504,1.751194953918457
1780565059147044600,22.974044677734376,-2.023591995239258,3.1712679862976074,1.7710069417953491
1780565059166570000,22.993570068359375,-1.78500497341156,2.891335964202881,1.8038289546966553
1780565059186087200,23.013087158203124,-1.78500497341156,2.891335964202881,1.8038289546966553
1780565059205609200,23.032609130859374,-1.129714012145996,2.2030749320983887,1.7847239971160889
1780565059225133800,23.0521337890625,-0.6535580158233643,1.6877859830856323,1.6147890090942383
1780565059244657700,23.07165771484375,-0.11729200184345245,1.1141940355300903,1.2536360025405884
1780565059264183300,23.091183349609373,0.45694398880004883,0.5318179726600647,0.794202983379364
1780565059283711500,23.11071142578125,1.0211100578308105,0.01752999983727932,0.4205000102519989
1780565059303239200,23.1302392578125,1.5265979766845703,-0.36121100187301636,0.15686899423599243
1780565059322764800,23.149764892578126,1.5265979766845703,-0.36121100187301636,0.15686899423599243
1780565059342287600,23.16928759765625,2.037961959838867,-1.0869640111923218,0.33654800057411194
1780565059361810200,23.18881005859375,2.037961959838867,-1.0869640111923218,0.33654800057411194
1780565059381334300,23.208334228515625,2.037961959838867,-1.0869640111923218,0.33654800057411194
1780565059420383200,23.24738330078125,2.1528611183166504,-2.3112130165100098,1.5848610401153564
1780565059439903500,23.266903564453123,1.9507039785385132,-3.0541439056396484,2.0207459926605225
1780565059459429000,23.28642919921875,1.7510420083999634,-3.2968220710754395,0.4326069951057434
1780565059478958000,23.3059580078125,1.90665602684021,-3.483458995819092,-1.184412956237793
1780565059498483000,23.32548291015625,3.6518850326538086,-3.538206100463867,-1.4645349979400635
1780565059518006000,23.345006103515626,3.980952024459839,-3.456587076187134,-1.4749610424041748
1780565059537526000,23.364526123046875,4.322693824768066,-3.3546929359436035,-1.0140479803085327
1780565059557040400,23.384040283203124,4.061066150665283,-3.18121600151062,0.48555999994277954
1780565059576560600,23.403560546875,1.9309760332107544,-2.8998630046844482,0.8062199950218201
1780565059596089600,23.423089599609376,0.23772099614143372,-2.5304620265960693,1.0077179670333862
1780565059615618800,23.442618896484376,-0.2288929969072342,-2.1031858921051025,1.1254819631576538
1780565059635150000,23.462150146484376,-0.5923810005187988,-1.70694100856781,1.262943983078003
1780565059654681300,23.481681396484376,-0.6381679773330688,-1.4369499683380127,1.3923510313034058
1780565059674213400,23.50121337890625,-0.370743989944458,-1.277730941772461,1.4512790441513062
1780565059693740300,23.520740234375,0.024907000362873077,-1.2425789833068848,1.3818830251693726
1780565059713264000,23.54026416015625,0.333748996257782,-1.225219964981079,1.208008050918579
1780565059732800000,23.559800048828127,0.4710499942302704,-1.1475789546966553,1.0314459800720215
1780565059752332000,23.57933203125,0.4112919867038727,-0.9969990253448486,0.8294370174407959
1780565059771859200,23.598859130859374,0.23956499993801117,-0.7031930088996887,0.560742974281311
1780565059791389700,23.6183896484375,0.014972999691963196,-0.32350000739097595,0.29397499561309814
1780565059810912500,23.63791259765625,-0.2073660045862198,0.026686999946832657,0.1411760002374649
1780565059830432500,23.6574326171875,-0.35251298546791077,0.34977200627326965,0.09439899772405624
1780565059849952000,23.676951904296875,-0.47623199224472046,0.6223859786987305,0.08241000026464462
1780565059869468700,23.69646875,-0.6053280234336853,0.8156139850616455,0.019801000133156776
1780565059888988700,23.71598876953125,-0.7119330167770386,1.0167560577392578,-0.18674899637699127
1780565059908512300,23.73551220703125,-0.8388550281524658,1.1732009649276733,-0.4019649922847748
1780565059928036900,23.755036865234374,-0.8664339780807495,1.2957520484924316,-0.37303298711776733
1780565059947560700,23.774560791015624,-0.8427659869194031,1.4174230098724365,-0.010577999986708164
1780565059967087600,23.794087646484375,-0.8201760053634644,1.419145941734314,1.8232519626617432
1780565059986615800,23.81361572265625,-0.8482270240783691,1.3241369724273682,2.0789380073547363
1780565060006143500,23.8331435546875,-0.9749190211296082,1.1711390018463135,2.266638994216919
1780565060025668900,23.8526689453125,-1.0712529420852661,0.9857850074768066,2.137855052947998
1780565060045189600,23.872189697265625,-1.0865789651870728,0.8769890069961548,1.6046700477600098
1780565060064707300,23.891707275390626,-0.862866997718811,0.8767859935760498,-0.006835999898612499
1780565060084225500,23.9112255859375,-0.44298499822616577,0.9483439922332764,-0.3604130148887634
1780565060103746300,23.930746337890625,0.04595400020480156,1.0830219984054565,-0.6242470145225525
1780565060123271000,23.95027099609375,0.4520370066165924,1.2551950216293335,-0.6680529713630676
1780565060142795800,23.969795654296874,0.48641499876976013,1.4107760190963745,-0.45399200916290283
1780565060162319000,23.989319091796876,0.21747300028800964,1.5140949487686157,-0.10119699686765671
1780565060181842200,24.00884228515625,0.21747300028800964,1.5140949487686157,-0.10119699686765671
1780565060201364500,24.028364501953124,-0.6154389977455139,1.5416380167007446,0.47309398651123047
1780565060220887600,24.047887451171874,-0.62773197889328,1.2862249612808228,0.5968850255012512
1780565060240411100,24.0674111328125,-0.62773197889328,1.2862249612808228,0.5968850255012512
1780565060259933200,24.08693310546875,-0.0935019999742508,0.9871960282325745,0.7174800038337708
1780565060279455700,24.106455810546876,0.16025200486183167,0.8211899995803833,0.830482006072998
1780565060298975700,24.125975830078126,0.25529301166534424,0.6596069931983948,0.9232479929924011
1780565060318493400,24.145493408203127,0.19081799685955048,0.4726319909095764,0.9706429839134216
1780565060338012000,24.165011962890624,0.038008999079465866,0.2902199923992157,0.9322540163993835
1780565060357530000,24.184530029296877,-0.01755700074136257,0.1350570023059845,0.7813140153884888
1780565060377052700,24.204052734375,0.0758339986205101,0.036107998341321945,0.504144012928009
1780565060396577800,24.223577880859374,0.2662929892539978,0.008252999745309353,0.1324560046195984
1780565060416100600,24.2431005859375,0.41502800583839417,0.012230999767780304,-0.27005401253700256
1780565060435622700,24.26262255859375,0.4339990019798279,0.023711999878287315,-0.5954470038414001
1780565060455147800,24.282147705078124,0.33984801173210144,-0.015232999809086323,-0.7477220296859741
1780565060474673700,24.301673583984375,0.23915599286556244,-0.09747900068759918,-0.7058839797973633
1780565060494198000,24.321197998046873,0.2317660003900528,-0.19282999634742737,-0.46416398882865906
1780565060513718000,24.340718017578126,0.23567700386047363,-0.35041698813438416,-0.0868770033121109
1780565060533237200,24.3602373046875,0.20439599454402924,-0.5368899703025818,0.2819499969482422
1780565060552756200,24.379756103515625,0.14923900365829468,-0.7011910080909729,0.5894389748573303
1780565060572273400,24.3992734375,0.09355799853801727,-0.8621960282325745,0.7620009779930115
1780565060591794200,24.418794189453124,0.07460000365972519,-0.9780160188674927,0.7636740207672119
1780565060611314200,24.438314208984377,0.10088600218296051,-1.0419600009918213,0.7215049862861633
1780565060630834700,24.457834716796874,0.14805400371551514,-1.0780589580535889,0.6683449745178223
1780565060650365000,24.477364990234374,0.21936100721359253,-1.083135962486267,0.6553570032119751
1780565060669895200,24.496895263671874,0.2796419858932495,-1.0428190231323242,0.6746940016746521
1780565060689417200,24.516417236328124,0.2932850122451782,-0.9953579902648926,0.7028390169143677
1780565060708935700,24.535935791015625,0.2518559992313385,-0.9648720026016235,0.7702770233154297
1780565060728459000,24.555458984375,0.14277200400829315,-0.9564210176467896,0.8641160130500793
1780565060747982300,24.574982421875,0.018389999866485596,-0.9638469815254211,0.9614620208740234
1780565060767501300,24.594501220703126,-0.0599140003323555,-0.9714459776878357,1.0072360038757324
1780565060787023600,24.614023681640624,-0.13148799538612366,-0.9212170243263245,0.971098005771637
1780565060806549000,24.633549072265627,-0.1535400003194809,-0.7954490184783936,0.9124810099601746
1780565060826073300,24.6530732421875,-0.18272599577903748,-0.6371219754219055,0.9184460043907166
1780565060845598700,24.6725986328125,-0.23982200026512146,-0.46432098746299744,0.9955009818077087
1780565060865126700,24.692126708984375,-0.3153879940509796,-0.3058609962463379,1.0353679656982422
1780565060884661200,24.7116611328125,-0.5095229744911194,-0.1646050065755844,0.9763540029525757
1780565060904194600,24.731194580078125,-0.7705709934234619,-0.06545799970626831,0.972458004951477
1780565060923716900,24.750716796875,-0.9982860088348389,0.009808000177145004,1.1576730012893677
1780565060943234600,24.770234619140624,-1.1488529443740845,0.09332799911499023,1.4507839679718018
1780565060962755000,24.789755126953125,-1.2878550291061401,0.158937007188797,1.6401150226593018
1780565060982279200,24.809279052734375,-1.2878550291061401,0.158937007188797,1.6401150226593018
1780565061001804000,24.828803955078126,-1.5173970460891724,0.21100600063800812,1.1686040163040161
1780565061021327400,24.848327392578124,-1.5173970460891724,0.21100600063800812,1.1686040163040161
1780565061040851500,24.8678515625,-1.5684479475021362,0.17308099567890167,0.6702430248260498
1780565061060374800,24.887374755859376,-1.5684479475021362,0.17308099567890167,0.6702430248260498
1780565061079898600,24.906898681640627,-1.3993819952011108,0.29620400071144104,0.7921339869499207
1780565061099426300,24.92642626953125,-1.423203945159912,0.38868701457977295,0.7755339741706848
1780565061118952700,24.94595263671875,-1.507773995399475,0.5007339715957642,0.6259130239486694
1780565061138479000,24.96547900390625,-1.621137022972107,0.5768489837646484,0.34474900364875793
1780565061158005500,24.985005615234375,-1.6061899662017822,0.6447259783744812,0.03467699885368347
1780565061177532200,25.0045322265625,-1.4382679462432861,0.7157520055770874,-0.23434199392795563
1780565061197056800,25.024056884765624,-1.1938079595565796,0.786201000213623,-0.4591839909553528
