time,seconds_elapsed,z,y,x
1780565036788848600,0.6158486328125,8.709622383117676,2.9617249965667725,-3.3779690265655518
1780565036798604000,0.62560400390625,8.71530818939209,3.071254014968872,-3.263556957244873
1780565036818119200,0.645119140625,8.69589900970459,3.1527469158172607,-3.2375149726867676
1780565036837635800,0.6646357421875,8.661966323852539,3.223236083984375,-3.2590010166168213
1780565036857152800,0.68415283203125,8.613445281982422,3.2822868824005127,-3.327934980392456
1780565036876674000,0.703674072265625,8.551536560058594,3.3273448944091797,-3.440929889678955
1780565036896196000,0.723196044921875,8.474841117858887,3.357633113861084,-3.5976879596710205
1780565036915714600,0.742714599609375,8.389566421508789,3.3715109825134277,-3.7799570560455322
1780565036935234300,0.762234375,8.29427719116211,3.3670670986175537,-3.988461971282959
1780565036954751700,0.781751708984375,8.187400817871094,3.3526320457458496,-4.215011119842529
1780565036974261800,0.80126171875,8.066692352294922,3.3289859294891357,-4.459406852722168
1780565036993775000,0.820775146484375,7.9298601150512695,3.305219888687134,-4.715171813964844
1780565037013294800,0.840294921875,7.775794982910156,3.2812600135803223,-4.980998992919922
1780565037032817200,0.859817138671875,7.6158671379089355,3.2482829093933105,-5.242825031280518
1780565037052339500,0.87933935546875,7.451963901519775,3.2065939903259277,-5.49781608581543
1780565037071862000,0.898862060546875,7.295088768005371,3.1459081172943115,-5.7380242347717285
1780565037091380700,0.918380615234375,7.148340225219727,3.068233013153076,-5.96046781539917
1780565037110899200,0.937899169921875,7.011906147003174,2.972654104232788,-6.167373180389404
1780565037130418400,0.95741845703125,6.887127876281738,2.8629140853881836,-6.356979846954346
1780565037149933800,0.976933837890625,6.759054183959961,2.7481889724731445,-6.542372226715088
1780565037169451000,0.996450927734375,6.62766695022583,2.6303229331970215,-6.722754955291748
1780565037188972500,1.01597265625,6.485045909881592,2.517409086227417,-6.902667999267578
1780565037208493600,1.03549365234375,6.330047130584717,2.4084858894348145,-7.0830559730529785
1780565037228015400,1.055015380859375,6.158620834350586,2.308382987976074,-7.26517391204834
1780565037247534800,1.074534912109375,5.969158172607422,2.214832067489624,-7.450077056884766
1780565037267047700,1.094047607421875,5.764376163482666,2.1271328926086426,-7.634610176086426
1780565037286567400,1.1135673828125,5.5441131591796875,2.04372501373291,-7.818309783935547
1780565037306093000,1.133093017578125,5.336803913116455,1.982530951499939,-7.97672176361084
1780565037325612500,1.152612548828125,5.142899990081787,1.9429320096969604,-8.11268138885498
1780565037345130800,1.172130859375,4.967562198638916,1.9233200550079346,-8.225823402404785
1780565037364649500,1.1916494140625,4.810832977294922,1.9239979982376099,-8.318300247192383
1780565037384164600,1.21116455078125,4.810832977294922,1.9239979982376099,-8.318300247192383
1780565037403680500,1.230680419921875,4.59432315826416,1.9856829643249512,-8.425512313842773
1780565037423198700,1.25019873046875,4.509565830230713,2.028148889541626,-8.461112022399902
1780565037442721800,1.2697216796875,4.509565830230713,2.028148889541626,-8.461112022399902
1780565037462244900,1.289244873046875,4.3566508293151855,2.119309902191162,-8.518692016601562
1780565037481763600,1.308763671875,4.3566508293151855,2.119309902191162,-8.518692016601562
1780565037501285400,1.328285400390625,4.214580059051514,2.2158010005950928,-8.565485000610352
1780565037520808000,1.347807861328125,4.214580059051514,2.2158010005950928,-8.565485000610352
1780565037540326400,1.367326416015625,4.214580059051514,2.2158010005950928,-8.565485000610352
1780565037559844000,1.386843994140625,4.064889907836914,2.3137431144714355,-8.611808776855469
1780565037579364400,1.4063642578125,3.99269700050354,2.361114025115967,-8.63270092010498
1780565037598884000,1.425884033203125,3.9237520694732666,2.406158924102783,-8.651853561401367
1780565037618405000,1.445405029296875,3.858236074447632,2.4492061138153076,-8.669221878051758
1780565037637929500,1.464929443359375,3.796649932861328,2.4903318881988525,-8.684680938720703
1780565037657451800,1.48445166015625,3.7367610931396484,2.5305049419403076,-8.699031829833984
1780565037676969200,1.50396923828125,3.6779839992523193,2.569108009338379,-8.71275520324707
1780565037696486100,1.523486083984375,3.619555950164795,2.605384111404419,-8.726441383361816
1780565037716008400,1.543008544921875,3.5608859062194824,2.6381189823150635,-8.74073314666748
1780565037735532000,1.562531982421875,3.5021378993988037,2.6653780937194824,-8.756185531616211
1780565037755052500,1.582052490234375,3.4438979625701904,2.685245990753174,-8.773198127746582
1780565037774573300,1.6015732421875,3.3871259689331055,2.6961569786071777,-8.7919340133667
1780565037794097200,1.62109716796875,3.333314895629883,2.697455883026123,-8.812079429626465
1780565037813618200,1.6406181640625,3.2840518951416016,2.69014310836792,-8.832788467407227
1780565037833138400,1.660138427734375,3.240056037902832,2.6759860515594482,-8.853311538696289
1780565037852662500,1.67966259765625,3.200977087020874,2.6577439308166504,-8.873000144958496
1780565037872184000,1.69918408203125,3.1653521060943604,2.63810396194458,-8.891622543334961
1780565037891708700,1.718708740234375,3.131808042526245,2.6192450523376465,-8.909059524536133
1780565037911234300,1.738234375,3.099045991897583,2.602463960647583,-8.925418853759766
1780565037930755600,1.757755615234375,3.0660951137542725,2.5875298976898193,-8.941125869750977
1780565037950278700,1.777278564453125,3.0330960750579834,2.5735371112823486,-8.95640754699707
1780565037969799400,1.79679931640625,3.00049090385437,2.5588479042053223,-8.971585273742676
1780565037989319700,1.816319580078125,2.9704198837280273,2.541614055633545,-8.986478805541992
1780565038008839700,1.835839599609375,2.943044900894165,2.521028995513916,-9.001272201538086
1780565038028360200,1.855360107421875,2.9188458919525146,2.4967570304870605,-9.015904426574707
1780565038047882200,1.87488232421875,2.8982040882110596,2.470046043395996,-9.02991008758545
1780565038067399400,1.8943994140625,2.879823923110962,2.442228078842163,-9.043347358703613
1780565038086913300,1.913913330078125,2.8623299598693848,2.4156930446624756,-9.056018829345703
1780565038106431700,1.933431640625,2.843264102935791,2.392008066177368,-9.068304061889648
1780565038125960000,1.9529599609375,2.8200740814208984,2.3723480701446533,-9.08070182800293
1780565038145485000,1.972485107421875,2.79242205619812,2.3565280437469482,-9.093358039855957
1780565038165010200,1.99201025390625,2.7604169845581055,2.3433659076690674,-9.106521606445312
1780565038184536600,2.01153662109375,2.7604169845581055,2.3433659076690674,-9.106521606445312
1780565038204059100,2.03105908203125,2.6912999153137207,2.3167669773101807,-9.133974075317383
1780565038223586000,2.0505859375,2.655816078186035,2.301265001296997,-9.148268699645996
1780565038243107000,2.070107177734375,2.655816078186035,2.301265001296997,-9.148268699645996
1780565038262623200,2.089623291015625,2.592008113861084,2.2664198875427246,-9.1752290725708
1780565038282144000,2.10914404296875,2.5634679794311523,2.2501919269561768,-9.187233924865723
1780565038301665800,2.128665771484375,2.5634679794311523,2.2501919269561768,-9.187233924865723
1780565038321187600,2.1481875,2.5052709579467773,2.238111972808838,-9.206218719482422
1780565038340704500,2.16770458984375,2.5052709579467773,2.238111972808838,-9.206218719482422
1780565038360220200,2.18722021484375,2.5052709579467773,2.238111972808838,-9.206218719482422
1780565038379738400,2.20673828125,2.4071309566497803,2.284648895263672,-9.220959663391113
1780565038399260200,2.22626025390625,2.4071309566497803,2.284648895263672,-9.220959663391113
1780565038418786000,2.2457861328125,2.375736951828003,2.3160150051116943,-9.221277236938477
1780565038438307600,2.2653076171875,2.351344108581543,2.349989891052246,-9.21893310546875
1780565038457825500,2.284825439453125,2.334510087966919,2.3845200538635254,-9.214343070983887
1780565038477345500,2.304345458984375,2.32608699798584,2.416719913482666,-9.20808219909668
1780565038496867000,2.3238671875,2.3261330127716064,2.4447948932647705,-9.20065689086914
1780565038516388900,2.343388916015625,2.3353888988494873,2.467643976211548,-9.192208290100098
1780565038535909600,2.36290966796875,2.3476240634918213,2.484639883041382,-9.18450927734375
1780565038555428900,2.382428955078125,2.3615779876708984,2.498089075088501,-9.177282333374023
1780565038574949400,2.401949462890625,2.3767309188842773,2.5108261108398438,-9.169891357421875
1780565038594471400,2.421471435546875,2.3918709754943848,2.5259170532226562,-9.161806106567383
1780565038613985500,2.440985595703125,2.4063029289245605,2.54563307762146,-9.152565002441406
1780565038633495300,2.460495361328125,2.4192628860473633,2.5711100101470947,-9.142021179199219
1780565038653006600,2.480006591796875,2.430232048034668,2.6018879413604736,-9.130396842956543
1780565038672522200,2.499522216796875,2.4398510456085205,2.6363139152526855,-9.11794662475586
1780565038692040200,2.519040283203125,2.449389934539795,2.6726160049438477,-9.104812622070312
1780565038711561700,2.538561767578125,2.4610440731048584,2.7093849182128906,-9.090791702270508
1780565038731082000,2.55808203125,2.4754679203033447,2.746654987335205,-9.075678825378418
1780565038750600700,2.5776005859375,2.491636037826538,2.7853169441223145,-9.059456825256348
1780565038770120000,2.597119873046875,2.5074520111083984,2.827138900756836,-9.042121887207031
1780565038789635000,2.616635009765625,2.5200839042663574,2.8747410774230957,-9.023582458496094
1780565038809154000,2.636154052734375,2.529136896133423,2.928046941757202,-9.003888130187988
1780565038828673300,2.65567333984375,2.535166025161743,2.987025022506714,-8.982795715332031
1780565038848191200,2.675191162109375,2.539001941680908,3.04905104637146,-8.960844993591309
1780565038867713500,2.694713623046875,2.542175054550171,3.1122078895568848,-8.938204765319824
1780565038887239400,2.714239501953125,2.545667886734009,3.1733040809631348,-8.91569995880127
1780565038906762000,2.733761962890625,2.5527570247650146,3.2271978855133057,-8.894303321838379
1780565038926279400,2.753279541015625,2.5632190704345703,3.273776054382324,-8.874249458312988
1780565038945795600,2.772795654296875,2.577672004699707,3.312479019165039,-8.855681419372559
1780565038965312500,2.7923125,2.595902919769287,3.3444409370422363,-8.838326454162598
1780565038984832000,2.81183203125,2.595902919769287,3.3444409370422363,-8.838326454162598
1780565039004354600,2.8313544921875,2.6355960369110107,3.388153076171875,-8.809883117675781
1780565039023878100,2.850878173828125,2.6489109992980957,3.403773069381714,-8.7998628616333
1780565039043398100,2.870398193359375,2.658137083053589,3.4170429706573486,-8.7919340133667
1780565039062915800,2.889915771484375,2.658137083053589,3.4170429706573486,-8.7919340133667
1780565039082436400,2.909436279296875,2.663270950317383,3.4389400482177734,-8.781838417053223
1780565039101957000,2.92895703125,2.6598498821258545,3.4498229026794434,-8.778605461120605
1780565039121475000,2.94847509765625,2.6598498821258545,3.4498229026794434,-8.778605461120605
1780565039140993300,2.9679931640625,2.6530280113220215,3.4770491123199463,-8.76992416381836
1780565039160514800,2.987514892578125,2.6530280113220215,3.4770491123199463,-8.76992416381836
1780565039180035800,3.007035888671875,2.6475911140441895,3.489403009414673,-8.766658782958984
1780565039199554600,3.026554443359375,2.640377998352051,3.496840000152588,-8.765871047973633
1780565039219076400,3.046076416015625,2.6315810680389404,3.496004104614258,-8.768850326538086
1780565039238601200,3.065601318359375,2.6236770153045654,3.483441114425659,-8.776215553283691
1780565039258127000,3.085127197265625,2.6202878952026367,3.4566218852996826,-8.787823677062988
1780565039277651500,3.1046513671875,2.6236460208892822,3.4143929481506348,-8.80331802368164
1780565039297168000,3.12416796875,2.6352579593658447,3.356818914413452,-8.821969985961914
1780565039316683300,3.143683349609375,2.655186891555786,3.283879041671753,-8.843422889709473
1780565039336199400,3.163199462890625,2.684317111968994,3.1893930435180664,-8.869171142578125
1780565039355715600,3.182715576171875,2.723083019256592,3.073245048522949,-8.89831256866455
1780565039375232000,3.20223193359375,2.7723629474639893,2.933871030807495,-8.930084228515625
1780565039394747400,3.221747314453125,2.8328800201416016,2.7645089626312256,-8.965058326721191
1780565039414261500,3.241261474609375,2.9037699699401855,2.565748929977417,-9.001391410827637
1780565039433776400,3.2607763671875,2.983670949935913,2.3378419876098633,-9.037266731262207
1780565039453294600,3.280294677734375,3.0698130130767822,2.087380886077881,-9.069679260253906
1780565039472814800,3.29981494140625,3.159940004348755,1.8148219585418701,-9.097317695617676
1780565039492333000,3.3193330078125,3.251439094543457,1.5216259956359863,-9.118815422058105
1780565039511850200,3.338850341796875,3.3416519165039062,1.2153429985046387,-9.132157325744629
1780565039531369200,3.358369140625,3.429733991622925,0.8968330025672913,-9.136334419250488
1780565039550887400,3.377887451171875,3.515252113342285,0.5673549771308899,-9.130230903625488
1780565039570403300,3.3974033203125,3.598151922225952,0.22814799845218658,-9.112696647644043
1780565039589918500,3.41691845703125,3.678194999694824,-0.11953700333833694,-9.082763671875
1780565039609436200,3.436436279296875,3.755605936050415,-0.4756470024585724,-9.039312362670898
1780565039628955600,3.45595556640625,3.8327810764312744,-0.8396940231323242,-8.980239868164062
1780565039648472000,3.47547216796875,3.9097371101379395,-1.2112020254135132,-8.904321670532227
1780565039667991000,3.494990966796875,3.987510919570923,-1.5878640413284302,-8.81013298034668
1780565039687510300,3.51451025390625,4.06535005569458,-1.9680819511413574,-8.697101593017578
1780565039707020800,3.534020751953125,4.142708778381348,-2.3498990535736084,-8.564807891845703
1780565039726531800,3.55353173828125,4.219701766967773,-2.7291951179504395,-8.413418769836426
1780565039746047700,3.5730478515625,4.293752193450928,-3.1023759841918945,-8.244935035705566
1780565039765561900,3.592561767578125,4.365846157073975,-3.4656999111175537,-8.060290336608887
1780565039785076200,3.612076171875,4.436026096343994,-3.8170809745788574,-7.8607587814331055
1780565039804593400,3.631593505859375,4.506032943725586,-4.153817176818848,-7.6473188400268555
1780565039824109800,3.65110986328125,4.576770782470703,-4.474314212799072,-7.421164035797119
1780565039843627500,3.67062744140625,4.647719860076904,-4.778776168823242,-7.183452129364014
1780565039863142100,3.69014208984375,4.647719860076904,-4.778776168823242,-7.183452129364014
1780565039882654500,3.709654541015625,4.719092845916748,-5.066259860992432,-6.93564510345459
1780565039902169300,3.72916943359375,4.859554767608643,-5.594478130340576,-6.412996768951416
1780565039921685800,3.748685791015625,4.859554767608643,-5.594478130340576,-6.412996768951416
1780565039941203200,3.768203125,4.999599933624268,-6.052680015563965,-5.865923881530762
1780565039960722700,3.78772265625,4.999599933624268,-6.052680015563965,-5.865923881530762
1780565039980240100,3.807240234375,4.999599933624268,-6.052680015563965,-5.865923881530762
1780565039999755300,3.82675537109375,5.1464009284973145,-6.441271781921387,-5.297599792480469
1780565040019270100,3.846270263671875,5.225259780883789,-6.6087188720703125,-5.006145000457764
1780565040038783000,3.865782958984375,5.308145046234131,-6.7602858543396,-4.707666873931885
1780565040058298000,3.885298095703125,5.391513824462891,-6.900716781616211,-4.399054050445557
1780565040077814500,3.904814453125,5.476021766662598,-7.028595924377441,-4.080689907073975
1780565040097331500,3.92433154296875,5.560727119445801,-7.143364906311035,-3.7537500858306885
1780565040116850000,3.943849853515625,5.643567085266113,-7.247076034545898,-3.4161410331726074
1780565040136367900,3.963367919921875,5.723525047302246,-7.33838415145874,-3.0707271099090576
1780565040155884300,3.98288427734375,5.799930095672607,-7.415502071380615,-2.7223401069641113
1780565040175403000,4.002403076171875,5.873044013977051,-7.476319789886475,-2.377389907836914
1780565040194923300,4.02192333984375,5.9433979988098145,-7.519370079040527,-2.043299913406372
1780565040214440200,4.041440185546875,6.009057998657227,-7.5460028648376465,-1.7288910150527954
1780565040233953800,4.060953857421875,6.067874908447266,-7.5576300621032715,-1.4502090215682983
1780565040253468700,4.08046875,6.120830059051514,-7.555305004119873,-1.221801996231079
1780565040272982500,4.099982421875,6.168139934539795,-7.5428619384765625,-1.048462986946106
1780565040292496100,4.11949609375,6.209911823272705,-7.5224761962890625,-0.9430480003356934
1780565040312014300,4.139014404296875,6.247004985809326,-7.496132850646973,-0.9071530103683472
1780565040331536400,4.158536376953125,6.2805609703063965,-7.463816165924072,-0.9412699937820435
1780565040351059700,4.178059814453125,6.310867786407471,-7.4241719245910645,-1.0462369918823242
1780565040370581500,4.19758154296875,6.336900234222412,-7.376826763153076,-1.210837960243225
1780565040390104600,4.2171044921875,6.358439922332764,-7.31816291809082,-1.4334299564361572
1780565040409628700,4.236628662109375,6.372450828552246,-7.246302127838135,-1.7096699476242065
1780565040429150000,4.25614990234375,6.379115104675293,-7.155117034912109,-2.0374441146850586
1780565040448670000,4.275669921875,6.37752103805542,-7.0354180335998535,-2.4228320121765137
1780565040468192300,4.295192138671875,6.361172199249268,-6.888382911682129,-2.850555896759033
1780565040487715300,4.31471533203125,6.322772979736328,-6.709585189819336,-3.323249101638794
1780565040507236000,4.334236083984375,6.263606071472168,-6.490830898284912,-3.830972909927368
1780565040526754300,4.35375439453125,6.183949947357178,-6.231809139251709,-4.354689121246338
1780565040546272800,4.373272705078125,6.084756851196289,-5.932501792907715,-4.880690097808838
1780565040565786400,4.392786376953125,5.967949867248535,-5.598957061767578,-5.392147064208984
1780565040585296600,4.412296630859375,5.967949867248535,-5.598957061767578,-5.392147064208984
1780565040604813800,4.431813720703125,5.681488037109375,-4.845722198486328,-6.346624851226807
1780565040624333300,4.451333251953125,5.515580177307129,-4.440841197967529,-6.774754047393799
1780565040643850800,4.470850830078125,5.339225769042969,-4.025497913360596,-7.164358139038086
1780565040663369200,4.490369140625,5.152719974517822,-3.609246015548706,-7.514173984527588
1780565040682889200,4.50988916015625,5.152719974517822,-3.609246015548706,-7.514173984527588
1780565040702406400,4.529406494140625,4.778886795043945,-2.8156509399414062,-8.079254150390625
1780565040721922000,4.548922119140625,4.604643821716309,-2.442831039428711,-8.298784255981445
1780565040741441500,4.568441650390625,4.604643821716309,-2.442831039428711,-8.298784255981445
1780565040760962600,4.587962646484375,4.292806148529053,-1.7574009895324707,-8.632691383361816
1780565040780481000,4.60748095703125,4.152495861053467,-1.4423890113830566,-8.758782386779785
1780565040800001300,4.627001220703125,4.152495861053467,-1.4423890113830566,-8.758782386779785
1780565040819522300,4.646522216796875,4.016234874725342,-1.13748300075531,-8.86656665802002
1780565040839041800,4.666041748046875,3.884342908859253,-0.8409810066223145,-8.957937240600586
1780565040858558700,4.685558837890625,3.7560739517211914,-0.5498809814453125,-9.034906387329102
1780565040878073300,4.7050732421875,3.629164934158325,-0.25957000255584717,-9.09954833984375
1780565040897590000,4.724590087890625,3.504333972930908,0.032892998307943344,-9.151969909667969
1780565040917110500,4.744110595703125,3.3798069953918457,0.32926100492477417,-9.192850112915039
1780565040936632600,4.763632568359375,3.256592035293579,0.6283680200576782,-9.221700668334961
1780565040956151800,4.78315185546875,3.1358718872070312,0.9304969906806946,-9.237991333007812
1780565040975669500,4.80266943359375,3.0153119564056396,1.2355519533157349,-9.242364883422852
1780565040995188500,4.8221884765625,2.8944270610809326,1.5409859418869019,-9.23513126373291
1780565041014709800,4.841709716796875,2.772702932357788,1.8452670574188232,-9.216675758361816
1780565041034227200,4.861227294921875,2.6516530513763428,2.141761064529419,-9.188122749328613
1780565041053741600,4.880741455078125,2.534637928009033,2.4256319999694824,-9.150513648986816
1780565041073258200,4.90025830078125,2.4224209785461426,2.6962831020355225,-9.105049133300781
1780565041092775000,4.91977490234375,2.318924903869629,2.9548840522766113,-9.051587104797363
1780565041112292400,4.939292236328125,2.2252988815307617,3.196599006652832,-8.992764472961426
1780565041131811800,4.958811767578125,2.140316963195801,3.4189529418945312,-8.931394577026367
1780565041151328000,4.978327880859375,2.063939094543457,3.6210238933563232,-8.86951732635498
1780565041170841900,4.997841796875,1.9961559772491455,3.7986960411071777,-8.810519218444824
1780565041190356500,5.0173564453125,1.9466919898986816,3.9459409713745117,-8.756708145141602
1780565041209873200,5.036873046875,1.915308952331543,4.060433864593506,-8.71116828918457
1780565041229393400,5.056393310546875,1.902987003326416,4.145431041717529,-8.673755645751953
1780565041248908500,5.075908447265625,1.908682942390442,4.199472904205322,-8.646464347839355
1780565041268421600,5.095421630859375,1.9289950132369995,4.229766845703125,-8.627169609069824
1780565041287933000,5.114932861328125,1.9538049697875977,4.249059200286865,-8.612093925476074
1780565041307446300,5.1344462890625,1.9729969501495361,4.2654218673706055,-8.59961986541748
1780565041326967800,5.1539677734375,1.9849849939346313,4.282533168792725,-8.588348388671875
1780565041346486300,5.173486328125,1.9874629974365234,4.300457954406738,-8.578815460205078
1780565041366004200,5.193004150390625,1.9813289642333984,4.319596767425537,-8.570612907409668
1780565041385523000,5.21252294921875,1.9813289642333984,4.319596767425537,-8.570612907409668
1780565041405040600,5.23204052734375,1.964400053024292,4.30986213684082,-8.579407691955566
1780565041424559400,5.251559326171875,1.9737540483474731,4.2673821449279785,-8.598472595214844
1780565041444076800,5.271076904296875,2.000870943069458,4.1929450035095215,-8.628772735595703
1780565041463594000,5.290593994140625,2.048224925994873,4.090763092041016,-8.666626930236816
1780565041483112700,5.31011279296875,2.048224925994873,4.090763092041016,-8.666626930236816
1780565041502630400,5.32963037109375,2.104736089706421,3.9715559482574463,-8.708433151245117
1780565041522149000,5.349149169921875,2.2282440662384033,3.732624053955078,-8.78307819366455
1780565041541670000,5.368669921875,2.2282440662384033,3.732624053955078,-8.78307819366455
1780565041561187800,5.388187744140625,2.312635898590088,3.5047879219055176,-8.854838371276855
1780565041580703200,5.407703125,2.312635898590088,3.5047879219055176,-8.854838371276855
1780565041600220700,5.427220703125,2.338238000869751,3.3902459144592285,-8.892629623413086
1780565041619740000,5.446739990234375,2.369415044784546,3.2649340629577637,-8.931185722351074
1780565041639258400,5.46625830078125,2.410352945327759,3.126955986022949,-8.969522476196289
1780565041658775000,5.485775146484375,2.4589591026306152,2.9778521060943604,-9.00699234008789
1780565041678292000,5.5052919921875,2.5157740116119385,2.820815086364746,-9.04178524017334
1780565041697809700,5.5248095703125,2.5770459175109863,2.6609508991241455,-9.07293701171875
1780565041717323800,5.54432373046875,2.6349329948425293,2.5042850971221924,-9.100861549377441
1780565041736839200,5.563839111328125,2.685364007949829,2.3553519248962402,-9.125850677490234
1780565041756357000,5.583357177734375,2.726722002029419,2.2163710594177246,-9.148370742797852
1780565041775874300,5.602874267578125,2.7591469287872314,2.0880939960479736,-9.168804168701172
1780565041795389400,5.622389404296875,2.782949924468994,1.9698940515518188,-9.187747955322266
1780565041814904600,5.641904541015625,2.7986979484558105,1.8601579666137695,-9.205819129943848
1780565041834423600,5.661423583984375,2.807662010192871,1.758193016052246,-9.223112106323242
1780565041853944000,5.680944091796875,2.8116579055786133,1.6640379428863525,-9.239347457885742
1780565041873464800,5.70046484375,2.8121941089630127,1.5792540311813354,-9.254054069519043
1780565041892984300,5.719984375,2.809921979904175,1.5061670541763306,-9.266919136047363
1780565041912505600,5.739505615234375,2.802522897720337,1.4463859796524048,-9.27867603302002
1780565041932027600,5.759027587890625,2.787247896194458,1.40174400806427,-9.290121078491211
1780565041951551200,5.77855126953125,2.765131950378418,1.374750018119812,-9.300758361816406
1780565041971075300,5.798075439453125,2.7381770610809326,1.3667399883270264,-9.30990982055664
1780565041990601200,5.817601318359375,2.710452079772949,1.3822519779205322,-9.315729141235352
1780565042010127400,5.83712744140625,2.683069944381714,1.4174350500106812,-9.31836986541748
1780565042029651700,5.856651611328125,2.650907039642334,1.4708969593048096,-9.319289207458496
1780565042049176600,5.876176513671875,2.6147329807281494,1.5407789945602417,-9.318217277526855
1780565042068699000,5.895698974609375,2.5714850425720215,1.6230629682540894,-9.316282272338867
1780565042088214000,5.915214111328125,2.5283539295196533,1.709630012512207,-9.312603950500488
1780565042107727600,5.9347275390625,2.4848880767822266,1.7906149625778198,-9.309082984924316
1780565042127244800,5.954244873046875,2.441236972808838,1.866109013557434,-9.305804252624512
1780565042146760700,5.9737607421875,2.410459041595459,1.933717966079712,-9.30002212524414
1780565042166279200,5.993279052734375,2.3963189125061035,1.9929239749908447,-9.291173934936523
1780565042185797600,6.012797607421875,2.3963189125061035,1.9929239749908447,-9.291173934936523
1780565042205314600,6.032314453125,2.4015650749206543,2.0959300994873047,-9.267122268676758
1780565042224834300,6.051834228515625,2.405388116836548,2.1468520164489746,-9.254465103149414
1780565042244356400,6.0713564453125,2.409442901611328,2.1970338821411133,-9.24162483215332
1780565042263876000,6.0908759765625,2.411115884780884,2.24629807472229,-9.229336738586426
1780565042283395600,6.1103955078125,2.4106318950653076,2.29390811920166,-9.217745780944824
1780565042302916900,6.129916748046875,2.4106318950653076,2.29390811920166,-9.217745780944824
1780565042322434800,6.149434814453125,2.4143729209899902,2.3810598850250244,-9.194637298583984
1780565042341954300,6.168954345703125,2.4143729209899902,2.3810598850250244,-9.194637298583984
1780565042361475300,6.188475341796875,2.420783042907715,2.4206080436706543,-9.1826171875
1780565042380993500,6.20799365234375,2.420783042907715,2.4206080436706543,-9.1826171875
1780565042400513300,6.22751318359375,2.4377601146698,2.498167037963867,-9.157319068908691
1780565042420034600,6.24703466796875,2.4451539516448975,2.5383169651031494,-9.144296646118164
1780565042439555000,6.26655517578125,2.4512178897857666,2.579440116882324,-9.131155967712402
1780565042459073500,6.286073486328125,2.455530881881714,2.621182918548584,-9.118101119995117
1780565042478593800,6.30559375,2.4595859050750732,2.6610329151153564,-9.105456352233887
1780565042498118400,6.325118408203125,2.4647369384765625,2.6962859630584717,-9.093685150146484
1780565042517641000,6.344640869140625,2.4726879596710205,2.7252070903778076,-9.08289909362793
1780565042537159700,6.36415966796875,2.4838979244232178,2.747004985809326,-9.073269844055176
1780565042556676400,6.38367626953125,2.497667074203491,2.762687921524048,-9.064723014831543
1780565042576196600,6.403196533203125,2.511934995651245,2.7742929458618164,-9.057232856750488
1780565042595717400,6.42271728515625,2.5241758823394775,2.7843151092529297,-9.050752639770508
1780565042615233800,6.44223388671875,2.5321550369262695,2.794545888900757,-9.045369148254395
1780565042634754000,6.461754150390625,2.534980058670044,2.805488109588623,-9.041189193725586
1780565042654274300,6.4812744140625,2.5343101024627686,2.816478967666626,-9.037960052490234
1780565042673792800,6.500792724609375,2.5334510803222656,2.825627088546753,-9.035344123840332
1780565042693313500,6.5203134765625,2.5364348888397217,2.831326961517334,-9.032723426818848
1780565042712832300,6.539832275390625,2.5463950634002686,2.832305908203125,-9.02961254119873
1780565042732348400,6.559348388671875,2.564316987991333,2.828205108642578,-9.025826454162598
1780565042751867600,6.57886767578125,2.588901996612549,2.819753885269165,-9.021450996398926
1780565042771384600,6.598384521484375,2.6171789169311523,2.8080220222473145,-9.016949653625488
1780565042790898700,6.617898681640625,2.6456298828125,2.794938087463379,-9.012710571289062
1780565042810415900,6.637415771484375,2.6724250316619873,2.7809619903564453,-9.00912857055664
1780565042829933800,6.656933837890625,2.6961851119995117,2.7663750648498535,-9.006539344787598
1780565042849452000,6.6764521484375,2.7170329093933105,2.751147985458374,-9.004938125610352
1780565042868968700,6.69596875,2.7360548973083496,2.734848976135254,-9.004143714904785
1780565042888485000,6.715485107421875,2.7548439502716064,2.7172019481658936,-9.00375747680664
1780565042908000300,6.735000244140625,2.775883913040161,2.6968750953674316,-9.003406524658203
1780565042927518700,6.754518798828125,2.7985761165618896,2.674546957015991,-9.00304126739502
1780565042947037700,6.77403759765625,2.823331117630005,2.64957594871521,-9.002696990966797
1780565042966554600,6.7935546875,2.849513053894043,2.621978998184204,-9.002527236938477
1780565042986069200,6.8130693359375,2.849513053894043,2.621978998184204,-9.002527236938477
1780565043005585000,6.8325849609375,2.9065980911254883,2.564552068710327,-9.00082015991211
1780565043025102000,6.85210205078125,2.9356510639190674,2.536863088607788,-8.999237060546875
1780565043044616000,6.871615966796875,2.9640729427337646,2.5108959674835205,-8.997203826904297
1780565043064131600,6.891131591796875,2.990291118621826,2.487981081008911,-8.994894027709961
1780565043083648300,6.910648193359375,3.013427972793579,2.468785047531128,-8.992460250854492
1780565043103166000,6.930166015625,3.013427972793579,2.468785047531128,-8.992460250854492
1780565043122686200,6.949686279296875,3.0327980518341064,2.4530088901519775,-8.990265846252441
1780565043142204000,6.969203857421875,3.0631110668182373,2.434683084487915,-8.984968185424805
1780565043161719800,6.9887197265625,3.0631110668182373,2.434683084487915,-8.984968185424805
1780565043181235500,7.0082353515625,3.0631110668182373,2.434683084487915,-8.984968185424805
1780565043200746500,7.02774658203125,3.0804200172424316,2.434739112854004,-8.979034423828125
1780565043220257800,7.0472578125,3.0804200172424316,2.434739112854004,-8.979034423828125
1780565043239772400,7.0667724609375,3.091135025024414,2.4403860569000244,-8.973816871643066
1780565043259287000,7.086287109375,3.095244884490967,2.4411659240722656,-8.972187995910645
1780565043278798300,7.10579833984375,3.0988240242004395,2.439258098602295,-8.97147274017334
1780565043298308900,7.125308837890625,3.1037020683288574,2.4320321083068848,-8.971747398376465
1780565043317826300,7.144826416015625,3.1077170372009277,2.4209470748901367,-8.973355293273926
1780565043337349000,7.16434912109375,3.109631061553955,2.4107260704040527,-8.975443840026855
1780565043356870400,7.183870361328125,3.106100082397461,2.4029839038848877,-8.978742599487305
1780565043376386600,7.203386474609375,3.0937960147857666,2.400840997695923,-8.983562469482422
1780565043395898600,7.222898681640625,3.0706050395965576,2.4059019088745117,-8.99016284942627
1780565043415411500,7.242411376953125,3.036418914794922,2.4185290336608887,-8.998381614685059
1780565043434927400,7.26192724609375,2.9926350116729736,2.4370810985565186,-9.008039474487305
1780565043454445300,7.2814453125,2.9421260356903076,2.459364891052246,-9.018614768981934
1780565043473963500,7.300963623046875,2.8887081146240234,2.4833719730377197,-9.029298782348633
1780565043493481500,7.3204814453125,2.835982084274292,2.507673978805542,-9.039291381835938
1780565043513004000,7.340004150390625,2.785857915878296,2.5321569442749023,-9.04804801940918
1780565043532526800,7.35952685546875,2.7382609844207764,2.5568180084228516,-9.05564022064209
1780565043552046800,7.379046875,2.692317008972168,2.5814359188079834,-9.06242847442627
1780565043571568400,7.398568359375,2.646883964538574,2.6049139499664307,-9.069091796875
1780565043591089200,7.418089111328125,2.600796937942505,2.624385118484497,-9.07680892944336
1780565043610607900,7.43760791015625,2.5543019771575928,2.638205051422119,-9.086000442504883
1780565043630124800,7.457124755859375,2.508023977279663,2.6444530487060547,-9.097070693969727
1780565043649636400,7.47663623046875,2.463263988494873,2.642263889312744,-9.1099271774292
1780565043669145900,7.496145751953125,2.4215168952941895,2.6323599815368652,-9.12397575378418
1780565043688663000,7.5156630859375,2.384087085723877,2.615818977355957,-9.138579368591309
1780565043708183800,7.535183837890625,2.350806951522827,2.593596935272217,-9.153521537780762
1780565043727702500,7.55470263671875,2.320770025253296,2.5640690326690674,-9.1694917678833
1780565043747220200,7.57422021484375,2.29435396194458,2.526482105255127,-9.186556816101074
1780565043766732500,7.593732666015625,2.2749760150909424,2.4769980907440186,-9.204833030700684
1780565043786243600,7.61324365234375,2.262505054473877,2.414858102798462,-9.22439956665039
1780565043805760000,7.632760009765625,2.257934093475342,2.342689037322998,-9.244107246398926
1780565043825273000,7.652273193359375,2.2612359523773193,2.261850118637085,-9.26341438293457
1780565043844787500,7.671787353515625,2.2712008953094482,2.17626690864563,-9.28145980834961
1780565043864306200,7.69130615234375,2.2850608825683594,2.0872280597686768,-9.298492431640625
1780565043883826400,7.710826416015625,2.297744035720825,1.9958410263061523,-9.31541633605957
1780565043903347500,7.730347412109375,2.3102009296417236,1.8940680027008057,-9.333566665649414
1780565043922866700,7.74986669921875,2.3102009296417236,1.8940680027008057,-9.333566665649414
1780565043942381600,7.769381591796875,2.3269948959350586,1.7741719484329224,-9.352935791015625
1780565043961894000,7.788893798828125,2.3895719051361084,1.4565279483795166,-9.391936302185059
1780565043981409000,7.808408935546875,2.3895719051361084,1.4565279483795166,-9.391936302185059
1780565044000924400,7.82792431640625,2.4382131099700928,1.2548149824142456,-9.408536911010742
1780565044020440000,7.847440185546875,2.4382131099700928,1.2548149824142456,-9.408536911010742
1780565044039958500,7.86695849609375,2.5703470706939697,0.7702909708023071,-9.425495147705078
1780565044059479800,7.886479736328125,2.6459898948669434,0.4999299943447113,-9.422780990600586
1780565044078999300,7.905999267578125,2.723968029022217,0.21782800555229187,-9.411299705505371
1780565044098517200,7.925517333984375,2.8020989894866943,-0.0788469985127449,-9.390527725219727
1780565044118035700,7.94503564453125,2.8813250064849854,-0.3897559940814972,-9.358741760253906
1780565044137553200,7.96455322265625,2.960390090942383,-0.7134820222854614,-9.3148832321167
1780565044157067000,7.98406689453125,3.0401339530944824,-1.0521910190582275,-9.256914138793945
1780565044176577000,8.003576904296875,3.1208229064941406,-1.4054360389709473,-9.182875633239746
1780565044196085800,8.023085693359375,3.200608968734741,-1.770382046699524,-9.0918550491333
1780565044215599900,8.042599853515625,3.279561996459961,-2.1441938877105713,-8.982589721679688
1780565044235116300,8.0621162109375,3.3561689853668213,-2.523094892501831,-8.854948997497559
1780565044254629000,8.081629150390626,3.4303860664367676,-2.904578924179077,-8.708378791809082
1780565044274142700,8.101142822265626,3.5018229484558105,-3.2871220111846924,-8.542367935180664
1780565044293656600,8.120656494140626,3.5696029663085938,-3.6689629554748535,-8.356831550598145
1780565044313173200,8.14017333984375,3.63362193107605,-4.048148155212402,-8.151642799377441
1780565044332691500,8.15969140625,3.6940059661865234,-4.422408103942871,-7.926955223083496
1780565044352206300,8.179206298828126,3.750904083251953,-4.789102077484131,-7.683436870574951
1780565044371720000,8.198719970703126,3.8046998977661133,-5.145956039428711,-7.421817779541016
1780565044391234000,8.218234130859376,3.8548929691314697,-5.4918317794799805,-7.142798900604248
1780565044410752000,8.237751953125,3.9007558822631836,-5.8265380859375,-6.84657096862793
1780565044430269200,8.257269287109375,3.940648078918457,-6.150516986846924,-6.533178806304932
1780565044449782800,8.27678271484375,3.973210096359253,-6.464128017425537,-6.2023091316223145
1780565044469301500,8.296301513671875,3.9990360736846924,-6.7666192054748535,-5.8532538414001465
1780565044488823300,8.3158232421875,4.020875930786133,-7.056217193603516,-5.484738826751709
1780565044508342000,8.335342041015625,4.044013977050781,-7.327608108520508,-5.098245143890381
1780565044527858200,8.354858154296876,4.068734169006348,-7.577671051025391,-4.697265148162842
1780565044547373600,8.37437353515625,4.09851598739624,-7.801629066467285,-4.286811828613281
1780565044566884900,8.393884765625,4.134584903717041,-8.00012493133545,-3.8656439781188965
1780565044586396000,8.41339599609375,4.134584903717041,-8.00012493133545,-3.8656439781188965
1780565044605908500,8.432908447265625,4.238890171051025,-8.304883003234863,-3.016740083694458
1780565044625424000,8.452423828125,4.303278923034668,-8.4114990234375,-2.6016299724578857
1780565044644942600,8.471942626953124,4.375426769256592,-8.490324974060059,-2.1931750774383545
1780565044664454100,8.4914541015625,4.451243877410889,-8.542997360229492,-1.8010050058364868
1780565044683967000,8.510967041015626,4.5322418212890625,-8.56982421875,-1.4341850280761719
1780565044703487500,8.530487548828125,4.614986896514893,-8.574763298034668,-1.1024149656295776
1780565044723007500,8.550007568359375,4.614986896514893,-8.574763298034668,-1.1024149656295776
1780565044742525000,8.56952490234375,4.699403762817383,-8.56259822845459,-0.7984449863433838
1780565044762041000,8.589041015625,4.879556179046631,-8.493365287780762,-0.30442801117897034
1780565044781558800,8.608558837890625,4.976521015167236,-8.441694259643555,-0.10976000130176544
1780565044801076200,8.628076171875,4.976521015167236,-8.441694259643555,-0.10976000130176544
1780565044820590300,8.64759033203125,4.976521015167236,-8.441694259643555,-0.10976000130176544
1780565044840105500,8.66710546875,5.1679558753967285,-8.32475471496582,0.17511799931526184
1780565044859620400,8.686620361328124,5.255852222442627,-8.266861915588379,0.27386999130249023
1780565044879133000,8.7061328125,5.336050987243652,-8.213224411010742,0.33090299367904663
1780565044898642200,8.72564208984375,5.409297943115234,-8.165083885192871,0.33304300904273987
1780565044918155000,8.745155029296875,5.477731227874756,-8.121435165405273,0.2770630121231079
1780565044937672700,8.764672607421875,5.553234100341797,-8.073079109191895,0.16431400179862976
1780565044957188600,8.784188720703124,5.63430118560791,-8.018360137939453,-0.023507999256253242
1780565044976702000,8.803701904296876,5.719951152801514,-7.951871871948242,-0.2998200058937073
1780565044996214000,8.823214111328125,5.81099796295166,-7.863230228424072,-0.6647679805755615
1780565045015726600,8.8427265625,5.906155109405518,-7.739927768707275,-1.118414044380188
1780565045035241500,8.862241455078125,5.995794773101807,-7.574289798736572,-1.6494220495224
1780565045054757000,8.881757080078126,6.066037178039551,-7.36168098449707,-2.2469630241394043
1780565045074271500,8.901271484375,6.1138410568237305,-7.094239234924316,-2.8866469860076904
1780565045093785300,8.920785400390624,6.131163120269775,-6.775093078613281,-3.5421669483184814
1780565045113300000,8.940300048828124,6.109576225280762,-6.418155193328857,-4.185733795166016
1780565045132816100,8.959816162109375,6.049306869506836,-6.043023109436035,-4.78829288482666
1780565045152335000,8.979335205078126,5.955118179321289,-5.655093193054199,-5.347568035125732
1780565045171855400,8.99885546875,5.832099914550781,-5.2649149894714355,-5.857240200042725
1780565045191371800,9.018371826171874,5.686227798461914,-4.88532018661499,-6.311927795410156
1780565045210886000,9.037885986328124,5.529871940612793,-4.518396854400635,-6.7115278244018555
1780565045230399200,9.057399169921876,5.3716559410095215,-4.1636810302734375,-7.060387134552002
1780565045249915100,9.0769150390625,5.213475227355957,-3.819066047668457,-7.3671159744262695
1780565045269433000,9.09643310546875,5.056777000427246,-3.483272075653076,-7.637788772583008
1780565045288949800,9.11594970703125,4.8999528884887695,-3.1534531116485596,-7.879479885101318
1780565045308465200,9.135465087890625,4.741359233856201,-2.8262200355529785,-8.09765338897705
1780565045327979800,9.154979736328125,4.577812194824219,-2.4980599880218506,-8.297187805175781
1780565045347499000,9.1744990234375,4.408274173736572,-2.1681900024414062,-8.479744911193848
1780565045367019300,9.194019287109375,4.232161045074463,-1.8378219604492188,-8.645878791809082
1780565045386535700,9.21353564453125,4.050975799560547,-1.5076149702072144,-8.79526424407959
1780565045406055200,9.23305517578125,3.8713109493255615,-1.1813559532165527,-8.925095558166504
1780565045425577200,9.2525771484375,3.6956980228424072,-0.8619499802589417,-9.035423278808594
1780565045445097000,9.272096923828125,3.529658079147339,-0.5525689721107483,-9.125576972961426
1780565045464610800,9.29161083984375,3.3789069652557373,-0.25591400265693665,-9.195514678955078
1780565045484123100,9.311123046875,3.2475340366363525,0.027797000482678413,-9.246228218078613
1780565045503638300,9.33063818359375,3.1331279277801514,0.3010140061378479,-9.280780792236328
1780565045523156200,9.35015625,3.017124891281128,0.5686089992523193,-9.306644439697266
1780565045542678000,9.369677978515625,2.899158000946045,0.8342450261116028,-9.324103355407715
1780565045562195700,9.38919580078125,2.7705159187316895,1.1029289960861206,-9.335297584533691
1780565045581711000,9.408711181640625,2.629369020462036,1.3723039627075195,-9.340407371520996
1780565045601228000,9.42822802734375,2.629369020462036,1.3723039627075195,-9.340407371520996
1780565045620745500,9.447745361328124,2.3217740058898926,1.896193027496338,-9.330263137817383
1780565045640263000,9.467262939453125,2.3217740058898926,1.896193027496338,-9.330263137817383
1780565045659781400,9.486781494140626,2.178420066833496,2.1409029960632324,-9.311875343322754
1780565045679303000,9.506302978515626,2.051470994949341,2.3609418869018555,-9.28748607635498
1780565045698826000,9.525825927734376,1.9482120275497437,2.552126884460449,-9.259108543395996
1780565045718349300,9.545349365234374,1.867231011390686,2.716949939727783,-9.228848457336426
1780565045737873000,9.564872802734374,1.867231011390686,2.716949939727783,-9.228848457336426
1780565045757395200,9.584395263671874,1.7445789575576782,2.9783270359039307,-9.17202377319336
1780565045796437800,9.623437744140626,1.6360969543457031,3.1822800636291504,-9.123391151428223
1780565045815957800,9.642957763671875,1.575279951095581,3.276839017868042,-9.100595474243164
1780565045835476500,9.6624765625,1.5100749731063843,3.3659849166870117,-9.079087257385254
1780565045854993200,9.6819931640625,1.4454280138015747,3.4504480361938477,-9.057876586914062
1780565045874515200,9.70151513671875,1.385985016822815,3.5277159214019775,-9.037381172180176
1780565045894036700,9.72103662109375,1.3362250328063965,3.594364881515503,-9.018593788146973
1780565045913555700,9.7405556640625,1.3034989833831787,3.646246910095215,-9.002541542053223
1780565045933075500,9.760075439453125,1.2927449941635132,3.6800129413604736,-8.990345001220703
1780565045952595500,9.779595458984375,1.3077340126037598,3.69406795501709,-8.982410430908203
1780565045972112400,9.7991123046875,1.3493260145187378,3.6860671043395996,-8.979544639587402
1780565045991628800,9.81862890625,1.4166439771652222,3.658129930496216,-8.980602264404297
1780565046011146000,9.83814599609375,1.5065059661865234,3.6135311126708984,-8.984031677246094
1780565046030662000,9.857661865234375,1.614151954650879,3.5562000274658203,-8.988211631774902
1780565046050181000,9.87718115234375,1.7339409589767456,3.4913830757141113,-8.991312026977539
1780565046069698000,9.896697998046875,1.859117031097412,3.423922061920166,-8.992242813110352
1780565046089212400,9.91621240234375,1.984779953956604,3.3591480255126953,-8.989814758300781
1780565046108729600,9.9357294921875,2.1082708835601807,3.2975099086761475,-8.98452091217041
1780565046128249000,9.9552490234375,2.2365729808807373,3.2369730472564697,-8.975507736206055
1780565046147772200,9.974772216796875,2.370666027069092,3.1745998859405518,-8.963361740112305
1780565046167290600,9.99429052734375,2.5188169479370117,3.1063408851623535,-8.946853637695312
1780565046186806500,10.013806640625,2.6810739040374756,3.028446912765503,-8.926384925842285
1780565046206329300,10.033329345703125,2.8519721031188965,2.940329074859619,-8.902848243713379
1780565046225853000,10.05285302734375,3.0309360027313232,2.8425049781799316,-8.875449180603027
1780565046245373700,10.072373779296875,3.1988110542297363,2.7421441078186035,-8.848064422607422
1780565046264894200,10.091894287109374,3.3523828983306885,2.6445000171661377,-8.820893287658691
1780565046284414000,10.1114140625,3.4830379486083984,2.554210901260376,-8.796843528747559
1780565046303933400,10.130933349609375,3.591571092605591,2.473798990249634,-8.776156425476074
1780565046323456300,10.150456298828125,3.685009002685547,2.402445077896118,-8.757223129272461
1780565046342979000,10.16997900390625,3.685009002685547,2.402445077896118,-8.757223129272461
1780565046362500600,10.18950048828125,3.8184380531311035,2.279505968093872,-8.732890129089355
1780565046382022400,10.2090224609375,3.8680620193481445,2.223128080368042,-8.72558307647705
1780565046401539800,10.228539794921875,3.9060769081115723,2.170619010925293,-8.721867561340332
1780565046421058600,10.24805859375,3.9060769081115723,2.170619010925293,-8.721867561340332
1780565046440578800,10.267578857421874,3.9060769081115723,2.170619010925293,-8.721867561340332
1780565046460096000,10.287095947265625,3.934596061706543,2.093502998352051,-8.727897644042969
1780565046479613400,10.306613525390626,3.9250988960266113,2.072335958480835,-8.737218856811523
1780565046499136300,10.32613623046875,3.9012820720672607,2.0637729167938232,-8.74990463256836
1780565046518661600,10.34566162109375,3.8617091178894043,2.067133903503418,-8.766650199890137
1780565046538180000,10.36518017578125,3.808119058609009,2.0806350708007812,-8.78687572479248
1780565046557700000,10.3847001953125,3.7446980476379395,2.099008083343506,-8.809733390808105
1780565046577223000,10.404222900390625,3.676050901412964,2.1224100589752197,-8.8330078125
1780565046596746800,10.423746826171875,3.6053109169006348,2.1494500637054443,-8.855596542358398
1780565046616269600,10.44326953125,3.5333549976348877,2.179888963699341,-8.8771333694458
1780565046635788800,10.462788818359375,3.4590539932250977,2.214587926864624,-8.897783279418945
1780565046655309000,10.48230908203125,3.380213975906372,2.2546329498291016,-8.918004035949707
1780565046674826500,10.501826416015625,3.2942099571228027,2.3005990982055664,-8.938423156738281
1780565046694346200,10.52134619140625,3.197988986968994,2.3503310680389404,-8.96040153503418
1780565046713870300,10.540870361328125,3.0924220085144043,2.402276039123535,-8.983651161193848
1780565046733396000,10.56039599609375,2.980746030807495,2.4535930156707764,-9.007498741149902
1780565046752920300,10.57992041015625,2.8685688972473145,2.501401901245117,-9.030741691589355
1780565046772437200,10.599437255859375,2.7617039680480957,2.543442964553833,-9.052286148071289
1780565046791954000,10.618953857421875,2.6647961139678955,2.578674077987671,-9.071345329284668
1780565046811475200,10.63847509765625,2.5793569087982178,2.6078040599823,-9.087698936462402
1780565046830992000,10.657991943359375,2.5038230419158936,2.632030963897705,-9.101827621459961
1780565046850508300,10.67750830078125,2.4354488849639893,2.652817964553833,-9.114336967468262
1780565046870024400,10.6970244140625,2.3721818923950195,2.671130895614624,-9.125667572021484
1780565046889536800,10.716536865234374,2.3134329319000244,2.687087059020996,-9.136059761047363
1780565046909049000,10.736049072265626,2.2606759071350098,2.7006349563598633,-9.14526653289795
1780565046928567000,10.755567138671875,2.216377019882202,2.71140193939209,-9.152920722961426
1780565046948084000,10.775083984375,2.184540033340454,2.721266031265259,-9.157647132873535
1780565046967597300,10.794597412109376,2.1655070781707764,2.7305800914764404,-9.159394264221191
1780565046987113700,10.81411376953125,2.157244920730591,2.7391440868377686,-9.158787727355957
1780565047006631700,10.833631591796875,2.157180070877075,2.7471230030059814,-9.156412124633789
1780565047026144800,10.853144775390625,2.166140079498291,2.7505359649658203,-9.153271675109863
1780565047045659400,10.872659423828125,2.180730104446411,2.749645948410034,-9.15007495880127
1780565047065175300,10.89217529296875,2.1987171173095703,2.7420361042022705,-9.148053169250488
1780565047084692200,10.911692138671874,2.220151901245117,2.7275280952453613,-9.14721393585205
1780565047104210200,10.931210205078125,2.2460200786590576,2.7073910236358643,-9.146880149841309
1780565047123726600,10.9507265625,2.276266098022461,2.6834490299224854,-9.146458625793457
1780565047143243000,10.970242919921875,2.306152105331421,2.661297082901001,-9.145444869995117
1780565047162761500,10.989761474609375,2.306152105331421,2.661297082901001,-9.145444869995117
1780565047182280000,11.009280029296875,2.3341081142425537,2.641202926635742,-9.144177436828613
1780565047201799000,11.028798828125,2.3722870349884033,2.6069600582122803,-9.144179344177246
1780565047221319700,11.048319580078125,2.382061004638672,2.5898239612579346,-9.146507263183594
1780565047240838400,11.06783837890625,2.382061004638672,2.5898239612579346,-9.146507263183594
1780565047260354600,11.0873544921875,2.382061004638672,2.5898239612579346,-9.146507263183594
1780565047279872000,11.1068720703125,2.389673948287964,2.5446040630340576,-9.157206535339355
1780565047299393300,11.126393310546876,2.3928840160369873,2.514857053756714,-9.164583206176758
1780565047318914300,11.145914306640625,2.3979389667510986,2.481606960296631,-9.172323226928711
1780565047338432800,11.165432861328124,2.4038848876953125,2.4477639198303223,-9.179858207702637
1780565047357947400,11.184947509765625,2.409298896789551,2.4167139530181885,-9.186662673950195
1780565047377461200,11.204461181640625,2.412738084793091,2.391197919845581,-9.192435264587402
1780565047396975400,11.223975341796875,2.410975933074951,2.3729848861694336,-9.197616577148438
1780565047416488400,11.243488525390624,2.402678966522217,2.361876964569092,-9.202644348144531
1780565047436002800,11.2630029296875,2.388514995574951,2.356379985809326,-9.20773983001709
1780565047455517400,11.282517333984375,2.370718002319336,2.353490114212036,-9.213075637817383
1780565047475035000,11.302034912109375,2.3526229858398438,2.349755048751831,-9.218667030334473
1780565047494554400,11.321554443359375,2.3376119136810303,2.342576026916504,-9.224310874938965
1780565047514071300,11.3410712890625,2.3278980255126953,2.3303439617156982,-9.229864120483398
1780565047533592600,11.360592529296875,2.3237531185150146,2.312894105911255,-9.235296249389648
1780565047553113000,11.380113037109375,2.323451042175293,2.2915520668029785,-9.240691184997559
1780565047572627000,11.399626953125,2.324191093444824,2.2683329582214355,-9.246232032775879
1780565047592141600,11.4191416015625,2.323493003845215,2.2450249195098877,-9.252093315124512
1780565047611660000,11.438659912109374,2.3198890686035156,2.222393035888672,-9.25846004486084
1780565047631181000,11.45818115234375,2.314007043838501,2.2003049850463867,-9.265205383300781
1780565047650700800,11.47770068359375,2.3080999851226807,2.177957057952881,-9.271956443786621
1780565047670219800,11.4972197265625,2.3049941062927246,2.1541941165924072,-9.278277397155762
1780565047689739300,11.5167392578125,2.3066189289093018,2.128237009048462,-9.283863067626953
1780565047709259000,11.536259033203125,2.312678098678589,2.10025691986084,-9.288726806640625
1780565047728775200,11.555775146484375,2.3218469619750977,2.0715129375457764,-9.292893409729004
1780565047748289000,11.5752890625,2.332390069961548,2.0437490940093994,-9.296399116516113
1780565047767805000,11.594804931640626,2.3437540531158447,2.019476890563965,-9.298845291137695
1780565047787323400,11.614323486328125,2.3562169075012207,2.0004498958587646,-9.299809455871582
1780565047806843600,11.63384375,2.369286060333252,1.9877229928970337,-9.299217224121094
1780565047826360600,11.653360595703125,2.383070945739746,1.9816440343856812,-9.296991348266602
1780565047845877800,11.672877685546876,2.3974719047546387,1.981181025505066,-9.293387413024902
1780565047865395000,11.69239501953125,2.410515069961548,1.9853830337524414,-9.289114952087402
1780565047884917200,11.711917236328125,2.420923948287964,1.9922490119934082,-9.284937858581543
1780565047904438500,11.7314384765625,2.428631067276001,2.000307083129883,-9.2811918258667
1780565047923956700,11.750956787109375,2.4356820583343506,2.0085599422454834,-9.27756118774414
1780565047943477500,11.7704775390625,2.444056987762451,2.016587972640991,-9.273615837097168
1780565047963001000,11.7900009765625,2.444056987762451,2.016587972640991,-9.273615837097168
1780565047982523100,11.809523193359375,2.4668259620666504,2.0387558937072754,-9.262734413146973
1780565048002041000,11.829041015625,2.4829070568084717,2.0547120571136475,-9.254907608032227
1780565048021560800,11.848560791015625,2.498892068862915,2.0759899616241455,-9.245853424072266
1780565048041081600,11.86808154296875,2.498892068862915,2.0759899616241455,-9.245853424072266
1780565048060604000,11.88760400390625,2.498892068862915,2.0759899616241455,-9.245853424072266
1780565048080129300,11.90712939453125,2.5133190155029297,2.137449026107788,-9.227922439575195
1780565048099650000,11.926650146484375,2.5077810287475586,2.1777560710906982,-9.220001220703125
1780565048119169800,11.946169677734375,2.4934539794921875,2.2254300117492676,-9.212499618530273
1780565048138689500,11.965689453125,2.4714488983154297,2.279597043991089,-9.205182075500488
1780565048158209000,11.985208984375,2.4428870677948,2.3386480808258057,-9.197989463806152
1780565048177731800,12.00473193359375,2.4098000526428223,2.401357889175415,-9.190556526184082
1780565048197251800,12.024251953125,2.3739089965820312,2.465749979019165,-9.182844161987305
1780565048216771300,12.043771240234374,2.336699962615967,2.5302960872650146,-9.174826622009277
1780565048236292000,12.0632919921875,2.299683094024658,2.594419002532959,-9.166267395019531
1780565048255809500,12.0828095703125,2.2640678882598877,2.658112049102783,-9.156879425048828
1780565048275330300,12.102330322265624,2.23022198677063,2.721595048904419,-9.146530151367188
1780565048294858200,12.121858154296875,2.1978840827941895,2.7851009368896484,-9.135234832763672
1780565048314386700,12.14138671875,2.166343927383423,2.848145008087158,-9.123321533203125
1780565048333912300,12.160912353515625,2.134213924407959,2.9097559452056885,-9.111446380615234
1780565048353433300,12.180433349609375,2.1003589630126953,2.9683239459991455,-9.100414276123047
1780565048372949500,12.199949462890626,2.064368963241577,3.0217559337615967,-9.091060638427734
1780565048392466000,12.2194658203125,2.0269010066986084,3.068434953689575,-9.083852767944336
1780565048411984000,12.23898388671875,1.989488959312439,3.1071829795837402,-9.078950881958008
1780565048431500000,12.2585,1.954071044921875,3.137648105621338,-9.076164245605469
1780565048451019500,12.27801953125,1.9231150150299072,3.16048002243042,-9.074854850769043
1780565048470541000,12.297541015625,1.8986740112304688,3.1770739555358887,-9.074207305908203
1780565048490058800,12.317058837890626,1.881311058998108,3.18988299369812,-9.07332992553711
1780565048509577500,12.336577392578125,1.8692450523376465,3.201047897338867,-9.071891784667969
1780565048529095400,12.356095458984376,1.859151005744934,3.211838960647583,-9.070152282714844
1780565048548609000,12.375609130859376,1.8477809429168701,3.2218520641326904,-9.068923950195312
1780565048568126700,12.395126708984375,1.8342560529708862,3.2272450923919678,-9.069751739501953
1780565048587646500,12.414646484375,1.818922996520996,3.2254579067230225,-9.073473930358887
1780565048607166700,12.434166748046875,1.8053159713745117,3.2123770713806152,-9.080830574035645
1780565048626684200,12.45368408203125,1.799172043800354,3.1853489875793457,-9.09156322479248
1780565048646198800,12.47319873046875,1.8058940172195435,3.143867015838623,-9.104660987854004
1780565048665715700,12.4927158203125,1.8277829885482788,3.0870840549468994,-9.119710922241211
1780565048685235500,12.5122353515625,1.862826943397522,3.012371063232422,-9.13758659362793
1780565048704756500,12.531756591796874,1.9079639911651611,2.9196829795837402,-9.158336639404297
1780565048724275700,12.551275634765625,1.9599089622497559,2.80916690826416,-9.181901931762695
1780565048743792000,12.570792236328124,2.0176761150360107,2.67549991607666,-9.209271430969238
1780565048763309800,12.590309814453125,2.0811469554901123,2.5186150074005127,-9.239339828491211
1780565048782828800,12.609828857421874,2.0811469554901123,2.5186150074005127,-9.239339828491211
1780565048802346200,12.62934619140625,2.2360448837280273,2.1213738918304443,-9.302680015563965
1780565048821861600,12.648861572265625,2.328526020050049,1.8871300220489502,-9.330418586730957
1780565048841382100,12.668382080078125,2.328526020050049,1.8871300220489502,-9.330418586730957
1780565048860905700,12.68790576171875,2.5434908866882324,1.3589880466461182,-9.366097450256348
1780565048880430000,12.70743017578125,2.5434908866882324,1.3589880466461182,-9.366097450256348
1780565048899956700,12.726956787109375,2.6596128940582275,1.0706419944763184,-9.371241569519043
1780565048919483000,12.74648291015625,2.7772068977355957,0.7733340263366699,-9.366378784179688
1780565048939007700,12.7660078125,2.89841890335083,0.4650309979915619,-9.350021362304688
1780565048958528800,12.78552880859375,3.023375988006592,0.14504900574684143,-9.320845603942871
1780565048978050800,12.80505078125,3.1497080326080322,-0.18572500348091125,-9.278193473815918
1780565048997570800,12.82457080078125,3.277618885040283,-0.5278509855270386,-9.220550537109375
1780565049017090300,12.84409033203125,3.406830072402954,-0.8780689835548401,-9.146719932556152
1780565049036610000,12.863610107421875,3.5359530448913574,-1.233441948890686,-9.056249618530273
1780565049056125000,12.883125,3.6628520488739014,-1.5908030271530151,-8.949460983276367
1780565049075639000,12.90263916015625,3.7854299545288086,-1.9469469785690308,-8.827225685119629
1780565049095157000,12.922156982421875,3.901905059814453,-2.299290895462036,-8.690707206726074
1780565049114676500,12.941676513671876,4.011508941650391,-2.6458189487457275,-8.540926933288574
1780565049134194200,12.961194091796875,4.114846229553223,-2.9855079650878906,-8.378232955932617
1780565049153716000,12.980716064453125,4.212724208831787,-3.319084882736206,-8.20223331451416
1780565049173241000,13.000240966796875,4.306156158447266,-3.647402048110962,-8.012083053588867
1780565049192761900,13.019761962890625,4.395359039306641,-3.9709110260009766,-7.807219982147217
1780565049212281000,13.039281005859374,4.479803085327148,-4.289857864379883,-7.587389945983887
1780565049231803400,13.058803466796874,4.558253765106201,-4.603422164916992,-7.353285789489746
1780565049251326700,13.07832666015625,4.629493236541748,-4.91008996963501,-7.106250762939453
1780565049270845000,13.097844970703125,4.693802833557129,-5.207888126373291,-6.8473429679870605
1780565049290363100,13.117363037109374,4.7543110847473145,-5.491267204284668,-6.578942775726318
1780565049309879600,13.136879638671875,4.813611030578613,-5.760301113128662,-6.299846172332764
1780565049329395200,13.156395263671875,4.875006198883057,-6.014313220977783,-6.00852108001709
1780565049348909000,13.175908935546875,4.943196773529053,-6.2491888999938965,-5.705474853515625
1780565049368420900,13.1954208984375,5.018439769744873,-6.4668731689453125,-5.388394832611084
1780565049387932400,13.214932373046874,5.1010918617248535,-6.661667823791504,-5.063697814941406
1780565049407444700,13.23444482421875,5.188271999359131,-6.838366985321045,-4.728484153747559
1780565049426958600,13.25395849609375,5.276700973510742,-6.996095180511475,-4.387602806091309
1780565049446475500,13.2734755859375,5.361145973205566,-7.129683017730713,-4.057797908782959
1780565049465991000,13.292990966796875,5.436868190765381,-7.244542121887207,-3.7412660121917725
1780565049485502200,13.312502197265625,5.504327774047852,-7.334219932556152,-3.4571070671081543
1780565049505016300,13.332016357421875,5.559566020965576,-7.401482105255127,-3.2170300483703613
1780565049524533200,13.351533203125,5.603178024291992,-7.445853233337402,-3.033752918243408
1780565049544048400,13.37104833984375,5.637646198272705,-7.464705944061279,-2.921489953994751
1780565049563564300,13.390564208984374,5.661124229431152,-7.468241214752197,-2.86653995513916
1780565049583079700,13.41007958984375,5.661124229431152,-7.468241214752197,-2.86653995513916
1780565049602594300,13.42959423828125,5.676523208618164,-7.447294235229492,-2.8904809951782227
1780565049622111200,13.449111328125,5.683994770050049,-7.4057087898254395,-2.981215000152588
1780565049641630500,13.46863037109375,5.673184871673584,-7.267082214355469,-3.3233249187469482
1780565049661149700,13.488149658203126,5.673184871673584,-7.267082214355469,-3.3233249187469482
1780565049680666000,13.507666015625,5.630664825439453,-7.0309271812438965,-3.8602681159973145
1780565049700181500,13.527181396484375,5.630664825439453,-7.0309271812438965,-3.8602681159973145
1780565049719691500,13.54669140625,5.603919982910156,-6.860468864440918,-4.191664218902588
1780565049739198700,13.56619873046875,5.570260047912598,-6.6521501541137695,-4.556434154510498
1780565049758709000,13.585708984375,5.526573181152344,-6.407036781311035,-4.944375991821289
1780565049778221300,13.60522119140625,5.473134994506836,-6.1176838874816895,-5.353385925292969
1780565049797733600,13.624733642578125,5.4087629318237305,-5.797015190124512,-5.760199069976807
1780565049817243100,13.6442431640625,5.333932876586914,-5.441030979156494,-6.163144111633301
1780565049836753700,13.663753662109375,5.247725963592529,-5.068271160125732,-6.543241024017334
1780565049856265200,13.68326513671875,5.149961948394775,-4.684260845184326,-6.897504806518555
1780565049875780600,13.702780517578125,5.040605068206787,-4.292383193969727,-7.22549295425415
1780565049895296800,13.722296875,4.917791843414307,-3.902951955795288,-7.524776935577393
1780565049914814200,13.741814208984374,4.782729148864746,-3.5176570415496826,-7.796895980834961
1780565049934333700,13.761333740234376,4.636610984802246,-3.143343925476074,-8.041219711303711
1780565049953853400,13.780853515625,4.482912063598633,-2.782149076461792,-8.258519172668457
1780565049973374200,13.800374267578125,4.326074123382568,-2.4351038932800293,-8.449577331542969
1780565049992890000,13.81989013671875,4.169611930847168,-2.1039609909057617,-8.615549087524414
1780565050012408000,13.839407958984374,4.015405178070068,-1.7901279926300049,-8.758536338806152
1780565050031926800,13.8589267578125,3.865027904510498,-1.4934329986572266,-8.88094711303711
1780565050051445500,13.878445556640624,3.718761920928955,-1.2117760181427002,-8.985678672790527
1780565050070964200,13.897964111328125,3.576659917831421,-0.9418380260467529,-9.075265884399414
1780565050090482000,13.91748193359375,3.439990997314453,-0.6808239817619324,-9.151117324829102
1780565050109999000,13.9369990234375,3.309407949447632,-0.423786997795105,-9.214566230773926
1780565050129519400,13.956519287109375,3.1836938858032227,-0.16668899357318878,-9.266947746276855
1780565050149043200,13.976043212890625,3.0624659061431885,0.09245900064706802,-9.308745384216309
1780565050168566000,13.99556591796875,2.9437029361724854,0.36355501413345337,-9.340365409851074
1780565050188087600,14.015087646484375,2.8260838985443115,0.6442620158195496,-9.361525535583496
1780565050207607300,14.034607177734374,2.7058498859405518,0.9340599775314331,-9.372614860534668
1780565050227123200,14.054123291015625,2.582566022872925,1.2302659749984741,-9.37319564819336
1780565050246635000,14.073635009765624,2.4574170112609863,1.5327939987182617,-9.362245559692383
1780565050266147600,14.093147705078126,2.3348119258880615,1.833981990814209,-9.339441299438477
1780565050285663500,14.11266357421875,2.2152318954467773,2.125504970550537,-9.306715965270996
1780565050305176800,14.1321767578125,2.1011369228363037,2.4006879329681396,-9.2661714553833
1780565050324689200,14.151689208984376,1.9933969974517822,2.6595170497894287,-9.219182968139648
1780565050344205800,14.171205810546875,1.8931330442428589,2.9010469913482666,-9.16733169555664
1780565050363723300,14.19072314453125,1.803460955619812,3.117690086364746,-9.114139556884766
1780565050383238400,14.21023828125,1.7223830223083496,3.3127989768981934,-9.060836791992188
1780565050402751700,14.229751708984375,1.6522480249404907,3.4799439907073975,-9.011107444763184
1780565050422262800,14.2492626953125,1.592039942741394,3.623244047164917,-8.965351104736328
1780565050441774800,14.26877490234375,1.54305899143219,3.7409820556640625,-8.925470352172852
1780565050461288000,14.288287841796874,1.54305899143219,3.7409820556640625,-8.925470352172852
1780565050480800000,14.307800048828126,1.4780360460281372,3.903981924057007,-8.866472244262695
1780565050500315400,14.3273154296875,1.4780360460281372,3.903981924057007,-8.866472244262695
1780565050519836000,14.3468359375,1.4780360460281372,3.903981924057007,-8.866472244262695
1780565050539353900,14.366353759765625,1.4443440437316895,4.000244140625,-8.829038619995117
1780565050558868200,14.3858681640625,1.4317129850387573,4.033327102661133,-8.816034317016602
1780565050578383000,14.405383056640625,1.4165669679641724,4.052857875823975,-8.809521675109863
1780565050597893600,14.4248935546875,1.4055839776992798,4.053783893585205,-8.8108549118042
1780565050617404200,14.444404052734376,1.406337022781372,4.031617164611816,-8.820899963378906
1780565050636920000,14.463920166015624,1.4234880208969116,3.986046075820923,-8.838841438293457
1780565050656438500,14.4834384765625,1.4605599641799927,3.9183030128479004,-8.863051414489746
1780565050675952600,14.50295263671875,1.509361982345581,3.836251974105835,-8.890726089477539
1780565050695466200,14.52246630859375,1.5623539686203003,3.750633955001831,-8.918060302734375
1780565050714983400,14.5419833984375,1.6089409589767456,3.67120099067688,-8.942794799804688
1780565050734499300,14.561499267578125,1.6388579607009888,3.6028220653533936,-8.965144157409668
1780565050754017000,14.58101708984375,1.6498299837112427,3.5446300506591797,-8.986303329467773
1780565050773535500,14.600535400390624,1.6431829929351807,3.492572069168091,-9.007879257202148
1780565050793052700,14.620052734375,1.6330139636993408,3.438091993331909,-9.030657768249512
1780565050812574500,14.639574462890625,1.6328840255737305,3.375349998474121,-9.05431842803955
1780565050832098000,14.65909814453125,1.6467230319976807,3.3004748821258545,-9.079380989074707
1780565050851612700,14.67861279296875,1.676000952720642,3.212161064147949,-9.105658531188965
1780565050871129600,14.698129638671874,1.7187550067901611,3.110822916030884,-9.132834434509277
1780565050890649300,14.7176494140625,1.769806981086731,3.001009941101074,-9.159788131713867
1780565050910162200,14.737162109375,1.8229379653930664,2.8881540298461914,-9.185611724853516
1780565050929676300,14.75667626953125,1.8719669580459595,2.777817964553833,-9.209748268127441
1780565050949189600,14.776189697265625,1.9120179414749146,2.675523042678833,-9.231780052185059
1780565050968704300,14.795704345703125,1.9408509731292725,2.5835230350494385,-9.251946449279785
1780565050988218600,14.815218505859375,1.9581029415130615,2.5025250911712646,-9.270554542541504
1780565051007729000,14.83472900390625,1.9659839868545532,2.430727958679199,-9.28797435760498
1780565051027239700,14.85423974609375,1.9688539505004883,2.3654909133911133,-9.30419635772705
1780565051046750000,14.87375,1.9710520505905151,2.305103063583374,-9.318876266479492
1780565051066263300,14.89326318359375,1.97639799118042,2.249161958694458,-9.331404685974121
1780565051085780200,14.9127802734375,1.987069010734558,2.196341037750244,-9.341714859008789
1780565051105294300,14.93229443359375,2.003911018371582,2.149912118911743,-9.348915100097656
1780565051124807700,14.9518076171875,2.0263900756835938,2.1096370220184326,-9.35324478149414
1780565051144321800,14.97132177734375,2.0528650283813477,2.0781290531158447,-9.354523658752441
1780565051163836400,14.99083642578125,2.0833740234375,2.0606279373168945,-9.35165023803711
1780565051183349000,15.010348876953126,2.0833740234375,2.0606279373168945,-9.35165023803711
1780565051202863900,15.02986376953125,2.12738299369812,2.0837159156799316,-9.336614608764648
1780565051222379500,15.049379638671875,2.131999969482422,2.1261379718780518,-9.3259916305542
1780565051241890300,15.068890380859376,2.1236279010772705,2.1879849433898926,-9.31358814239502
1780565051261399600,15.088399658203125,2.1236279010772705,2.1879849433898926,-9.31358814239502
1780565051280908000,15.107907958984375,2.1236279010772705,2.1879849433898926,-9.31358814239502
1780565051300417300,15.127417236328125,2.086338996887207,2.3740038871765137,-9.276383399963379
1780565051319924200,15.14692431640625,2.0723299980163574,2.4791760444641113,-9.25197982788086
1780565051339426600,15.166426513671874,2.0755319595336914,2.584502935409546,-9.222391128540039
1780565051358929400,15.185929443359376,2.097119092941284,2.6884191036224365,-9.187735557556152
1780565051378432000,15.205431884765625,2.1328749656677246,2.791019916534424,-9.14882755279541
1780565051397936000,15.22493603515625,2.1710259914398193,2.8856759071350098,-9.110406875610352
1780565051417447700,15.24444775390625,2.1967461109161377,2.9761109352111816,-9.075079917907715
1780565051436960500,15.26396044921875,2.206130027770996,3.0631589889526367,-9.043785095214844
1780565051456469500,15.283469482421875,2.1986498832702637,3.145334005355835,-9.017361640930176
1780565051475984000,15.30298388671875,2.179140090942383,3.2203779220581055,-8.995582580566406
1780565051495500500,15.32250048828125,2.156325101852417,3.286099910736084,-8.977293968200684
1780565051515011600,15.342011474609375,2.138295888900757,3.3409740924835205,-8.96133804321289
1780565051534524700,15.361524658203125,2.1297049522399902,3.3830580711364746,-8.94758415222168
1780565051554039600,15.38103955078125,2.131795883178711,3.4111928939819336,-8.936399459838867
1780565051573557800,15.400557861328124,2.142918109893799,3.4256269931793213,-8.92821216583252
1780565051593070600,15.420070556640624,2.1602749824523926,3.4280788898468018,-8.923087120056152
1780565051612575700,15.43957568359375,2.1807351112365723,3.421761989593506,-8.92053508758545
1780565051632081000,15.459080810546874,2.2008140087127686,3.410331964492798,-8.9199800491333
1780565051651586600,15.478586669921874,2.2179830074310303,3.397735118865967,-8.92053508758545
1780565051671098400,15.498098388671876,2.2301669120788574,3.387233018875122,-8.921490669250488
1780565051690610000,15.51760986328125,2.2362000942230225,3.380855083465576,-8.92240047454834
1780565051710117600,15.53711767578125,2.236140012741089,3.3792409896850586,-8.923027038574219
1780565051729624300,15.556624267578124,2.2316370010375977,3.3817310333251953,-8.923211097717285
1780565051749131800,15.5761318359375,2.2261149883270264,3.387721061706543,-8.922318458557129
1780565051768645600,15.595645751953125,2.2221570014953613,3.3961710929870605,-8.92009162902832
1780565051788157000,15.615156982421874,2.2192180156707764,3.4053359031677246,-8.917328834533691
1780565051807659000,15.634658935546875,2.2169859409332275,3.4142980575561523,-8.914456367492676
1780565051827164000,15.654163818359375,2.2127459049224854,3.4208788871765137,-8.912985801696777
1780565051846673400,15.67367333984375,2.2049200534820557,3.423099994659424,-8.914073944091797
1780565051866184400,15.693184326171876,2.197566032409668,3.408906936645508,-8.92132568359375
1780565051885697500,15.712697509765626,2.1913819313049316,3.377315044403076,-8.934852600097656
1780565051905210600,15.732210693359375,2.189141035079956,3.327785015106201,-8.953965187072754
1780565051924724000,15.751723876953125,2.191317081451416,3.259239912033081,-8.978611946105957
1780565051944235000,15.771235107421875,2.2005319595336914,3.1732969284057617,-9.007099151611328
1780565051963747000,15.7907470703125,2.2192630767822266,3.0738821029663086,-9.036931037902832
1780565051983263200,15.81026318359375,2.2192630767822266,3.0738821029663086,-9.036931037902832
1780565052002780200,15.8297802734375,2.2749829292297363,2.888792037963867,-9.084014892578125
1780565052022290400,15.84929052734375,2.3114190101623535,2.8113389015197754,-9.099104881286621
1780565052041799200,15.868799072265626,2.3501319885253906,2.7492499351501465,-9.108156204223633
1780565052061312800,15.888312744140626,2.3501319885253906,2.7492499351501465,-9.108156204223633
1780565052080825300,15.907825439453125,2.3501319885253906,2.7492499351501465,-9.108156204223633
1780565052100338400,15.92733837890625,2.4232969284057617,2.6670100688934326,-9.113434791564941
1780565052119851500,15.9468515625,2.453334093093872,2.640131950378418,-9.113224029541016
1780565052139367700,15.96636767578125,2.4801299571990967,2.618522882461548,-9.11220645904541
1780565052158889700,15.9858896484375,2.5076310634613037,2.599229097366333,-9.11020278930664
1780565052178413600,16.00541357421875,2.539324998855591,2.580364942550659,-9.106785774230957
1780565052197935900,16.024935791015626,2.575071096420288,2.563354015350342,-9.101551055908203
1780565052217451800,16.04445166015625,2.614029884338379,2.547391891479492,-9.094923973083496
1780565052236965000,16.063965087890626,2.6533939838409424,2.5325419902801514,-9.087668418884277
1780565052256481000,16.08348095703125,2.690687894821167,2.5178840160369873,-9.08077335357666
1780565052275999000,16.1029990234375,2.7249999046325684,2.502194881439209,-9.07487678527832
1780565052295518000,16.12251806640625,2.757378101348877,2.484369993209839,-9.069993019104004
1780565052315036200,16.1420361328125,2.7894160747528076,2.464087963104248,-9.065728187561035
1780565052334553000,16.161552978515626,2.821497917175293,2.4424030780792236,-9.061667442321777
1780565052354071300,16.1810712890625,2.851862907409668,2.421025037765503,-9.057897567749023
1780565052373587500,16.20058740234375,2.8770029544830322,2.4019389152526855,-9.055028915405273
1780565052393101300,16.220101318359376,2.8933939933776855,2.386737108230591,-9.053824424743652
1780565052412611600,16.239611572265623,2.8991470336914062,2.3765690326690674,-9.054658889770508
1780565052432125000,16.259125,2.8951048851013184,2.37207293510437,-9.05713176727295
1780565052451645700,16.278645751953125,2.8842530250549316,2.3733348846435547,-9.060262680053711
1780565052471165200,16.298165283203126,2.8695859909057617,2.3805179595947266,-9.063035011291504
1780565052490684000,16.317683837890623,2.853121042251587,2.393702983856201,-9.064760208129883
1780565052510203100,16.337203125,2.834947109222412,2.41251802444458,-9.065475463867188
1780565052529720300,16.35672021484375,2.813770055770874,2.4359428882598877,-9.065808296203613
1780565052549239000,16.376239013671874,2.788572072982788,2.4623448848724365,-9.066461563110352
1780565052568761000,16.395760986328124,2.759305953979492,2.489816904067993,-9.067913055419922
1780565052588282600,16.41528271484375,2.727931022644043,2.515197992324829,-9.07040023803711
1780565052607803100,16.43480322265625,2.6948740482330322,2.5379419326782227,-9.073945999145508
1780565052627321300,16.4543212890625,2.660778045654297,2.55743408203125,-9.078534126281738
1780565052646840300,16.47384033203125,2.625093936920166,2.5743539333343506,-9.084138870239258
1780565052666361900,16.49336181640625,2.584311008453369,2.5921239852905273,-9.090777397155762
1780565052685880800,16.512880859375,2.537386894226074,2.6114819049835205,-9.098451614379883
1780565052705396200,16.532396240234377,2.483206033706665,2.634800910949707,-9.106674194335938
1780565052724916000,16.551916015625,2.4241840839385986,2.6610679626464844,-9.114934921264648
1780565052744437200,16.571437255859376,2.3624610900878906,2.6898419857025146,-9.122693061828613
1780565052763956500,16.59095654296875,2.299838066101074,2.719620943069458,-9.129863739013672
1780565052783478000,16.61047802734375,2.299838066101074,2.719620943069458,-9.129863739013672
1780565052802999000,16.6299990234375,2.238553047180176,2.7457358837127686,-9.137275695800781
1780565052822517200,16.649517333984374,2.125575065612793,2.7823379039764404,-9.153169631958008
1780565052842035500,16.669035400390626,2.125575065612793,2.7823379039764404,-9.153169631958008
1780565052861552400,16.688552490234375,2.0764529705047607,2.790731906890869,-9.161886215209961
1780565052881067800,16.70806787109375,1.993595004081726,2.79010009765625,-9.180463790893555
1780565052900586800,16.727586669921877,1.993595004081726,2.79010009765625,-9.180463790893555
1780565052920109000,16.747109130859375,1.95906400680542,2.7842369079589844,-9.189672470092773
1780565052939628800,16.76662890625,1.9257709980010986,2.7754180431365967,-9.199373245239258
1780565052959147000,16.78614697265625,1.8920259475708008,2.7617828845977783,-9.210471153259277
1780565052978669300,16.80566943359375,1.855802059173584,2.741487979888916,-9.223895072937012
1780565052998190000,16.825190185546877,1.819977045059204,2.7114219665527344,-9.239906311035156
1780565053017707800,16.844707763671874,1.7886539697647095,2.668771982192993,-9.258420944213867
1780565053037229600,16.8642294921875,1.7641099691390991,2.611624002456665,-9.279403686523438
1780565053056750300,16.883750244140625,1.746688961982727,2.5376999378204346,-9.303179740905762
1780565053076269800,16.903269775390626,1.7355109453201294,2.446329116821289,-9.32970905303955
1780565053095789800,16.922789794921876,1.7291460037231445,2.3375589847564697,-9.358733177185059
1780565053115307000,16.94230712890625,1.7265039682388306,2.207937002182007,-9.390645027160645
1780565053134823700,16.96182373046875,1.7260760068893433,2.0604538917541504,-9.42418098449707
1780565053154342100,16.981342041015626,1.726181983947754,1.8962229490280151,-9.458574295043945
1780565053173860000,17.000860107421875,1.7257529497146606,1.7105309963226318,-9.493989944458008
1780565053193377300,17.020377197265624,1.724532961845398,1.5043729543685913,-9.529052734375
1780565053212898000,17.03989794921875,1.7232320308685303,1.278406023979187,-9.562224388122559
1780565053232415700,17.059415771484375,1.7220170497894287,1.0372530221939087,-9.591597557067871
1780565053251928600,17.078928466796874,1.7211710214614868,0.7791000008583069,-9.616162300109863
1780565053271443200,17.098443115234375,1.7211480140686035,0.503745973110199,-9.634514808654785
1780565053290961200,17.117961181640624,1.7220070362091064,0.21714499592781067,-9.645078659057617
1780565053310474500,17.137474609375,1.7218680381774902,-0.08007600158452988,-9.647214889526367
1780565053329991000,17.156990966796876,1.716884970664978,-0.38598600029945374,-9.64071273803711
1780565053349513700,17.176513671875,1.7032170295715332,-0.6985070109367371,-9.6255464553833
1780565053369031400,17.196031494140627,1.6779769659042358,-1.0157179832458496,-9.601703643798828
1780565053388547300,17.21554736328125,1.6418689489364624,-1.335976004600525,-9.568669319152832
1780565053408063500,17.2350634765625,1.5955810546875,-1.657763957977295,-9.526066780090332
1780565053427580700,17.25458056640625,1.540498971939087,-1.9814260005950928,-9.473161697387695
1780565053447098000,17.27409814453125,1.4755339622497559,-2.307115077972412,-9.409570693969727
1780565053466610200,17.293610107421873,1.3996829986572266,-2.635519027709961,-9.334609985351562
1780565053486126600,17.313126708984374,1.3114360570907593,-2.966831922531128,-9.24759578704834
1780565053505648600,17.332648681640624,1.208840012550354,-3.29948091506958,-9.148341178894043
1780565053525168000,17.352168212890625,1.092811942100525,-3.6347079277038574,-9.035189628601074
1780565053544686800,17.371686767578126,0.9630590081214905,-3.9711670875549316,-8.907432556152344
1780565053564202200,17.3912021484375,0.8218550086021423,-4.308374881744385,-8.763701438903809
1780565053583717000,17.410717041015626,0.8218550086021423,-4.308374881744385,-8.763701438903809
1780565053603237000,17.430237060546876,0.5028089880943298,-4.983121871948242,-8.4235200881958
1780565053622760000,17.449760009765626,0.3250870108604431,-5.318573951721191,-8.224784851074219
1780565053642285800,17.469285888671877,0.13501499593257904,-5.647528171539307,-8.007946014404297
1780565053661807600,17.4888076171875,0.13501499593257904,-5.647528171539307,-8.007946014404297
1780565053681326300,17.508326416015624,-0.2747040092945099,-6.276432991027832,-7.521362781524658
1780565053700847600,17.52784765625,-0.2747040092945099,-6.276432991027832,-7.521362781524658
1780565053720369000,17.547368896484375,-0.2747040092945099,-6.276432991027832,-7.521362781524658
1780565053739887600,17.5668876953125,-0.6867930293083191,-6.838522911071777,-6.985908031463623
1780565053759408400,17.586408447265626,-0.8845300078392029,-7.09036111831665,-6.707040786743164
1780565053778932200,17.60593212890625,-1.0743149518966675,-7.320397853851318,-6.426322937011719
1780565053798455000,17.625455078125,-1.2561110258102417,-7.5303850173950195,-6.1445488929748535
1780565053817976300,17.644976318359376,-1.4309170246124268,-7.72314977645874,-5.860496997833252
1780565053837495300,17.664495361328125,-1.6025840044021606,-7.901206016540527,-5.571592807769775
1780565053857011200,17.68401123046875,-1.7692420482635498,-8.066156387329102,-5.277018070220947
1780565053876523500,17.7035234375,-1.9296120405197144,-8.219670295715332,-4.9753007888793945
1780565053896036600,17.72303662109375,-2.0811119079589844,-8.364925384521484,-4.662294864654541
1780565053915552800,17.742552734375,-2.2225379943847656,-8.50268840789795,-4.336427211761475
1780565053935070200,17.7620703125,-2.3535189628601074,-8.633004188537598,-3.99652099609375
1780565053954591700,17.781591796875,-2.474855899810791,-8.755248069763184,-3.641525983810425
1780565053974110700,17.80111083984375,-2.586838960647583,-8.868293762207031,-3.2713279724121094
1780565053993628700,17.820628662109375,-2.6889679431915283,-8.970205307006836,-2.8887460231781006
1780565054013149000,17.84014892578125,-2.780348062515259,-9.05892562866211,-2.49910306930542
1780565054032668400,17.85966845703125,-2.859699010848999,-9.132932662963867,-2.109894037246704
1780565054052188700,17.879188720703127,-2.9250149726867676,-9.192172050476074,-1.7286549806594849
1780565054071708000,17.8987080078125,-2.973767042160034,-9.238201141357422,-1.3610119819641113
1780565054091230700,17.918230712890626,-3.0038650035858154,-9.273294448852539,-1.0113379955291748
1780565054110753800,17.93775390625,-3.0151290893554688,-9.299577713012695,-0.6832630038261414
1780565054130273000,17.95727294921875,-3.008500099182129,-9.318656921386719,-0.38932499289512634
1780565054149789000,17.976788818359374,-2.984158992767334,-9.333664894104004,-0.13230200111865997
1780565054169307000,17.996306884765627,-2.943351984024048,-9.34716796875,0.08432800322771072
1780565054188824300,18.01582421875,-2.885617971420288,-9.362081527709961,0.2541530132293701
1780565054208339500,18.03533935546875,-2.8130340576171875,-9.380372047424316,0.3680360019207001
1780565054227858700,18.054858642578125,-2.725922107696533,-9.4036226272583,0.42569699883461
1780565054247378700,18.074378662109375,-2.6229870319366455,-9.432394027709961,0.43576300144195557
1780565054266895000,18.09389501953125,-2.50393009185791,-9.466468811035156,0.395345002412796
1780565054286410000,18.113409912109375,-2.3677070140838623,-9.504929542541504,0.30044299364089966
1780565054305927700,18.132927734375,-2.2218449115753174,-9.543580055236816,0.15321600437164307
1780565054325446400,18.1524462890625,-2.067352056503296,-9.579392433166504,-0.03613699972629547
1780565054344961500,18.17196142578125,-1.907377004623413,-9.60890007019043,-0.2663539946079254
1780565054364480000,18.19147998046875,-1.7450510263442993,-9.62849235534668,-0.5356619954109192
1780565054383999000,18.2109990234375,-1.7450510263442993,-9.62849235534668,-0.5356619954109192
1780565054403514600,18.2305146484375,-1.4195289611816406,-9.621455192565918,-1.205212950706482
1780565054423032800,18.25003271484375,-1.4195289611816406,-9.621455192565918,-1.205212950706482
1780565054442549500,18.269549560546874,-1.252755045890808,-9.586183547973633,-1.6048959493637085
1780565054462065700,18.289065673828127,-0.917622983455658,-9.420530319213867,-2.5399930477142334
1780565054481586400,18.30858642578125,-0.917622983455658,-9.420530319213867,-2.5399930477142334
1780565054501105700,18.328105712890626,-0.917622983455658,-9.420530319213867,-2.5399930477142334
1780565054520629500,18.34762939453125,-0.6099100112915039,-9.082088470458984,-3.630934000015259
1780565054540153300,18.3671533203125,-0.4690690040588379,-8.837774276733398,-4.208766937255859
1780565054559670300,18.386670166015627,-0.33322298526763916,-8.547819137573242,-4.781603813171387
1780565054579182300,18.406182373046875,-0.1960269957780838,-8.215814590454102,-5.338720798492432
1780565054598696700,18.42569677734375,-0.056763000786304474,-7.84437894821167,-5.873881816864014
1780565054618217500,18.445217529296876,0.0840499997138977,-7.447425842285156,-6.36936092376709
1780565054637737500,18.464737548828126,0.22362999618053436,-7.030945777893066,-6.823180198669434
1780565054657258500,18.484258544921875,0.3570539951324463,-6.600583076477051,-7.234971046447754
1780565054676778000,18.503778076171876,0.4807960093021393,-6.161166191101074,-7.6058430671691895
1780565054696297000,18.523296875,0.5938670039176941,-5.716154098510742,-7.938066005706787
1780565054715816700,18.542816650390623,0.6995319724082947,-5.267848014831543,-8.234102249145508
1780565054735335000,18.5623349609375,0.8043180108070374,-4.817555904388428,-8.49613094329834
1780565054754851600,18.5818515625,0.9115430116653442,-4.366479873657227,-8.725992202758789
1780565054774365400,18.601365478515625,1.0222699642181396,-3.914854049682617,-8.925742149353027
1780565054793880000,18.620880126953125,1.1339919567108154,-3.4625461101531982,-9.097517967224121
1780565054813396200,18.640396240234374,1.2420099973678589,-3.0111091136932373,-9.24286937713623
1780565054832911400,18.659911376953126,1.3420569896697998,-2.5582399368286133,-9.364522933959961
1780565054852427300,18.67942724609375,1.4301420450210571,-2.102102041244507,-9.464452743530273
1780565054871946200,18.6989462890625,1.5053499937057495,-1.642495036125183,-9.543381690979004
1780565054891462700,18.718462646484376,1.5691540241241455,-1.1822429895401,-9.601044654846191
1780565054910976300,18.737976318359376,1.6231269836425781,-0.7251409888267517,-9.637407302856445
1780565054930493200,18.7574931640625,1.6703449487686157,-0.27651700377464294,-9.652641296386719
1780565054950012700,18.7770126953125,1.7129230499267578,0.15718699991703033,-9.647859573364258
1780565054969530600,18.796530517578127,1.7510299682617188,0.5706869959831238,-9.62539291381836
1780565054989045000,18.816044921875,1.7824610471725464,0.9544159770011902,-9.589157104492188
1780565055008563200,18.835563232421876,1.8054150342941284,1.3107600212097168,-9.5426607131958
1780565055028076800,18.855076904296876,1.8184670209884644,1.6340440511703491,-9.490157127380371
1780565055047582700,18.874582763671874,1.8231279850006104,1.925125002861023,-9.434515953063965
1780565055067094300,18.89409423828125,1.823017954826355,2.1880829334259033,-9.37704086303711
1780565055086612500,18.913612548828127,1.8248449563980103,2.4080910682678223,-9.322608947753906
1780565055106133000,18.933133056640624,1.834367036819458,2.5934998989105225,-9.27086067199707
1780565055125652200,18.95265234375,1.8523119688034058,2.741813898086548,-9.224499702453613
1780565055145171700,18.972171630859375,1.8782039880752563,2.8560891151428223,-9.184503555297852
1780565055164690000,18.99168994140625,1.9093899726867676,2.9350850582122803,-9.153115272521973
1780565055184208000,19.011207763671877,1.9093899726867676,2.9350850582122803,-9.153115272521973
1780565055203725300,19.030725341796874,1.9824800491333008,2.983165979385376,-9.121978759765625
1780565055223240200,19.050240234375,2.0235679149627686,2.96990704536438,-9.117280960083008
1780565055242759000,19.069759033203123,2.070986032485962,2.9350779056549072,-9.117912292480469
1780565055262283300,19.089283203125,2.1264429092407227,2.883755922317505,-9.121522903442383
1780565055281806000,19.10880615234375,2.1264429092407227,2.883755922317505,-9.121522903442383
1780565055301324500,19.128324462890625,2.25537109375,2.753535032272339,-9.130790710449219
1780565055320842000,19.147842041015625,2.25537109375,2.753535032272339,-9.130790710449219
1780565055340358100,19.167358154296874,2.25537109375,2.753535032272339,-9.130790710449219
1780565055359874600,19.18687451171875,2.3845059871673584,2.6137640476226807,-9.139057159423828
1780565055379392500,19.206392578125,2.5041699409484863,2.467766046524048,-9.147637367248535
1780565055398912500,19.22591259765625,2.5041699409484863,2.467766046524048,-9.147637367248535
1780565055418434300,19.245434326171875,2.566354990005493,2.3895909786224365,-9.15115737915039
1780565055437952800,19.264952880859376,2.6326990127563477,2.305633068084717,-9.153848648071289
1780565055457470000,19.284469970703125,2.7057859897613525,2.211987018585205,-9.155644416809082
1780565055476990700,19.30399072265625,2.7841858863830566,2.1094141006469727,-9.156347274780273
1780565055496511000,19.323510986328124,2.8643081188201904,1.9981269836425781,-9.156594276428223
1780565055516029400,19.343029541015625,2.9425530433654785,1.8816770315170288,-9.156455039978027
1780565055535549000,19.362548828125,3.0153839588165283,1.7616020441055298,-9.156648635864258
1780565055555067600,19.382067626953123,3.0812060832977295,1.6414159536361694,-9.157069206237793
1780565055574585300,19.40158544921875,3.1406900882720947,1.5243300199508667,-9.157100677490234
1780565055594107000,19.42110693359375,3.195363998413086,1.4124560356140137,-9.156124114990234
1780565055613629000,19.44062890625,3.247205972671509,1.307966947555542,-9.153407096862793
1780565055633148700,19.460148681640625,3.2973899841308594,1.2125760316848755,-9.148599624633789
1780565055652668700,19.479668701171875,3.3453369140625,1.1285589933395386,-9.141940116882324
1780565055672188000,19.49918798828125,3.3866920471191406,1.0582380294799805,-9.13512134552002
1780565055691707000,19.518706787109377,3.4168989658355713,1.004269003868103,-9.129963874816895
1780565055711227100,19.53822705078125,3.431252956390381,0.9684669971466064,-9.128447532653809
1780565055730749400,19.55774951171875,3.42763090133667,0.9515460133552551,-9.131587982177734
1780565055750274300,19.5772744140625,3.4067389965057373,0.9530439972877502,-9.139246940612793
1780565055769797400,19.59679736328125,3.3707480430603027,0.9710990190505981,-9.150684356689453
1780565055789315000,19.616315185546874,3.3254079818725586,1.004397988319397,-9.16366958618164
1780565055808835300,19.63583544921875,3.27435302734375,1.0483700037002563,-9.177119255065918
1780565055828358400,19.6553583984375,3.220421075820923,1.099537968635559,-9.190206527709961
1780565055847884300,19.67488427734375,3.166213035583496,1.1549040079116821,-9.20224380493164
1780565055867411200,19.6944111328125,3.113100051879883,1.2124979496002197,-9.212949752807617
1780565055886935800,19.713935791015626,3.062757968902588,1.2706949710845947,-9.221976280212402
1780565055906456600,19.73345654296875,3.0147221088409424,1.3282270431518555,-9.229695320129395
1780565055925977000,19.75297705078125,2.969520092010498,1.3846570253372192,-9.236053466796875
1780565055945498400,19.772498291015626,2.925497055053711,1.4418599605560303,-9.241347312927246
1780565055965020200,19.792020263671876,2.8794009685516357,1.500264048576355,-9.246526718139648
1780565055984546000,19.811546142578123,2.8794009685516357,1.500264048576355,-9.246526718139648
1780565056004072000,19.831072021484374,2.771739959716797,1.621209979057312,-9.259002685546875
1780565056023594500,19.850594482421876,2.7115681171417236,1.6798540353775024,-9.266363143920898
1780565056043115000,19.870114990234374,2.649717092514038,1.7377599477767944,-9.273574829101562
1780565056062636300,19.88963623046875,2.589935064315796,1.793468952178955,-9.279854774475098
1780565056082159400,19.909159423828125,2.589935064315796,1.793468952178955,-9.279854774475098
1780565056101682000,19.928681884765624,2.5347859859466553,1.8468339443206787,-9.284614562988281
1780565056121208800,19.948208740234374,2.441169023513794,1.9434560537338257,-9.289977073669434
1780565056140742400,19.967742431640627,2.441169023513794,1.9434560537338257,-9.289977073669434
1780565056160271600,19.987271728515626,2.441169023513794,1.9434560537338257,-9.289977073669434
1780565056179792000,20.0067919921875,2.3177430629730225,2.05228590965271,-9.298181533813477
1780565056199315700,20.026315673828126,2.3177430629730225,2.05228590965271,-9.298181533813477
1780565056218838000,20.045838134765624,2.2770049571990967,2.074441909790039,-9.303329467773438
1780565056238359000,20.065359130859374,2.2385830879211426,2.0892019271850586,-9.309349060058594
1780565056257887500,20.084887451171873,2.2032229900360107,2.0968360900878906,-9.316065788269043
1780565056277414000,20.104413818359376,2.1716198921203613,2.100121021270752,-9.322744369506836
1780565056296939300,20.123939208984375,2.1435279846191406,2.1004600524902344,-9.329166412353516
1780565056316466400,20.143466552734374,2.118489980697632,2.0995988845825195,-9.335078239440918
1780565056335995400,20.162995361328125,2.094892978668213,2.0995099544525146,-9.340421676635742
1780565056355522300,20.182522216796876,2.0713140964508057,2.1017680168151855,-9.345171928405762
1780565056375042300,20.202042236328126,2.0468859672546387,2.1076231002807617,-9.349233627319336
1780565056394567200,20.221567138671876,2.0214619636535645,2.117988109588623,-9.352422714233398
1780565056414095400,20.241095458984375,1.9950449466705322,2.132627010345459,-9.354768753051758
1780565056433615000,20.260614990234377,1.9673229455947876,2.1504480838775635,-9.356559753417969
1780565056453132500,20.280132568359374,1.9385429620742798,2.1694769859313965,-9.358174324035645
1780565056472650500,20.299650390625,1.9098060131072998,2.18729305267334,-9.35993480682373
1780565056492170200,20.319170166015624,1.8826429843902588,2.201724052429199,-9.362054824829102
1780565056511689000,20.33868896484375,1.8589580059051514,2.210906982421875,-9.364623069763184
1780565056531206000,20.358205810546874,1.8402299880981445,2.2141458988189697,-9.36755657196045
1780565056550723300,20.377723388671875,1.8276269435882568,2.2114269733428955,-9.370665550231934
1780565056570240000,20.397239990234375,1.8213239908218384,2.203291893005371,-9.373807907104492
1780565056589754600,20.416754638671875,1.8209279775619507,2.1908280849456787,-9.376805305480957
1780565056609273300,20.4362734375,1.8245630264282227,2.1749930381774902,-9.379785537719727
1780565056628790000,20.4557900390625,1.8297920227050781,2.1565349102020264,-9.383028030395508
1780565056648301600,20.475301513671877,1.8351119756698608,2.1356499195098877,-9.386764526367188
1780565056667818000,20.49481787109375,1.8403489589691162,2.1121249198913574,-9.39106273651123
1780565056687334000,20.514333984375,1.8467730283737183,2.086393117904663,-9.395551681518555
1780565056706845700,20.533845703125,1.8557939529418945,2.0592501163482666,-9.399761199951172
1780565056726361600,20.553361572265626,1.8683700561523438,2.0311079025268555,-9.40339183807373
1780565056745885700,20.5728857421875,1.8851779699325562,2.0049331188201904,-9.405654907226562
1780565056765408300,20.592408203125,1.90550696849823,1.9820599555969238,-9.40640640258789
1780565056784926200,20.61192626953125,1.9275670051574707,1.9637609720230103,-9.405749320983887
1780565056804446200,20.6314462890625,1.9476850032806396,1.9509960412979126,-9.404261589050293
1780565056823963600,20.650963623046874,1.9634579420089722,1.944512963294983,-9.402324676513672
1780565056843476000,20.67047607421875,1.9750540256500244,1.944646954536438,-9.39986801147461
1780565056862991000,20.6899912109375,1.984173059463501,1.9493039846420288,-9.396982192993164
1780565056882506000,20.709506103515626,1.993293046951294,1.9576389789581299,-9.393318176269531
1780565056902015500,20.729015380859376,2.003896951675415,1.9679490327835083,-9.38890552520752
1780565056921527600,20.748527587890624,2.003896951675415,1.9679490327835083,-9.38890552520752
1780565056941038300,20.768038330078124,2.003896951675415,1.9679490327835083,-9.38890552520752
1780565056960541000,20.787541015625,2.0345699787139893,1.9888509511947632,-9.377900123596191
1780565056980049000,20.807048828125,2.0834829807281494,2.001633882522583,-9.364429473876953
1780565056999565800,20.82656591796875,2.0834829807281494,2.001633882522583,-9.364429473876953
1780565057019082800,20.846082763671873,2.1124730110168457,2.006614923477173,-9.356866836547852
1780565057038601700,20.865601806640626,2.1418509483337402,2.0140790939331055,-9.348580360412598
1780565057058120400,20.885120361328124,2.1702969074249268,2.025968074798584,-9.339446067810059
1780565057077636400,20.90463623046875,2.1956961154937744,2.0446090698242188,-9.329442977905273
1780565057097153000,20.924153076171876,2.2158679962158203,2.0705130100250244,-9.318954467773438
1780565057116666000,20.943666015625,2.2307069301605225,2.103311061859131,-9.308062553405762
1780565057136179500,20.963179443359376,2.2396960258483887,2.139266014099121,-9.297703742980957
1780565057155694300,20.9826943359375,2.245513916015625,2.1757450103759766,-9.287830352783203
1780565057175207700,21.002207763671876,2.251477003097534,2.2108819484710693,-9.278084754943848
1780565057194724400,21.021724365234373,2.2595789432525635,2.2439420223236084,-9.268173217773438
1780565057214240800,21.04124072265625,2.2696800231933594,2.276237964630127,-9.25782299041748
1780565057233752800,21.0607529296875,2.2801148891448975,2.31016206741333,-9.246849060058594
1780565057253266700,21.0802666015625,2.28771710395813,2.3482680320739746,-9.235365867614746
1780565057272781600,21.099781494140625,2.288778066635132,2.392709970474243,-9.223688125610352
1780565057292295000,21.119294921875,2.280116081237793,2.4439809322357178,-9.212385177612305
1780565057311812600,21.1388125,2.2601630687713623,2.5014240741729736,-9.201876640319824
1780565057331333400,21.15833349609375,2.2291879653930664,2.563167095184326,-9.192436218261719
1780565057350855000,21.17785498046875,2.189241886138916,2.626650094985962,-9.184112548828125
1780565057370372600,21.19737255859375,2.143549919128418,2.689811944961548,-9.176605224609375
1780565057389891600,21.2168916015625,2.0963668823242188,2.7512950897216797,-9.169275283813477
1780565057409413000,21.2364130859375,2.0521490573883057,2.810312032699585,-9.161376953125
1780565057428937000,21.25593701171875,2.0134029388427734,2.865770101547241,-9.152790069580078
1780565057458226700,21.285226806640626,1.980921983718872,2.9166860580444336,-9.143789291381836
1780565057487509200,21.31450927734375,1.9310259819030762,2.997710943222046,-9.12824535369873
1780565057507035400,21.334035400390626,1.911607027053833,3.023690938949585,-9.123762130737305
1780565057526561300,21.353561279296876,1.8958719968795776,3.0369598865509033,-9.122639656066895
1780565057546083000,21.3730830078125,1.8827680349349976,3.036573886871338,-9.125481605529785
1780565057565604400,21.392604248046876,1.8715980052947998,3.0214169025421143,-9.132806777954102
1780565057585126400,21.41212646484375,1.8715980052947998,3.0214169025421143,-9.132806777954102
1780565057604647700,21.431647705078124,1.8645830154418945,2.920651912689209,-9.16695785522461
1780565057624170800,21.451170654296874,1.8763760328292847,2.835145950317383,-9.191363334655762
1780565057643694300,21.4706943359375,1.9027340412139893,2.7208011150360107,-9.220457077026367
1780565057663219200,21.49021923828125,1.9456039667129517,2.5800321102142334,-9.251921653747559
1780565057682746000,21.50974609375,1.9456039667129517,2.5800321102142334,-9.251921653747559
1780565057702269400,21.52926953125,2.0781490802764893,2.2426679134368896,-9.310839653015137
1780565057721797400,21.54879736328125,2.0781490802764893,2.2426679134368896,-9.310839653015137
1780565057741324800,21.56832470703125,2.25313401222229,1.8678109645843506,-9.352788925170898
1780565057760847600,21.58784765625,2.25313401222229,1.8678109645843506,-9.352788925170898
1780565057780370000,21.607369873046874,2.25313401222229,1.8678109645843506,-9.352788925170898
1780565057799889700,21.6268896484375,2.448791980743408,1.458474040031433,-9.37636661529541
1780565057819407400,21.646407470703124,2.55513596534729,1.2345019578933716,-9.38015365600586
1780565057838925600,21.665925537109374,2.6711230278015137,0.9908220171928406,-9.37674617767334
1780565057858443500,21.685443603515626,2.7972118854522705,0.7261260151863098,-9.364205360412598
1780565057877960700,21.704960693359375,2.9332029819488525,0.43808799982070923,-9.340471267700195
1780565057897481000,21.72448095703125,3.073499917984009,0.13457000255584717,-9.304594039916992
1780565057917004300,21.74400439453125,3.216240882873535,-0.18322500586509705,-9.255388259887695
1780565057936529400,21.763529296875,3.3583641052246094,-0.5108429789543152,-9.192411422729492
1780565057956056300,21.783056396484376,3.4973480701446533,-0.8438500165939331,-9.115726470947266
1780565057975584000,21.802583984375,3.631603956222534,-1.1788450479507446,-9.025617599487305
1780565057995108600,21.822108642578126,3.7602310180664062,-1.5131789445877075,-8.922496795654297
1780565058014630100,21.841630126953124,3.8821260929107666,-1.8448779582977295,-8.80712890625
1780565058034156500,21.861156494140626,3.9968719482421875,-2.172684907913208,-8.6801176071167
1780565058053681700,21.880681640625,4.104311943054199,-2.495889902114868,-8.541964530944824
1780565058073202200,21.9002021484375,4.204568862915039,-2.8146049976348877,-8.392829895019531
1780565058092724700,21.919724853515625,4.298831939697266,-3.128943920135498,-8.232237815856934
1780565058112248800,21.939248779296875,4.388288974761963,-3.439483880996704,-8.059333801269531
1780565058131771000,21.95877099609375,4.474783897399902,-3.746614933013916,-7.872684955596924
1780565058151292700,21.978292724609375,4.56046199798584,-4.050220966339111,-7.670586109161377
1780565058170817000,21.997817138671873,4.646670818328857,-4.349963188171387,-7.451594829559326
1780565058190340600,22.017340576171875,4.735844135284424,-4.639433860778809,-7.2171630859375
1780565058209862700,22.036862548828125,4.828423023223877,-4.920179843902588,-6.965497016906738
1780565058229385200,22.05638525390625,4.9202680587768555,-5.195313930511475,-6.696242809295654
1780565058248908800,22.07590869140625,5.0129218101501465,-5.461996078491211,-6.409150123596191
1780565058268425700,22.09542578125,5.104342937469482,-5.723306179046631,-6.101592063903809
1780565058287941600,22.114941650390627,5.191125869750977,-5.974579811096191,-5.778979778289795
1780565058307462700,22.134462646484376,5.2689127922058105,-6.221673011779785,-5.437769889831543
1780565058326983000,22.15398291015625,5.3346428871154785,-6.454800128936768,-5.090887069702148
1780565058346505700,22.173505615234376,5.391524791717529,-6.669723033905029,-4.7419657707214355
1780565058366033400,22.193033447265623,5.435093879699707,-6.861518859863281,-4.40673303604126
1780565058385559300,22.212559326171874,5.435093879699707,-6.861518859863281,-4.40673303604126
1780565058405081300,22.232081298828124,5.4908342361450195,-7.16734504699707,-3.8104960918426514
1780565058424599300,22.251599365234377,5.506217002868652,-7.283450126647949,-3.559906005859375
1780565058444121300,22.271121337890627,5.513851165771484,-7.378643989562988,-3.345599889755249
1780565058463647500,22.2906474609375,5.516672134399414,-7.447608947753906,-3.1842501163482666
1780565058483170800,22.3101708984375,5.516672134399414,-7.447608947753906,-3.1842501163482666
1780565058502694000,22.32969384765625,5.515181064605713,-7.49223518371582,-3.0804529190063477
1780565058522219000,22.349218994140625,5.507856845855713,-7.510718822479248,-3.048374891281128
1780565058541745400,22.368745361328124,5.492703914642334,-7.499296188354492,-3.1033449172973633
1780565058561271800,22.388271728515626,5.441798210144043,-7.38287878036499,-3.4525229930877686
1780565058580795400,22.40779541015625,5.4030070304870605,-7.273848056793213,-3.7334489822387695
1780565058600317200,22.427317138671874,5.4030070304870605,-7.273848056793213,-3.7334489822387695
1780565058619841800,22.446841796875,5.3557658195495605,-7.12554407119751,-4.07214879989624
1780565058639361000,22.466361083984374,5.297152996063232,-6.941558837890625,-4.449149131774902
1780565058658881500,22.485881591796876,5.2301411628723145,-6.719536781311035,-4.851128101348877
1780565058678405400,22.5054052734375,5.150410175323486,-6.4626641273498535,-5.26756477355957
1780565058697926400,22.524926513671875,5.057608127593994,-6.172595977783203,-5.688553810119629
1780565058717449700,22.54444970703125,4.957688808441162,-5.856135845184326,-6.096473217010498
1780565058736974300,22.563974365234376,4.851537227630615,-5.524284839630127,-6.479572772979736
1780565058756497000,22.583496826171874,4.743640899658203,-5.18177604675293,-6.832793235778809
1780565058776016600,22.6030166015625,4.634626865386963,-4.840762138366699,-7.150331974029541
1780565058795541000,22.622541015625,4.5257978439331055,-4.50216007232666,-7.435569763183594
1780565058815065300,22.6420654296875,4.411440849304199,-4.161948204040527,-7.69788122177124
1780565058834586400,22.66158642578125,4.289313793182373,-3.8250770568847656,-7.9379191398620605
1780565058854109400,22.681109375,4.159239768981934,-3.4919159412384033,-8.157649040222168
1780565058873639200,22.70063916015625,4.018580913543701,-3.1610829830169678,-8.36053466796875
1780565058893173200,22.72017333984375,3.8675479888916016,-2.8331539630889893,-8.547239303588867
1780565058912702700,22.73970263671875,3.7088170051574707,-2.5098140239715576,-8.71696662902832
1780565058932231200,22.759231201171875,3.551258087158203,-2.1985700130462646,-8.865373611450195
1780565058951761000,22.778760986328123,3.397994041442871,-1.8997609615325928,-8.993582725524902
1780565058971292000,22.7982919921875,3.250274896621704,-1.6119389533996582,-9.103700637817383
1780565058990823200,22.8178232421875,3.109708070755005,-1.3357609510421753,-9.19703483581543
1780565059010354400,22.8373544921875,2.975580930709839,-1.0691219568252563,-9.275931358337402
1780565059029881900,22.8568818359375,2.8458750247955322,-0.8074659705162048,-9.342857360839844
1780565059049409000,22.876408935546873,2.7176990509033203,-0.5463269948959351,-9.399767875671387
1780565059068937700,22.895937744140625,2.5877959728240967,-0.28326699137687683,-9.447914123535156
1780565059088461300,22.91546142578125,2.4541099071502686,-0.014375000260770321,-9.487736701965332
1780565059107985700,22.934985595703125,2.3184010982513428,0.2620309889316559,-9.51821231842041
1780565059127513600,22.954513671875,2.182399034500122,0.5476769804954529,-9.538195610046387
1780565059147044600,22.974044677734376,2.0455920696258545,0.8427309989929199,-9.54700756072998
1780565059166570000,22.993570068359375,1.9080049991607666,1.146664023399353,-9.543828964233398
1780565059186087200,23.013087158203124,1.9080049991607666,1.146664023399353,-9.543828964233398
1780565059205609200,23.032609130859374,1.639714002609253,1.7679239511489868,-9.498724937438965
1780565059225133800,23.0521337890625,1.5125579833984375,2.0742130279541016,-9.45779037475586
1780565059244657700,23.07165771484375,1.3942919969558716,2.364804983139038,-9.407636642456055
1780565059264183300,23.091183349609373,1.2900550365447998,2.6361820697784424,-9.350202560424805
1780565059283711500,23.11071142578125,1.203889012336731,2.8834691047668457,-9.288500785827637
1780565059303239200,23.1302392578125,1.1374009847640991,3.0972108840942383,-9.227869987487793
1780565059322764800,23.149764892578126,1.1374009847640991,3.0972108840942383,-9.227869987487793
1780565059342287600,23.16928759765625,1.0650379657745361,3.4289638996124268,-9.118547439575195
1780565059361810200,23.18881005859375,1.0650379657745361,3.4289638996124268,-9.118547439575195
1780565059381334300,23.208334228515625,1.0650379657745361,3.4289638996124268,-9.118547439575195
1780565059420383200,23.24738330078125,1.053138017654419,3.6472129821777344,-9.03486156463623
1780565059439903500,23.266903564453123,1.1082940101623535,3.7411439418792725,-8.98974609375
1780565059459429000,23.28642919921875,1.1599570512771606,3.7378220558166504,-8.984607696533203
1780565059478958000,23.3059580078125,1.230342984199524,3.6934590339660645,-8.993586540222168
1780565059498483000,23.32548291015625,1.3281149864196777,3.610205888748169,-9.013463020324707
1780565059518006000,23.345006103515626,1.4520469903945923,3.491586923599243,-9.04103946685791
1780565059537526000,23.364526123046875,1.5923049449920654,3.3526930809020996,-9.069951057434082
1780565059557040400,23.384040283203124,1.7449339628219604,3.201215982437134,-9.096561431884766
1780565059576560600,23.403560546875,1.898023009300232,3.048862934112549,-9.118220329284668
1780565059596089600,23.423089599609376,2.0412778854370117,2.9034619331359863,-9.13471794128418
1780565059615618800,23.442618896484376,2.163892984390259,2.768186092376709,-9.148481369018555
1780565059635150000,23.462150146484376,2.265381097793579,2.6429409980773926,-9.160944938659668
1780565059654681300,23.481681396484376,2.3471689224243164,2.5259499549865723,-9.173351287841797
1780565059674213400,23.50121337890625,2.4137439727783203,2.4137320518493652,-9.186279296875
1780565059693740300,23.520740234375,2.4800920486450195,2.303579092025757,-9.196884155273438
1780565059713264000,23.54026416015625,2.5562500953674316,2.1932199001312256,-9.203008651733398
1780565059732800000,23.559800048828127,2.642949104309082,2.0815789699554443,-9.204446792602539
1780565059752332000,23.57933203125,2.7387070655822754,1.96799898147583,-9.201437950134277
1780565059771859200,23.598859130859374,2.8394339084625244,1.8531930446624756,-9.194742202758789
1780565059791389700,23.6183896484375,2.9380269050598145,1.7395000457763672,-9.185975074768066
1780565059810912500,23.63791259765625,3.030366897583008,1.6293129920959473,-9.176176071166992
1780565059830432500,23.6574326171875,3.1125130653381348,1.5262269973754883,-9.166399955749512
1780565059849952000,23.676951904296875,3.182231903076172,1.4336129426956177,-9.15740966796875
1780565059869468700,23.69646875,3.238327980041504,1.3543850183486938,-9.149801254272461
1780565059888988700,23.71598876953125,3.2799339294433594,1.2902430295944214,-9.144250869750977
1780565059908512300,23.73551220703125,3.3078560829162598,1.240797996520996,-9.141034126281738
1780565059928036900,23.755036865234374,3.320434093475342,1.207247018814087,-9.140966415405273
1780565059947560700,23.774560791015624,3.320765972137451,1.1875760555267334,-9.14342212677002
1780565059967087600,23.794087646484375,3.311176061630249,1.184852957725525,-9.147253036499023
1780565059986615800,23.81361572265625,3.294226884841919,1.1958609819412231,-9.151938438415527
1780565060006143500,23.8331435546875,3.271919012069702,1.2208600044250488,-9.156639099121094
1780565060025668900,23.8526689453125,3.24625301361084,1.2572139501571655,-9.16085433959961
1780565060045189600,23.872189697265625,3.2225799560546875,1.304010033607483,-9.162670135498047
1780565060064707300,23.891707275390626,3.199867010116577,1.3622130155563354,-9.162162780761719
1780565060084225500,23.9112255859375,3.169985055923462,1.4276549816131592,-9.162586212158203
1780565060103746300,23.930746337890625,3.132045030593872,1.5019769668579102,-9.163752555847168
1780565060123271000,23.95027099609375,3.0849618911743164,1.5838040113449097,-9.165946006774902
1780565060142795800,23.969795654296874,3.0275840759277344,1.6742229461669922,-9.169007301330566
1780565060162319000,23.989319091796876,2.9665260314941406,1.7709050178527832,-9.17080307006836
1780565060181842200,24.00884228515625,2.9665260314941406,1.7709050178527832,-9.17080307006836
1780565060201364500,24.028364501953124,2.9064390659332275,1.8713610172271729,-9.170093536376953
1780565060220887600,24.047887451171874,2.8207321166992188,2.0667738914489746,-9.154884338378906
1780565060240411100,24.0674111328125,2.8207321166992188,2.0667738914489746,-9.154884338378906
1780565060259933200,24.08693310546875,2.801501989364624,2.1548030376434326,-9.140480995178223
1780565060279455700,24.106455810546876,2.8007469177246094,2.234808921813965,-9.121482849121094
1780565060298975700,24.125975830078126,2.807706117630005,2.3073930740356445,-9.101248741149902
1780565060318493400,24.145493408203127,2.816180944442749,2.3733670711517334,-9.081644058227539
1780565060338012000,24.165011962890624,2.8229899406433105,2.434778928756714,-9.063254356384277
1780565060357530000,24.184530029296877,2.826556921005249,2.4929420948028564,-9.046314239501953
1780565060377052700,24.204052734375,2.825165033340454,2.548891067504883,-9.031145095825195
1780565060396577800,24.223577880859374,2.8207058906555176,2.601746082305908,-9.017457008361816
1780565060416100600,24.2431005859375,2.8159708976745605,2.649768114089966,-9.004944801330566
1780565060435622700,24.26262255859375,2.812999963760376,2.691287040710449,-8.993553161621094
1780565060455147800,24.282147705078124,2.8131508827209473,2.7252330780029297,-8.983277320861816
1780565060474673700,24.301673583984375,2.816843032836914,2.751478910446167,-8.974115371704102
1780565060494198000,24.321197998046873,2.8242321014404297,2.770829916000366,-8.965835571289062
1780565060513718000,24.340718017578126,2.8353219032287598,2.784416913986206,-8.958122253417969
1780565060533237200,24.3602373046875,2.8496029376983643,2.7928900718688965,-8.950950622558594
1780565060552756200,24.379756103515625,2.866760015487671,2.796191930770874,-8.944439888000488
1780565060572273400,24.3992734375,2.8844408988952637,2.792196035385132,-8.940000534057617
1780565060591794200,24.418794189453124,2.9023990631103516,2.7810161113739014,-8.937675476074219
1780565060611314200,24.438314208984377,2.9201130867004395,2.7629599571228027,-8.937504768371582
1780565060630834700,24.457834716796874,2.9369449615478516,2.7390589714050293,-8.939346313476562
1780565060650365000,24.477364990234374,2.953639030456543,2.711134910583496,-8.942357063293457
1780565060669895200,24.496895263671874,2.9723570346832275,2.68281888961792,-8.944695472717285
1780565060689417200,24.516417236328124,2.9947149753570557,2.657357931137085,-8.944838523864746
1780565060708935700,24.535935791015625,3.0191431045532227,2.6348719596862793,-8.943277359008789
1780565060728459000,24.555458984375,3.043226957321167,2.6144208908081055,-8.941116333007812
1780565060747982300,24.574982421875,3.0656089782714844,2.5938470363616943,-8.939462661743164
1780565060767501300,24.594501220703126,3.085913896560669,2.570446014404297,-8.93923568725586
1780565060787023600,24.614023681640624,3.1054880619049072,2.5402169227600098,-8.9410982131958
1780565060806549000,24.633549072265627,3.1255409717559814,2.503448963165283,-8.944480895996094
1780565060826073300,24.6530732421875,3.147726058959961,2.4611220359802246,-8.948446273803711
1780565060845598700,24.6725986328125,3.1708219051361084,2.416321039199829,-8.95250129699707
1780565060865126700,24.692126708984375,3.193387985229492,2.371860980987549,-8.956368446350098
1780565060884661200,24.7116611328125,3.2125229835510254,2.330605983734131,-8.960354804992676
1780565060904194600,24.731194580078125,3.2235710620880127,2.295459032058716,-8.965458869934082
1780565060923716900,24.750716796875,3.226285934448242,2.2671918869018555,-8.971673011779785
1780565060943234600,24.770234619140624,3.2208518981933594,2.246670961380005,-8.978784561157227
1780565060962755000,24.789755126953125,3.209855079650879,2.2330620288848877,-8.986115455627441
1780565060982279200,24.809279052734375,3.209855079650879,2.2330620288848877,-8.986115455627441
1780565061001804000,24.828803955078126,3.1703970432281494,2.2229928970336914,-9.002603530883789
1780565061021327400,24.848327392578124,3.1703970432281494,2.2229928970336914,-9.002603530883789
1780565061040851500,24.8678515625,3.113447904586792,2.2279179096221924,-9.02124309539795
1780565061060374800,24.887374755859376,3.113447904586792,2.2279179096221924,-9.02124309539795
1780565061079898600,24.906898681640627,3.0803821086883545,2.233794927597046,-9.031135559082031
1780565061099426300,24.92642626953125,3.044203996658325,2.241312026977539,-9.041534423828125
1780565061118952700,24.94595263671875,3.0057740211486816,2.2512660026550293,-9.051913261413574
1780565061138479000,24.96547900390625,2.963136911392212,2.2641499042510986,-9.062749862670898
1780565061158005500,24.985005615234375,2.9161899089813232,2.2812740802764893,-9.073677062988281
1780565061177532200,25.0045322265625,2.8642680644989014,2.3032479286193848,-9.084657669067383
1780565061197056800,25.024056884765624,2.8068079948425293,2.3297979831695557,-9.095815658569336
1780565061216580900,25.043580810546874,2.745198965072632,2.361103057861328,-9.10654067993164
1780565061236106800,25.063106689453125,2.6807730197906494,2.397084951400757,-9.116328239440918
1780565061255631400,25.08263134765625,2.61387300491333,2.4374799728393555,-9.125040054321289
1780565061275154400,25.102154541015626,2.5441319942474365,2.481597900390625,-9.132855415344238
1780565061294674400,25.12167431640625,2.471205949783325,2.5277280807495117,-9.140225410461426
1780565061314196500,25.141196533203125,2.3958189487457275,2.573004961013794,-9.147661209106445
1780565061333718800,25.16071875,2.320910930633545,2.6141068935394287,-9.155315399169922
1780565061372764200,25.19976416015625,2.190471887588501,2.6716721057891846,-9.170823097229004
1780565061392284000,25.219283935546876,2.1429860591888428,2.6837968826293945,-9.178499221801758
1780565061411805000,25.238804931640626,2.109584093093872,2.682976007461548,-9.18647289276123
1780565061431327200,25.2583271484375,2.089370012283325,2.6688930988311768,-9.195191383361816
1780565061450846000,25.277845947265625,2.0803909301757812,2.641385078430176,-9.205164909362793
1780565061470365400,25.297365478515626,2.0812270641326904,2.6006898880004883,-9.216556549072266
1780565061489892400,25.316892333984374,2.091097116470337,2.546574115753174,-9.229424476623535
1780565061509418800,25.336418701171876,2.110337972640991,2.478492021560669,-9.24356746673584
1780565061528947500,25.355947509765624,2.139695882797241,2.395840883255005,-9.258597373962402
1780565061548476400,25.375476318359375,2.179321050643921,2.2914960384368896,-9.275753021240234
1780565061568000300,25.395000244140626,2.2294809818267822,2.166501998901367,-9.293850898742676
1780565061587522800,25.414522705078124,2.292198896408081,2.021991014480591,-9.311141967773438
1780565061607048200,25.434048095703126,2.3676741123199463,1.85868501663208,-9.326274871826172
1780565061626575400,25.453575439453125,2.4580109119415283,1.6799429655075073,-9.336807250976562
1780565061646098200,25.47309814453125,2.561086893081665,1.4870569705963135,-9.341814041137695
1780565061665620000,25.492619873046873,2.6734650135040283,1.2863630056381226,-9.340121269226074
1780565061685145300,25.512145263671876,2.7920119762420654,1.076809048652649,-9.331942558288574
1780565061704668200,25.531668212890626,2.912956953048706,0.8573219776153564,-9.317707061767578
1780565061724193800,25.55119384765625,3.035693883895874,0.6277279853820801,-9.296801567077637
1780565061743720200,25.57072021484375,3.1579749584198,0.38712599873542786,-9.269160270690918
1780565061763243300,25.5902431640625,3.2796630859375,0.13479399681091309,-9.233939170837402
1780565061782764800,25.609764892578124,3.2796630859375,0.13479399681091309,-9.233939170837402
1780565061802287000,25.629287109375,3.5268869400024414,-0.4038439989089966,-9.134439468383789
