time,seconds_elapsed,z,y,x
1781033825201831000,0.366830810546875,-33.20625305175781,35.32500076293945,-2.71875
1781033825221733600,0.386733642578125,-33.63750076293945,33.75,-3.281250238418579
1781033825242012400,0.407012451171875,-34.51875305175781,32.85000228881836,-2.7562501430511475
1781033825262194400,0.4271943359375,-33.150001525878906,33.22500228881836,-2.512500047683716
1781033825282328300,0.447328369140625,-34.81875228881836,34.06875228881836,-4.5
1781033825302491400,0.467491455078125,-36.1875,33.67500305175781,-4.725000381469727
1781033825322488000,0.487488037109375,-33.431251525878906,32.868751525878906,-4.856250286102295
1781033825342484700,0.507484619140625,-32.79375076293945,33.806251525878906,-5.15625
1781033825362489000,0.527489013671875,-32.55000305175781,34.650001525878906,-4.03125
1781033825382485800,0.54748583984375,-32.56875228881836,36.22500228881836,-3.450000047683716
1781033825402490000,0.567489990234375,-32.8125,36.39375305175781,-3.843750238418579
1781033825422494500,0.587494384765625,-31.931251525878906,35.94375228881836,-4.743750095367432
1781033825442491000,0.607490966796875,-31.725000381469727,35.88750076293945,-5.362500190734863
1781033825462495200,0.6274951171875,-31.23750114440918,35.90625,-4.950000286102295
1781033825482492000,0.647491943359375,-30.48750114440918,35.0625,-3.168750047683716
1781033825502488300,0.66748828125,-30.731250762939453,35.64375305175781,-3.3187501430511475
1781033825522492700,0.68749267578125,-33.97500228881836,36.39375305175781,-4.03125
1781033825542489300,0.7074892578125,-33.22500228881836,34.5,-3.637500047683716
1781033825562486000,0.727486083984375,-31.368751525878906,34.5,-3.2250001430511475
1781033825582490000,0.747489990234375,-32.55000305175781,35.88750076293945,-2.8500001430511475
1781033825602486800,0.76748681640625,-33.056251525878906,36.16875076293945,-4.275000095367432
1781033825622491100,0.7874912109375,-34.38750076293945,34.63125228881836,-4.443750381469727
1781033825642495200,0.8074951171875,-33.48750305175781,34.20000076293945,-5.118750095367432
1781033825662492000,0.827491943359375,-30.825000762939453,36.1875,-6.168750286102295
1781033825682496300,0.847496337890625,-32.38125228881836,37.181251525878906,-3.562500238418579
1781033825702493000,0.867492919921875,-33.900001525878906,35.34375,-2.700000047683716
1781033825722489600,0.887489501953125,-32.32500076293945,34.42500305175781,-4.481250286102295
1781033825742493700,0.90749365234375,-30.993751525878906,35.962501525878906,-4.106250286102295
1781033825762490400,0.927490478515625,-31.406251907348633,35.85000228881836,-3.075000047683716
1781033825782487000,0.947487060546875,-32.73750305175781,35.118751525878906,-2.7375001907348633
1781033825802491100,0.9674912109375,-32.587501525878906,36.41250228881836,-3.4312500953674316
1781033825822487800,0.98748779296875,-31.256250381469727,36.50625228881836,-4.6875
1781033825842492200,1.0074921875,-29.400001525878906,35.53125,-4.59375
1781033825862496500,1.02749658203125,-31.256250381469727,35.88750076293945,-5.362500190734863
1781033825882493200,1.0474931640625,-32.10000228881836,35.23125076293945,-3.7687501907348633
1781033825902497300,1.067497314453125,-29.306251525878906,35.32500076293945,-2.1187500953674316
1781033825922494000,1.087493896484375,-31.631250381469727,35.04375076293945,-3.5812501907348633
1781033825942437000,1.10743701171875,-33.46875,35.025001525878906,-4.200000286102295
1781033825962320100,1.127320068359375,-31.875001907348633,36.65625,-2.5687501430511475
1781033825982080800,1.147080810546875,-33,37.51875305175781,-1.4250000715255737
1781033826002077400,1.167077392578125,-31.837501525878906,36.525001525878906,-1.7625000476837158
1781033826022135000,1.187135009765625,-33.22500228881836,35.88750076293945,-2.8500001430511475
1781033826042253300,1.20725341796875,-36.243751525878906,36.01875305175781,-4.481250286102295
1781033826062485800,1.22748583984375,-34.181251525878906,35.19375228881836,-4.800000190734863
1781033826082490000,1.247489990234375,-30.95625114440918,34.42500305175781,-4.068750381469727
1781033826102486800,1.26748681640625,-30.506250381469727,35.400001525878906,-3.7687501907348633
1781033826122491100,1.2874912109375,-33.900001525878906,36.9375,-1.6875001192092896
1781033826142495200,1.3074951171875,-35.71875,35.98125076293945,-1.9875000715255737
1781033826162492000,1.327491943359375,-37.087501525878906,34.96875,-3.1312501430511475
1781033826182496300,1.347496337890625,-37.48125076293945,33.900001525878906,-1.7812501192092896
1781033826202493000,1.367492919921875,-35.60625076293945,32.13750076293945,-1.9875000715255737
1781033826222331000,1.387330810546875,-37.66875076293945,31.556251525878906,-2.4562501907348633
1781033826242335200,1.407335205078125,-38.79375076293945,32.19375228881836,-1.9500000476837158
1781033826262332000,1.427331787109375,-38.118751525878906,32.775001525878906,-1.4812500476837158
1781033826282328600,1.44732861328125,-38.56875228881836,32.41875076293945,-1.5187500715255737
1781033826302491400,1.467491455078125,-38.118751525878906,32.775001525878906,-1.4812500476837158
1781033826322488000,1.487488037109375,-35.85000228881836,32.73750305175781,-1.725000023841858
1781033826342484700,1.507484619140625,-35.55000305175781,32.493751525878906,0.13125000894069672
1781033826362489000,1.527489013671875,-38.71875,31.368751525878906,0.03750000149011612
1781033826382485800,1.54748583984375,-38.04375076293945,30.48750114440918,-1.3125
1781033826402490000,1.567489990234375,-36.9375,31.650001525878906,-0.9937500357627869
1781033826422494200,1.587494140625,-36.9375,31.650001525878906,-0.9937500357627869
1781033826442491100,1.6074912109375,-36.9375,31.650001525878906,-0.9937500357627869
1781033826462495200,1.6274951171875,-42.54375076293945,29.887500762939453,0.11250000447034836
1781033826482492000,1.647491943359375,-39.806251525878906,29.418750762939453,-0.375
1781033826502488600,1.667488525390625,-38.66250228881836,30.225000381469727,0.3375000059604645
1781033826522492700,1.68749267578125,-40.275001525878906,29.812501907348633,-0.3375000059604645
1781033826542489300,1.7074892578125,-38.51250076293945,30.468751907348633,-1.725000023841858
1781033826562485800,1.72748583984375,-38.73750305175781,31.89375114440918,-0.5250000357627869
1781033826582490000,1.747489990234375,-39.88125228881836,31.33125114440918,-0.7875000238418579
1781033826602486800,1.76748681640625,-39.1875,30.918750762939453,-1.0500000715255737
1781033826622491100,1.7874912109375,-38.493751525878906,30.131250381469727,-1.1437500715255737
1781033826642495200,1.8074951171875,-38.118751525878906,31.162500381469727,-2.700000047683716
1781033826662492000,1.827491943359375,-35.92500305175781,32.15625,-4.6875
1781033826682496300,1.847496337890625,-37.63125228881836,33.35625076293945,-6.843750476837158
1781033826702492700,1.86749267578125,-37.23750305175781,34.63125228881836,-7.950000286102295
1781033826722497000,1.8874970703125,-34.14375305175781,35.98125076293945,-9.918750762939453
1781033826742447900,1.90744775390625,-31.89375114440918,35.493751525878906,-11.02500057220459
1781033826762307000,1.92730712890625,-30.037500381469727,35.53125,-10.200000762939453
1781033826802064600,1.967064697265625,-31.275001525878906,36.95625305175781,-11.700000762939453
1781033826822114600,1.987114501953125,-30.712501525878906,37.70625305175781,-14.756250381469727
1781033826842248700,2.007248779296875,-28.837501525878906,37.368751525878906,-13.55625057220459
1781033826862488800,2.02748876953125,-26.55000114440918,36.75,-13.856250762939453
1781033826882485500,2.047485595703125,-23.45625114440918,37.91250228881836,-15.843750953674316
1781033826902489600,2.067489501953125,-22.762500762939453,39.35625076293945,-14.437500953674316
1781033826922494000,2.087493896484375,-23.4375,38.38125228881836,-14.756250381469727
1781033826942490600,2.10749072265625,-21.618751525878906,38.51250076293945,-15.168750762939453
1781033826962495000,2.127494873046875,-19.575000762939453,39.9375,-13.781250953674316
1781033826982491600,2.14749169921875,-20.043750762939453,41.118751525878906,-13.443750381469727
1781033827002488000,2.167488037109375,-21.65625,42.13125228881836,-13.106250762939453
1781033827022492400,2.187492431640625,-21.11250114440918,41.493751525878906,-11.100000381469727
1781033827042489000,2.207489013671875,-18.075000762939453,40.38750076293945,-9.787500381469727
1781033827062485800,2.22748583984375,-16.743751525878906,40.5,-10.83750057220459
1781033827082490000,2.247489990234375,-17.006250381469727,41.04375076293945,-11.193750381469727
1781033827102486800,2.26748681640625,-16.96875,41.53125,-9.675000190734863
1781033827122491100,2.2874912109375,-17.193750381469727,42.5625,-8.71875
1781033827142495200,2.3074951171875,-17.92500114440918,43.875,-9.206250190734863
1781033827162492000,2.327491943359375,-18.150001525878906,43.275001525878906,-9.675000190734863
1781033827182496300,2.347496337890625,-16.743751525878906,41.32500076293945,-9.693750381469727
1781033827202493000,2.367492919921875,-16.03125,39.337501525878906,-10.762500762939453
1781033827222331000,2.387330810546875,-16.462501525878906,38.55000305175781,-11.043750762939453
1781033827242335200,2.407335205078125,-19.03125,39.26250076293945,-12.187500953674316
1781033827262332000,2.427331787109375,-21.84375,37.931251525878906,-15.225000381469727
1781033827282328600,2.44732861328125,-23.043750762939453,35.36250305175781,-19.23750114440918
1781033827302491600,2.46749169921875,-24.48750114440918,34.98750305175781,-21.975000381469727
1781033827322488300,2.48748828125,-23.606250762939453,33.65625,-24.412500381469727
1781033827342492400,2.507492431640625,-22.70625114440918,30.76875114440918,-27.037500381469727
1781033827362496800,2.527496826171875,-24.037500381469727,27.825000762939453,-28.387500762939453
1781033827382493400,2.547493408203125,-22.89375114440918,25.14375114440918,-30.562501907348633
1781033827402497500,2.56749755859375,-21.58125114440918,26.418750762939453,-31.481250762939453
1781033827422494200,2.587494140625,-21.618751525878906,26.568750381469727,-32.08125305175781
1781033827442491000,2.607490966796875,-22.80000114440918,26.512500762939453,-33.11250305175781
1781033827462495000,2.627494873046875,-22.743751525878906,26.606250762939453,-31.856250762939453
1781033827482491600,2.64749169921875,-22.275001525878906,26.83125114440918,-31.218751907348633
1781033827502496000,2.66749609375,-20.26875114440918,28.106250762939453,-31.70625114440918
1781033827522500000,2.6875,-19.98750114440918,28.256250381469727,-29.625001907348633
1781033827542390000,2.70739013671875,-24.356250762939453,30.67500114440918,-28.687501907348633
1781033827562227000,2.72722705078125,-23.943750381469727,33.65625,-27.337501525878906
1781033827601984500,2.766984619140625,-24.30000114440918,35.70000076293945,-22.725000381469727
1781033827622095600,2.787095703125,-23.8125,37.42500305175781,-20.25
1781033827642259500,2.807259521484375,-21.9375,39.150001525878906,-16.96875
1781033827662492000,2.827491943359375,-22.818750381469727,40.63125228881836,-15.33750057220459
1781033827682496300,2.847496337890625,-23.981250762939453,42.45000076293945,-14.100000381469727
1781033827702492700,2.86749267578125,-22.78125,44.00625228881836,-11.02500057220459
1781033827722489600,2.887489501953125,-25.162500381469727,42.26250076293945,-8.887500762939453
1781033827742493700,2.90749365234375,-28.556251525878906,42.1875,-8.043750762939453
1781033827762490400,2.927490478515625,-29.250001907348633,43.01250076293945,-7.312500476837158
1781033827782487000,2.947487060546875,-31.743751525878906,42.84375,-7.518750190734863
1781033827802491100,2.9674912109375,-32.60625076293945,41.36250305175781,-6.843750476837158
1781033827822487800,2.98748779296875,-32.17500305175781,40.462501525878906,-8.606250762939453
1781033827842484500,3.007484375,-31.05000114440918,39.993751525878906,-9.506250381469727
1781033827862488800,3.02748876953125,-32.118751525878906,38.15625,-8.662500381469727
1781033827882485500,3.047485595703125,-34.25625228881836,38.400001525878906,-10.893750190734863
1781033827902489900,3.06748974609375,-34.14375305175781,39.16875076293945,-13.74375057220459
1781033827922494000,3.087493896484375,-34.16250228881836,38.08125305175781,-15.506250381469727
1781033827942491000,3.107490966796875,-32.75625228881836,36.91875076293945,-15.450000762939453
1781033827962495000,3.127494873046875,-28.462501525878906,37.98750305175781,-15.787500381469727
1781033827982491600,3.14749169921875,-27.918750762939453,39.48750305175781,-18.95625114440918
1781033828002488300,3.16748828125,-29.137500762939453,39.95625305175781,-20.775001525878906
1781033828022492400,3.187492431640625,-26.156251907348633,41.15625,-19.42500114440918
1781033828042489000,3.207489013671875,-23.400001525878906,40.80000305175781,-18.450000762939453
1781033828062485800,3.22748583984375,-24.037500381469727,39.07500076293945,-18.618751525878906
1781033828082490000,3.247489990234375,-24.975000381469727,39.22500228881836,-19.42500114440918
1781033828102486500,3.267486572265625,-25.443750381469727,39.806251525878906,-19.368751525878906
1781033828122491000,3.287490966796875,-27.168750762939453,38.00625228881836,-18.075000762939453
1781033828142495200,3.3074951171875,-26.006250381469727,37.837501525878906,-17.26875114440918
1781033828162492000,3.327491943359375,-24.600000381469727,39.150001525878906,-14.86875057220459
1781033828182496300,3.347496337890625,-23.17500114440918,40.05000305175781,-12.693750381469727
1781033828202500600,3.36750048828125,-19.762500762939453,41.625,-11.512500762939453
1781033828222338300,3.38733837890625,-17.700000762939453,42.45000076293945,-10.40625
1781033828242342700,3.4073427734375,-15.393750190734863,43.10625076293945,-8.887500762939453
1781033828262339300,3.42733935546875,-14.381250381469727,41.681251525878906,-7.181250095367432
1781033828282335700,3.447335693359375,-12.52500057220459,42.73125076293945,-5.418750286102295
1781033828302498800,3.467498779296875,-10.96875,45.28125,-4.537500381469727
1781033828322495500,3.48749560546875,-12.33750057220459,45.07500076293945,-4.96875
1781033828342377700,3.507377685546875,-13.46250057220459,43.70625305175781,-5.306250095367432
1781033828362192000,3.52719189453125,-11.625,42.26250076293945,-6.525000095367432
1781033828402246100,3.56724609375,-10.800000190734863,42.46875,-8.793750762939453
1781033828422365000,3.587364990234375,-8.850000381469727,39.75,-14.30625057220459
1781033828442544000,3.607544189453125,-9.99375057220459,37.95000076293945,-15.750000953674316
1781033828462495000,3.627494873046875,-16.23750114440918,38.025001525878906,-18.39375114440918
1781033828482491400,3.647491455078125,-18.787500381469727,36.73125076293945,-20.793750762939453
1781033828502488300,3.66748828125,-16.481250762939453,32.08125305175781,-23.625
1781033828522492400,3.687492431640625,-16.537500381469727,30.712501525878906,-26.681251525878906
1781033828542489300,3.7074892578125,-17.0625,31.80000114440918,-27.806251525878906
1781033828562486000,3.727486083984375,-14.981250762939453,29.793750762939453,-28.668750762939453
1781033828582490000,3.747489990234375,-15.43125057220459,29.587501525878906,-28.89375114440918
1781033828602486800,3.76748681640625,-16.668750762939453,31.462501525878906,-29.92500114440918
1781033828622491000,3.787490966796875,-15.975000381469727,31.631250381469727,-29.92500114440918
1781033828642495200,3.8074951171875,-15.787500381469727,33.1875,-29.756250381469727
1781033828662492000,3.827491943359375,-17.625,33.39375305175781,-29.718751907348633
1781033828682496300,3.847496337890625,-20.25,33.26250076293945,-26.568750381469727
1781033828702493000,3.867492919921875,-20.90625,35.60625076293945,-23.606250762939453
1781033828722489600,3.887489501953125,-19.537500381469727,36,-23.15625
1781033828742494000,3.907493896484375,-19.125,38.75625228881836,-22.03125
1781033828762490600,3.92749072265625,-21.375,40.48125076293945,-19.950000762939453
1781033828782487000,3.947487060546875,-22.931251525878906,39.806251525878906,-18.975000381469727
1781033828802491400,3.967491455078125,-21.075000762939453,40.650001525878906,-17.4375
1781033828822488000,3.987488037109375,-22.162500381469727,42.20625305175781,-14.756250381469727
1781033828842492200,4.0074921875,-24.525001525878906,44.51250076293945,-14.906250953674316
1781033828862496500,4.02749658203125,-24.243751525878906,45.01875305175781,-13.18125057220459
1781033828882493200,4.0474931640625,-23.493751525878906,44.962501525878906,-11.325000762939453
1781033828902497500,4.06749755859375,-23.92500114440918,44.625,-10.725000381469727
1781033828922494000,4.087493896484375,-24.656251907348633,45.16875076293945,-11.287500381469727
1781033828942490600,4.10749072265625,-24.01875114440918,45.86250305175781,-12.05625057220459
1781033828962495000,4.127494873046875,-26.475000381469727,44.962501525878906,-11.925000190734863
1781033828982491600,4.14749169921875,-28.031251907348633,42.41250228881836,-12.80625057220459
1781033829002488300,4.16748828125,-30.30000114440918,41.25,-13.331250190734863
1781033829022492700,4.18749267578125,-30.58125114440918,41.32500076293945,-15.187500953674316
1781033829042489300,4.2074892578125,-29.943750381469727,42.01875305175781,-16.162500381469727
1781033829062485800,4.22748583984375,-28.650001525878906,44.306251525878906,-16.14375114440918
1781033829082490000,4.247489990234375,-25.462501525878906,43.61250305175781,-17.08125114440918
1781033829102486800,4.26748681640625,-27.281251907348633,41.60625076293945,-18.525001525878906
1781033829122460700,4.287460693359375,-25.781251907348633,43.03125,-20.043750762939453
1781033829142327600,4.30732763671875,-24.900001525878906,42.54375076293945,-21.356250762939453
1781033829182153700,4.34715380859375,-21.525001525878906,41.38125228881836,-23.606250762939453
1781033829202180900,4.367180908203125,-22.33125114440918,38.13750076293945,-23.325000762939453
1781033829222156000,4.387156005859375,-23.0625,38.025001525878906,-24.993751525878906
1781033829242365700,4.40736572265625,-22.668750762939453,39.150001525878906,-25.275001525878906
1781033829262332000,4.427331787109375,-20.756250381469727,38.26875305175781,-23.943750381469727
1781033829282328600,4.44732861328125,-19.537500381469727,36.58125305175781,-23.100000381469727
1781033829302491400,4.467491455078125,-19.293750762939453,38.28750228881836,-20.625
1781033829322487800,4.48748779296875,-19.51875114440918,40.087501525878906,-19.59375
1781033829342484500,4.507484375,-18.787500381469727,39.375,-18.637500762939453
1781033829362488800,4.52748876953125,-17.381250381469727,40.48125076293945,-16.443750381469727
1781033829382485500,4.547485595703125,-15.543750762939453,42.13125228881836,-14.625000953674316
1781033829402489900,4.56748974609375,-14.831250190734863,42.78750228881836,-13.106250762939453
1781033829422494200,4.587494140625,-13.18125057220459,44.118751525878906,-10.46250057220459
1781033829442491000,4.607490966796875,-9.15000057220459,44.212501525878906,-5.71875
1781033829462495000,4.627494873046875,-5.231250286102295,45.46875,-3.3187501430511475
1781033829482491600,4.64749169921875,-3.8625001907348633,46.44375228881836,-2.8125
1781033829502488300,4.66748828125,-4.950000286102295,45.20625305175781,-1.6875001192092896
1781033829522492400,4.687492431640625,-4.6875,45.07500076293945,-0.8812500238418579
1781033829542489000,4.707489013671875,-3.5250000953674316,44.88750076293945,-0.48750001192092896
1781033829562485800,4.72748583984375,-2.6812500953674316,45.11250305175781,-2.5500001907348633
1781033829582490400,4.747490478515625,-2.512500047683716,44.75625228881836,-4.875
1781033829602486800,4.76748681640625,-3.731250047683716,43.38750076293945,-8.137500762939453
1781033829622491100,4.7874912109375,-7.406250476837158,42.35625076293945,-9.881250381469727
1781033829642495500,4.80749560546875,-9.99375057220459,40.57500076293945,-13.800000190734863
1781033829662492000,4.827491943359375,-11.53125,38.98125076293945,-20.193750381469727
1781033829682496300,4.847496337890625,-11.34375,37.462501525878906,-22.875
1781033829702493000,4.867492919921875,-11.568750381469727,33.41250228881836,-25.818750381469727
1781033829722489600,4.887489501953125,-15.000000953674316,29.55000114440918,-29.325000762939453
1781033829742493700,4.90749365234375,-16.818750381469727,28.33125114440918,-30.67500114440918
1781033829762490600,4.92749072265625,-18.243751525878906,28.443750381469727,-31.912500381469727
1781033829782487000,4.947487060546875,-21.20625114440918,27.900001525878906,-32.15625
1781033829802491400,4.967491455078125,-23.45625114440918,27.787500381469727,-31.51875114440918
1781033829822488000,4.987488037109375,-22.350000381469727,28.912500381469727,-31.61250114440918
1781033829842492400,5.007492431640625,-18.450000762939453,28.51875114440918,-31.068750381469727
1781033829862496500,5.02749658203125,-19.650001525878906,29.400001525878906,-32.212501525878906
1781033829882500900,5.0475009765625,-21.525001525878906,30.337501525878906,-32.92500305175781
1781033829902505000,5.0675048828125,-20.8125,31.406251907348633,-31.350000381469727
1781033829922494000,5.087493896484375,-22.40625,32.45625305175781,-30.39375114440918
1781033829942368500,5.107368408203125,-21.450000762939453,33.375,-28.218751907348633
1781033829962175000,5.127175048828125,-20.0625,36.431251525878906,-25.200000762939453
1781033830002221800,5.167221923828125,-24.30000114440918,38.587501525878906,-20.118751525878906
1781033830022348000,5.18734814453125,-25.031251907348633,41.94375228881836,-18.918750762939453
1781033830042534700,5.20753466796875,-26.418750762939453,44.36250305175781,-17.606250762939453
1781033830062485800,5.22748583984375,-22.23750114440918,44.26875305175781,-15.356250762939453
1781033830082490000,5.247489990234375,-22.462501525878906,44.493751525878906,-14.925000190734863
1781033830102486800,5.26748681640625,-24.318750381469727,45.056251525878906,-15.468750953674316
1781033830122491000,5.287490966796875,-24.562501907348633,45.88125228881836,-14.756250381469727
1781033830142495200,5.3074951171875,-27.67500114440918,45.26250076293945,-13.331250190734863
1781033830162492000,5.327491943359375,-30.11250114440918,43.40625,-12.675000190734863
1781033830182496300,5.347496337890625,-30.11250114440918,41.98125076293945,-13.875000953674316
1781033830202492700,5.36749267578125,-28.781251907348633,41.681251525878906,-15.168750762939453
1781033830222330600,5.38733056640625,-30.806251525878906,41.34375,-14.981250762939453
1781033830242335200,5.407335205078125,-32.41875076293945,40.3125,-16.33125114440918
1781033830262331600,5.42733154296875,-32.025001525878906,39.9375,-18.65625
1781033830282328300,5.447328369140625,-31.162500381469727,39.20625305175781,-20.83125114440918
1781033830302491400,5.467491455078125,-29.606250762939453,39.11250305175781,-21.900001525878906
1781033830322487800,5.48748779296875,-28.256250381469727,38.625,-23.006250381469727
1781033830342484500,5.507484375,-29.193750381469727,38.79375076293945,-23.400001525878906
1781033830362488800,5.52748876953125,-29.700000762939453,39.09375,-24.825000762939453
1781033830382485500,5.547485595703125,-28.33125114440918,36.618751525878906,-26.962501525878906
1781033830402489600,5.567489501953125,-26.718751907348633,35.400001525878906,-27.543750762939453
1781033830422494000,5.587493896484375,-24.168750762939453,34.087501525878906,-26.662500381469727
1781033830442490600,5.60749072265625,-23.625,31.80000114440918,-26.287500381469727
1781033830462494700,5.62749462890625,-22.931251525878906,33.431251525878906,-24.86250114440918
1781033830482491400,5.647491455078125,-20.887500762939453,35.25,-23.231250762939453
1781033830502488300,5.66748828125,-21.09375,35.28750228881836,-22.59375
1781033830522492400,5.687492431640625,-21.787500381469727,37.35000228881836,-20.90625
1781033830542489000,5.707489013671875,-19.668750762939453,38.88750076293945,-17.64375114440918
1781033830562485800,5.72748583984375,-16.818750381469727,39.9375,-13.18125057220459
1781033830582490000,5.747489990234375,-17.25,42,-11.287500381469727
1781033830602494500,5.767494384765625,-15.43125057220459,43.650001525878906,-9.450000762939453
1781033830622498800,5.787498779296875,-9.825000762939453,43.21875,-6.225000381469727
1781033830642503000,5.8075029296875,-8.40000057220459,44.55000305175781,-3.3937501907348633
1781033830662499600,5.82749951171875,-7.200000286102295,45.056251525878906,-1.4625000953674316
1781033830682496300,5.847496337890625,-5.737500190734863,43.650001525878906,0.65625
1781033830702493000,5.867492919921875,-5.662500381469727,42.58125305175781,1.7812501192092896
1781033830722459000,5.887458984375,-6.993750095367432,43.10625076293945,3.5250000953674316
1781033830742333700,5.907333740234375,-6.993750095367432,43.70625305175781,3.7875001430511475
1781033830781878300,5.946878173828125,-7.368750095367432,44.00625228881836,-0.13125000894069672
1781033830801913000,5.9669130859375,-6.056250095367432,44.493751525878906,-1.125
1781033830822039300,5.987039306640625,-6.075000286102295,43.837501525878906,-2.231250047683716
1781033830842256600,6.007256591796875,-6.018750190734863,44.83125305175781,-7.125000476837158
1781033830862496500,6.02749658203125,-4.762500286102295,44.38125228881836,-10.725000381469727
1781033830882493200,6.0474931640625,-3.6187500953674316,41.70000076293945,-13.106250762939453
1781033830902497500,6.06749755859375,-5.306250095367432,39.28125,-17.73750114440918
1781033830922494000,6.087493896484375,-10.443750381469727,38.625,-22.33125114440918
1781033830942490600,6.10749072265625,-10.725000381469727,36.46875,-25.687501907348633
1781033830962495000,6.127494873046875,-10.293750762939453,33.375,-28.743751525878906
1781033830982491600,6.14749169921875,-11.68125057220459,30.900001525878906,-31.481250762939453
1781033831002488300,6.16748828125,-9.65625,29.568750381469727,-33.525001525878906
1781033831022492400,6.187492431640625,-7.612500190734863,28.51875114440918,-34.5
1781033831042489000,6.207489013671875,-9.168750762939453,28.781251907348633,-33.618751525878906
1781033831062485800,6.22748583984375,-11.100000381469727,30.450000762939453,-34.875
1781033831082490000,6.247489990234375,-12.90000057220459,29.45625114440918,-35.587501525878906
1781033831102486800,6.26748681640625,-14.718750953674316,30.150001525878906,-34.462501525878906
1781033831122491100,6.2874912109375,-13.575000762939453,30.937501907348633,-33.75
1781033831142495200,6.3074951171875,-13.55625057220459,31.012500762939453,-32.92500305175781
1781033831162492000,6.327491943359375,-16.3125,34.23750305175781,-31.087501525878906
1781033831182496300,6.347496337890625,-17.943750381469727,37.06875228881836,-29.512500762939453
1781033831202493000,6.367492919921875,-17.006250381469727,38.75625228881836,-27.262500762939453
1781033831222331000,6.387330810546875,-17.90625,41.0625,-24.712501525878906
1781033831242335000,6.4073349609375,-22.012500762939453,42.35625076293945,-23.493751525878906
1781033831262331600,6.42733154296875,-24.67500114440918,42.9375,-21.11250114440918
1781033831282328300,6.447328369140625,-26.92500114440918,43.85625076293945,-19.33125114440918
1781033831302491400,6.467491455078125,-29.137500762939453,43.38750076293945,-18.11250114440918
1781033831322488000,6.487488037109375,-27.037500381469727,43.06875228881836,-16.912500381469727
1781033831342492200,6.5074921875,-25.443750381469727,44.47500228881836,-15.731250762939453
1781033831362496500,6.52749658203125,-29.08125114440918,44.962501525878906,-14.812500953674316
1781033831382493200,6.5474931640625,-33.337501525878906,42.337501525878906,-14.850000381469727
1781033831402497500,6.56749755859375,-35.13750076293945,39.5625,-16.387500762939453
1781033831422494200,6.587494140625,-33.11250305175781,39.09375,-17.287500381469727
1781033831442490600,6.60749072265625,-31.312501907348633,38.56875228881836,-18.825000762939453
1781033831462495000,6.627494873046875,-30.01875114440918,38.19375228881836,-21.375
1781033831482491600,6.64749169921875,-26.681251525878906,38.36250305175781,-23.681251525878906
1781033831502496000,6.66749609375,-24.712501525878906,37.368751525878906,-26.493751525878906
1781033831522454500,6.68745458984375,-25.23750114440918,35.98125076293945,-29.981250762939453
1781033831542321400,6.7073212890625,-24.150001525878906,34.181251525878906,-33.30000305175781
1781033831582094000,6.747093994140625,-23.043750762939453,33.50625228881836,-34.650001525878906
1781033831602136600,6.767136474609375,-20.0625,33.48750305175781,-34.25625228881836
1781033831622270500,6.7872705078125,-18.618751525878906,32.025001525878906,-33.16875076293945
1781033831642503200,6.807503173828125,-20.55000114440918,29.231250762939453,-32.212501525878906
1781033831662492200,6.8274921875,-20.306251525878906,29.45625114440918,-31.575000762939453
1781033831682496500,6.84749658203125,-20.287500381469727,30.918750762939453,-29.962501525878906
1781033831702493200,6.8674931640625,-20.08125114440918,31.70625114440918,-29.662500381469727
1781033831722489600,6.887489501953125,-18.262500762939453,32.70000076293945,-28.950000762939453
1781033831742494000,6.907493896484375,-16.368751525878906,34.25625228881836,-25.668750762939453
1781033831762490600,6.92749072265625,-15.843750953674316,36.26250076293945,-21.506250381469727
1781033831782487000,6.947487060546875,-15.112500190734863,40.01250076293945,-17.36250114440918
1781033831802491400,6.967491455078125,-14.193750381469727,42.28125,-14.831250190734863
1781033831822488000,6.987488037109375,-13.406250953674316,42.900001525878906,-11.4375
1781033831842492200,7.0074921875,-9.90000057220459,44.47500228881836,-7.331250190734863
1781033831862496500,7.02749658203125,-4.368750095367432,44.94375228881836,-5.25
1781033831882493200,7.0474931640625,-2.71875,44.23125076293945,-4.3125
1781033831902497500,7.06749755859375,-2.418750047683716,43.76250076293945,-2.4937500953674316
1781033831922494200,7.087494140625,-2.5687501430511475,43.95000076293945,0.01875000074505806
1781033831942490600,7.10749072265625,-5.475000381469727,43.5,1.256250023841858
1781033831962495000,7.127494873046875,-5.71875,43.25625228881836,0.39375001192092896
1781033831982491600,7.14749169921875,-3.450000047683716,42.82500076293945,0.13125000894069672
1781033832002488000,7.167488037109375,-4.181250095367432,43.3125,-1.068750023841858
1781033832022492400,7.187492431640625,-3.093750238418579,43.181251525878906,-2.7562501430511475
1781033832042489000,7.207489013671875,-1.9687501192092896,42.30000305175781,-4.106250286102295
1781033832062485800,7.22748583984375,-5.043750286102295,43.51875305175781,-6.450000286102295
1781033832082490000,7.247489990234375,-5.587500095367432,43.125,-9.393750190734863
1781033832102486800,7.26748681640625,-4.987500190734863,41.92500305175781,-12.862500190734863
1781033832122491000,7.287490966796875,-5.962500095367432,41.56875228881836,-15.187500953674316
1781033832142495200,7.3074951171875,-7.650000095367432,39.375,-19.575000762939453
1781033832162492000,7.327491943359375,-10.668750762939453,35.79375076293945,-24.525001525878906
1781033832182496000,7.34749609375,-13.875000953674316,33.35625076293945,-27.037500381469727
1781033832202493000,7.367492919921875,-17.043750762939453,30.20625114440918,-28.593751907348633
1781033832222331000,7.387330810546875,-20.662500381469727,25.443750381469727,-31.593751907348633
1781033832242335200,7.407335205078125,-23.45625114440918,22.89375114440918,-35.587501525878906
1781033832262331600,7.42733154296875,-23.45625114440918,22.89375114440918,-35.587501525878906
1781033832282336000,7.4473359375,-24.056251525878906,21.431251525878906,-34.48125076293945
1781033832302498800,7.467498779296875,-24.825000762939453,22.481250762939453,-36.03750228881836
1781033832322434300,7.487434326171875,-24.825000762939453,22.481250762939453,-36.03750228881836
1781033832342317300,7.5073173828125,-24.825000762939453,22.481250762939453,-36.03750228881836
1781033832362078500,7.527078369140625,-23.475000381469727,27.937501907348633,-32.118751525878906
1781033832402148000,7.567148193359375,-26.64375114440918,36.39375305175781,-24.30000114440918
1781033832422266000,7.58726611328125,-27.562501907348633,39.056251525878906,-22.125
1781033832442498000,7.607498046875,-29.118751525878906,41.025001525878906,-19.200000762939453
1781033832462495000,7.627494873046875,-30.86250114440918,41.41875076293945,-16.631250381469727
1781033832482491600,7.64749169921875,-29.868751525878906,42.60000228881836,-13.200000762939453
1781033832502488300,7.66748828125,-31.631250381469727,43.42500305175781,-10.18125057220459
1781033832522492700,7.68749267578125,-33.82500076293945,41.962501525878906,-9.262500762939453
1781033832542489000,7.707489013671875,-34.48125076293945,40.650001525878906,-8.981250762939453
1781033832562485800,7.72748583984375,-38.493751525878906,38.23125076293945,-8.58750057220459
1781033832582490000,7.747489990234375,-41.681251525878906,35.66250228881836,-10.293750762939453
1781033832602486800,7.76748681640625,-41.90625,33,-12.656250953674316
1781033832622491000,7.787490966796875,-41.493751525878906,32.70000076293945,-14.156250953674316
1781033832642495200,7.8074951171875,-39.60000228881836,33.97500228881836,-17.568750381469727
1781033832662492000,7.827491943359375,-36.48750305175781,33.712501525878906,-20.55000114440918
1781033832682496300,7.847496337890625,-34.98750305175781,34.72500228881836,-22.33125114440918
1781033832702493000,7.867492919921875,-32.13750076293945,35.00625228881836,-25.856250762939453
1781033832722489600,7.887489501953125,-29.250001907348633,34.78125,-28.61250114440918
1781033832742493700,7.90749365234375,-24.750001907348633,33.60000228881836,-31.068750381469727
1781033832762490400,7.927490478515625,-22.481250762939453,34.33125305175781,-31.012500762939453
1781033832782487000,7.947487060546875,-25.61250114440918,34.3125,-29.118751525878906
1781033832802491100,7.9674912109375,-25.181251525878906,32.23125076293945,-31.42500114440918
1781033832822487800,7.98748779296875,-23.625,30.67500114440918,-34.125
1781033832842492200,8.0074921875,-22.856250762939453,29.400001525878906,-32.79375076293945
1781033832862496300,8.027496337890625,-23.26875114440918,29.73750114440918,-31.106250762939453
1781033832882493000,8.047492919921876,-24.375001907348633,29.812501907348633,-30.037500381469727
1781033832902497300,8.067497314453124,-25.012500762939453,31.556251525878906,-27.131250381469727
1781033832922494000,8.087493896484375,-24.76875114440918,32.66250228881836,-25.350000381469727
1781033832942490600,8.10749072265625,-23.475000381469727,32.56875228881836,-21
1781033832962495000,8.127494873046874,-22.5,34.51875305175781,-17.45625114440918
1781033832982491600,8.14749169921875,-19.762500762939453,37.14375305175781,-15.131250381469727
1781033833002495700,8.167495849609375,-16.462501525878906,39.5625,-10.3125
1781033833022500000,8.1875,-14.850000381469727,42.26250076293945,-7.125000476837158
1781033833042496800,8.207496826171875,-12.018750190734863,42.63750076293945,-3.9750001430511475
1781033833062493400,8.227493408203125,-7.537500381469727,42.69375228881836,0.35625001788139343
1781033833082490000,8.247489990234374,-4.481250286102295,42.69375228881836,3.450000047683716
1781033833102486800,8.26748681640625,-3.9750001430511475,41.75625228881836,4.181250095367432
1781033833122453000,8.287452880859375,-3.9750001430511475,42.1875,4.650000095367432
1781033833142319900,8.30731982421875,-3.750000238418579,43.181251525878906,5.15625
1781033833182138400,8.347138427734375,-6.543750286102295,43.29375076293945,3.543750047683716
1781033833202173200,8.367173095703125,-6.487500190734863,44.025001525878906,5.700000286102295
1781033833222148400,8.3871484375,-4.931250095367432,43.5,4.162500381469727
1781033833242365700,8.40736572265625,-4.125,43.650001525878906,1.0500000715255737
1781033833262331600,8.42733154296875,-4.912500381469727,43.42500305175781,-2.4937500953674316
1781033833282328600,8.44732861328125,-3.2250001430511475,43.087501525878906,-6.712500095367432
1781033833302491400,8.467491455078125,-4.6875,43.70625305175781,-9.131250381469727
1781033833322488000,8.487488037109374,-6.337500095367432,42.41250228881836,-11.550000190734863
1781033833342492400,8.507492431640625,-5.700000286102295,40.42500305175781,-15.093750953674316
1781033833362496500,8.52749658203125,-10.143750190734863,40.03125,-18.86250114440918
1781033833382493000,8.547492919921876,-13.18125057220459,38.08125305175781,-22.368751525878906
1781033833402497300,8.567497314453124,-16.181251525878906,34.14375305175781,-27.131250381469727
1781033833422494000,8.587493896484375,-19.125,30.187501907348633,-29.418750762939453
1781033833442490600,8.60749072265625,-19.125,29.343751907348633,-30.337501525878906
1781033833462495000,8.627494873046874,-18.9375,29.437501907348633,-31.575000762939453
1781033833482491600,8.64749169921875,-18.450000762939453,28.087501525878906,-31.725000381469727
1781033833502488300,8.66748828125,-19.856250762939453,28.462501525878906,-32.10000228881836
1781033833522492400,8.687492431640624,-22.40625,30.412500381469727,-32.08125305175781
1781033833542489000,8.707489013671875,-24.01875114440918,31.631250381469727,-31.500001907348633
1781033833562485800,8.72748583984375,-23.71875,30.76875114440918,-29.943750381469727
1781033833582489900,8.74748974609375,-25.51875114440918,31.443750381469727,-29.025001525878906
1781033833602486500,8.767486572265625,-26.625001907348633,33.35625076293945,-26.512500762939453
1781033833622491000,8.787490966796875,-26.156251907348633,35.625,-24.187501907348633
1781033833642495200,8.8074951171875,-26.006250381469727,37.10625076293945,-25.068750381469727
1781033833662492000,8.827491943359375,-25.687501907348633,36.67500305175781,-22.818750381469727
1781033833682496300,8.847496337890625,-27.000001907348633,37.85625076293945,-20.17500114440918
1781033833702493000,8.867492919921874,-27.712501525878906,40.25625228881836,-18.881250381469727
1781033833722489600,8.887489501953125,-30.618751525878906,41.04375076293945,-16.275001525878906
1781033833742493700,8.90749365234375,-33.30000305175781,40.40625,-15.05625057220459
1781033833762490400,8.927490478515624,-32.60625076293945,39.78750228881836,-15.33750057220459
1781033833782487000,8.947487060546875,-34.44375228881836,39.375,-16.200000762939453
1781033833802491400,8.967491455078125,-37.35000228881836,38.53125,-15.225000381469727
1781033833822488000,8.987488037109374,-37.3125,38.400001525878906,-14.193750381469727
1781033833842492200,9.0074921875,-35.98125076293945,38.73750305175781,-14.58750057220459
1781033833862496800,9.027496826171875,-34.98750305175781,37.25625228881836,-13.725000381469727
1781033833882500900,9.0475009765625,-35.00625228881836,37.61250305175781,-14.100000381469727
1781033833902505200,9.067505126953124,-37.14375305175781,37.44375228881836,-16.80000114440918
1781033833922486500,9.087486572265625,-37.66875076293945,35.28750228881836,-20.15625
1781033833942345700,9.107345703125,-35.64375305175781,36,-20.71875
1781033833982187300,9.147187255859375,-32.306251525878906,35.34375,-23.943750381469727
1781033834002199000,9.167198974609375,-32.36250305175781,34.03125,-26.381250381469727
1781033834022340600,9.187340576171875,-29.850000381469727,33.75,-27.056251525878906
1781033834042542600,9.20754248046875,-24.600000381469727,33.50625228881836,-26.718751907348633
1781033834062485800,9.22748583984375,-23.943750381469727,33.243751525878906,-27.58125114440918
1781033834082490000,9.247489990234374,-26.193750381469727,33.31875228881836,-26.92500114440918
1781033834102486800,9.26748681640625,-27.318750381469727,33.375,-26.493751525878906
1781033834122491100,9.2874912109375,-24.993751525878906,33.243751525878906,-25.068750381469727
1781033834142495200,9.3074951171875,-22.875,34.61250305175781,-21.825000762939453
1781033834162492000,9.327491943359375,-23.756250381469727,35.493751525878906,-20.26875114440918
1781033834182496000,9.34749609375,-24.225000381469727,36.91875076293945,-19.275001525878906
1781033834202492700,9.36749267578125,-22.856250762939453,38.53125,-17.868751525878906
1781033834222330600,9.38733056640625,-21.168750762939453,39.13125228881836,-14.475000381469727
1781033834242335000,9.4073349609375,-19.70625114440918,39.525001525878906,-11.325000762939453
1781033834262331600,9.42733154296875,-15.71250057220459,39.50625228881836,-8.25
1781033834282328300,9.447328369140624,-13.36875057220459,40.05000305175781,-5.700000286102295
1781033834302491400,9.467491455078125,-13.143750190734863,41.88750076293945,-4.050000190734863
1781033834322488000,9.487488037109374,-11.943750381469727,43.20000076293945,-1.4250000715255737
1781033834342492400,9.507492431640625,-10.74375057220459,43.53750228881836,0.6937500238418579
1781033834362496500,9.52749658203125,-7.706250190734863,42.63750076293945,2.231250047683716
1781033834382493200,9.5474931640625,-8.34375,42.13125228881836,3.2250001430511475
1781033834402497500,9.56749755859375,-10.65000057220459,41.70000076293945,1.9312500953674316
1781033834422494000,9.587493896484375,-6.093750476837158,41.625,1.6687500476837158
1781033834442498300,9.607498291015625,-5.831250190734863,43.35000228881836,4.368750095367432
1781033834462502700,9.627502685546874,-7.406250476837158,42.01875305175781,4.237500190734863
1781033834482499000,9.6474990234375,-6.937500476837158,40.59375,3.2437500953674316
1781033834502495700,9.667495849609375,-9.131250381469727,42.525001525878906,0.35625001788139343
1781033834522492400,9.687492431640624,-10.481250762939453,43.70625305175781,-4.912500381469727
1781033834542489000,9.707489013671875,-11.925000190734863,44.36250305175781,-6.712500095367432
1781033834562485800,9.72748583984375,-11.49375057220459,42.243751525878906,-9.450000762939453
1781033834582490000,9.747489990234374,-10.36875057220459,38.55000305175781,-12.768750190734863
1781033834602494200,9.767494140625,-12.112500190734863,37.81875228881836,-17.83125114440918
1781033834622498600,9.78749853515625,-16.14375114440918,37.10625076293945,-23.287500381469727
1781033834642503000,9.8075029296875,-19.106250762939453,34.70625305175781,-24.975000381469727
1781033834662499600,9.82749951171875,-17.25,30.86250114440918,-27.48750114440918
1781033834682496300,9.847496337890625,-17.700000762939453,27.20625114440918,-30.375001907348633
1781033834702492700,9.86749267578125,-19.98750114440918,25.818750381469727,-31.556251525878906
1781033834722489300,9.8874892578125,-21.76875114440918,25.312501907348633,-30.750001907348633
1781033834742379300,9.907379150390625,-24.056251525878906,26.381250381469727,-29.793750762939453
1781033834762201000,9.927201171875,-25.462501525878906,27.67500114440918,-30.67500114440918
1781033834802262800,9.9672626953125,-27.281251907348633,29.343751907348633,-29.025001525878906
1781033834822374000,9.987373779296876,-27.281251907348633,29.55000114440918,-29.006250381469727
1781033834842553000,10.007552978515625,-26.118751525878906,30.825000762939453,-26.793750762939453
1781033834862496300,10.027496337890625,-26.531251907348633,31.931251525878906,-24.993751525878906
1781033834882493000,10.047492919921876,-30.412500381469727,34.85625076293945,-22.350000381469727
1781033834902497300,10.067497314453124,-30.600000381469727,36.1875,-19.912500381469727
1781033834922494000,10.087493896484375,-29.212501525878906,36.993751525878906,-19.012500762939453
1781033834942490400,10.107490478515626,-32.60625076293945,38.36250305175781,-16.743751525878906
1781033834962495000,10.127494873046874,-34.63125228881836,39.07500076293945,-14.981250762939453
1781033834982491600,10.14749169921875,-32.775001525878906,39.54375076293945,-13.500000953674316
1781033835002488300,10.16748828125,-33.150001525878906,39.69375228881836,-11.40000057220459
1781033835022492400,10.187492431640624,-36.39375305175781,39.46875,-12.637500762939453
1781033835042489000,10.207489013671875,-37.556251525878906,38.00625228881836,-14.456250190734863
1781033835062485800,10.22748583984375,-37.743751525878906,36.86250305175781,-14.362500190734863
1781033835082490000,10.247489990234374,-39.11250305175781,37.275001525878906,-14.30625057220459
1781033835102486800,10.26748681640625,-36.41250228881836,38.17500305175781,-14.662500381469727
1781033835122491000,10.287490966796875,-35.53125,37.29375076293945,-15.99375057220459
1781033835142495200,10.3074951171875,-35.04375076293945,35.08125305175781,-17.287500381469727
1781033835162492000,10.327491943359375,-33.30000305175781,35.28750228881836,-19.575000762939453
1781033835182496300,10.347496337890625,-32.25,35.681251525878906,-22.03125
1781033835202493000,10.367492919921874,-29.981250762939453,35.38125228881836,-22.931251525878906
1781033835222330600,10.38733056640625,-29.962501525878906,33.60000228881836,-23.73750114440918
1781033835242335000,10.4073349609375,-30.20625114440918,32.36250305175781,-25.125001907348633
1781033835262331600,10.42733154296875,-29.343751907348633,32.8125,-26.55000114440918
1781033835282328300,10.447328369140624,-28.89375114440918,31.200000762939453,-27.562501907348633
1781033835302491400,10.467491455078125,-27.58125114440918,31.443750381469727,-29.418750762939453
1781033835322488000,10.487488037109374,-27.787500381469727,30.056251525878906,-29.981250762939453
1781033835342484500,10.507484375,-28.593751907348633,28.481250762939453,-28.068750381469727
1781033835362488800,10.52748876953125,-26.100000381469727,29.45625114440918,-27.356250762939453
1781033835382485500,10.547485595703124,-26.756250381469727,29.306251525878906,-26.943750381469727
1781033835402482200,10.567482177734375,-27.881250381469727,29.568750381469727,-26.08125114440918
1781033835422486500,10.587486572265625,-24.95625114440918,32.32500076293945,-24.562501907348633
1781033835442483200,10.607483154296874,-21.11250114440918,35.88750076293945,-22.537500381469727
1781033835462487600,10.627487548828125,-20.118751525878906,36.84375,-19.51875114440918
1781033835482491600,10.64749169921875,-18.65625,38.0625,-15.656250953674316
1781033835502496000,10.66749609375,-14.512500762939453,41.34375,-12
1781033835522423800,10.687423828125,-12.412500381469727,42.88125228881836,-8.737500190734863
1781033835542291500,10.70729150390625,-12.506250381469727,42.5625,-5.231250286102295
1781033835582048300,10.74704833984375,-11.831250190734863,43.48125076293945,2.5687501430511475
1781033835602121200,10.767121337890625,-7.893750190734863,43.35000228881836,4.181250095367432
1781033835622254600,10.787254638671875,-6.881250381469727,42.13125228881836,5.90625
1781033835642495200,10.8074951171875,-6.843750476837158,42,6.937500476837158
1781033835662492000,10.827491943359375,-7.762500286102295,41.625,6.900000095367432
1781033835682496300,10.847496337890625,-8.887500762939453,40.85625076293945,6.618750095367432
1781033835702493000,10.867492919921874,-10.331250190734863,42.337501525878906,5.550000190734863
1781033835722489600,10.887489501953125,-11.512500762939453,43.89375305175781,5.737500190734863
1781033835742494000,10.907493896484375,-8.325000762939453,42.41250228881836,4.293750286102295
1781033835762490600,10.92749072265625,-7.987500190734863,42.54375076293945,0.75
1781033835782487300,10.9474873046875,-9.881250381469727,43.42500305175781,-0.581250011920929
1781033835802491400,10.967491455078125,-11.081250190734863,41.26875305175781,-4.143750190734863
1781033835822487800,10.98748779296875,-10.78125,41.70000076293945,-8.887500762939453
1781033835842492200,11.0074921875,-9.99375057220459,41.83125305175781,-12.412500381469727
1781033835862496500,11.02749658203125,-10.481250762939453,39.48750305175781,-15.581250190734863
1781033835882493200,11.0474931640625,-12.168750762939453,37.5,-19.743751525878906
1781033835902497300,11.067497314453124,-14.531250953674316,34.66875076293945,-24.806251525878906
1781033835922494000,11.087493896484375,-14.362500190734863,31.087501525878906,-29.36250114440918
1781033835942490600,11.10749072265625,-13.893750190734863,29.006250381469727,-31.256250381469727
1781033835962495000,11.127494873046874,-15.937500953674316,28.462501525878906,-31.312501907348633
1781033835982491600,11.14749169921875,-14.831250190734863,26.55000114440918,-33.806251525878906
1781033836002488300,11.16748828125,-16.875,24.731250762939453,-35.4375
1781033836022492400,11.187492431640624,-20.08125114440918,24.76875114440918,-35.41875076293945
1781033836042489000,11.207489013671875,-19.6875,26.662500381469727,-35.625
1781033836062485800,11.22748583984375,-20.17500114440918,29.45625114440918,-34.275001525878906
1781033836082490000,11.247489990234374,-23.36250114440918,31.387500762939453,-32.15625
1781033836102487000,11.267487060546875,-24.918750762939453,33.09375,-29.868751525878906
1781033836122491100,11.2874912109375,-24.86250114440918,33.65625,-27.318750381469727
1781033836142495700,11.307495849609374,-24.168750762939453,35.51250076293945,-25.462501525878906
1781033836162492200,11.3274921875,-23.493751525878906,37.931251525878906,-23.756250381469727
1781033836182496500,11.34749658203125,-25.912500381469727,39.150001525878906,-20.475000381469727
1781033836202493000,11.367492919921874,-28.33125114440918,39.806251525878906,-17.25
1781033836222331000,11.387330810546874,-28.05000114440918,41.13750076293945,-14.40000057220459
1781033836242335000,11.4073349609375,-28.256250381469727,43.837501525878906,-11.606250762939453
1781033836262331600,11.42733154296875,-32.15625,44.10000228881836,-11.550000190734863
1781033836282336000,11.4473359375,-35.53125,43.23750305175781,-10.78125
1781033836302499000,11.4674990234375,-34.57500076293945,42.86250305175781,-10.200000762939453
1781033836322427000,11.487427001953124,-35.0625,41.36250305175781,-12.656250953674316
1781033836342294300,11.507294189453125,-34.650001525878906,40.650001525878906,-14.40000057220459
1781033836381815000,11.54681494140625,-34.44375228881836,40.61250305175781,-15.018750190734863
1781033836401888000,11.566887939453125,-32.41875076293945,39.50625228881836,-16.631250381469727
1781033836422021400,11.587021484375,-29.906251907348633,38.04375076293945,-18.056251525878906
1781033836442254300,11.60725439453125,-30.468751907348633,38.00625228881836,-21.375
1781033836462495000,11.627494873046874,-30.58125114440918,37.14375305175781,-25.23750114440918
1781033836482491600,11.64749169921875,-31.05000114440918,36.09375,-26.793750762939453
1781033836502488000,11.667488037109376,-30.58125114440918,35.70000076293945,-26.83125114440918
1781033836522492400,11.687492431640624,-30.187501907348633,34.743751525878906,-29.231250762939453
1781033836542489000,11.707489013671875,-26.55000114440918,33.63750076293945,-30.637500762939453
1781033836562485500,11.727485595703126,-24.01875114440918,31.443750381469727,-31.312501907348633
1781033836582489900,11.74748974609375,-23.325000762939453,31.05000114440918,-31.368751525878906
1781033836602486500,11.767486572265625,-19.631250381469727,30.262500762939453,-31.068750381469727
1781033836622491000,11.787490966796875,-20.287500381469727,30.131250381469727,-30.243751525878906
1781033836642495000,11.807494873046876,-23.193750381469727,30.525001525878906,-27.881250381469727
1781033836662492000,11.827491943359375,-22.05000114440918,30.918750762939453,-27.656251907348633
1781033836682496000,11.84749609375,-20.700000762939453,32.28750228881836,-26.887500762939453
1781033836702492700,11.86749267578125,-22.012500762939453,33.65625,-24.225000381469727
1781033836722489300,11.8874892578125,-23.118751525878906,36.20625305175781,-20.8125
1781033836742493700,11.90749365234375,-20.0625,38.212501525878906,-16.462501525878906
1781033836762490400,11.927490478515624,-17.0625,39.07500076293945,-14.531250953674316
1781033836782486800,11.94748681640625,-16.106250762939453,39.76875305175781,-12.787500381469727
1781033836802491100,11.9674912109375,-14.906250953674316,41.28750228881836,-9.918750762939453
1781033836822487800,11.98748779296875,-13.687500953674316,42.09375,-6.731250286102295
1781033836842492200,12.0074921875,-12.90000057220459,42.50625228881836,-3.356250047683716
1781033836862496300,12.027496337890625,-10.800000190734863,43.38750076293945,-1.40625
1781033836882493200,12.0474931640625,-6.937500476837158,44.13750076293945,-0.956250011920929
1781033836902497300,12.067497314453124,-7.631250381469727,44.94375228881836,-0.4312500059604645
1781033836922494200,12.087494140625,-7.818750381469727,44.83125305175781,0.6000000238418579
1781033836942490600,12.10749072265625,-7.800000190734863,42.618751525878906,-0.6937500238418579
1781033836962494700,12.12749462890625,-12.393750190734863,41.625,-2.2125000953674316
1781033836982491400,12.147491455078125,-13.612500190734863,42.65625,-4.181250095367432
1781033837002488000,12.167488037109376,-11.90625,42.76875305175781,-7.500000476837158
1781033837022492400,12.187492431640624,-11.943750381469727,41.88750076293945,-9.262500762939453
1781033837042489000,12.207489013671875,-13.143750190734863,40.3125,-12.768750190734863
1781033837062485800,12.22748583984375,-12.581250190734863,38.400001525878906,-17.981250762939453
1781033837082489900,12.24748974609375,-13.125000953674316,37.59375,-21.168750762939453
1781033837102486500,12.267486572265625,-15.206250190734863,35.10000228881836,-24.131250381469727
1781033837122430000,12.287429931640625,-13.856250762939453,31.350000381469727,-28.087501525878906
1781033837142296800,12.307296875,-16.40625,29.26875114440918,-30.787500381469727
1781033837182122800,12.347122802734376,-18.037500381469727,26.156251907348633,-34.44375228881836
1781033837202180600,12.3671806640625,-18.30000114440918,26.868751525878906,-35.19375228881836
1781033837222155800,12.38715576171875,-16.912500381469727,26.100000381469727,-35.08125305175781
1781033837242396000,12.40739599609375,-16.23750114440918,25.218751907348633,-36.431251525878906
1781033837262331400,12.427331298828125,-16.05000114440918,25.762500762939453,-36.993751525878906
1781033837282328000,12.447328125,-19.012500762939453,26.812501907348633,-36.243751525878906
1781033837302491100,12.4674912109375,-21.037500381469727,28.162500381469727,-33.78750228881836
1781033837322487800,12.48748779296875,-19.875,30.225000381469727,-31.70625114440918
1781033837342492000,12.507491943359375,-22.162500381469727,32.90625,-29.306251525878906
1781033837362496300,12.527496337890625,-23.962501525878906,35.025001525878906,-26.756250381469727
1781033837382493000,12.547492919921876,-23.8125,37.72500228881836,-26.887500762939453
1781033837402497300,12.567497314453124,-23.381250381469727,38.88750076293945,-26.343751907348633
1781033837422494000,12.587493896484375,-23.73750114440918,39.525001525878906,-22.950000762939453
1781033837442490600,12.60749072265625,-25.23750114440918,42.618751525878906,-17.606250762939453
1781033837462495000,12.627494873046874,-27.000001907348633,45.20625305175781,-13.968750953674316
1781033837482491600,12.64749169921875,-27.95625114440918,47.56875228881836,-13.293750762939453
1781033837502488300,12.66748828125,-28.856250762939453,47.8125,-12.637500762939453
1781033837522492400,12.687492431640624,-28.98750114440918,45.993751525878906,-11.15625
1781033837542489000,12.707489013671875,-28.650001525878906,45.84375,-7.856250286102295
1781033837562485500,12.727485595703126,-29.531251907348633,46.16250228881836,-6.356250286102295
1781033837582489900,12.74748974609375,-31.443750381469727,45.150001525878906,-9.99375057220459
1781033837602486500,12.767486572265625,-34.650001525878906,43.10625076293945,-12.468750953674316
1781033837622491000,12.787490966796875,-37.57500076293945,39.5625,-14.062500953674316
1781033837642495200,12.8074951171875,-36.50625228881836,37.14375305175781,-18.30000114440918
1781033837662492000,12.827491943359375,-34.53750228881836,37.51875305175781,-20.775001525878906
1781033837682496300,12.847496337890625,-32.306251525878906,36.60000228881836,-22.556251525878906
1781033837702492700,12.86749267578125,-30.993751525878906,34.80000305175781,-25.89375114440918
1781033837722489300,12.8874892578125,-28.33125114440918,33.97500228881836,-28.912500381469727
1781033837742493700,12.90749365234375,-25.856250762939453,34.03125,-30.39375114440918
1781033837762490400,12.927490478515624,-24.95625114440918,32.212501525878906,-31.650001525878906
1781033837782487000,12.947487060546875,-22.21875,29.943750381469727,-33.375
1781033837802491100,12.9674912109375,-19.78125,30.337501525878906,-35.4375
1781033837822487800,12.98748779296875,-17.943750381469727,30.11250114440918,-35.47500228881836
1781033837842492200,13.0074921875,-17.887500762939453,29.025001525878906,-34.556251525878906
1781033837862496500,13.02749658203125,-18.318750381469727,28.087501525878906,-34.44375228881836
1781033837882493000,13.047492919921876,-17.775001525878906,27.881250381469727,-31.762500762939453
1781033837902497300,13.067497314453124,-17.26875114440918,28.162500381469727,-30.281251907348633
1781033837922410000,13.087409912109376,-19.33125114440918,30.618751525878906,-28.537500381469727
1781033837942262300,13.10726220703125,-21.150001525878906,33.5625,-25.500001907348633
1781033837982027500,13.147027587890625,-13.050000190734863,37.96875,-18.637500762939453
1781033838002108200,13.167108154296875,-13.912500381469727,40.35000228881836,-15.037500381469727
1781033838022256600,13.187256591796874,-14.081250190734863,41.73750305175781,-11.756250381469727
1781033838042260700,13.2072607421875,-10.762500762939453,42.35625076293945,-7.762500286102295
1781033838082261800,13.24726171875,-8.362500190734863,42.993751525878906,-3.7687501907348633
1781033838102258400,13.267258544921875,-6.300000190734863,42.69375228881836,3.262500047683716
1781033838122491000,13.287490966796875,-5.362500190734863,42.525001525878906,3.843750238418579
1781033838142495000,13.307494873046876,-2.0250000953674316,42.73125076293945,1.7625000476837158
1781033838162491600,13.32749169921875,-3.918750047683716,44.025001525878906,0.8812500238418579
1781033838182496000,13.34749609375,-4.6875,44.025001525878906,-2.0250000953674316
1781033838202492700,13.36749267578125,-6.093750476837158,43.98750305175781,-2.8500001430511475
1781033838222330600,13.38733056640625,-5.137500286102295,43.23750305175781,-2.512500047683716
1781033838242335000,13.4073349609375,-5.625,41.75625228881836,-4.556250095367432
1781033838262331600,13.42733154296875,-8.475000381469727,41.71875,-8.287500381469727
1781033838282328000,13.447328125,-10.443750381469727,42.01875305175781,-12.600000381469727
1781033838302491100,13.4674912109375,-10.03125,41.32500076293945,-13.93125057220459
1781033838322487800,13.48748779296875,-10.950000762939453,40.48125076293945,-15.262500762939453
1781033838342492200,13.5074921875,-15.581250190734863,37.95000076293945,-19.443750381469727
1781033838362496300,13.527496337890625,-16.5,34.05000305175781,-22.98750114440918
1781033838382493200,13.5474931640625,-17.231250762939453,31.500001907348633,-26.587501525878906
1781033838402497500,13.56749755859375,-19.106250762939453,30.412500381469727,-28.762500762939453
1781033838422494200,13.587494140625,-19.106250762939453,30.618751525878906,-28.537500381469727
1781033838442498300,13.607498291015625,-19.387500762939453,31.125001907348633,-29.73750114440918
1781033838462502400,13.62750244140625,-20.775001525878906,31.106250762939453,-30.131250381469727
1781033838482499000,13.6474990234375,-22.106250762939453,31.61250114440918,-28.61250114440918
1781033838502495700,13.667495849609375,-22.743751525878906,32.53125,-26.850000381469727
1781033838522492400,13.687492431640624,-20.71875,34.275001525878906,-26.043750762939453
1781033838542489000,13.707489013671875,-21.431251525878906,36.46875,-24.975000381469727
1781033838562485800,13.72748583984375,-25.556251525878906,37.5,-24.825000762939453
1781033838582489900,13.74748974609375,-26.418750762939453,37.80000305175781,-23.306251525878906
1781033838602486500,13.767486572265625,-28.368751525878906,38.26875305175781,-19.912500381469727
1781033838622490600,13.78749072265625,-30.843751907348633,39.63750076293945,-17.25
1781033838642495000,13.807494873046876,-31.293750762939453,41.70000076293945,-15.356250762939453
1781033838662491600,13.82749169921875,-33.056251525878906,41.45625305175781,-13.687500953674316
1781033838682495700,13.847495849609375,-33.41250228881836,41.08125305175781,-10.818750381469727
1781033838702492700,13.86749267578125,-34.275001525878906,42.01875305175781,-8.625
1781033838722382300,13.88738232421875,-35.400001525878906,42.07500076293945,-7.987500190734863
1781033838742211800,13.9072119140625,-35.15625,41.88750076293945,-8.006250381469727
1781033838782273800,13.947273681640626,-36.95625305175781,39.525001525878906,-9.09375
1781033838802385000,13.967385009765625,-36.60000228881836,40.53750228881836,-11.0625
1781033838822556700,13.987556640625,-35.493751525878906,40.21875,-12.562500953674316
1781033838842492200,14.0074921875,-35.26875305175781,40.59375,-12.731250762939453
1781033838862496500,14.02749658203125,-36.50625228881836,42.07500076293945,-13.800000190734863
1781033838882493200,14.0474931640625,-36.82500076293945,41.41875076293945,-17.625
1781033838902497300,14.067497314453124,-35.32500076293945,40.57500076293945,-21.262500762939453
1781033838922494000,14.087493896484375,-32.400001525878906,39.63750076293945,-23.0625
1781033838942490600,14.10749072265625,-30.562501907348633,36.76875305175781,-25.275001525878906
1781033838962495000,14.127494873046874,-31.687501907348633,36,-25.350000381469727
1781033838982491600,14.14749169921875,-29.887500762939453,35.70000076293945,-26.625001907348633
1781033839002488300,14.16748828125,-27.881250381469727,34.95000076293945,-28.61250114440918
1781033839022492400,14.187492431640624,-26.493751525878906,34.57500076293945,-28.256250381469727
1781033839042489000,14.207489013671875,-23.73750114440918,33.78750228881836,-28.14375114440918
1781033839062485800,14.22748583984375,-23.493751525878906,34.837501525878906,-26.793750762939453
1781033839082489900,14.24748974609375,-22.293750762939453,36.39375305175781,-23.512500762939453
1781033839102486500,14.267486572265625,-20.850000381469727,36.337501525878906,-21.450000762939453
1781033839122491000,14.287490966796875,-22.21875,36.97500228881836,-20.73750114440918
1781033839142495000,14.307494873046876,-22.6875,37.38750076293945,-20.475000381469727
1781033839162491600,14.32749169921875,-21,37.57500076293945,-17.568750381469727
1781033839182496000,14.34749609375,-21.525001525878906,38.55000305175781,-12.037500381469727
1781033839202492700,14.36749267578125,-19.42500114440918,39.056251525878906,-9.918750762939453
1781033839222330600,14.38733056640625,-16.350000381469727,39.82500076293945,-6.543750286102295
1781033839242334700,14.407334716796875,-15.33750057220459,40.875,-2.2687501907348633
1781033839262331400,14.427331298828125,-13.068750381469727,41.85000228881836,-1.7625000476837158
1781033839282328000,14.447328125,-11.25,42.82500076293945,-1.2750000953674316
1781033839302491100,14.4674912109375,-7.050000190734863,43.78125,2.34375
1781033839322487800,14.48748779296875,-4.443750381469727,43.556251525878906,5.006250381469727
1781033839342492200,14.5074921875,-7.443750381469727,43.556251525878906,4.40625
1781033839362496300,14.527496337890625,-4.725000381469727,44.0625,3.8062500953674316
1781033839382493000,14.547492919921876,-2.887500047683716,43.03125,3.0562500953674316
1781033839402497300,14.567497314453124,-9.05625057220459,42.11250305175781,2.606250047683716
1781033839422494000,14.587493896484375,-10.93125057220459,41.00625228881836,0.20625001192092896
1781033839442490600,14.60749072265625,-8.756250381469727,42.5625,-1.725000023841858
1781033839462494700,14.62749462890625,-6.337500095367432,43.743751525878906,-3.7125000953674316
1781033839482491600,14.64749169921875,-6.900000095367432,41.85000228881836,-8.68125057220459
1781033839502496000,14.66749609375,-8.625,41.60625076293945,-12.450000762939453
1781033839522385700,14.6873857421875,-9.61875057220459,41.4375,-15.168750762939453
1781033839542215200,14.707215087890624,-10.575000762939453,39.46875,-18.712501525878906
1781033839581972500,14.746972412109375,-13.406250953674316,33.97500228881836,-26.137500762939453
1781033839602083600,14.76708349609375,-14.568750381469727,31.293750762939453,-28.931251525878906
1781033839622255000,14.787255126953125,-16.743751525878906,30.01875114440918,-33.82500076293945
1781033839642495200,14.8074951171875,-17.90625,28.593751907348633,-35.23125076293945
1781033839662492000,14.827491943359375,-16.23750114440918,27.48750114440918,-34.3125
1781033839682496000,14.84749609375,-15.918750762939453,24.825000762939453,-33.97500228881836
1781033839702492700,14.86749267578125,-17.25,23.493751525878906,-33.91875076293945
1781033839722489300,14.8874892578125,-20.8125,25.912500381469727,-35.70000076293945
1781033839742493400,14.907493408203125,-21.825000762939453,29.36250114440918,-36.150001525878906
1781033839762490000,14.927489990234376,-19.293750762939453,32.212501525878906,-33.150001525878906
1781033839782486800,14.94748681640625,-19.5,32.71875,-31.631250381469727
1781033839802491100,14.9674912109375,-21.975000381469727,33.84375,-29.625001907348633
1781033839822487600,14.987487548828126,-23.34375,37.10625076293945,-27.168750762939453
1781033839842492000,15.007491943359375,-25.200000762939453,39.54375076293945,-25.856250762939453
1781033839862496300,15.027496337890625,-29.681251525878906,40.98750305175781,-22.3125
1781033839882493000,15.047492919921876,-32.83125305175781,43.368751525878906,-19.106250762939453
1781033839902497300,15.067497314453124,-32.0625,44.55000305175781,-15.862500190734863
1781033839922494000,15.087493896484375,-31.33125114440918,44.26875305175781,-14.250000953674316
1781033839942490400,15.107490478515626,-32.681251525878906,42.900001525878906,-15.000000953674316
1781033839962494700,15.12749462890625,-34.03125,43.16250228881836,-14.343750953674316
1781033839982491400,15.147491455078125,-35.47500228881836,43.181251525878906,-16.818750381469727
1781033840002488300,15.16748828125,-37.38750076293945,41.00625228881836,-21
1781033840022492400,15.187492431640624,-37.63125228881836,41.587501525878906,-20.92500114440918
1781033840042489000,15.207489013671875,-38.13750076293945,41.681251525878906,-22.368751525878906
1781033840062485800,15.22748583984375,-35.26875305175781,40.61250305175781,-26.043750762939453
1781033840082489900,15.24748974609375,-32.962501525878906,38.962501525878906,-27.30000114440918
1781033840102486500,15.267486572265625,-33.900001525878906,37.95000076293945,-28.23750114440918
1781033840122491000,15.287490966796875,-31.406251907348633,36.41250228881836,-30.30000114440918
1781033840142495200,15.3074951171875,-29.17500114440918,34.21875,-33.88125228881836
1781033840162492000,15.327491943359375,-28.51875114440918,33.54375076293945,-35.00625228881836
1781033840182496300,15.347496337890625,-26.437501907348633,32.75625228881836,-34.91250228881836
1781033840202492700,15.36749267578125,-26.45625114440918,31.70625114440918,-36.26250076293945
1781033840222330600,15.38733056640625,-25.05000114440918,29.92500114440918,-36.67500305175781
1781033840242335000,15.4073349609375,-22.931251525878906,28.012500762939453,-36.28125
1781033840262339300,15.42733935546875,-23.793750762939453,29.17500114440918,-33.65625
1781033840282343700,15.44734375,-23.53125,30.075000762939453,-31.687501907348633
1781033840302483700,15.467483642578125,-22.837501525878906,29.475000381469727,-31.743751525878906
1781033840322358300,15.487358154296874,-21.693750381469727,31.275001525878906,-30.731250762939453
1781033840362161400,15.527161376953124,-22.481250762939453,32.41875076293945,-25.61250114440918
1781033840382180900,15.547180908203124,-21.600000381469727,34.98750305175781,-24.30000114440918
1781033840402307300,15.567307373046875,-18.76875114440918,37.38750076293945,-19.6875
1781033840422517000,15.58751708984375,-17.08125114440918,39.01875305175781,-15.356250762939453
1781033840442490600,15.60749072265625,-15.675000190734863,40.10625076293945,-13.387500762939453
1781033840462495000,15.627494873046874,-12.43125057220459,42.82500076293945,-9.581250190734863
1781033840482491600,15.64749169921875,-9.225000381469727,44.4375,-7.762500286102295
1781033840502488300,15.66748828125,-9.375,44.83125305175781,-5.025000095367432
1781033840522492400,15.687492431640624,-8.58750057220459,43.01250076293945,-3.3375000953674316
1781033840542489000,15.707489013671875,-8.96250057220459,42,-1.5750000476837158
1781033840562485800,15.72748583984375,-9.15000057220459,41.88750076293945,-0.5437500476837158
1781033840582490000,15.747489990234374,-7.125000476837158,41.775001525878906,-1.8375000953674316
1781033840602486800,15.76748681640625,-10.08750057220459,40.98750305175781,-2.512500047683716
1781033840622491100,15.7874912109375,-13.46250057220459,39.712501525878906,-2.2125000953674316
1781033840642495200,15.8074951171875,-13.08750057220459,39.35625076293945,-4.331250190734863
1781033840662492000,15.827491943359375,-15.262500762939453,39.712501525878906,-7.800000190734863
1781033840682496300,15.847496337890625,-17.53125,39.150001525878906,-8.0625
1781033840702492700,15.86749267578125,-18.506250381469727,37.57500076293945,-11.550000190734863
1781033840722489300,15.8874892578125,-17.681251525878906,35.73750305175781,-15.71250057220459
1781033840742493700,15.90749365234375,-15.825000762939453,33.73125076293945,-16.575000762939453
1781033840762490000,15.927489990234376,-19.03125,32.962501525878906,-17.25
1781033840782486800,15.94748681640625,-22.98750114440918,31.593751907348633,-20.90625
1781033840802491100,15.9674912109375,-22.818750381469727,28.181251525878906,-25.650001525878906
1781033840822487800,15.98748779296875,-23.306251525878906,26.887500762939453,-27.86250114440918
1781033840842492200,16.0074921875,-23.606250762939453,26.55000114440918,-29.981250762939453
1781033840862496500,16.02749658203125,-21.76875114440918,24.693750381469727,-31.443750381469727
1781033840882493200,16.0474931640625,-20.662500381469727,23.381250381469727,-33.46875
1781033840902497300,16.067497314453124,-19.78125,24.11250114440918,-33.82500076293945
1781033840922494000,16.087493896484375,-21.412500381469727,24.86250114440918,-34.35000228881836
1781033840942490600,16.10749072265625,-23.26875114440918,24.843751907348633,-34.95000076293945
1781033840962494700,16.12749462890625,-22.818750381469727,26.850000381469727,-33.69375228881836
1781033840982491400,16.147491455078125,-23.775001525878906,28.387500762939453,-33.73125076293945
1781033841002495700,16.167495849609374,-23.08125114440918,29.231250762939453,-32.60625076293945
1781033841022500000,16.1875,-24.693750381469727,30.843751907348633,-31.80000114440918
1781033841042496800,16.207496826171877,-26.775001525878906,34.462501525878906,-29.92500114440918
1781033841062500900,16.2275009765625,-27.67500114440918,36.95625305175781,-27.562501907348633
1781033841082497500,16.24749755859375,-29.887500762939453,36.75,-25.275001525878906
1781033841102372000,16.2673720703125,-29.850000381469727,37.85625076293945,-23.26875114440918
1781033841142221000,16.307220947265623,-34.29375076293945,40.21875,-17.775001525878906
1781033841162217700,16.3272177734375,-36.11250305175781,40.875,-17.0625
1781033841182344200,16.34734423828125,-36.60000228881836,40.837501525878906,-17.681251525878906
1781033841202531000,16.367531005859377,-37.743751525878906,41.025001525878906,-17.868751525878906
1781033841222330600,16.38733056640625,-37.03125,39.86250305175781,-18
1781033841242335000,16.4073349609375,-37.03125,37.40625,-20.137500762939453
1781033841262331400,16.427331298828125,-35.962501525878906,37.03125,-22.481250762939453
1781033841282328000,16.447328125,-33.75,36.63750076293945,-24.843751907348633
1781033841302491100,16.4674912109375,-32.64375305175781,34.087501525878906,-28.23750114440918
1781033841322495500,16.48749560546875,-31.218751907348633,32.34375,-28.23750114440918
1781033841342499600,16.50749951171875,-31.462501525878906,33.11250305175781,-28.14375114440918
1781033841362504000,16.52750390625,-28.575000762939453,32.92500305175781,-30.281251907348633
1781033841382500600,16.54750048828125,-26.55000114440918,32.8125,-31.556251525878906
1781033841402497300,16.567497314453124,-27.01875114440918,31.98750114440918,-32.47500228881836
1781033841422494000,16.587493896484375,-25.61250114440918,30.618751525878906,-32.4375
1781033841442490600,16.60749072265625,-26.025001525878906,30.900001525878906,-31.14375114440918
1781033841462494700,16.62749462890625,-26.73750114440918,31.875001907348633,-31.23750114440918
1781033841482491400,16.647491455078125,-26.962501525878906,31.087501525878906,-31.537500381469727
1781033841502488000,16.667488037109376,-24.431251525878906,31.931251525878906,-30.000001907348633
1781033841522492400,16.687492431640624,-22.80000114440918,33.45000076293945,-27.375001907348633
1781033841542489000,16.707489013671875,-23.625,34.25625228881836,-24.150001525878906
1781033841562485500,16.727485595703126,-20.36250114440918,34.78125,-21.618751525878906
1781033841582489900,16.74748974609375,-18.731250762939453,34.650001525878906,-20.606250762939453
1781033841602486500,16.767486572265625,-19.368751525878906,38.025001525878906,-16.275001525878906
1781033841622491000,16.787490966796874,-16.33125114440918,40.80000305175781,-11.643750190734863
1781033841642495000,16.807494873046874,-13.050000190734863,40.931251525878906,-9.356250762939453
1781033841662492000,16.827491943359377,-11.287500381469727,41.08125305175781,-4.162500381469727
1781033841682496000,16.84749609375,-11.15625,40.76250076293945,-0.45000001788139343
1781033841762490000,16.927489990234374,-6.281250476837158,42.13125228881836,3.4125001430511475
1781033841782486800,16.94748681640625,-3.075000047683716,42.13125228881836,3.9937500953674316
1781033841822487800,16.98748779296875,-7.087500095367432,39.95625305175781,5.043750286102295
1781033841862465800,17.0274658203125,-8.86875057220459,41.587501525878906,0.862500011920929
1781033841882332700,17.047332763671875,-7.500000476837158,40.76250076293945,0.15000000596046448
1781033841922113000,17.087113037109376,-12.787500381469727,41.00625228881836,-8.100000381469727
1781033841941905700,17.10690576171875,-12.412500381469727,39.375,-12.037500381469727
1781033841962039600,17.12703955078125,-14.362500190734863,40.368751525878906,-14.831250190734863
1781033841982257000,17.1472568359375,-19.668750762939453,38.26875305175781,-18.337501525878906
1781033842002253600,17.167253662109374,-21.243751525878906,32.625,-22.256250381469727
1781033842022492400,17.187492431640624,-19.912500381469727,30.056251525878906,-25.89375114440918
1781033842042489300,17.2074892578125,-18.86250114440918,29.606250762939453,-29.287500381469727
1781033842062485800,17.22748583984375,-18.712501525878906,28.406251907348633,-32.53125
1781033842082490000,17.247489990234374,-19.59375,26.45625114440918,-33.35625076293945
1781033842102486800,17.26748681640625,-20.962501525878906,26.681251525878906,-32.90625
1781033842122491000,17.287490966796874,-24.431251525878906,26.812501907348633,-34.53750228881836
1781033842142495200,17.3074951171875,-25.350000381469727,25.368751525878906,-35.92500305175781
1781033842162492000,17.327491943359377,-24.39375114440918,25.087501525878906,-34.5
1781033842182496000,17.34749609375,-24.356250762939453,26.193750381469727,-32.306251525878906
1781033842202492700,17.36749267578125,-25.068750381469727,27.95625114440918,-32.10000228881836
1781033842222330600,17.38733056640625,-28.23750114440918,28.875001907348633,-30.525001525878906
1781033842242335000,17.4073349609375,-29.568750381469727,31.218751907348633,-27.543750762939453
1781033842262331400,17.427331298828125,-30.281251907348633,33.22500228881836,-26.287500381469727
1781033842282328000,17.447328125,-30.48750114440918,34.5,-24.67500114440918
1781033842302491100,17.4674912109375,-31.80000114440918,35.45625305175781,-22.275001525878906
1781033842322487800,17.48748779296875,-34.29375076293945,37.181251525878906,-19.98750114440918
1781033842342484500,17.507484375,-33.618751525878906,39.20625305175781,-18.525001525878906
1781033842362488800,17.52748876953125,-32.4375,39.243751525878906,-17.700000762939453
1781033842382485200,17.5474853515625,-32.47500228881836,39.5625,-18.48750114440918
1781033842402489600,17.567489501953126,-33.60000228881836,39.41250228881836,-18.28125
1781033842422494000,17.587493896484375,-34.33125305175781,40.16250228881836,-18.618751525878906
1781033842442490600,17.60749072265625,-34.59375,40.05000305175781,-20.287500381469727
1781033842462494700,17.62749462890625,-33.900001525878906,39.243751525878906,-20.587501525878906
1781033842482491400,17.647491455078125,-34.59375,39.22500228881836,-21
1781033842502488000,17.667488037109376,-35.26875305175781,38.26875305175781,-21.09375
1781033842522492200,17.6874921875,-32.79375076293945,37.29375076293945,-23.512500762939453
1781033842542488800,17.70748876953125,-31.500001907348633,37.33125305175781,-25.61250114440918
1781033842562485500,17.727485595703126,-29.850000381469727,36.20625305175781,-24.918750762939453
1781033842582489900,17.74748974609375,-27.750001907348633,33.41250228881836,-25.856250762939453
1781033842602494200,17.767494140625,-28.950000762939453,32.493751525878906,-28.462501525878906
1781033842622498600,17.78749853515625,-28.762500762939453,32.98125076293945,-29.437501907348633
1781033842642434300,17.807434326171876,-26.062501907348633,33.48750305175781,-30.037500381469727
1781033842662302000,17.827302001953125,-26.700000762939453,32.79375076293945,-29.062501907348633
1781033842702058800,17.867058837890625,-24.637500762939453,29.775001525878906,-30.656251907348633
1781033842722123800,17.887123779296875,-24.693750381469727,31.256250381469727,-31.33125114440918
1781033842742257200,17.907257080078125,-21.450000762939453,31.931251525878906,-29.418750762939453
1781033842762490000,17.927489990234374,-20.475000381469727,32.08125305175781,-27.318750381469727
1781033842782486800,17.94748681640625,-19.725000381469727,31.387500762939453,-25.950000762939453
1781033842802491100,17.9674912109375,-19.462501525878906,33.30000305175781,-23.45625114440918
1781033842822487800,17.98748779296875,-19.275001525878906,37.72500228881836,-20.475000381469727
1781033842842492200,18.0074921875,-16.462501525878906,36.82500076293945,-19.14375114440918
1781033842862496300,18.027496337890625,-14.550000190734863,35.73750305175781,-17.83125114440918
1781033842882493000,18.047492919921876,-12.71250057220459,39.45000076293945,-13.893750190734863
1781033842902497300,18.067497314453124,-12.862500190734863,42.69375228881836,-8.756250381469727
1781033842922494000,18.087493896484375,-11.606250762939453,43.125,-5.175000190734863
1781033842942490400,18.107490478515626,-9.71250057220459,41.64375305175781,-3.9000000953674316
1781033842962494700,18.12749462890625,-8.30625057220459,41.306251525878906,-3.1125001907348633
1781033842982491400,18.147491455078125,-9.43125057220459,42.82500076293945,-1.068750023841858
1781033843002488000,18.167488037109376,-12.562500953674316,42.337501525878906,-0.26250001788139343
1781033843022492400,18.187492431640624,-12.300000190734863,41.60625076293945,0.28125
1781033843042489000,18.207489013671875,-13.668750762939453,41.23125076293945,0.26250001788139343
1781033843062485800,18.22748583984375,-14.100000381469727,39.84375,-0.5250000357627869
1781033843082489900,18.24748974609375,-13.031250953674316,40.29375076293945,-2.137500047683716
1781033843102486500,18.267486572265625,-13.612500190734863,41.23125076293945,-5.15625
1781033843122491000,18.287490966796874,-13.443750381469727,40.06875228881836,-7.987500190734863
1781033843142495200,18.3074951171875,-11.231250762939453,39.48750305175781,-10.36875057220459
1781033843162492000,18.327491943359377,-13.18125057220459,40.01250076293945,-14.043750762939453
1781033843182496000,18.34749609375,-17.868751525878906,38.775001525878906,-18.918750762939453
1781033843202492700,18.36749267578125,-18.09375,34.91250228881836,-21.825000762939453
1781033843222330600,18.38733056640625,-17.90625,31.575000762939453,-25.743751525878906
1781033843242327300,18.407327392578125,-17.25,29.850000381469727,-28.218751907348633
1781033843262323700,18.42732373046875,-19.931251525878906,27.95625114440918,-28.406251907348633
1781033843282320600,18.447320556640626,-21.131250381469727,26.437501907348633,-31.05000114440918
1781033843302483700,18.467483642578124,-20.53125,25.631250381469727,-34.275001525878906
1781033843322487800,18.48748779296875,-21.20625114440918,24.825000762939453,-34.78125
1781033843342484500,18.507484375,-20.943750381469727,24.075000762939453,-34.650001525878906
1781033843362488800,18.52748876953125,-22.556251525878906,24.67500114440918,-34.57500076293945
1781033843382493000,18.547492919921876,-24.618751525878906,25.106250762939453,-34.29375076293945
1781033843402466800,18.567466796875,-24.450000762939453,27.806251525878906,-33.993751525878906
1781033843422341400,18.58734130859375,-24.225000381469727,29.64375114440918,-32.55000305175781
1781033843462114000,18.627114013671875,-24.900001525878906,30.506250381469727,-31.200000762939453
1781033843482141200,18.64714111328125,-25.068750381469727,32.25,-28.312501907348633
1781033843502267600,18.667267578125,-26.606250762939453,34.81875228881836,-24.881250381469727
1781033843522492400,18.687492431640624,-28.218751907348633,36.67500305175781,-23.418750762939453
1781033843542489000,18.707489013671875,-31.14375114440918,38.23125076293945,-20.943750381469727
1781033843562485800,18.72748583984375,-32.94375228881836,39.13125228881836,-19.368751525878906
1781033843582489900,18.74748974609375,-33.337501525878906,39.26250076293945,-17.475000381469727
1781033843602486500,18.767486572265625,-34.23750305175781,39.13125228881836,-16.856250762939453
1781033843622491000,18.787490966796874,-33.76875305175781,39.16875076293945,-16.443750381469727
1781033843642495000,18.807494873046874,-34.875,38.4375,-15.881250381469727
1781033843662491600,18.82749169921875,-38.025001525878906,37.76250076293945,-15.300000190734863
1781033843682496000,18.84749609375,-38.26875305175781,37.72500228881836,-15.731250762939453
1781033843702492700,18.86749267578125,-36.712501525878906,36.76875305175781,-18.131250381469727
1781033843722489300,18.8874892578125,-37.6875,35.45625305175781,-20.55000114440918
1781033843742493700,18.90749365234375,-36.97500228881836,33.84375,-21.5625
1781033843762490400,18.927490478515626,-33.84375,33.65625,-23.493751525878906
1781033843782487000,18.947487060546877,-34.63125228881836,35.493751525878906,-24.95625114440918
1781033843802491100,18.9674912109375,-33.46875,34.29375076293945,-25.51875114440918
1781033843822487800,18.98748779296875,-30.543750762939453,33.31875228881836,-27.731250762939453
1781033843842492200,19.0074921875,-29.17500114440918,33.11250305175781,-27.76875114440918
1781033843862496300,19.027496337890625,-27.11250114440918,32.493751525878906,-28.05000114440918
1781033843882493000,19.047492919921876,-26.006250381469727,31.368751525878906,-30.056251525878906
1781033843902497300,19.067497314453124,-24.918750762939453,30.450000762939453,-32.04375076293945
1781033843922494000,19.087493896484375,-24.918750762939453,30.67500114440918,-31.593751907348633
1781033843942490600,19.10749072265625,-23.006250381469727,30.01875114440918,-29.606250762939453
1781033843962494700,19.12749462890625,-22.275001525878906,30.900001525878906,-27.86250114440918
1781033843982491400,19.147491455078125,-23.92500114440918,32.04375076293945,-28.33125114440918
1781033844002488000,19.167488037109376,-22.368751525878906,33.13125228881836,-28.856250762939453
1781033844022492400,19.187492431640624,-22.368751525878906,33.13125228881836,-28.856250762939453
1781033844042488800,19.20748876953125,-22.368751525878906,33.13125228881836,-28.856250762939453
1781033844062485500,19.227485595703126,-21.243751525878906,36.88125228881836,-19.106250762939453
1781033844082489900,19.24748974609375,-20.92500114440918,37.72500228881836,-15.468750953674316
1781033844102486500,19.267486572265625,-18.506250381469727,38.19375228881836,-11.0625
1781033844122490600,19.28749072265625,-16.837501525878906,40.98750305175781,-6.412500381469727
1781033844142495000,19.307494873046874,-15.862500190734863,43.16250228881836,-2.6437501907348633
1781033844162499300,19.327499267578126,-11.512500762939453,43.95000076293945,-1.5562500953674316
1781033844182435000,19.34743505859375,-7.087500095367432,43.70625305175781,1.0875000953674316
1781033844202302700,19.367302734375,-3.937500238418579,41.83125305175781,5.231250286102295
1781033844242059500,19.4070595703125,-3.9000000953674316,41.70000076293945,6.037500381469727
1781033844262124800,19.427124755859374,-8.02500057220459,41.56875228881836,5.850000381469727
1781033844282250500,19.44725048828125,-8.700000762939453,40.95000076293945,5.381250381469727
1781033844302491100,19.4674912109375,-8.925000190734863,41.56875228881836,5.868750095367432
1781033844322487800,19.48748779296875,-10.350000381469727,42.26250076293945,4.706250190734863
1781033844342492000,19.507491943359376,-10.612500190734863,41.98125076293945,3.2250001430511475
1781033844362496300,19.527496337890625,-10.93125057220459,41.8125,0.9187500476837158
1781033844382493000,19.547492919921876,-12.187500953674316,42.97500228881836,-2.0812501907348633
1781033844402497300,19.567497314453124,-11.643750190734863,41.83125305175781,-7.200000286102295
1781033844422494000,19.587493896484375,-8.8125,40.66875076293945,-12.131250381469727
1781033844442490600,19.60749072265625,-10.256250381469727,40.10625076293945,-15.093750953674316
1781033844462494700,19.62749462890625,-11.268750190734863,36.806251525878906,-21.075000762939453
1781033844482491400,19.647491455078125,-13.83750057220459,33.88125228881836,-25.106250762939453
1781033844502488000,19.667488037109376,-17.887500762939453,31.162500381469727,-26.006250381469727
1781033844522492400,19.687492431640624,-18.39375114440918,28.23750114440918,-29.64375114440918
1781033844542489000,19.707489013671875,-20.53125,26.418750762939453,-33.97500228881836
1781033844562485800,19.72748583984375,-21.1875,25.89375114440918,-33.1875
1781033844582489900,19.74748974609375,-22.5,24.993751525878906,-32.66250228881836
1781033844602486500,19.767486572265625,-24.825000762939453,24.356250762939453,-34.16250228881836
1781033844622491000,19.787490966796874,-25.293750762939453,23.493751525878906,-35.493751525878906
1781033844642495000,19.807494873046874,-23.025001525878906,24.86250114440918,-34.53750228881836
1781033844662491600,19.82749169921875,-23.287500381469727,28.275001525878906,-32.70000076293945
1781033844682496000,19.84749609375,-24.881250381469727,29.531251907348633,-31.51875114440918
1781033844702492700,19.86749267578125,-25.725000381469727,30.67500114440918,-28.89375114440918
1781033844722489300,19.8874892578125,-26.64375114440918,32.08125305175781,-28.312501907348633
1781033844742493400,19.907493408203123,-26.250001907348633,33.806251525878906,-28.33125114440918
1781033844762490000,19.927489990234374,-27.86250114440918,37.25625228881836,-25.856250762939453
1781033844782486800,19.94748681640625,-29.437501907348633,38.73750305175781,-24.225000381469727
1781033844802491100,19.9674912109375,-30.58125114440918,39.97500228881836,-23.25
1781033844822487800,19.98748779296875,-29.906251907348633,42,-21.58125114440918
1781033844842484500,20.007484375,-29.17500114440918,42.31875228881836,-19.668750762939453
1781033844862488800,20.02748876953125,-32.08125305175781,41.868751525878906,-18.65625
1781033844882485200,20.0474853515625,-33.41250228881836,40.743751525878906,-18.356250762939453
1781033844902489600,20.067489501953126,-31.818750381469727,40.125,-18.84375
1781033844922494000,20.087493896484375,-34.05000305175781,39.618751525878906,-18.056251525878906
1781033844942498000,20.107498046875,-35.64375305175781,39.26250076293945,-17.868751525878906
1781033844962403000,20.127403076171873,-34.76250076293945,38.38125228881836,-19.650001525878906
1781033844982240300,20.147240234375,-33.60000228881836,37.57500076293945,-19.743751525878906
1781033845002305500,20.167305419921874,-34.51875305175781,37.38750076293945,-19.96875
1781033845022302000,20.187302001953125,-34.51875305175781,35.34375,-21.637500762939453
1781033845042398000,20.20739794921875,-33.375,33.65625,-23.493751525878906
1781033845062554000,20.22755419921875,-30.450000762939453,33.525001525878906,-24.787500381469727
1781033845082489900,20.24748974609375,-28.70625114440918,33.525001525878906,-27.30000114440918
1781033845102486300,20.267486328125,-30.562501907348633,33.09375,-28.368751525878906
1781033845122490600,20.28749072265625,-29.137500762939453,31.14375114440918,-28.387500762939453
1781033845142495000,20.307494873046874,-26.625001907348633,30.30000114440918,-29.137500762939453
1781033845162491600,20.32749169921875,-26.662500381469727,29.812501907348633,-30.431251525878906
1781033845182496000,20.34749609375,-27.825000762939453,29.793750762939453,-31.05000114440918
1781033845202492400,20.367492431640624,-24.67500114440918,31.125001907348633,-30.731250762939453
1781033845222330400,20.387330322265626,-23.493751525878906,31.181251525878906,-29.681251525878906
1781033845242334700,20.407334716796875,-25.51875114440918,31.443750381469727,-28.80000114440918
1781033845262331400,20.427331298828125,-23.400001525878906,31.200000762939453,-26.568750381469727
1781033845282328000,20.447328125,-22.837501525878906,32.212501525878906,-22.912500381469727
1781033845302491100,20.4674912109375,-23.756250381469727,34.3125,-20.8125
1781033845322495500,20.48749560546875,-19.78125,36.056251525878906,-16.912500381469727
1781033845342499800,20.507499755859374,-16.78125,38.38125228881836,-13.55625057220459
1781033845362504000,20.52750390625,-16.743751525878906,41.71875,-9.65625
1781033845382500600,20.54750048828125,-14.21250057220459,43.16250228881836,-7.856250286102295
1781033845402497300,20.567497314453124,-12.15000057220459,42.9375,-7.893750190734863
1781033845422494000,20.587493896484375,-11.381250381469727,42.9375,-4.987500190734863
1781033845442498000,20.607498046875,-6.075000286102295,44.23125076293945,-2.1937501430511475
1781033845462502400,20.62750244140625,-2.325000047683716,44.17500305175781,0.4687500298023224
1781033845482499000,20.6474990234375,-2.25,41.51250076293945,0.8062500357627869
1781033845502495700,20.667495849609374,-2.7750000953674316,41.36250305175781,-1.2937500476837158
1781033845522492400,20.687492431640624,-2.8125,42.07500076293945,-2.043750047683716
1781033845542489000,20.707489013671875,-3.9937500953674316,43.01250076293945,-2.5500001907348633
1781033845562485800,20.72748583984375,-5.587500095367432,43.6875,-1.631250023841858
1781033845582489900,20.74748974609375,-6.262500286102295,42.26250076293945,-2.8312501907348633
1781033845602486500,20.767486572265625,-6.356250286102295,42.03750228881836,-5.962500095367432
1781033845622491000,20.787490966796874,-8.043750762939453,42.28125,-8.4375
1781033845642495000,20.807494873046874,-9.300000190734863,41.85000228881836,-12
1781033845662491600,20.82749169921875,-9.356250762939453,39.86250305175781,-15.543750762939453
1781033845682496000,20.84749609375,-11.231250762939453,36.46875,-20.475000381469727
1781033845702492700,20.86749267578125,-14.006250381469727,34.181251525878906,-23.418750762939453
1781033845722496800,20.887496826171876,-14.925000190734863,31.968751907348633,-25.106250762939453
1781033845742401800,20.90740185546875,-14.287500381469727,30.000001907348633,-28.23750114440918
1781033845762239000,20.927239013671876,-17.212501525878906,26.475000381469727,-29.83125114440918
1781033845802301000,20.967301025390626,-21.84375,25.762500762939453,-32.587501525878906
1781033845822396700,20.987396728515623,-21.84375,24.937501907348633,-33.50625228881836
1781033845842317000,21.007317138671876,-19.162500381469727,24.975000381469727,-34.96875
1781033845862252800,21.027252685546873,-19.40625,25.350000381469727,-35.13750076293945
1781033845882249200,21.047249267578124,-20.71875,24.48750114440918,-34.181251525878906
1781033845902253600,21.067253662109376,-20.71875,25.293750762939453,-33.46875
1781033845922493700,21.08749365234375,-23.662500381469727,27.618751525878906,-31.106250762939453
1781033845942490400,21.107490478515626,-25.293750762939453,29.418750762939453,-30.48750114440918
1781033845962494700,21.12749462890625,-22.537500381469727,30.037500381469727,-29.400001525878906
1781033845982491400,21.147491455078125,-22.5,32.15625,-26.475000381469727
1781033846002488000,21.167488037109376,-25.725000381469727,33.95625305175781,-26.025001525878906
1781033846022492200,21.1874921875,-27.506250381469727,34.89375305175781,-24.037500381469727
1781033846042488800,21.20748876953125,-27.262500762939453,37.80000305175781,-21.01875114440918
1781033846062485500,21.227485595703126,-28.200000762939453,39.150001525878906,-20.868751525878906
1781033846082489900,21.24748974609375,-27.975000381469727,40.59375,-19.462501525878906
1781033846102486500,21.267486572265625,-26.08125114440918,42.95625305175781,-15.675000190734863
1781033846122490600,21.28749072265625,-28.068750381469727,43.76250076293945,-12.656250953674316
1781033846142495000,21.307494873046874,-33.30000305175781,44.08125305175781,-11.96250057220459
1781033846162491600,21.32749169921875,-35.26875305175781,42.22500228881836,-11.30625057220459
1781033846182496000,21.34749609375,-35.41875076293945,39.993751525878906,-10.518750190734863
1781033846202492700,21.36749267578125,-36.97500228881836,39.46875,-9.918750762939453
1781033846222330600,21.38733056640625,-34.96875,39.73125076293945,-11.15625
1781033846242335000,21.4073349609375,-35.25,38.212501525878906,-13.83750057220459
1781033846262331400,21.427331298828125,-38.90625,37.85625076293945,-14.02500057220459
1781033846282328300,21.447328369140624,-37.76250076293945,37.63125228881836,-14.49375057220459
1781033846302491100,21.4674912109375,-34.63125228881836,37.40625,-16.837501525878906
1781033846322487800,21.48748779296875,-33.431251525878906,38.868751525878906,-20.4375
1781033846342492400,21.507492431640625,-31.218751907348633,39.09375,-22.293750762939453
1781033846362496800,21.527496826171873,-29.17500114440918,37.21875,-23.981250762939453
1781033846382493400,21.547493408203124,-28.725000381469727,36.13125228881836,-25.762500762939453
1781033846402497500,21.56749755859375,-24.900001525878906,36.01875305175781,-26.64375114440918
1781033846422494000,21.587493896484375,-22.106250762939453,34.85625076293945,-26.17500114440918
1781033846442490600,21.60749072265625,-25.481250762939453,34.80000305175781,-24.900001525878906
1781033846462494700,21.62749462890625,-26.418750762939453,35.36250305175781,-25.256250381469727
1781033846482499000,21.6474990234375,-22.087501525878906,34.5,-25.80000114440918
1781033846502503400,21.66750341796875,-18.1875,33.07500076293945,-26.193750381469727
1781033846522477000,21.68747705078125,-19.575000762939453,35.51250076293945,-24.67500114440918
1781033846542351600,21.7073515625,-22.05000114440918,36.22500228881836,-23.325000762939453
1781033846582162400,21.747162353515623,-22.125,37.80000305175781,-17.325000762939453
1781033846602189600,21.767189453125,-18.20625114440918,38.45625305175781,-15.412500381469727
1781033846622316000,21.78731591796875,-12,40.125,-12.375000953674316
1781033846642525700,21.807525634765625,-10.256250381469727,40.837501525878906,-7.537500381469727
1781033846662491600,21.82749169921875,-10.631250381469727,41.83125305175781,-4.293750286102295
1781033846682496000,21.84749609375,-10.125,43.16250228881836,-1.6500000953674316
1781033846702492400,21.867492431640624,-10.74375057220459,43.51875305175781,0.4687500298023224
1781033846722489000,21.887489013671875,-9.33750057220459,43.20000076293945,1.6875001192092896
1781033846742493200,21.9074931640625,-8.137500762939453,42.48750305175781,2.8312501907348633
1781033846762490000,21.927489990234374,-6.731250286102295,42.375,4.050000190734863
1781033846782486800,21.94748681640625,-4.856250286102295,42.63750076293945,5.53125
1781033846802491100,21.9674912109375,-3.262500047683716,42.431251525878906,5.493750095367432
1781033846822487800,21.98748779296875,-3.543750047683716,42.28125,3.3937501907348633
1781033846842492000,22.007491943359376,-7.687500476837158,43.06875228881836,2.887500047683716
1781033846862496300,22.027496337890625,-6.112500190734863,43.01250076293945,2.25
1781033846882493000,22.047492919921876,-3.2437500953674316,42.54375076293945,-0.956250011920929
1781033846902497300,22.067497314453124,-8.850000381469727,42.95625305175781,-4.387500286102295
1781033846922494000,22.087493896484375,-10.950000762939453,42.63750076293945,-6.487500190734863
1781033846942490400,22.107490478515626,-8.756250381469727,42.243751525878906,-9.05625057220459
1781033846962494700,22.12749462890625,-12.937500953674316,40.275001525878906,-13.18125057220459
1781033846982491600,22.14749169921875,-15.543750762939453,37.44375228881836,-18.46875
1781033847002488300,22.16748828125,-14.718750953674316,36.375,-22.33125114440918
1781033847022492400,22.187492431640624,-18.131250381469727,34.42500305175781,-23.55000114440918
1781033847042489000,22.207489013671875,-20.868751525878906,32.4375,-24.993751525878906
1781033847062485500,22.227485595703126,-20.943750381469727,30.618751525878906,-28.950000762939453
1781033847082489900,22.24748974609375,-21.618751525878906,27.993751525878906,-30.881250381469727
1781033847102486500,22.267486572265625,-21.58125114440918,27.037500381469727,-30.76875114440918
1781033847122490600,22.28749072265625,-20.92500114440918,28.181251525878906,-30.86250114440918
1781033847142495000,22.307494873046874,-21.637500762939453,29.156251907348633,-30.750001907348633
1781033847162491600,22.32749169921875,-22.80000114440918,30.543750762939453,-30.168750762939453
1781033847182495700,22.347495849609373,-24.01875114440918,33.900001525878906,-29.17500114440918
1781033847202492700,22.36749267578125,-23.55000114440918,35.73750305175781,-27.731250762939453
1781033847222330400,22.387330322265626,-21.431251525878906,35.85000228881836,-25.650001525878906
1781033847242334700,22.407334716796875,-23.400001525878906,36.28125,-22.668750762939453
1781033847262331400,22.427331298828125,-25.61250114440918,38.10000228881836,-19.125
1781033847282335500,22.44733544921875,-28.781251907348633,40.03125,-16.80000114440918
1781033847302498600,22.46749853515625,-32.19375228881836,41.32500076293945,-15.393750190734863
1781033847322434300,22.487434326171876,-33.5625,41.775001525878906,-14.700000762939453
1781033847342309400,22.507309326171875,-32.8125,41.70000076293945,-12.843750953674316
1781033847382067500,22.5470673828125,-33.82500076293945,41.775001525878906,-9.28125
1781033847402132700,22.5671328125,-33.26250076293945,41.64375305175781,-5.550000190734863
1781033847422258400,22.587258544921873,-32.962501525878906,40.53750228881836,-5.0625
1781033847442490400,22.607490478515626,-36.48750305175781,39.97500228881836,-8.21250057220459
1781033847462494700,22.62749462890625,-37.38750076293945,37.95000076293945,-9.675000190734863
1781033847482491400,22.647491455078125,-36.11250305175781,39.97500228881836,-10.912500381469727
1781033847502488000,22.667488037109376,-38.45625305175781,40.6875,-12.075000762939453
1781033847522492200,22.6874921875,-37.556251525878906,39.41250228881836,-13.668750762939453
1781033847542488800,22.70748876953125,-31.950000762939453,40.91250228881836,-15.637500762939453
1781033847562485200,22.7274853515625,-31.781251907348633,39.806251525878906,-17.850000381469727
1781033847582489600,22.747489501953126,-32.26875305175781,36.86250305175781,-21.48750114440918
1781033847602486300,22.767486328125,-29.812501907348633,35.88750076293945,-24.131250381469727
1781033847622490600,22.78749072265625,-28.912500381469727,36.26250076293945,-24.093751907348633
1781033847642494700,22.80749462890625,-28.70625114440918,35.17500305175781,-25.668750762939453
1781033847662491400,22.827491455078125,-25.293750762939453,34.087501525878906,-26.850000381469727
1781033847682495700,22.847495849609373,-23.006250381469727,33.67500305175781,-26.92500114440918
1781033847702492400,22.867492431640624,-22.818750381469727,33,-28.23750114440918
1781033847722489000,22.887489013671875,-23.475000381469727,32.66250228881836,-27.656251907348633
1781033847742493200,22.9074931640625,-23.212501525878906,31.725000381469727,-27.337501525878906
1781033847762489900,22.92748974609375,-20.493751525878906,32.212501525878906,-27.937501907348633
1781033847782486500,22.947486572265625,-23.025001525878906,34.48125076293945,-26.418750762939453
1781033847802491000,22.967490966796873,-23.8125,33.9375,-23.137500762939453
1781033847822487600,22.987487548828124,-21.712501525878906,35.0625,-20.53125
1781033847842492000,23.007491943359376,-21.056251525878906,38.64375305175781,-18.693750381469727
1781033847862496300,23.027496337890625,-17.381250381469727,40.66875076293945,-16.42500114440918
1781033847882493000,23.047492919921876,-12.71250057220459,40.48125076293945,-12.956250190734863
1781033847902497300,23.067497314453124,-8.90625,40.96875,-7.931250095367432
1781033847922494000,23.087493896484375,-6.581250190734863,43.6875,-4.537500381469727
1781033847942490400,23.107490478515626,-4.96875,44.71875,-2.981250047683716
1781033847962494700,23.12749462890625,-5.306250095367432,44.400001525878906,0.3187500238418579
1781033847982491400,23.147491455078125,-7.725000381469727,44.025001525878906,2.793750047683716
1781033848002488000,23.167488037109376,-7.481250286102295,42.82500076293945,2.25
1781033848022492400,23.187492431640624,-5.381250381469727,41.26875305175781,2.2687501907348633
1781033848042489000,23.207489013671875,-3.731250047683716,40.743751525878906,3.450000047683716
1781033848062485800,23.22748583984375,-5.53125,41.04375076293945,4.331250190734863
1781033848082490000,23.247489990234374,-6,41.25,4.556250095367432
1781033848102478800,23.267478759765623,-6.318750381469727,41.85000228881836,2.1187500953674316
1781033848122345700,23.287345703125,-6.412500381469727,42.84375,-0.05625000223517418
1781033848162194700,23.327194580078125,-4.256250381469727,41.92500305175781,-4.537500381469727
1781033848182206500,23.34720654296875,-5.71875,42.5625,-6.750000476837158
1781033848202340600,23.367340576171873,-5.550000190734863,41.17500305175781,-9.825000762939453
1781033848222376700,23.387376708984377,-5.868750095367432,39.525001525878906,-14.156250953674316
1781033848242335000,23.4073349609375,-6.693750381469727,38.64375305175781,-18.825000762939453
1781033848262331600,23.42733154296875,-10.143750190734863,36.16875076293945,-21.76875114440918
1781033848282328000,23.447328125,-13.406250953674316,33.806251525878906,-25.950000762939453
1781033848302491000,23.467490966796873,-12.581250190734863,31.125001907348633,-31.05000114440918
1781033848322487600,23.487487548828124,-14.643750190734863,29.287500381469727,-32.88750076293945
1781033848342492000,23.507491943359376,-18.056251525878906,27.525001525878906,-34.087501525878906
1781033848362496300,23.527496337890625,-17.55000114440918,24.356250762939453,-35.47500228881836
1781033848382493000,23.547492919921876,-17.493751525878906,22.23750114440918,-35.493751525878906
1781033848402497000,23.5674970703125,-16.89375114440918,23.681251525878906,-36.60000228881836
1781033848422493700,23.58749365234375,-15.600000381469727,24.093751907348633,-38.868751525878906
1781033848442490400,23.607490478515626,-17.231250762939453,24.48750114440918,-39.01875305175781
1781033848462494700,23.62749462890625,-17.4375,26.343751907348633,-37.14375305175781
1781033848482491100,23.6474912109375,-17.17500114440918,26.418750762939453,-36.09375
1781033848502487800,23.66748779296875,-18.806251525878906,28.200000762939453,-35.681251525878906
1781033848522492200,23.6874921875,-19.3125,32.00625228881836,-33.60000228881836
1781033848542488800,23.70748876953125,-20.25,34.80000305175781,-32.025001525878906
1781033848562485500,23.727485595703126,-24.318750381469727,35.13750076293945,-30.918750762939453
1781033848582489900,23.74748974609375,-27.168750762939453,35.400001525878906,-27.525001525878906
1781033848602486500,23.767486572265625,-26.662500381469727,36.54375076293945,-24.918750762939453
1781033848622490600,23.78749072265625,-27.150001525878906,37.33125305175781,-24.825000762939453
1781033848642495000,23.807494873046874,-30.562501907348633,36.97500228881836,-25.031251907348633
1781033848662491600,23.82749169921875,-32.775001525878906,36.13125228881836,-23.850000381469727
1781033848682496000,23.84749609375,-33.45000076293945,36.16875076293945,-23.231250762939453
1781033848702492700,23.86749267578125,-33.9375,36.50625228881836,-24.01875114440918
1781033848722489300,23.8874892578125,-34.61250305175781,34.72500228881836,-25.031251907348633
1781033848742493400,23.907493408203123,-36,34.29375076293945,-25.89375114440918
1781033848762490000,23.927489990234374,-34.91250228881836,35.36250305175781,-26.83125114440918
1781033848782486800,23.94748681640625,-32.13750076293945,33.76875305175781,-27.243751525878906
1781033848802491000,23.967490966796873,-31.443750381469727,32.55000305175781,-28.012500762939453
1781033848822487600,23.987487548828124,-31.23750114440918,31.875001907348633,-29.325000762939453
1781033848842492000,24.007491943359376,-29.231250762939453,31.968751907348633,-30.375001907348633
1781033848862496300,24.027496337890625,-28.125001907348633,32.493751525878906,-30.95625114440918
1781033848882500600,24.04750048828125,-26.681251525878906,30.356250762939453,-30.993751525878906
1781033848902443800,24.06744384765625,-28.293750762939453,28.537500381469727,-32.41875076293945
1781033848922319000,24.087319091796875,-29.17500114440918,28.200000762939453,-32.04375076293945
1781033848942079500,24.10707958984375,-25.70625114440918,28.05000114440918,-30.843751907348633
1781033848982134000,24.147134033203123,-25.218751907348633,27.95625114440918,-29.400001525878906
1781033849002252000,24.167251953125,-24.975000381469727,29.006250381469727,-28.031251907348633
1781033849022492400,24.187492431640624,-24.712501525878906,29.718751907348633,-26.100000381469727
1781033849042489000,24.207489013671875,-25.387500762939453,31.950000762939453,-24.600000381469727
1781033849062485800,24.22748583984375,-24.450000762939453,32.025001525878906,-23.34375
1781033849082489900,24.24748974609375,-22.575000762939453,33.150001525878906,-20.73750114440918
1781033849102486300,24.267486328125,-22.537500381469727,35.88750076293945,-17.118751525878906
1781033849122490600,24.28749072265625,-20.868751525878906,36.86250305175781,-14.100000381469727
1781033849142494700,24.30749462890625,-18.76875114440918,39.16875076293945,-10.762500762939453
1781033849162491400,24.327491455078125,-17.53125,40.59375,-6.637500286102295
1781033849182495700,24.347495849609373,-15.393750190734863,41.15625,-3.9000000953674316
1781033849202492400,24.367492431640624,-14.175000190734863,40.89375305175781,-1.8562500476837158
1781033849222330400,24.387330322265626,-11.30625057220459,40.743751525878906,1.8375000953674316
1781033849242334500,24.40733447265625,-10.631250381469727,42.35625076293945,3.0562500953674316
1781033849262331100,24.4273310546875,-11.793750762939453,42.13125228881836,2.418750047683716
1781033849282327800,24.447327880859376,-9,40.38750076293945,2.8312501907348633
1781033849302491000,24.467490966796873,-6.431250095367432,40.5,4.893750190734863
1781033849322495200,24.4874951171875,-9.693750381469727,41.587501525878906,3.375000238418579
1781033849342499600,24.50749951171875,-12.956250190734863,41.493751525878906,1.3125
1781033849362504000,24.52750390625,-11.831250190734863,42.01875305175781,0.9375000596046448
1781033849382500600,24.54750048828125,-9.1875,42,-1.7812501192092896
1781033849402497000,24.5674970703125,-7.893750190734863,41.587501525878906,-4.537500381469727
1781033849422493700,24.58749365234375,-9.15000057220459,41.75625228881836,-7.856250286102295
1781033849442498000,24.607498046875,-10.65000057220459,41.0625,-12.487500190734863
1781033849462502400,24.62750244140625,-10.481250762939453,39.07500076293945,-16.03125
1781033849482499000,24.6474990234375,-9.600000381469727,36.95625305175781,-18.76875114440918
1781033849502495700,24.667495849609374,-12.206250190734863,35.55000305175781,-22.650001525878906
1781033849522492400,24.687492431640624,-15.71250057220459,33.150001525878906,-27.468751907348633
1781033849542489000,24.707489013671875,-16.162500381469727,29.700000762939453,-30.131250381469727
1781033849562485800,24.72748583984375,-16.837501525878906,27.056251525878906,-32.28750228881836
1781033849582489900,24.74748974609375,-17.26875114440918,23.475000381469727,-34.33125305175781
1781033849602486500,24.767486572265625,-18.825000762939453,20.71875,-35.66250228881836
1781033849622490600,24.78749072265625,-18.881250381469727,21.39375114440918,-36.82500076293945
1781033849642495000,24.807494873046874,-15.937500953674316,22.125,-36.78750228881836
1781033849662491600,24.82749169921875,-17.83125114440918,22.837501525878906,-37.931251525878906
1781033849682495700,24.847495849609373,-20.36250114440918,22.59375,-39.1875
1781033849702378000,24.8673779296875,-21.693750381469727,23.100000381469727,-37.44375228881836
1781033849722199800,24.88719970703125,-23.512500762939453,23.981250762939453,-36.30000305175781
1781033849761966300,24.92696630859375,-23.512500762939453,29.287500381469727,-31.968751907348633
1781033849802256600,24.967256591796875,-26.606250762939453,32.17500305175781,-27.056251525878906
1781033849822487600,24.987487548828124,-28.012500762939453,34.59375,-25.725000381469727
1781033849842492000,25.007491943359376,-28.537500381469727,36.26250076293945,-26.587501525878906
1781033849862496000,25.02749609375,-28.70625114440918,36.806251525878906,-24.243751525878906
1781033849882492700,25.04749267578125,-31.593751907348633,37.06875228881836,-21.262500762939453
1781033849902497000,25.0674970703125,-31.593751907348633,37.06875228881836,-21.262500762939453
1781033849922493700,25.08749365234375,-31.593751907348633,37.06875228881836,-21.262500762939453
1781033849942490400,25.107490478515626,-33.11250305175781,34.98750305175781,-21.075000762939453
1781033849962494700,25.12749462890625,-34.06875228881836,34.89375305175781,-22.51875114440918
1781033849982491100,25.1474912109375,-34.81875228881836,35.38125228881836,-23.92500114440918
1781033850002487800,25.16748779296875,-35.51250076293945,34.33125305175781,-25.275001525878906
1781033850022492200,25.1874921875,-32.83125305175781,33.75,-27.656251907348633
1781033850042488800,25.20748876953125,-29.92500114440918,33.60000228881836,-29.156251907348633
1781033850062485500,25.227485595703126,-28.14375114440918,33.84375,-30.806251525878906
1781033850082489900,25.24748974609375,-26.568750381469727,33.20625305175781,-31.51875114440918
1781033850102486500,25.267486572265625,-26.025001525878906,30.693750381469727,-31.593751907348633
1781033850122490600,25.28749072265625,-26.287500381469727,31.068750381469727,-31.762500762939453
1781033850142495000,25.307494873046874,-23.587501525878906,31.14375114440918,-32.8125
1781033850162491600,25.32749169921875,-21.993751525878906,30.318750381469727,-33.337501525878906
1781033850182495700,25.347495849609373,-22.875,28.762500762939453,-33.69375228881836
1781033850202492400,25.367492431640624,-24.881250381469727,27.48750114440918,-33.20625305175781
1781033850222330400,25.387330322265626,-25.80000114440918,28.668750762939453,-32.85000228881836
1781033850242334700,25.407334716796875,-25.781251907348633,29.512500762939453,-31.931251525878906
1781033850262331400,25.427331298828125,-22.743751525878906,30.48750114440918,-28.312501907348633
1781033850282328000,25.447328125,-18.618751525878906,32.90625,-26.006250381469727
1781033850302491000,25.467490966796873,-18.168750762939453,36.76875305175781,-22.875
1781033850322487600,25.487487548828124,-17.90625,38.71875,-19.762500762939453
1781033850342492000,25.507491943359376,-17.08125114440918,39.431251525878906,-15.112500190734863
1781033850362496000,25.52749609375,-13.762500762939453,39.65625,-11.15625
1781033850382492700,25.54749267578125,-9.393750190734863,40.89375305175781,-9.1875
1781033850402497000,25.5674970703125,-9.61875057220459,43.181251525878906,-6.656250476837158
1781033850422493700,25.58749365234375,-10.443750381469727,44.00625228881836,-3.4312500953674316
1781033850442498000,25.607498046875,-10.08750057220459,43.06875228881836,-0.4125000238418579
1781033850462502100,25.627502197265624,-9.600000381469727,44.15625,1.5750000476837158
1781033850482430200,25.64743017578125,-6.993750095367432,42.69375228881836,3.0562500953674316
1781033850502305500,25.667305419921874,-6.956250190734863,40.51875305175781,2.1937501430511475
1781033850522066000,25.68706591796875,-8.850000381469727,41.41875076293945,1.068750023841858
1781033850562158300,25.727158447265627,-11.325000762939453,41.51250076293945,1.9312500953674316
1781033850582284000,25.747283935546875,-7.312500476837158,41.26875305175781,-0.8437500596046448
1781033850602517000,25.76751708984375,-6.056250095367432,42.22500228881836,-3.450000047683716
1781033850622490600,25.78749072265625,-7.968750476837158,43.05000305175781,-5.643750190734863
1781033850642495000,25.807494873046874,-7.425000190734863,42.9375,-9.600000381469727
1781033850662491400,25.827491455078125,-7.462500095367432,42.86250305175781,-10.875
1781033850682495700,25.847495849609373,-10.46250057220459,41.962501525878906,-13.237500190734863
1781033850702492400,25.867492431640624,-11.268750190734863,40.6875,-17.73750114440918
1781033850722489000,25.887489013671875,-11.362500190734863,40.70625305175781,-20.4375
1781033850742493200,25.9074931640625,-14.77500057220459,36.65625,-23.962501525878906
1781033850762489900,25.92748974609375,-17.0625,31.593751907348633,-28.031251907348633
1781033850782486500,25.947486572265625,-17.775001525878906,28.481250762939453,-31.293750762939453
1781033850802491000,25.967490966796873,-17.34375,26.568750381469727,-33.993751525878906
1781033850822487600,25.987487548828124,-19.631250381469727,24.937501907348633,-35.60625076293945
1781033850842491600,26.00749169921875,-21.693750381469727,25.575000762939453,-35.306251525878906
1781033850862496000,26.02749609375,-21.243751525878906,26.193750381469727,-34.63125228881836
1781033850882492700,26.04749267578125,-20.53125,25.012500762939453,-34.76250076293945
1781033850902497000,26.0674970703125,-21.67500114440918,27.243751525878906,-33.26250076293945
1781033850922493700,26.08749365234375,-23.756250381469727,28.631250381469727,-33.09375
1781033850942490400,26.107490478515626,-24,29.850000381469727,-32.32500076293945
1781033850962494500,26.127494384765626,-25.593751907348633,30.468751907348633,-31.818750381469727
1781033850982491100,26.1474912109375,-27.187501907348633,30.86250114440918,-31.98750114440918
1781033851002487800,26.16748779296875,-28.312501907348633,33.01875305175781,-29.025001525878906
1781033851022492200,26.1874921875,-29.606250762939453,33.78750228881836,-26.437501907348633
1781033851042496300,26.207496337890625,-30.281251907348633,33.22500228881836,-26.493751525878906
1781033851062493000,26.227492919921875,-32.36250305175781,33.20625305175781,-27.093751907348633
1781033851082497300,26.247497314453124,-33.97500228881836,34.181251525878906,-26.962501525878906
1781033851102494000,26.267493896484375,-32.60625076293945,35.41875076293945,-25.818750381469727
1781033851122490600,26.28749072265625,-33.01875305175781,37.33125305175781,-23.100000381469727
1781033851142495000,26.307494873046874,-33.900001525878906,36.58125305175781,-22.96875
1781033851162491400,26.327491455078125,-32.73750305175781,34.96875,-23.775001525878906
1781033851182495700,26.347495849609373,-33.30000305175781,36.41250228881836,-25.275001525878906
1781033851202492400,26.367492431640624,-32.23125076293945,37.23750305175781,-26.868751525878906
1781033851222330400,26.387330322265626,-29.906251907348633,35.868751525878906,-27.037500381469727
1781033851242334700,26.407334716796875,-30.131250381469727,33.22500228881836,-28.98750114440918
1781033851262331400,26.427331298828125,-29.025001525878906,31.70625114440918,-31.23750114440918
1781033851282221300,26.44722119140625,-26.775001525878906,31.181251525878906,-32.775001525878906
1781033851302209500,26.46720947265625,-26.793750762939453,29.718751907348633,-34.59375
1781033851341966800,26.506966796875,-25.42500114440918,28.500001907348633,-35.17500305175781
1781033851362077700,26.52707763671875,-23.8125,27.693750381469727,-35.47500228881836
1781033851382249500,26.54724951171875,-22.856250762939453,27.168750762939453,-34.5
1781033851402489600,26.567489501953126,-24.48750114440918,27.525001525878906,-35.28750228881836
1781033851422493700,26.58749365234375,-24.731250762939453,28.912500381469727,-34.70625305175781
1781033851442490600,26.60749072265625,-21.95625114440918,29.381250381469727,-33.01875305175781
1781033851462494700,26.62749462890625,-19.837501525878906,29.306251525878906,-30.975000381469727
1781033851482491400,26.647491455078125,-18.900001525878906,30.750001907348633,-29.36250114440918
1781033851502487800,26.66748779296875,-18.693750381469727,33.16875076293945,-27.637500762939453
1781033851522492200,26.6874921875,-17.493751525878906,35.53125,-24.056251525878906
1781033851542488800,26.70748876953125,-15.600000381469727,37.3125,-20.34375
1781033851562485500,26.727485595703126,-15.037500381469727,39.16875076293945,-15.581250190734863
1781033851582489600,26.747489501953126,-12.43125057220459,41.79375076293945,-10.518750190734863
1781033851602486300,26.767486328125,-10.3125,43.35000228881836,-7.256250381469727
1781033851622490600,26.78749072265625,-8.850000381469727,44.19375228881836,-3.2062501907348633
1781033851642495000,26.807494873046874,-4.837500095367432,43.63125228881836,0.4312500059604645
1781033851662491600,26.82749169921875,-4.087500095367432,43.96875,2.5500001907348633
1781033851682496000,26.84749609375,-4.275000095367432,43.837501525878906,3.5812501907348633
1781033851702492700,26.86749267578125,-2.6437501907348633,42.46875,3.4125001430511475
1781033851722489300,26.8874892578125,-4.612500190734863,42.67500305175781,6.150000095367432
1781033851742493700,26.90749365234375,-6.656250476837158,43.35000228881836,7.068750381469727
1781033851762490000,26.927489990234374,-6.675000190734863,42.48750305175781,5.737500190734863
1781033851782486800,26.94748681640625,-5.737500190734863,40.931251525878906,5.568750381469727
1781033851802491000,26.967490966796873,-3.3375000953674316,41.625,2.2875001430511475
1781033851822487600,26.987487548828124,-4.143750190734863,42.20625305175781,-0.5625
1781033851842492000,27.007491943359376,-4.237500190734863,43.81875228881836,-2.0625
1781033851862496300,27.027496337890625,-3.450000047683716,43.53750228881836,-6.037500381469727
1781033851882493000,27.047492919921876,-6.487500190734863,40.95000076293945,-10.46250057220459
1781033851902497000,27.0674970703125,-10.481250762939453,40.125,-14.887500762939453
1781033851922493700,27.08749365234375,-11.043750762939453,39.67500305175781,-18.46875
1781033851942490400,27.107490478515626,-12.637500762939453,36.82500076293945,-21.262500762939453
1781033851962494700,27.12749462890625,-17.45625114440918,32.92500305175781,-25.387500762939453
1781033851982491400,27.147491455078125,-18.225000381469727,30.318750381469727,-29.83125114440918
1781033852002495700,27.167495849609374,-17.700000762939453,27.412500381469727,-30.150001525878906
1781033852022499800,27.187499755859374,-18.5625,24.693750381469727,-30.843751907348633
1781033852042496500,27.20749658203125,-19.98750114440918,23.137500762939453,-34.125
1781033852062455000,27.227455078125,-19.575000762939453,23.625,-35.32500076293945
1781033852082322000,27.247322021484376,-20.100000381469727,26.156251907348633,-34.837501525878906
1781033852122102000,27.28710205078125,-22.6875,24.075000762939453,-32.13750076293945
1781033852142144500,27.30714453125,-26.756250381469727,25.218751907348633,-30.30000114440918
1781033852162270700,27.327270751953126,-30.187501907348633,24.656251907348633,-30.750001907348633
1781033852182503400,27.34750341796875,-33.806251525878906,26.193750381469727,-28.668750762939453
1781033852202492400,27.367492431640624,-33.375,29.381250381469727,-27.093751907348633
1781033852222330400,27.387330322265626,-30.39375114440918,30.618751525878906,-25.312501907348633
1781033852242334700,27.407334716796875,-31.087501525878906,33.69375228881836,-22.6875
1781033852262331400,27.427331298828125,-34.01250076293945,36.056251525878906,-19.481250762939453
1781033852282328000,27.447328125,-34.931251525878906,37.48125076293945,-18.48750114440918
1781033852302491100,27.4674912109375,-34.98750305175781,37.78125,-19.912500381469727
