time,seconds_elapsed,z,y,x
1781034504585815800,0.46781591796875,8.006999969482422,6.592950344085693,1.0470000505447388
1781034504595574000,0.477573974609375,8.121000289916992,6.550050258636475,1.0609500408172607
1781034504615087600,0.497087646484375,8.325000762939453,6.508050441741943,1.0840500593185425
1781034504634595300,0.51659521484375,8.421000480651855,6.556950092315674,1.111050009727478
1781034504654106400,0.5361064453125,8.32800006866455,6.703050136566162,1.141050100326538
1781034504673623300,0.555623291015625,8.088000297546387,6.916050434112549,1.158000111579895
1781034504693142500,0.575142578125,7.807950496673584,7.113000392913818,1.1620500087738037
1781034504712661500,0.59466162109375,7.555050373077393,7.2330002784729,1.152000069618225
1781034504732177200,0.61417724609375,7.363950252532959,7.146000385284424,1.1620500087738037
1781034504751693000,0.633693115234375,7.228050231933594,6.751950263977051,1.237950086593628
1781034504771207200,0.653207275390625,7.252050399780273,6.145050525665283,1.3980001211166382
1781034504790719500,0.672719482421875,7.594050407409668,4.564949989318848,1.6210501194000244
1781034504810232600,0.692232666015625,9.460050582885742,4.183050155639648,1.8490500450134277
1781034504829749200,0.711749267578125,9.79800033569336,3.8010001182556152,2.089050054550171
1781034504849268000,0.73126806640625,10.168050765991211,3.478950262069702,2.356950044631958
1781034504868783400,0.750783447265625,10.252050399780273,3.325050115585327,2.644050121307373
1781034504888300800,0.77030078125,9.967050552368164,3.3480000495910645,2.914950132369995
1781034504907819500,0.789819580078125,9.364950180053711,3.4680001735687256,3.1429500579833984
1781034504927339000,0.809339111328125,7.7560505867004395,3.6010501384735107,3.3390002250671387
1781034504946857000,0.82885693359375,7.389000415802002,3.6190502643585205,3.5190000534057617
1781034504966370600,0.84837060546875,7.035000324249268,3.4399502277374268,3.7540502548217773
1781034504985884700,0.867884765625,6.970950126647949,3.0709500312805176,3.973950147628784
1781034505005403000,0.88740283203125,7.1509504318237305,2.5690500736236572,4.165050029754639
1781034505024923000,0.9069228515625,7.276050567626953,2.053950071334839,4.408950328826904
1781034505044436700,0.926436767578125,7.108950138092041,1.6060501337051392,4.830000400543213
1781034505063948500,0.945948486328125,6.694050312042236,1.224000096321106,6.639000415802002
1781034505083462100,0.965462158203125,6.244950294494629,1.0080000162124634,6.95205020904541
1781034505102978800,0.984978759765625,5.896050453186035,0.9610500335693359,7.308000564575195
1781034505122493400,1.004493408203125,5.665050506591797,1.0200001001358032,7.504050254821777
1781034505142010400,1.02401025390625,5.479950428009033,1.1770501136779785,7.4569501876831055
1781034505161532000,1.043531982421875,5.3020501136779785,1.3720500469207764,7.225950241088867
1781034505181051000,1.06305078125,5.109000205993652,1.5210000276565552,6.9720001220703125
1781034505200569900,1.08256982421875,4.963950157165527,1.6350001096725464,6.748050212860107
1781034505220085500,1.10208544921875,4.88100004196167,1.7100000381469727,6.630000114440918
1781034505239601700,1.1216015625,4.819950103759766,1.7280000448226929,6.574050426483154
1781034505259121000,1.141120849609375,4.852050304412842,1.7290500402450562,6.517950534820557
1781034505278640400,1.160640380859375,4.957050323486328,1.7860500812530518,6.448050498962402
1781034505298163200,1.1801630859375,4.909950256347656,1.9729501008987427,6.403950214385986
1781034505317688000,1.19968798828125,4.534049987792969,2.260050058364868,6.6250505447387695
1781034505337214000,1.2192138671875,2.5249500274658203,2.6080501079559326,7.153050422668457
1781034505356735700,1.23873583984375,2.0050501823425293,2.9359500408172607,8.583000183105469
1781034505376255700,1.258255859375,0.38700002431869507,3.1840500831604004,8.89905071258545
1781034505395775200,1.277775146484375,0.21300001442432404,3.264000177383423,9.205950736999512
1781034505415296300,1.297296142578125,0.26205000281333923,3.151050090789795,9.394050598144531
1781034505434819600,1.316819580078125,0.5809500217437744,2.845050096511841,9.505050659179688
1781034505454340900,1.3363408203125,1.0549499988555908,2.328000068664551,9.562050819396973
1781034505473861000,1.355861083984375,1.4659500122070312,1.7509500980377197,9.568050384521484
1781034505493380000,1.375380126953125,1.6540501117706299,1.1839500665664673,9.550050735473633
1781034505512900600,1.394900634765625,1.6309500932693481,0.6990000605583191,9.534000396728516
1781034505532422000,1.414421875,1.3810501098632812,0.32805001735687256,9.570000648498535
1781034505551942100,1.433942138671875,1.054050087928772,0.019050000235438347,9.58905029296875
1781034505571462000,1.4534619140625,0.76500004529953,-0.27300000190734863,9.580050468444824
1781034505590979800,1.472979736328125,0.6889500617980957,-0.4909500181674957,9.53895092010498
1781034505610497800,1.492497802734375,1.048050045967102,-0.4990500211715698,9.349950790405273
1781034505630017000,1.51201708984375,1.4310001134872437,-0.21495001018047333,9.187050819396973
1781034505649538600,1.53153857421875,1.665000081062317,0.26805001497268677,9.129000663757324
1781034505669063400,1.5510634765625,1.915950059890747,0.8080500364303589,9.018000602722168
1781034505688588300,1.57058837890625,1.7260501384735107,1.3159500360488892,8.992050170898438
1781034505708109800,1.59010986328125,1.3560000658035278,1.5769500732421875,9.088050842285156
1781034505727633000,1.6096328125,1.0639500617980957,1.64205002784729,9.163050651550293
1781034505747156700,1.62915673828125,0.7120500206947327,1.5510001182556152,9.229950904846191
1781034505766684200,1.64868408203125,0.6270000338554382,1.2109500169754028,9.22605037689209
1781034505786207000,1.66820703125,0.8779500126838684,0.7350000143051147,8.9839506149292
1781034505805719600,1.687719482421875,3.355950117111206,0.35295000672340393,8.461050033569336
1781034505825231400,1.7072314453125,3.7380001544952393,0.1879500150680542,7.9069504737854
1781034505844746800,1.726746826171875,3.945000171661377,0.13500000536441803,7.680000305175781
1781034505864264200,1.74626416015625,3.886050224304199,0.22995001077651978,7.756950378417969
1781034505883784000,1.765783935546875,1.672950029373169,0.286050021648407,8.164950370788574
1781034505903304700,1.7853046875,1.2280501127243042,0.10305000841617584,8.700000762939453
1781034505922824200,1.80482421875,1.0030500888824463,-0.05700000375509262,8.85300064086914
1781034505942346800,1.8243466796875,1.0330500602722168,-0.14400000870227814,8.740950584411621
1781034505961870300,1.843870361328125,1.1530500650405884,-0.22995001077651978,8.58495044708252
1781034505981391600,1.8633916015625,1.1970000267028809,-0.2440500110387802,8.443950653076172
1781034506000915200,1.882915283203125,1.0380001068115234,-0.208950012922287,8.404050827026367
1781034506020435700,1.902435791015625,0.7180500626564026,-0.22095000743865967,8.52495002746582
1781034506039957800,1.921957763671875,0.46605002880096436,-0.1980000138282776,8.728950500488281
1781034506059483600,1.941483642578125,0.46605002880096436,-0.14295001327991486,8.949000358581543
1781034506079008500,1.961008544921875,0.8340000510215759,-0.15105000138282776,9.169050216674805
1781034506098536000,1.980535888671875,1.384950041770935,-0.28005000948905945,9.31095027923584
1781034506118063400,2.0000634765625,1.9500000476837158,-0.4230000078678131,9.405000686645508
1781034506137587200,2.019587158203125,2.322000026702881,-0.46605002880096436,9.451950073242188
1781034506157110000,2.039110107421875,2.3170502185821533,-0.4129500091075897,9.480000495910645
1781034506176631600,2.058631591796875,2.1510000228881836,-0.20100000500679016,9.418050765991211
1781034506196153900,2.07815380859375,1.897050142288208,0.016050001606345177,9.187950134277344
1781034506215679200,2.09767919921875,1.6699501276016235,0.037050001323223114,8.946000099182129
1781034506235205600,2.11720556640625,1.5430500507354736,-0.16305001080036163,8.779050827026367
1781034506254733600,2.136733642578125,1.555050015449524,-0.5119500160217285,8.671950340270996
1781034506274257400,2.15625732421875,1.7790000438690186,-0.9540000557899475,8.647950172424316
1781034506293776400,2.1757763671875,2.1889500617980957,-1.4910000562667847,8.635050773620605
1781034506313295400,2.19529541015625,2.619000196456909,-2.074050188064575,8.643000602722168
1781034506332815000,2.214815185546875,3.138000249862671,-2.659050226211548,8.722949981689453
1781034506352334800,2.2343349609375,3.633000135421753,-3.123000144958496,8.719950675964355
1781034506371856400,2.2538564453125,4.01894998550415,-3.226950168609619,8.704950332641602
1781034506391378000,2.2733779296875,4.293000221252441,-2.884050130844116,8.718000411987305
1781034506410898700,2.292898681640625,4.190999984741211,-2.2639501094818115,8.756999969482422
1781034506430419500,2.31241943359375,3.8550002574920654,-0.8029500246047974,8.872950553894043
1781034506449939000,2.33193896484375,3.450000047683716,-0.5719500184059143,8.907000541687012
1781034506469454600,2.35145458984375,3.1690502166748047,-0.37905001640319824,8.868000030517578
1781034506488971500,2.370971435546875,3.115950107574463,-0.35295000672340393,8.796000480651855
1781034506508493800,2.390493896484375,3.2260501384735107,-0.3330000042915344,8.66100025177002
1781034506528020000,2.41002001953125,3.3420002460479736,-0.38805001974105835,8.551050186157227
1781034506547542000,2.4295419921875,3.409050226211548,-0.6040500402450562,8.50005054473877
1781034506567062500,2.4490625,3.3700501918792725,-0.9259500503540039,8.413050651550293
1781034506586587100,2.468587158203125,3.358950138092041,-1.456950068473816,8.380949974060059
1781034506606112800,2.48811279296875,3.4990501403808594,-1.984950065612793,8.422950744628906
1781034506625638700,2.507638671875,3.702000141143799,-2.206050157546997,8.325000762939453
1781034506645161700,2.52716162109375,3.7819502353668213,-2.0209500789642334,8.305950164794922
1781034506664683800,2.546683837890625,3.6670501232147217,-1.5949500799179077,8.38800048828125
1781034506684212000,2.5662119140625,3.409050226211548,-1.1740500926971436,8.479050636291504
1781034506703741200,2.5857412109375,3.1410000324249268,-0.8719500303268433,8.605950355529785
1781034506723266600,2.6052666015625,2.998950242996216,-0.7410000562667847,8.629050254821777
1781034506742790700,2.624790771484375,2.9610002040863037,-0.6499500274658203,8.707950592041016
1781034506762312000,2.64431201171875,2.908950090408325,-0.6000000238418579,8.869950294494629
1781034506781834500,2.66383447265625,2.7649500370025635,-0.7279500365257263,9.147000312805176
1781034506801359600,2.683359619140625,2.671950101852417,-0.9420000314712524,9.484050750732422
1781034506820882200,2.702882080078125,2.653050184249878,-1.051050066947937,9.715950012207031
1781034506840404000,2.722404052734375,2.680950164794922,-0.973050057888031,9.855000495910645
1781034506859928000,2.741927978515625,2.6329500675201416,-0.7860000133514404,9.834000587463379
1781034506879451100,2.761451171875,2.373000144958496,-0.5530500411987305,9.63705062866211
1781034506898972700,2.78097265625,1.9240500926971436,-0.41505002975463867,9.33495044708252
1781034506918495700,2.800495849609375,1.4089500904083252,-0.3469500243663788,9.004950523376465
1781034506938016800,2.820016845703125,0.9559500217437744,-0.23100000619888306,8.743050575256348
1781034506957534500,2.839534423828125,0.6960000395774841,-0.09195000678300858,8.623050689697266
1781034506977056300,2.85905615234375,0.5899500250816345,0.013950000517070293,8.593950271606445
1781034506996580600,2.87858056640625,0.6510000228881836,0.010050000622868538,8.653950691223145
1781034507016105200,2.898105224609375,0.9439500570297241,-0.11700000613927841,8.833050727844238
1781034507035632400,2.91763232421875,1.4359500408172607,-0.37800002098083496,9.070050239562988
1781034507055158000,2.937157958984375,1.9350000619888306,-0.8160000443458557,9.363000869750977
1781034507074675000,2.956675048828125,2.2579500675201416,-1.281000018119812,9.544050216674805
1781034507094190000,2.976190185546875,2.4750001430511475,-1.609950065612793,9.571950912475586
1781034507113712000,2.995712158203125,2.590050220489502,-1.714050054550171,9.454050064086914
1781034507133237800,3.01523779296875,2.682000160217285,-1.5949500799179077,9.163050651550293
1781034507152760800,3.0347607421875,2.811000108718872,-1.3099501132965088,8.86305046081543
1781034507172284700,3.05428466796875,2.743950128555298,-0.9940500259399414,8.571000099182129
1781034507191809300,3.073809326171875,2.54295015335083,-0.7510500550270081,8.383049964904785
1781034507211337000,3.0933369140625,2.3010001182556152,-0.5929500460624695,8.329050064086914
1781034507230863000,3.112863037109375,2.1220500469207764,-0.5920500159263611,8.3100004196167
1781034507250387200,3.13238720703125,2.2300500869750977,-0.7740000486373901,8.311050415039062
1781034507269908700,3.15190869140625,2.496000051498413,-1.1479500532150269,8.341050148010254
1781034507289427200,3.17142724609375,2.8150501251220703,-1.6440000534057617,8.480999946594238
1781034507308948500,3.190948486328125,3.255000114440918,-2.0329501628875732,8.692950248718262
1781034507328475000,3.210474853515625,3.6289501190185547,-2.1250500679016113,8.937000274658203
1781034507348001000,3.2300009765625,3.616950273513794,-1.9069501161575317,9.159000396728516
1781034507367524600,3.249524658203125,3.343050241470337,-1.7100000381469727,9.231000900268555
1781034507387047200,3.269047119140625,2.845050096511841,-1.64205002784729,9.187050819396973
1781034507406570800,3.28857080078125,2.3370001316070557,-1.5660001039505005,8.95305061340332
1781034507426095400,3.308095458984375,2.0850000381469727,-1.5780000686645508,8.653050422668457
1781034507445616400,3.327616455078125,1.9789501428604126,-1.576050043106079,8.433000564575195
1781034507465138400,3.347138427734375,2.0429999828338623,-1.5430500507354736,8.301000595092773
1781034507484661800,3.366661865234375,2.2170000076293945,-1.6270500421524048,8.22705078125
1781034507504180000,3.386179931640625,2.454000234603882,-1.6930500268936157,8.18595027923584
1781034507523695600,3.405695556640625,2.742000102996826,-1.5889500379562378,8.190000534057617
1781034507543213800,3.4252138671875,2.845950126647949,-1.426050066947937,8.32800006866455
1781034507562730800,3.444730712890625,2.611950159072876,-1.4980500936508179,8.707050323486328
1781034507582248000,3.464248046875,2.4619500637054443,-1.8300000429153442,9.117000579833984
1781034507601769500,3.48376953125,2.6890501976013184,-1.9999500513076782,9.318000793457031
1781034507621289500,3.50328955078125,3.009000062942505,-2.0789999961853027,9.36405086517334
1781034507640812000,3.52281201171875,3.385050058364868,-2.0460000038146973,9.381000518798828
1781034507660338000,3.542337890625,3.5119502544403076,-1.755000114440918,9.370950698852539
1781034507679867400,3.561867431640625,3.220050096511841,-1.5019500255584717,9.478950500488281
1781034507699395800,3.581395751953125,2.803950071334839,-1.4770500659942627,9.607950210571289
1781034507718916400,3.600916259765625,2.53695011138916,-1.5090000629425049,9.62700080871582
1781034507738439000,3.62043896484375,2.4940500259399414,-1.6290000677108765,9.592950820922852
1781034507757961200,3.639961181640625,2.5860002040863037,-1.968000054359436,9.571050643920898
1781034507777481700,3.659481689453125,2.817000150680542,-2.1570000648498535,9.550050735473633
1781034507797002800,3.679002685546875,2.868000030517578,-2.1889500617980957,9.522000312805176
1781034507816524800,3.69852490234375,2.6070001125335693,-2.1540000438690186,9.538050651550293
1781034507836045800,3.7180458984375,2.200050115585327,-1.8900001049041748,9.480000495910645
1781034507855567400,3.7375673828125,1.752000093460083,-1.5010501146316528,9.328950881958008
1781034507875089400,3.75708935546875,1.3680000305175781,-1.240950107574463,9.121950149536133
1781034507894615000,3.776614990234375,1.2250500917434692,-1.1160000562667847,8.81505012512207
1781034507914143000,3.79614306640625,1.15500009059906,-1.114050030708313,8.440950393676758
1781034507933667000,3.8156669921875,1.152000069618225,-1.128000020980835,8.08395004272461
1781034507953189000,3.835189208984375,1.2030000686645508,-1.081950068473816,7.821000576019287
1781034507972710700,3.854710693359375,1.1440500020980835,-1.0420500040054321,7.768950462341309
1781034507992234500,3.874234375,1.0660500526428223,-1.0369499921798706,7.819050312042236
1781034508011761700,3.89376171875,1.055999994277954,-1.1239500045776367,7.7989501953125
1781034508031289300,3.913289306640625,1.2160500288009644,-1.2330000400543213,7.720950603485107
1781034508050815500,3.9328154296875,1.6030501127243042,-1.2889500856399536,7.584000587463379
1781034508070339600,3.952339599609375,2.0340001583099365,-1.371000051498413,7.440000534057617
1781034508089865500,3.971865478515625,2.427000045776367,-1.4830501079559326,7.377000331878662
1781034508109388800,3.991388916015625,2.76705002784729,-1.64805006980896,7.41795015335083
1781034508128911000,4.0109111328125,3.1030502319335938,-1.807050108909607,7.567050457000732
1781034508148437500,4.0304375,3.4200000762939453,-1.9260001182556152,7.8160505294799805
1781034508167965000,4.04996484375,3.5149502754211426,-2.0429999828338623,8.070000648498535
1781034508187488500,4.069488525390625,3.349950075149536,-2.095950126647949,8.242050170898438
1781034508207008000,4.089008056640625,2.896050214767456,-2.1259500980377197,8.245950698852539
1781034508226528000,4.108528076171875,2.407050132751465,-2.140050172805786,8.275050163269043
1781034508246051600,4.128051513671875,2.092050075531006,-2.0680501461029053,8.467050552368164
1781034508265575000,4.147574951171875,1.9939501285552979,-1.960050106048584,8.772000312805176
1781034508285095200,4.16709521484375,2.2680001258850098,-1.9369500875473022,9.253950119018555
1781034508304615400,4.186615478515625,2.8440001010894775,-2.0239500999450684,9.733050346374512
1781034508324136200,4.20613623046875,4.378050327301025,-2.1880500316619873,10.182000160217285
1781034508343654100,4.225654052734375,4.669050216674805,-2.3680500984191895,10.59795093536377
1781034508363171600,4.245171630859375,4.72605037689209,-2.442000150680542,10.82805061340332
1781034508382693600,4.264693603515625,4.432950019836426,-2.419950008392334,10.921050071716309
1781034508402218200,4.28421826171875,4.027050018310547,-2.353950023651123,10.837950706481934
1781034508421740500,4.303740478515625,3.7290000915527344,-2.3779501914978027,10.461000442504883
1781034508441262300,4.323262451171875,3.475050210952759,-2.4850502014160156,9.892050743103027
1781034508460787200,4.342787109375,3.3040502071380615,-2.6520001888275146,8.413050651550293
1781034508480309000,4.36230908203125,2.920950174331665,-2.836050033569336,7.956000328063965
1781034508499828200,4.381828125,2.3800501823425293,-2.8590002059936523,7.569000244140625
1781034508519348000,4.401347900390625,1.984950065612793,-2.737950086593628,7.398000240325928
1781034508538872000,4.4208720703125,1.8600001335144043,-2.350950002670288,7.432950496673584
1781034508558398000,4.44039794921875,1.8310500383377075,-1.8439500331878662,7.63800048828125
1781034508577921800,4.459921875,1.699950098991394,-1.6050000190734863,8.08905029296875
1781034508597445400,4.4794453125,1.6699501276016235,-1.5259500741958618,8.50200080871582
1781034508616969700,4.4989697265625,1.699950098991394,-1.5540000200271606,8.737950325012207
1781034508636497700,4.51849755859375,1.801050066947937,-1.7650500535964966,8.992950439453125
1781034508656025600,4.538025634765625,2.0440499782562256,-1.9360500574111938,9.11400032043457
1781034508675552500,4.557552490234375,2.2450501918792725,-2.0410501956939697,9.178950309753418
1781034508695080000,4.577079833984375,2.386050224304199,-2.2300500869750977,9.37695026397705
1781034508714604000,4.59660400390625,2.704050064086914,-2.281050205230713,9.511950492858887
1781034508734128000,4.616128173828125,2.9509501457214355,-2.190000057220459,9.45300006866455
1781034508753652700,4.63565283203125,2.886000156402588,-2.130000114440918,9.30405044555664
1781034508773175800,4.65517578125,2.568000078201294,-2.0749499797821045,9.160050392150879
1781034508792700700,4.67470068359375,2.1700501441955566,-2.1060001850128174,9.073050498962402
1781034508812226600,4.6942265625,1.9900500774383545,-2.2230000495910645,9.11400032043457
1781034508831761000,4.713760986328125,2.0530500411987305,-2.364000082015991,9.22605037689209
1781034508851300900,4.73330078125,2.0620501041412354,-2.533050060272217,9.2920503616333
1781034508870833000,4.7528330078125,1.852950096130371,-2.647050142288208,9.253950119018555
1781034508890363100,4.772363037109375,1.3830000162124634,-2.551950216293335,9.1399507522583
1781034508909894100,4.79189404296875,0.742050051689148,-2.3869500160217285,8.955000877380371
1781034508929422800,4.8114228515625,0.10695000737905502,-2.290950059890747,8.734950065612793
1781034508948947700,4.83094775390625,-1.4440500736236572,-2.3400001525878906,8.593050003051758
1781034508968471800,4.850471923828125,-1.3900500535964966,-2.5309500694274902,8.523000717163086
1781034508987996700,4.86999658203125,2.007000207901001,-2.5069501399993896,8.175000190734863
1781034509007517000,4.889516845703125,2.5290000438690186,-2.4250500202178955,7.573950290679932
1781034509027038000,4.909037841796875,3.9589502811431885,-2.511000156402588,7.308000564575195
1781034509046564000,4.928564208984375,3.9120001792907715,-2.562000036239624,7.3120503425598145
1781034509066086700,4.948086669921875,2.0329501628875732,-2.742000102996826,7.5859503746032715
1781034509085611800,4.96761181640625,1.6669501066207886,-2.9280002117156982,8.188050270080566
1781034509105139700,4.9871396484375,1.765950083732605,-2.8219501972198486,8.458050727844238
1781034509124665000,5.0066650390625,2.0869500637054443,-2.6479501724243164,8.515049934387207
1781034509144188000,5.02618798828125,2.155050039291382,-2.4910500049591064,8.773050308227539
1781034509163707100,5.04570703125,1.9140000343322754,-2.2420501708984375,9.172950744628906
1781034509183227600,5.0652275390625,1.4680501222610474,-1.9800001382827759,9.523050308227539
1781034509202752000,5.084751953125,1.0290000438690186,-1.7560501098632812,9.730950355529785
1781034509222274800,5.10427490234375,0.8419500589370728,-1.5220500230789185,9.782999992370605
1781034509241795600,5.123795654296875,0.8100000619888306,-1.3609501123428345,9.699000358581543
1781034509261316000,5.143316162109375,1.0090500116348267,-1.3150500059127808,9.703950881958008
1781034509280837400,5.16283740234375,1.3540500402450562,-1.3999500274658203,9.790950775146484
1781034509300358400,5.1823583984375,1.812000036239624,-1.5910500288009644,9.939000129699707
1781034509319880000,5.2018798828125,2.2210500240325928,-1.746000051498413,10.06605052947998
1781034509339402500,5.221402587890625,2.491950035095215,-1.7470500469207764,10.105950355529785
1781034509358922000,5.240921875,2.617950201034546,-1.6290000677108765,10.075050354003906
1781034509378442500,5.2604423828125,2.527050018310547,-1.4280000925064087,10.021050453186035
1781034509397964000,5.279964111328125,2.3899500370025635,-1.2220500707626343,9.90000057220459
1781034509417484500,5.299484619140625,2.2920000553131104,-1.068000078201294,9.741000175476074
1781034509437004000,5.319004150390625,2.3170502185821533,-1.01295006275177,9.598950386047363
1781034509456525000,5.338525146484375,2.454000234603882,-1.0810500383377075,9.41100025177002
1781034509476047600,5.358047607421875,2.568000078201294,-1.207050085067749,9.25005054473877
1781034509495568000,5.37756787109375,2.5500001907348633,-1.3440001010894775,9.031949996948242
1781034509515082800,5.397082763671875,2.442000150680542,-1.467000126838684,8.803950309753418
1781034509534598700,5.4165986328125,2.385000228881836,-1.606950044631958,8.60205078125
1781034509554116400,5.436116455078125,2.580000162124634,-1.6740000247955322,8.338050842285156
1781034509573638000,5.455637939453125,2.949000120162964,-1.6540501117706299,8.098950386047363
1781034509593160700,5.47516064453125,3.192000150680542,-1.6219500303268433,7.893000602722168
1781034509612681700,5.494681640625,3.1879501342773438,-1.6429500579833984,7.729050159454346
1781034509632199400,5.514199462890625,2.8690500259399414,-1.8079501390457153,7.609050273895264
1781034509651712500,5.53371240234375,2.31600022315979,-2.0429999828338623,7.504950523376465
1781034509671229400,5.5532294921875,1.76895010471344,-2.206050157546997,7.405950546264648
1781034509690751000,5.5727509765625,1.3210500478744507,-2.253000020980835,7.410000324249268
1781034509710269700,5.592269775390625,1.1370000839233398,-2.266050100326538,7.651050567626953
1781034509729785900,5.611785888671875,1.3999500274658203,-2.3140501976013184,8.067000389099121
1781034509749303800,5.6313037109375,3.025050163269043,-2.4499502182006836,8.560050010681152
1781034509768825000,5.6508251953125,3.457050085067749,-2.6290500164031982,8.968950271606445
1781034509788341500,5.670341552734375,3.9340500831604004,-2.8650002479553223,9.070950508117676
1781034509807854600,5.6898544921875,4.122000217437744,-3.1279501914978027,8.83905029296875
1781034509827371000,5.70937109375,3.934950113296509,-3.2119500637054443,8.44005012512207
1781034509846890800,5.728890869140625,3.318000078201294,-3.169950246810913,7.974000453948975
1781034509866409000,5.748408935546875,2.737950086593628,-3.052950143814087,7.660950183868408
1781034509885928400,5.767928466796875,2.2639501094818115,-3.010050058364868,7.450050354003906
1781034509905450800,5.78745068359375,2.0239500999450684,-3.2179501056671143,7.204950332641602
1781034509924971000,5.806970947265625,1.9309500455856323,-3.6850502490997314,6.997950553894043
1781034509944494600,5.82649462890625,1.818000078201294,-4.256999969482422,6.756000518798828
1781034509964016000,5.84601611328125,1.7760001420974731,-4.753050327301025,6.696000099182129
1781034509983537200,5.865537109375,1.7940000295639038,-5.055000305175781,6.808050155639648
1781034510003061800,5.885061767578125,1.921950101852417,-5.005950450897217,6.877050399780273
1781034510022585600,5.904585693359375,2.0310001373291016,-4.657050132751465,6.949050426483154
1781034510042111700,5.92411181640625,2.0410501956939697,-4.141050338745117,6.916950225830078
1781034510061635000,5.943635009765625,2.0470499992370605,-3.5850002765655518,6.798000335693359
1781034510081153500,5.963153564453125,2.1060001850128174,-3.1150500774383545,6.732000350952148
1781034510100675800,5.98267578125,2.299950122833252,-2.703000068664551,6.7009501457214355
1781034510120199700,6.00219970703125,2.5909500122070312,-2.365950107574463,6.787050247192383
1781034510139724500,6.021724609375,2.874000072479248,-2.11395001411438,6.903000354766846
1781034510159254500,6.041254638671875,3.14805006980896,-1.9350000619888306,6.997950553894043
1781034510178781400,6.060781494140625,3.289950132369995,-1.8570001125335693,7.111050128936768
1781034510198299100,6.080299072265625,3.367950201034546,-1.8930001258850098,7.216050148010254
1781034510217814300,6.099814208984375,3.400050163269043,-1.9960501194000244,7.353000164031982
1781034510237331700,6.119331787109375,3.3630001544952393,-2.137050151824951,7.534050464630127
1781034510256853200,6.138853271484375,3.3100502490997314,-2.2540500164031982,7.647000312805176
1781034510276373800,6.158373779296875,3.259050130844116,-2.299950122833252,7.705050468444824
1781034510295895300,6.177895263671875,3.1660501956939697,-2.326050043106079,7.759950160980225
1781034510315418000,6.197418212890625,3.06000018119812,-2.3989500999450684,7.813950538635254
1781034510334937300,6.216937255859375,2.968050241470337,-2.5309500694274902,7.914000511169434
1781034510354460700,6.236460693359375,2.863950252532959,-2.700000047683716,7.9960503578186035
1781034510373988600,6.255988525390625,2.7169501781463623,-2.968950033187866,8.14905071258545
1781034510393512000,6.275511962890625,2.4760501384735107,-3.346050262451172,8.36400032043457
1781034510413033500,6.295033447265625,2.1070501804351807,-3.808950185775757,8.506050109863281
1781034510432556800,6.314556884765625,1.6489500999450684,-4.318050384521484,8.657999992370605
1781034510452085800,6.334085693359375,1.2330000400543213,-4.803000450134277,8.749950408935547
1781034510471612700,6.35361279296875,1.0770000219345093,-5.191050052642822,8.743950843811035
1781034510491132200,6.373132080078125,1.3549500703811646,-5.539050102233887,8.63700008392334
1781034510510650400,6.392650390625,1.7040001153945923,-5.6610002517700195,8.77500057220459
1781034510530168600,6.41216845703125,1.8450000286102295,-5.4810004234313965,8.87700080871582
1781034510549687600,6.4316875,1.8160500526428223,-5.233050346374512,8.980050086975098
1781034510569208000,6.4512080078125,0.226950004696846,-4.957050323486328,9.367050170898438
1781034510588727300,6.470727294921875,0.025950001552700996,-4.711950302124023,9.655950546264648
1781034510608244500,6.490244384765625,0.1469999998807907,-4.615950107574463,9.976950645446777
1781034510627764700,6.5097646484375,0.6280500292778015,-4.669050216674805,10.267950057983398
1781034510647285000,6.529284912109375,2.4649500846862793,-4.879050254821777,10.252950668334961
1781034510666802700,6.548802734375,4.000050067901611,-5.403000354766846,9.838950157165527
1781034510686319000,6.568319091796875,4.44795036315918,-6.816000461578369,8.191950798034668
1781034510705838600,6.587838623046875,4.729050159454346,-6.853050231933594,7.975050449371338
1781034510725362000,6.60736181640625,4.672950267791748,-6.657000541687012,7.825050354003906
1781034510744883500,6.626883544921875,4.299000263214111,-6.13200044631958,7.881000518798828
1781034510764407800,6.64640771484375,3.7069501876831055,-4.438050270080566,8.026050567626953
1781034510783932200,6.66593212890625,3.258000135421753,-3.9130501747131348,8.10105037689209
1781034510803453000,6.685452880859375,3.3630001544952393,-2.3610000610351562,8.06505012512207
1781034510822972200,6.70497216796875,5.3620500564575195,-1.9230000972747803,8.0149507522583
1781034510842492200,6.7244921875,7.120950222015381,-1.5210000276565552,8.119950294494629
1781034510862014500,6.744014404296875,7.584000587463379,-1.3399500846862793,8.401050567626953
1781034510881537300,6.763537353515625,8.217000007629395,-1.4119501113891602,8.644050598144531
1781034510901059000,6.78305908203125,8.784000396728516,-1.675950050354004,8.668950080871582
1781034510920580400,6.802580322265625,9.093000411987305,-2.009999990463257,8.41604995727539
1781034510940103200,6.822103271484375,8.89905071258545,-2.350950002670288,8.032050132751465
1781034510959630600,6.841630615234375,6.8550004959106445,-2.623950242996216,7.7059502601623535
1781034510979161900,6.861161865234375,6.382950305938721,-2.7330000400543213,7.587000370025635
1781034510998692900,6.88069287109375,4.804050445556641,-2.6419501304626465,7.666950225830078
1781034511018218200,6.90021826171875,4.603950023651123,-2.4049501419067383,7.89900016784668
1781034511037741600,6.919741455078125,4.627950191497803,-2.25600004196167,8.220000267028809
1781034511057265400,6.939265380859375,4.79295015335083,-2.3400001525878906,8.425950050354004
1781034511076789500,6.95878955078125,4.972950458526611,-2.7120001316070557,8.404950141906738
1781034511096313600,6.978313720703125,5.025000095367432,-3.2250001430511475,8.151000022888184
1781034511115838200,6.997838134765625,4.786050319671631,-3.715050220489502,7.828050136566162
1781034511135363600,7.017363525390625,4.300050258636475,-4.102050304412842,7.609050273895264
1781034511154886100,7.03688623046875,3.736950159072876,-4.381050109863281,7.455000400543213
1781034511174409000,7.056408935546875,3.112950086593628,-4.681950092315674,7.362000465393066
1781034511193934000,7.07593408203125,2.5219500064849854,-4.972050189971924,7.2360005378723145
1781034511213454300,7.095454345703125,1.9939501285552979,-5.2260003089904785,7.098000526428223
1781034511232969500,7.114969482421875,1.4550000429153442,-5.4370503425598145,7.131000518798828
1781034511252488400,7.134488525390625,1.0920000076293945,-5.490000247955322,7.2360005378723145
1781034511272009700,7.154009765625,0.9799500703811646,-5.425050258636475,7.34505033493042
1781034511291528700,7.17352880859375,1.144950032234192,-5.305950164794922,7.36305046081543
1781034511311044600,7.193044677734375,1.5600000619888306,-5.1739501953125,7.279050350189209
1781034511330563000,7.21256298828125,2.1190500259399414,-5.059950351715088,7.14900016784668
1781034511350084900,7.2320849609375,2.7180001735687256,-4.978950023651123,7.014000415802002
1781034511369606700,7.251606689453125,3.180000066757202,-4.921050071716309,6.967950344085693
1781034511389129000,7.27112890625,3.517050266265869,-4.819950103759766,6.963000297546387
1781034511408649500,7.2906494140625,3.7729501724243164,-4.5960001945495605,6.958950519561768
1781034511428164900,7.310164794921875,3.873000144958496,-4.273050308227539,6.871950149536133
1781034511447681300,7.329681396484375,3.973950147628784,-3.879000186920166,6.709050178527832
1781034511467204000,7.3492041015625,4.080000400543213,-3.4069502353668213,6.558000087738037
1781034511486731000,7.36873095703125,4.111050128936768,-2.9770500659942627,6.402000427246094
1781034511506255400,7.38825537109375,4.126950263977051,-2.6070001125335693,6.313950061798096
1781034511525778400,7.4077783203125,4.219050407409668,-2.3209500312805176,6.328050136566162
1781034511545303600,7.427303466796875,4.266000270843506,-2.095950126647949,6.349950313568115
1781034511564829700,7.44682958984375,4.195950031280518,-1.9470001459121704,6.343950271606445
1781034511584352300,7.466352294921875,4.147050380706787,-1.8859500885009766,6.363000392913818
1781034511603875000,7.485875,4.116000175476074,-1.9459501504898071,6.348000526428223
1781034511623400200,7.505400146484375,3.9460501670837402,-2.1409502029418945,6.292050361633301
1781034511642924800,7.5249248046875,3.652050256729126,-2.370000123977661,6.38700008392334
1781034511662450700,7.54445068359375,3.2980501651763916,-2.578050136566162,6.654000282287598
1781034511681977000,7.56397705078125,2.893050193786621,-2.6520001888275146,7.023000240325928
1781034511701504500,7.58350439453125,2.680950164794922,-2.6269500255584717,7.402050495147705
1781034511721036800,7.603036865234375,2.4970500469207764,-2.577000141143799,7.593000411987305
1781034511740564700,7.622564697265625,2.205000162124634,-2.55495023727417,7.629000186920166
1781034511760086800,7.642086669921875,1.7010000944137573,-2.6389501094818115,7.64400053024292
1781034511779609000,7.661609130859375,0.19200000166893005,-2.7810001373291016,7.579950332641602
1781034511799133400,7.681133544921875,-0.14100000262260437,-2.9599502086639404,7.426050186157227
1781034511818659800,7.700659912109375,-0.41100001335144043,-3.1180500984191895,7.293000221252441
1781034511838185200,7.720185302734375,-0.5580000281333923,-3.2089500427246094,7.131000518798828
1781034511857710000,7.7397099609375,-0.7219500541687012,-3.2190001010894775,6.856050491333008
1781034511877239300,7.7592392578125,-0.921000063419342,-3.115950107574463,6.646050453186035
1781034511896770000,7.77877001953125,-1.1779500246047974,-2.968950033187866,6.613950252532959
1781034511916296000,7.7982958984375,-1.6189501285552979,-2.857950210571289,6.634950160980225
1781034511935819000,7.817819091796875,-2.26200008392334,-2.7930002212524414,6.591000080108643
1781034511955340500,7.837340576171875,-2.5699501037597656,-2.745000123977661,6.550050258636475
1781034511974862800,7.85686279296875,-2.413950204849243,-2.7199501991271973,6.484050273895264
1781034511994386400,7.876386474609375,-0.843000054359436,-2.6959500312805176,6.531000137329102
1781034512013910300,7.89591015625,-0.3460500240325928,-2.68500018119812,6.937950134277344
1781034512033430500,7.915430419921875,0.16695000231266022,-2.77305006980896,7.543050289154053
1781034512052950000,7.934949951171875,0.33000001311302185,-2.899050235748291,8.059950828552246
1781034512072473300,7.954473388671875,0.4129500091075897,-3.0640501976013184,8.320950508117676
1781034512091999500,7.97399951171875,0.5670000314712524,-3.2850000858306885,8.539050102233887
1781034512111524000,7.993524169921875,0.8830500245094299,-3.5430002212524414,8.730000495910645
1781034512131044900,8.013044921875,2.7370500564575195,-3.7450501918792725,8.838000297546387
1781034512150563600,8.0325634765625,3.037950038909912,-3.8830502033233643,8.943000793457031
1781034512170083800,8.052083740234375,3.535950183868408,-4.03095006942749,9.028950691223145
1781034512189605600,8.071605712890625,5.3620500564575195,-4.141050338745117,9.088050842285156
1781034512209123600,8.09112353515625,5.572050094604492,-4.361999988555908,9.166050910949707
1781034512228642300,8.110642333984375,5.908050060272217,-4.588050365447998,9.355950355529785
1781034512248166400,8.13016650390625,6.249000072479248,-4.606950283050537,9.483000755310059
1781034512267689700,8.149689697265625,6.3670501708984375,-4.669050216674805,9.598950386047363
1781034512287213300,8.16921337890625,6.361050128936768,-4.759950160980225,9.700050354003906
1781034512306738700,8.18873876953125,6.256950378417969,-4.70205020904541,9.696000099182129
1781034512326263600,8.208263671875,5.8999505043029785,-4.695000171661377,9.816000938415527
1781034512345789700,8.227789794921875,5.503950119018555,-4.6810503005981445,10.009050369262695
1781034512365316600,8.247316650390625,5.2819504737854,-4.650000095367432,9.999000549316406
1781034512384839400,8.26683935546875,4.956000328063965,-4.735050201416016,9.811050415039062
1781034512404364000,8.286364013671875,4.845000267028809,-4.981950283050537,9.633000373840332
1781034512423889000,8.305888916015626,5.068050384521484,-5.220000267028809,9.295050621032715
1781034512443414300,8.325414306640624,5.271000385284424,-5.401050090789795,8.845050811767578
1781034512462942700,8.344942626953125,5.506950378417969,-5.700000286102295,8.473050117492676
1781034512482468600,8.364468505859374,5.64300012588501,-6.0769500732421875,8.128950119018555
1781034512501996300,8.383996337890625,3.538950204849243,-6.56505012512207,8.337000846862793
1781034512521530000,8.403530029296874,3.114000082015991,-6.796950340270996,8.493000030517578
1781034512541059000,8.42305908203125,3.24495005607605,-6.69195032119751,8.44005012512207
1781034512560586500,8.44258642578125,3.349950075149536,-6.300000190734863,7.987050533294678
1781034512580115700,8.46211572265625,4.864050388336182,-5.701050281524658,6.226950168609619
1781034512599643000,8.481642822265625,5.044050216674805,-5.271000385284424,6.5209503173828125
1781034512619172000,8.501172119140625,4.540950298309326,-5.092050075531006,6.97005033493042
1781034512638703000,8.520703125,4.31505012512207,-5.095950126647949,7.423050403594971
1781034512658230800,8.540230712890626,4.549050331115723,-5.128950119018555,7.657050132751465
1781034512677754000,8.559754150390624,4.956000328063965,-5.160000324249268,7.426950454711914
1781034512697279700,8.57927978515625,6.718950271606445,-5.10705041885376,6.9210004806518555
1781034512716809200,8.598809326171875,6.790950298309326,-4.932000160217285,6.558000087738037
1781034512736338400,8.61833837890625,6.7260003089904785,-4.750950336456299,6.457050323486328
1781034512755864000,8.637864013671875,6.589950084686279,-4.629000186920166,6.688950538635254
1781034512775387600,8.6573876953125,6.1810503005981445,-4.609050273895264,7.260000228881836
1781034512794911200,8.6769111328125,5.653050422668457,-4.689000129699707,7.738950252532959
1781034512814435300,8.696435302734375,5.293050289154053,-4.843050003051758,7.866000175476074
1781034512833958100,8.715958251953126,5.187000274658203,-4.972050189971924,7.780950546264648
1781034512853484000,8.735484130859374,5.515050411224365,-4.594050407409668,7.702950477600098
1781034512873011500,8.755011474609375,5.884950160980225,-2.808000087738037,7.522050380706787
1781034512892537000,8.774537109375,6.0520501136779785,-2.5909500122070312,7.312950134277344
1781034512912062500,8.7940625,5.722950458526611,-2.362950086593628,7.120050430297852
1781034512931591000,8.8135908203125,4.107000350952148,-2.4660000801086426,6.913950443267822
1781034512951116500,8.833116455078125,3.744000196456909,-2.6860501766204834,6.95805025100708
1781034512970641200,8.85264111328125,3.4830002784729004,-2.794950246810913,7.087950229644775
1781034512990166800,8.872166748046874,3.61995005607605,-2.7900002002716064,7.177950382232666
1781034513009690400,8.8916904296875,3.9660000801086426,-2.8000500202178955,7.26900053024292
1781034513029213400,8.91121337890625,4.285950183868408,-2.8750500679016113,7.408050537109375
1781034513048741400,8.930741455078126,4.381050109863281,-3.007050037384033,7.786950588226318
1781034513068268300,8.950268310546875,4.090050220489502,-3.06600022315979,8.280000686645508
1781034513087790300,8.969790283203125,3.7350001335144043,-3.061950206756592,8.749950408935547
1781034513107310800,8.989310791015624,3.349950075149536,-2.971950054168701,9.219000816345215
1781034513126831600,9.00883154296875,1.5889500379562378,-2.809950113296509,9.556950569152832
1781034513146353400,9.028353515625,1.5070500373840332,-2.6580002307891846,9.720000267028809
1781034513165878000,9.0478779296875,1.6980000734329224,-2.6760001182556152,9.816000938415527
1781034513185408000,9.067407958984376,2.070000171661377,-2.7990000247955322,9.822000503540039
1781034513204936200,9.086936279296875,2.5789501667022705,-2.86995005607605,9.598950386047363
1781034513224458000,9.1064580078125,2.965050220489502,-2.998950242996216,9.342000007629395
1781034513243983600,9.125983642578126,3.0679502487182617,-3.2659502029418945,9.184050559997559
1781034513263513000,9.14551318359375,3.1960501670837402,-3.558000087738037,9.106050491333008
1781034513283039700,9.165039794921874,3.3040502071380615,-3.736950159072876,9.07395076751709
1781034513302565000,9.184565185546875,3.3030002117156982,-3.8020501136779785,9.007950782775879
1781034513322084000,9.204083984375,3.38700008392334,-3.643050193786621,8.855999946594238
1781034513341603800,9.223603759765625,3.400050163269043,-3.4200000762939453,8.629950523376465
1781034513361131300,9.24313134765625,3.4680001735687256,-3.2599501609802246,8.536050796508789
1781034513380659700,9.26265966796875,3.5850002765655518,-3.094050168991089,8.491950035095215
1781034513400186600,9.2821865234375,3.331050157546997,-2.9250001907348633,8.461950302124023
1781034513419711200,9.301711181640625,2.899050235748291,-2.8000500202178955,8.442000389099121
1781034513439236400,9.321236328125,2.5230000019073486,-2.854950189590454,8.392050743103027
1781034513458762000,9.340761962890625,2.3110501766204834,-2.9170501232147217,8.404050827026367
1781034513478283800,9.36028369140625,2.1010501384735107,-2.9059500694274902,8.37405014038086
1781034513497802800,9.379802734375,1.804050087928772,-2.823000192642212,8.266050338745117
1781034513517321500,9.399321533203125,1.540950059890747,-2.6760001182556152,8.245050430297852
1781034513536842500,9.418842529296874,1.2280501127243042,-2.5890002250671387,8.268000602722168
1781034513556364300,9.4383642578125,0.9709500670433044,-2.5450501441955566,8.260050773620605
1781034513575889000,9.457888916015625,0.8460000157356262,-2.530050039291382,8.206950187683105
1781034513595412700,9.477412841796875,0.7609500288963318,-2.5540502071380615,8.104050636291504
1781034513614933800,9.496933837890625,0.8659500479698181,-2.67900013923645,8.029050827026367
1781034513634458400,9.516458251953125,1.0579500198364258,-2.8189501762390137,8.008950233459473
1781034513653985500,9.535985595703124,1.1640000343322754,-2.92995023727417,8.092950820922852
1781034513673511700,9.55551171875,1.2450000047683716,-2.9569501876831055,8.163000106811523
1781034513693035800,9.575035888671875,1.3240500688552856,-2.791950225830078,8.134950637817383
1781034513712560600,9.594560546875,1.3650000095367432,-2.5830001831054688,8.047050476074219
1781034513732084700,9.614084716796874,1.3729500770568848,-2.439000129699707,7.924050331115723
1781034513751606000,9.63360595703125,1.3750500679016113,-2.3449501991271973,7.804050445556641
1781034513771127300,9.653127197265626,1.3699500560760498,-2.3140501976013184,7.789950370788574
1781034513790654200,9.672654296875,1.3369500637054443,-2.284950017929077,7.794000148773193
1781034513810186000,9.69218603515625,1.3320000171661377,-2.180999994277954,7.8160505294799805
1781034513829714400,9.71171435546875,1.3920000791549683,-2.104950189590454,7.92495059967041
1781034513849239000,9.731239013671875,1.429050087928772,-2.095050096511841,7.950000286102295
1781034513868764000,9.750763916015625,1.5490500926971436,-2.1349501609802246,8.00100040435791
1781034513888295200,9.770295166015625,1.7680500745773315,-2.290950059890747,8.193000793457031
1781034513907827000,9.789826904296875,1.9870500564575195,-2.4630000591278076,8.38800048828125
1781034513927353900,9.809353759765624,2.206050157546997,-2.6520001888275146,8.551050186157227
1781034513946878500,9.82887841796875,2.455050230026245,-2.8939502239227295,8.764050483703613
1781034513966403000,9.848403076171875,2.6539502143859863,-3.1879501342773438,8.88900089263916
1781034513985928200,9.86792822265625,2.7649500370025635,-3.4740002155303955,8.914950370788574
1781034514005448700,9.88744873046875,2.797950029373169,-3.765000104904175,8.88705062866211
1781034514024969000,9.906968994140625,2.757000207901001,-4.033950328826904,8.752950668334961
1781034514044487700,9.92648779296875,2.8339500427246094,-4.252050399780273,8.527050018310547
1781034514064009500,9.946009521484376,2.968050241470337,-4.470000267028809,8.244000434875488
1781034514083537200,9.965537109375,3.0990002155303955,-4.587000370025635,7.972950458526611
1781034514103066400,9.98506640625,3.258000135421753,-4.597949981689453,7.747950553894043
1781034514122589700,10.004589599609375,3.2760002613067627,-4.504050254821777,7.582950592041016
1781034514142108000,10.02410791015625,3.136050224304199,-4.429050445556641,7.498950481414795
1781034514161633300,10.04363330078125,2.9290502071380615,-4.444050312042236,7.552050590515137
1781034514181159400,10.063159423828125,2.571000099182129,-4.509000301361084,7.62600040435791
1781034514200679000,10.082678955078125,2.190000057220459,-4.578000068664551,7.659000396728516
1781034514220198700,10.10219873046875,1.864050030708313,-4.582950115203857,7.627950191497803
1781034514239718700,10.12171875,1.5559500455856323,-4.521000385284424,7.576950550079346
1781034514259238100,10.141238037109375,1.3609501123428345,-4.396049976348877,7.61400032043457
1781034514278759400,10.160759521484374,1.2829500436782837,-4.23105001449585,7.6870503425598145
1781034514298283300,10.180283203125,1.1970000267028809,-4.051949977874756,7.768950462341309
1781034514317805800,10.199805908203125,1.0980000495910645,-3.885000228881836,7.795950412750244
1781034514337327900,10.219327880859375,1.009950041770935,-3.7740001678466797,7.7440505027771
1781034514356852200,10.238852294921875,0.9799500703811646,-3.7330501079559326,7.828050136566162
1781034514376377000,10.258377197265625,1.0270500183105469,-3.697050094604492,7.927950382232666
1781034514395898600,10.277898681640625,1.1290500164031982,-3.6820502281188965,8.023050308227539
1781034514415418400,10.29741845703125,1.1910001039505005,-3.759000062942505,8.07705020904541
1781034514434937300,10.316937255859376,1.1130000352859497,-3.9460501670837402,8.005050659179688
1781034514454457900,10.336457763671875,1.0369499921798706,-4.180950164794922,7.918050289154053
1781034514473980200,10.355980224609375,1.0630500316619873,-4.368000030517578,7.843950271606445
1781034514493497600,10.37549755859375,1.180050015449524,-4.4599504470825195,7.795050144195557
1781034514513012200,10.39501220703125,1.3840500116348267,-4.488000392913818,7.729950428009033
1781034514532530000,10.414530029296875,1.6440000534057617,-4.513950347900391,7.603050231933594
1781034514552049200,10.434049072265625,1.8400501012802124,-4.537050247192383,7.479000568389893
1781034514571572700,10.45357275390625,1.9309500455856323,-4.4760003089904785,7.3720502853393555
1781034514591099400,10.473099365234376,2.0680501461029053,-4.384950160980225,7.278000354766846
1781034514610627600,10.492627685546875,2.2540500164031982,-4.270050048828125,7.237950325012207
1781034514630155000,10.512155029296874,2.4060001373291016,-4.129950046539307,7.159950256347656
1781034514649676500,10.531676513671876,2.5909500122070312,-4.050000190734863,7.071000099182129
1781034514669198000,10.551197998046876,2.734950065612793,-3.9930002689361572,7.078050136566162
1781034514688724500,10.570724365234375,2.8819501399993896,-3.988950252532959,7.173000335693359
1781034514708252400,10.59025244140625,3.177000045776367,-4.060050010681152,7.297050476074219
1781034514727780400,10.6097802734375,3.564000129699707,-4.126049995422363,7.411950588226318
1781034514747304200,10.62930419921875,3.841050148010254,-4.185000419616699,7.44705057144165
1781034514766825000,10.648824951171875,4.009050369262695,-4.150050163269043,7.410000324249268
1781034514786350300,10.668350341796875,3.8830502033233643,-4.02495002746582,7.380000114440918
1781034514805881300,10.68788134765625,3.5710501670837402,-3.813000202178955,7.377000331878662
1781034514825415000,10.707414794921876,3.223050117492676,-3.5560500621795654,7.2330002784729
1781034514844945400,10.7269453125,2.743950128555298,-3.369000196456909,6.916950225830078
1781034514864467500,10.746467529296876,2.218950033187866,-3.2569501399993896,6.741000175476074
1781034514883988000,10.765988037109375,1.76895010471344,-3.172950267791748,6.675000190734863
1781034514903513000,10.78551318359375,1.5700501203536987,-3.085050106048584,6.697050094604492
1781034514923032000,10.805031982421875,1.5619500875473022,-3.1309502124786377,6.841950416564941
1781034514942546700,10.824546630859375,1.5600000619888306,-3.312000274658203,6.8359503746032715
1781034514962063000,10.84406298828125,1.434000015258789,-3.532050132751465,6.675000190734863
1781034514981584000,10.863583984375,1.1950500011444092,-3.7219502925872803,6.547050476074219
1781034515001107700,10.883107666015626,0.8299500346183777,-3.80400013923645,6.4609503746032715
1781034515020634400,10.90263427734375,0.4909500181674957,-3.8170502185821533,6.466950416564941
1781034515040161500,10.92216162109375,0.43095001578330994,-3.756000280380249,6.5970001220703125
1781034515059684000,10.94168408203125,0.5460000038146973,-3.6820502281188965,6.718950271606445
1781034515079204900,10.961204833984375,0.8359500169754028,-3.61995005607605,6.816000461578369
1781034515098725600,10.9807255859375,1.3590000867843628,-3.561000108718872,6.880950450897217
1781034515118246400,11.000246337890625,1.998000144958496,-3.559950113296509,6.967050552368164
1781034515137768700,11.019768798828125,3.513000249862671,-3.6409502029418945,7.237950325012207
1781034515157291300,11.039291259765625,3.8749501705169678,-3.7740001678466797,7.669950485229492
1781034515176814600,11.058814697265625,3.9750001430511475,-3.907050132751465,7.779000282287598
1781034515196342000,11.078342041015626,3.796950101852417,-4.081050395965576,7.684050559997559
1781034515215870200,11.0978701171875,3.315000057220459,-4.222050189971924,7.641000270843506
1781034515235395000,11.11739501953125,1.804050087928772,-4.207050323486328,7.573050498962402
1781034515254923500,11.136923583984375,1.689000129699707,-4.063050270080566,7.813950538635254
1781034515274449700,11.15644970703125,1.582050085067749,-3.7950000762939453,8.21505069732666
1781034515293972000,11.175971923828126,1.3560000658035278,-3.4999501705169678,8.473050117492676
1781034515313493800,11.19549365234375,1.1920500993728638,-3.2260501384735107,8.722949981689453
1781034515333014500,11.2150146484375,1.0849500894546509,-2.9700000286102295,8.890050888061523
1781034515352537900,11.234537841796875,0.8830500245094299,-2.719050168991089,8.883000373840332
1781034515372062000,11.25406201171875,0.675000011920929,-2.4379501342773438,8.701950073242188
1781034515391585000,11.2735849609375,0.49500003457069397,-2.16795015335083,8.413050651550293
1781034515411111000,11.29311083984375,0.28395000100135803,-1.9519500732421875,8.18595027923584
1781034515430636800,11.31263671875,0.05205000191926956,-1.852950096130371,8.052000045776367
1781034515450161200,11.3321611328125,-0.11505000293254852,-1.858950138092041,7.923000335693359
1781034515469686000,11.35168603515625,-0.22200001776218414,-1.9330500364303589,7.921950340270996
1781034515489209900,11.3712099609375,-0.208950012922287,-2.052000045776367,8.113950729370117
1781034515508730000,11.390730224609374,-0.11100000888109207,-2.3329501152038574,8.278950691223145
1781034515528251000,11.4102509765625,0.3550500273704529,-2.707050085067749,8.677950859069824
1781034515547776800,11.42977685546875,2.0850000381469727,-2.9599502086639404,9.22095012664795
1781034515567304000,11.449303955078125,2.458050012588501,-3.1339502334594727,9.630000114440918
1781034515586829300,11.468829345703124,3.000000238418579,-3.3010501861572266,9.972000122070312
1781034515606352600,11.4883525390625,4.51800012588501,-3.5080502033233643,10.02495002746582
1781034515625873000,11.507872802734376,4.570050239562988,-3.7039501667022705,9.801000595092773
1781034515645390800,11.527390869140625,4.723950386047363,-3.7960500717163086,9.592050552368164
1781034515664909300,11.546909423828126,5.050950050354004,-3.8080501556396484,9.369000434875488
1781034515684432600,11.5664326171875,5.524050235748291,-3.7830002307891846,9.2160005569458
1781034515703956200,11.585956298828124,6.139050483703613,-3.670950174331665,8.985000610351562
1781034515723479300,11.605479248046874,8.079000473022461,-3.582000255584717,8.596050262451172
1781034515743004700,11.625004638671875,8.337000846862793,-3.5629501342773438,8.266050338745117
1781034515762531000,11.644531005859376,8.13794994354248,-3.547950267791748,7.813950538635254
1781034515782056000,11.664055908203125,7.651050567626953,-3.721050262451172,7.240950107574463
1781034515801576400,11.683576416015624,7.110000133514404,-3.954000234603882,6.781050205230713
1781034515821096200,11.70309619140625,5.395050048828125,-3.96405029296875,6.58305025100708
1781034515840617000,11.722616943359375,5.026950359344482,-3.81600022315979,6.942000389099121
1781034515860141300,11.742141357421875,2.92995023727417,-4.012050151824951,11.27595043182373
1781034515879669500,11.76166943359375,2.647050142288208,-4.138950347900391,13.077000617980957
1781034515899198500,11.781198486328124,2.6920502185821533,-4.113000392913818,12.70995044708252
1781034515918723000,11.80072314453125,4.82295036315918,-4.2109503746032715,10.849950790405273
1781034515938246100,11.82024609375,7.888950347900391,-4.059000015258789,7.021050453186035
1781034515957773600,11.839773681640626,9.558000564575195,-3.9030001163482666,5.265000343322754
1781034515977296000,11.8592958984375,9.634050369262695,-3.916950225830078,7.480050563812256
1781034515996816600,11.878816650390625,8.005050659179688,-4.023000240325928,7.707000255584717
1781034516016338700,11.898338623046875,6.412050247192383,-4.120950222015381,7.987050533294678
1781034516035858700,11.917858642578125,5.992950439453125,-4.223999977111816,8.016000747680664
1781034516055381000,11.937381103515625,5.401050090789795,-4.24500036239624,7.617000579833984
1781034516074905300,11.9569052734375,5.077950477600098,-4.011000156402588,7.159950256347656
1781034516094432000,11.976431884765624,5.158950328826904,-3.550950050354004,6.967950344085693
1781034516113957400,11.995957275390625,5.545050144195557,-3.1249501705169678,7.132050514221191
1781034516133480700,12.015480712890625,5.82705020904541,-2.9580001831054688,7.467000484466553
1781034516153005300,12.03500537109375,5.929050445556641,-3.0510001182556152,7.998000144958496
1781034516172527000,12.054527099609375,5.904000282287598,-3.2940001487731934,8.535000801086426
1781034516192045000,12.074045166015624,5.614950180053711,-3.558000087738037,8.737950325012207
1781034516211562800,12.093562744140625,5.304000377655029,-3.7729501724243164,8.668050765991211
1781034516231082000,12.11308203125,5.058000087738037,-3.862950086593628,8.326950073242188
1781034516250603000,12.13260302734375,4.687950134277344,-3.7600502967834473,7.948050498962402
1781034516270122800,12.152122802734375,4.365000247955322,-3.5970001220703125,7.713000297546387
1781034516289642500,12.171642578125,4.291950225830078,-3.427950143814087,7.681950569152832
1781034516309162000,12.191161865234376,4.210050106048584,-3.2530500888824463,7.932000160217285
1781034516328681200,12.21068115234375,4.068000316619873,-3.1960501670837402,8.359050750732422
1781034516348202500,12.230202392578125,4.164000034332275,-3.1459500789642334,8.704050064086914
1781034516367728600,12.249728759765626,4.369050025939941,-3.076050043106079,8.770950317382812
1781034516387256600,12.269256591796875,4.669050216674805,-3.019050121307373,8.73705005645752
1781034516406788400,12.288788330078125,4.924950122833252,-2.889000177383423,8.659049987792969
1781034516426320100,12.308320068359375,4.882950305938721,-2.764050245285034,8.710050582885742
1781034516445849000,12.32784912109375,4.779000282287598,-2.634000062942505,8.830950736999512
1781034516465374500,12.34737451171875,4.663950443267822,-2.4910500049591064,8.893950462341309
1781034516484899000,12.366899169921876,4.444050312042236,-2.401050090789795,8.932950019836426
1781034516504422700,12.386422607421874,4.027050018310547,-2.362950086593628,8.950050354003906
1781034516523945000,12.405945068359374,3.6889500617980957,-2.3620500564575195,8.973000526428223
1781034516543468500,12.425468505859374,3.6280500888824463,-2.3940000534057617,8.91195011138916
1781034516562987300,12.4449873046875,3.9130501747131348,-2.4570000171661377,8.779950141906738
1781034516582499800,12.464499755859375,4.42995023727417,-2.539950132369995,8.758049964904785
1781034516602015700,12.484015625,4.701000213623047,-2.518050193786621,8.770950317382812
1781034516621535700,12.50353564453125,4.672950267791748,-2.356950044631958,8.737950325012207
1781034516641056500,12.523056396484375,4.408950328826904,-2.218050003051758,8.731950759887695
1781034516660582100,12.54258203125,4.033050060272217,-2.136000156402588,8.620950698852539
1781034516680102700,12.5621025390625,3.6120002269744873,-2.0749499797821045,8.527050018310547
1781034516699618600,12.58161865234375,3.1879501342773438,-2.01104998588562,8.523000717163086
1781034516719137800,12.6011376953125,2.9059500694274902,-1.9579501152038574,8.503050804138184
1781034516738656800,12.62065673828125,2.809950113296509,-1.8660000562667847,8.509050369262695
1781034516758176300,12.64017626953125,2.7580502033233643,-1.7479500770568848,8.581050872802734
1781034516777695000,12.659695068359374,2.4870002269744873,-1.645050048828125,8.719950675964355
1781034516797212200,12.679212158203125,2.02305006980896,-1.540950059890747,8.854949951171875
1781034516816725500,12.6987255859375,1.7149500846862793,-1.4929500818252563,8.854949951171875
1781034516836238600,12.718238525390625,1.5360000133514404,-1.4380500316619873,8.722949981689453
1781034516855755000,12.737755126953125,1.5100500583648682,-1.3750500679016113,8.430000305175781
1781034516875274800,12.757274658203125,1.519950032234192,-1.333050012588501,8.131950378417969
1781034516894794200,12.776794189453126,1.3470001220703125,-1.3429501056671143,7.890000343322754
1781034516914314000,12.79631396484375,1.2340500354766846,-1.4440500736236572,7.660950183868408
1781034516933837000,12.815837158203125,1.3039500713348389,-1.5600000619888306,7.53000020980835
1781034516953357300,12.835357421875,1.3680000305175781,-1.675950050354004,7.486050128936768
1781034516972876000,12.8548759765625,1.3720500469207764,-1.7850000858306885,7.570950508117676
1781034516992397800,12.874397705078126,1.5010501146316528,-1.8660000562667847,7.753050327301025
1781034517011919600,12.893919677734376,1.749000072479248,-1.963050127029419,8.055000305175781
1781034517031438300,12.913438232421875,2.1499500274658203,-2.0710501670837402,8.413050651550293
1781034517050955500,12.93295556640625,2.6580002307891846,-2.1600000858306885,8.589000701904297
1781034517070475000,12.95247509765625,3.0510001182556152,-2.26200008392334,8.55405044555664
1781034517090000400,12.97200048828125,3.346950054168701,-2.3650500774383545,8.302950859069824
1781034517109524000,12.99152392578125,3.6540002822875977,-2.39805006980896,7.9110002517700195
1781034517129047600,13.011047607421874,3.7039501667022705,-2.4060001373291016,7.654950141906738
1781034517148568600,13.030568603515626,3.61995005607605,-2.385000228881836,7.606050491333008
1781034517168091400,13.05009130859375,3.5490002632141113,-2.365950107574463,7.618950366973877
1781034517187616500,13.069616455078124,3.4699501991271973,-2.4310500621795654,7.656000137329102
1781034517207134500,13.089134521484375,3.6559500694274902,-2.521050214767456,7.651050567626953
1781034517226652000,13.10865185546875,3.9100501537323,-2.619000196456909,7.477950572967529
1781034517246170600,13.128170654296875,4.033050060272217,-2.725950241088867,7.249950408935547
1781034517265689300,13.147689453125,4.005000114440918,-2.7850501537323,7.039050102233887
1781034517285208300,13.167208251953125,3.7009501457214355,-2.82705020904541,6.928050518035889
1781034517304728800,13.186728759765625,3.20205020904541,-2.883000135421753,6.966000556945801
1781034517324248600,13.20624853515625,2.6640000343322754,-2.956050157546997,7.098000526428223
1781034517343765800,13.225765869140625,2.221950054168701,-3.1080000400543213,7.252050399780273
1781034517363286500,13.24528662109375,1.91100013256073,-3.2719502449035645,7.417050361633301
1781034517382809300,13.264809326171875,1.798050045967102,-3.4429502487182617,7.521000385284424
1781034517402333000,13.2843330078125,1.7779500484466553,-3.5779502391815186,7.63200044631958
1781034517421857800,13.30385791015625,1.7440500259399414,-3.6450002193450928,7.756950378417969
1781034517441383700,13.3233837890625,1.746000051498413,-3.721050262451172,7.801050186157227
1781034517460913000,13.342912841796876,1.6249500513076782,-3.7740001678466797,7.819050312042236
1781034517480439300,13.362439208984375,1.5040500164031982,-3.9030001163482666,7.804050445556641
1781034517499962400,13.38196240234375,1.53000009059906,-4.039050102233887,7.7560505867004395
1781034517519485200,13.401485107421875,1.6780500411987305,-4.138950347900391,7.681950569152832
1781034517539009000,13.421009033203125,1.9060500860214233,-4.2330002784729,7.62600040435791
1781034517558535400,13.440535400390624,2.1499500274658203,-4.258950233459473,7.582950592041016
1781034517578057700,13.4600576171875,2.338050127029419,-4.204950332641602,7.552950382232666
1781034517597576200,13.479576171875,2.533050060272217,-4.080000400543213,7.534050464630127
1781034517617095200,13.49909521484375,2.83305025100708,-3.876000165939331,7.519050121307373
1781034517636618000,13.518617919921875,3.057000160217285,-3.6790502071380615,7.453050136566162
1781034517656146400,13.538146484375,3.2500500679016113,-3.481950283050537,7.312950134277344
1781034517675679200,13.55767919921875,3.478950262069702,-3.3040502071380615,7.180950164794922
1781034517695207700,13.577207763671876,3.6700501441955566,-3.1020002365112305,7.114050388336182
1781034517714726100,13.59672607421875,4.012050151824951,-2.8429501056671143,7.06095027923584
1781034517734243300,13.616243408203125,4.398000240325928,-2.5920000076293945,7.078050136566162
1781034517753766400,13.635766357421875,4.750950336456299,-2.4049501419067383,7.081050395965576
1781034517773288400,13.655288330078125,5.00700044631958,-2.311950206756592,6.988950252532959
1781034517792808000,13.674807861328125,4.852950096130371,-2.287950038909912,6.856050491333008
1781034517812328400,13.694328369140624,4.308000087738037,-2.379000186920166,6.796950340270996
1781034517831848200,13.71384814453125,2.6490001678466797,-2.625000238418579,6.865050315856934
1781034517851369000,13.733368896484375,2.2519500255584717,-2.9659502506256104,7.023000240325928
1781034517870889500,13.752889404296875,2.202000141143799,-3.3109500408172607,7.270050525665283
1781034517890408400,13.772408447265626,2.6550002098083496,-3.718050241470337,7.474950313568115
1781034517909928200,13.79192822265625,4.405050277709961,-4.095000267028809,7.516050338745117
1781034517929447200,13.811447265625,4.435050010681152,-4.438950061798096,7.480950355529785
1781034517948961800,13.8309619140625,4.260000228881836,-4.680000305175781,7.4659504890441895
1781034517968479500,13.8504794921875,2.3899500370025635,-4.684950351715088,7.44705057144165
1781034517987998500,13.86999853515625,0.7830000519752502,-4.455000400543213,7.365000247955322
1781034518007522000,13.88952197265625,0.35295000672340393,-4.1010003089904785,7.159950256347656
1781034518027047200,13.909047119140626,-1.228950023651123,-3.76200008392334,6.979050159454346
1781034518046569500,13.928569580078126,-1.3429501056671143,-3.4549500942230225,6.909000396728516
1781034518066089500,13.94808935546875,-1.1670000553131104,-3.295950174331665,7.051050186157227
1781034518085607200,13.967607177734376,-0.8350500464439392,-3.28695011138916,7.36305046081543
1781034518105128000,13.9871279296875,-0.3859500288963318,-3.3390002250671387,7.567950248718262
1781034518124652500,14.006652587890626,-0.039000000804662704,-3.436950206756592,7.629000186920166
1781034518144178000,14.026177978515625,0.12000000476837158,-3.5850002765655518,7.6110005378723145
1781034518163699700,14.04569970703125,0.17100000381469727,-3.721050262451172,7.456050395965576
1781034518183222000,14.065221923828124,0.19305001199245453,-3.796950101852417,7.185000419616699
1781034518202743000,14.084742919921876,0.07800000160932541,-3.7570502758026123,6.985050201416016
1781034518222260500,14.104260498046875,-0.09105000644922256,-3.567000150680542,6.945000171661377
1781034518241778400,14.1237783203125,-0.21405000984668732,-3.3259501457214355,7.006050109863281
1781034518261298700,14.143298583984375,-0.24300001561641693,-3.1519501209259033,7.129950523376465
1781034518280818000,14.16281787109375,-0.13199999928474426,-3.1249501705169678,7.249950408935547
1781034518300329700,14.182329833984374,0.18000000715255737,-3.192000150680542,7.288050174713135
1781034518319846000,14.201845947265625,0.5320500135421753,-3.2659502029418945,7.293000221252441
1781034518339366100,14.2213662109375,0.6829500198364258,-3.3109500408172607,7.264950275421143
1781034518358878700,14.240878662109376,0.673050045967102,-3.2220001220703125,7.0600504875183105
1781034518378389200,14.26038916015625,0.51705002784729,-3.0169501304626465,6.928950309753418
1781034518397906400,14.279906494140626,0.2689500153064728,-2.854950189590454,7.084050178527832
1781034518417425200,14.299425048828125,-0.07304999977350235,-2.8210501670837402,7.336050510406494
1781034518436935200,14.31893505859375,-0.47805002331733704,-2.814000129699707,7.546950340270996
1781034518456446700,14.33844677734375,-0.8340000510215759,-2.7430500984191895,7.693050384521484
1781034518475967200,14.35796728515625,-0.7270500063896179,-2.7150001525878906,8.023950576782227
1781034518495487700,14.37748779296875,0.9769500494003296,-2.623950242996216,8.560050010681152
1781034518515007200,14.39700732421875,1.4110500812530518,-2.5690500736236572,9.021000862121582
1781034518534532400,14.416532470703125,3.349950075149536,-2.743950128555298,9.552000045776367
1781034518554057200,14.43605712890625,3.6979501247406006,-3.1120500564575195,9.93600082397461
1781034518573577700,14.45557763671875,3.9630002975463867,-3.6190502643585205,9.939000129699707
1781034518593095000,14.475094970703125,4.384950160980225,-5.259000301361084,9.802950859069824
1781034518612613000,14.494613037109374,4.578000068664551,-5.445000171661377,9.322050094604492
1781034518632131600,14.514131591796875,4.699950218200684,-5.559000492095947,7.720950603485107
1781034518651650000,14.533650146484375,4.915050029754639,-5.521050453186035,7.519050121307373
1781034518671168500,14.55316845703125,5.082000255584717,-5.457000255584717,7.338000297546387
1781034518690681900,14.572681884765625,5.230050086975098,-5.343000411987305,7.069950103759766
1781034518710190300,14.5921904296875,5.317950248718262,-5.205000400543213,6.850050449371338
1781034518729700600,14.61170068359375,5.269050121307373,-5.112000465393066,6.699000358581543
1781034518749215700,14.6312158203125,4.9770002365112305,-5.209050178527832,6.652950286865234
1781034518768728600,14.650728515625,3.220050096511841,-7.042050361633301,6.687000274658203
1781034518788241000,14.670240966796875,1.1910001039505005,-7.249950408935547,6.778050422668457
1781034518807756000,14.689756103515625,1.0060499906539917,-7.363950252532959,6.78000020980835
1781034518827271400,14.709271484375,1.4590500593185425,-7.354050159454346,6.987000465393066
1781034518846787000,14.728787109375,5.071950435638428,-7.039050102233887,7.423050403594971
1781034518866305800,14.748305908203125,6.925950527191162,-6.655950546264648,7.713000297546387
1781034518885826000,14.767825927734375,9.049050331115723,-6.639000415802002,7.903050422668457
1781034518905345800,14.787345703125,9.421050071716309,-6.927000522613525,7.999050617218018
1781034518924863000,14.806863037109375,9.850050926208496,-7.150050163269043,7.9009504318237305
1781034518944378000,14.826378173828125,9.823050498962402,-7.372950553894043,7.800000190734863
1781034518963890200,14.84589013671875,7.659000396728516,-7.687950134277344,7.8409504890441895
1781034518983400700,14.865400634765624,5.91795015335083,-7.651950359344482,7.699950218200684
1781034519002912800,14.884912841796876,5.4280500411987305,-7.405050277709961,7.384950160980225
1781034519022428200,14.90442822265625,4.968000411987305,-7.254000186920166,6.865950107574463
1781034519041948200,14.9239482421875,4.797000408172607,-7.104000568389893,5.169000148773193
1781034519061469700,14.9434697265625,4.845000267028809,-6.976950168609619,4.783050060272217
1781034519080994300,14.962994384765626,4.996950149536133,-6.897000312805176,4.497000217437744
1781034519100520700,14.982520751953125,4.999050140380859,-6.763950347900391,4.426050186157227
1781034519120048400,15.00204833984375,4.846950054168701,-6.571950435638428,4.7719502449035645
1781034519139570400,15.0215703125,4.4920501708984375,-6.538950443267822,6.5209503173828125
1781034519159090700,15.041090576171875,4.1419501304626465,-6.571950435638428,6.754050254821777
1781034519178614500,15.060614501953125,3.973950147628784,-6.57105016708374,7.078050136566162
1781034519198139100,15.08013916015625,4.063950061798096,-6.592050075531006,7.294950485229492
1781034519217659400,15.099659423828125,4.380000114440918,-6.664050102233887,7.2300004959106445
1781034519237180000,15.119179931640625,4.783950328826904,-6.7159504890441895,7.005000114440918
1781034519256704500,15.13870458984375,5.215050220489502,-6.712050437927246,6.684000492095947
1781034519276223700,15.1582236328125,5.707950115203857,-6.676950454711914,6.358950138092041
1781034519295743000,15.177742919921876,6.220950126647949,-6.5620503425598145,6.1650004386901855
1781034519315263700,15.197263671875,6.610950469970703,-6.375000476837158,6.136950492858887
1781034519334784300,15.2167841796875,6.807000160217285,-6.148050308227539,6.23805046081543
1781034519354306300,15.236306396484375,6.738000392913818,-5.934000492095947,6.382950305938721
1781034519373824800,15.25582470703125,6.430050373077393,-5.743950366973877,6.5370001792907715
1781034519393342500,15.275342529296875,5.979000091552734,-5.563950061798096,6.588000297546387
1781034519412864500,15.294864501953125,5.443950176239014,-5.365950107574463,6.6820502281188965
1781034519432386600,15.314386474609375,4.903050422668457,-4.986000061035156,6.87600040435791
1781034519451905500,15.333905517578126,3.0810000896453857,-4.509000301361084,7.063950538635254
1781034519471424000,15.353424072265625,2.707050085067749,-4.120950222015381,7.314000129699707
1781034519490944000,15.372944091796874,2.278050184249878,-3.8800501823425293,7.473000526428223
1781034519510464500,15.392464599609376,2.0970001220703125,-3.763050079345703,7.474050521850586
1781034519529989600,15.41198974609375,2.4100501537323,-3.6630001068115234,7.474950313568115
1781034519549514000,15.431513916015625,3.8710501194000244,-3.6250500679016113,7.51800012588501
1781034519569036800,15.451036865234375,4.213050365447998,-3.7290000915527344,7.621950149536133
1781034519588558800,15.470558837890625,4.6180500984191895,-3.9180002212524414,7.719000339508057
1781034519608084500,15.49008447265625,4.9170002937316895,-4.135050296783447,7.779000282287598
1781034519627609000,15.509609130859374,5.028000354766846,-4.273050308227539,7.878000259399414
1781034519647129900,15.5291298828125,5.038050174713135,-4.296000003814697,8.067000389099121
1781034519666649300,15.5486494140625,4.870050430297852,-4.237950325012207,8.34000015258789
1781034519686174200,15.56817431640625,4.432950019836426,-4.114050388336182,8.527950286865234
1781034519705704400,15.587704345703125,4.132050037384033,-4.002000331878662,8.500950813293457
1781034519725232400,15.607232421875,4.085999965667725,-3.867000102996826,8.377950668334961
1781034519744755000,15.6267548828125,3.876000165939331,-3.7609500885009766,8.248950004577637
1781034519764276000,15.64627587890625,3.6120002269744873,-3.7710001468658447,8.146050453186035
1781034519783799800,15.6657998046875,3.43500018119812,-3.81600022315979,7.9860005378723145
1781034519803325000,15.685324951171875,3.166950225830078,-3.825000286102295,7.795050144195557
1781034519822851000,15.70485107421875,2.7720000743865967,-3.888000249862671,7.717050552368164
1781034519842379000,15.72437890625,2.5069501399993896,-3.9690001010894775,7.680000305175781
1781034519861907200,15.7439072265625,2.4690001010894775,-3.90405011177063,7.7059502601623535
1781034519881435000,15.763434814453126,2.428950071334839,-3.756000280380249,7.777950286865234
1781034519900961800,15.7829619140625,2.3830502033233643,-3.535950183868408,7.776000499725342
1781034519920483300,15.8024833984375,2.239950180053711,-3.2920501232147217,7.828050136566162
1781034519940000300,15.822000244140625,1.812000036239624,-3.118950128555298,7.9200005531311035
1781034519959517000,15.841516845703126,1.300950050354004,-3.0180001258850098,7.921050548553467
1781034519979036200,15.8610361328125,1.002000093460083,-3.01200008392334,7.833000183105469
1781034519998550800,15.88055078125,0.906000018119812,-2.9820001125335693,7.732950210571289
1781034520018062600,15.9000625,0.7579500079154968,-2.9790000915527344,7.699050426483154
1781034520037578800,15.919578857421875,0.5230500102043152,-3.0319502353668213,7.672950267791748
1781034520057097200,15.93909716796875,0.37800002098083496,-3.037050247192383,7.633050441741943
1781034520076618200,15.9586181640625,0.27900001406669617,-3.0460500717163086,7.668000221252441
1781034520096141600,15.9781416015625,0.23205001652240753,-3.0210001468658447,7.702950477600098
1781034520115661800,15.997661865234376,0.3240000009536743,-3.0210001468658447,7.692000389099121
1781034520135180500,16.0171806640625,0.45795002579689026,-3.091050148010254,7.653000354766846
1781034520154699500,16.036699462890624,0.5779500007629395,-3.205050230026245,7.669950485229492
1781034520174218000,16.056218017578125,0.7110000252723694,-3.3319501876831055,7.770000457763672
1781034520193735700,16.075735595703126,0.8719500303268433,-3.4230000972747803,7.957950592041016
1781034520213257500,16.095257568359376,1.0870500802993774,-3.5029501914978027,8.301000595092773
1781034520232783400,16.114783447265626,1.3870500326156616,-3.5809502601623535,8.508000373840332
1781034520252307200,16.13430712890625,1.6500000953674316,-3.721050262451172,8.5489501953125
1781034520271830500,16.15383056640625,1.735050082206726,-3.895050287246704,8.63895034790039
1781034520291357200,16.173357177734374,1.6930500268936157,-4.047000408172607,8.689050674438477
1781034520310881800,16.1928818359375,1.6609500646591187,-4.185000419616699,8.733000755310059
1781034520330405600,16.212405517578127,1.8049501180648804,-4.230000019073486,8.809950828552246
1781034520349932000,16.23193212890625,2.16795015335083,-4.189949989318848,8.782950401306152
1781034520369459200,16.251459228515625,2.4660000801086426,-4.1419501304626465,8.688000679016113
1781034520388987600,16.270987548828124,2.634000062942505,-4.0819501876831055,8.607000350952148
1781034520408515600,16.290515625,2.6620500087738037,-4.0489501953125,8.49000072479248
1781034520428040200,16.310040283203126,2.574000120162964,-4.06095027923584,8.427000045776367
1781034520447561200,16.329561279296875,2.434950113296509,-4.087049961090088,8.332050323486328
1781034520467078000,16.349077880859376,2.107950210571289,-4.13700008392334,8.166000366210938
1781034520486597600,16.36859765625,1.7070001363754272,-4.171950340270996,8.032050132751465
1781034520506122800,16.388122802734376,1.3459500074386597,-4.216950416564941,7.849050521850586
1781034520525646300,16.407646240234374,1.1479500532150269,-4.2210001945495605,7.699950218200684
1781034520545173500,16.427173583984374,1.1440500020980835,-4.2109503746032715,7.591050148010254
1781034520564699100,16.44669921875,1.231950044631958,-4.2270002365112305,7.465050220489502
1781034520584217300,16.46621728515625,1.3639500141143799,-4.249050140380859,7.390050411224365
1781034520603739100,16.4857392578125,1.4220000505447388,-4.285950183868408,7.360050201416016
1781034520623261400,16.505261474609377,1.3980001211166382,-4.314000129699707,7.375950336456299
1781034520642780400,16.524780517578126,1.2930001020431519,-4.369950294494629,7.408050537109375
1781034520662302200,16.54430224609375,1.0849500894546509,-4.359000205993652,7.4760003089904785
1781034520681827000,16.5638271484375,0.8700000643730164,-4.264050006866455,7.510950565338135
1781034520701350000,16.583349853515625,0.703950047492981,-4.111050128936768,7.522950172424316
1781034520720872200,16.6028720703125,0.6270000338554382,-3.9720001220703125,7.537050247192383
1781034520740391700,16.6223916015625,0.6649500131607056,-3.9160501956939697,7.525050163269043
1781034520759910700,16.64191064453125,0.7189500331878662,-3.9720001220703125,7.513050556182861
1781034520779430700,16.6614306640625,0.8460000157356262,-4.107000350952148,7.494000434875488
1781034520798950000,16.680949951171876,0.9570000171661377,-4.242000102996826,7.459050178527832
1781034520818469600,16.7004697265625,1.0080000162124634,-4.336050033569336,7.453050136566162
1781034520837987000,16.719987060546874,1.1299500465393066,-4.365000247955322,7.473000526428223
1781034520857504300,16.739504150390626,1.2649500370025635,-4.324050426483154,7.515000343322754
1781034520877027600,16.759027587890625,1.453950047492981,-4.228950023651123,7.588950157165527
1781034520896554200,16.77855419921875,1.6870501041412354,-4.126049995422363,7.62600040435791
1781034520916079600,16.79807958984375,1.894050121307373,-4.024050235748291,7.672050476074219
1781034520935606500,16.8176064453125,2.0779500007629395,-3.9430501461029053,7.65000057220459
1781034520955130400,16.83713037109375,2.259000062942505,-3.882000207901001,7.52400016784668
1781034520974652000,16.85665185546875,2.454000234603882,-3.826050281524658,7.3399505615234375
1781034520994174700,16.8761748046875,2.6670000553131104,-3.693000078201294,7.158000469207764
1781034521013698000,16.895697998046874,3.0040502548217773,-3.4800002574920654,7.000950336456299
1781034521033218300,16.91521826171875,3.5719501972198486,-3.135000228881836,6.970950126647949
1781034521052737300,16.9347373046875,5.359950065612793,-2.7550501823425293,6.982950210571289
1781034521072260900,16.9542607421875,5.469000339508057,-2.577000141143799,6.937950134277344
1781034521091786200,16.9737861328125,5.470950126647949,-2.614950180053711,6.913050174713135
1781034521111308800,16.993308837890623,5.122950077056885,-2.8500001430511475,6.757950305938721
1781034521130832100,17.01283203125,3.427950143814087,-3.097050189971924,6.58305025100708
1781034521150354000,17.03235400390625,3.283050060272217,-3.145050048828125,6.525000095367432
1781034521169873200,17.051873046875,3.1590001583099365,-3.0460500717163086,6.531000137329102
1781034521189395000,17.07139501953125,3.040950059890747,-3.0550501346588135,6.775050163269043
1781034521208918000,17.09091796875,3.022050142288208,-3.1740002632141113,7.156050205230713
1781034521228439600,17.110439453125,3.025050163269043,-3.4110002517700195,7.4659504890441895
1781034521247961900,17.1299619140625,2.805000066757202,-3.753000259399414,7.788000583648682
1781034521267480800,17.149480712890625,2.3779501914978027,-3.9280502796173096,7.9830002784729
1781034521287001300,17.16900146484375,0.7240500450134277,-3.9100501537323,7.91295051574707
1781034521306524200,17.188524169921877,0.3949500322341919,-3.7890002727508545,7.756950378417969
1781034521326043400,17.20804345703125,0.015000000596046448,-3.621000289916992,7.513950347900391
1781034521345561300,17.227561279296875,-0.2569500207901001,-3.495000123977661,7.2270002365112305
1781034521365079000,17.2470791015625,-0.4230000078678131,-3.38700008392334,7.027050495147705
1781034521384600000,17.26660009765625,-0.51705002784729,-3.2659502029418945,6.886050224304199
1781034521404121300,17.286121337890624,-0.5839500427246094,-3.106950044631958,6.769050121307373
1781034521423644400,17.30564453125,-0.597000002861023,-2.9029500484466553,6.5209503173828125
1781034521443168500,17.32516845703125,-0.4030500054359436,-2.8150501251220703,6.400050163269043
1781034521462687700,17.344687744140625,-0.004050000105053186,-2.803950071334839,6.5560503005981445
1781034521482204700,17.36420458984375,0.4320000112056732,-2.6710500717163086,6.709050178527832
1781034521501725200,17.38372509765625,0.8800500631332397,-2.4120001792907715,7.000950336456299
1781034521521249800,17.403249755859374,1.1959500312805176,-2.134050130844116,7.329000473022461
1781034521540772900,17.42277294921875,1.4359500408172607,-1.9120501279830933,7.579950332641602
1781034521560297000,17.442296875,1.6249500513076782,-1.752000093460083,7.81095027923584
1781034521579822000,17.461822021484377,1.8250501155853271,-1.7670000791549683,8.050050735473633
1781034521599345700,17.481345703125,2.196000099182129,-1.858950138092041,8.311050415039062
1781034521618866400,17.500866455078125,2.454000234603882,-1.897050142288208,8.557950019836426
1781034521638386400,17.520386474609374,2.3479502201080322,-1.977000117301941,8.848950386047363
1781034521657906000,17.539906005859375,2.0460000038146973,-2.1229500770568848,9.043950080871582
1781034521677425000,17.5594248046875,1.4760000705718994,-2.419950008392334,9.118050575256348
1781034521696946000,17.57894580078125,0.9580500721931458,-2.745000123977661,9.065999984741211
1781034521716471000,17.598470947265625,0.7459500432014465,-2.9640002250671387,8.98905086517334
1781034521735997700,17.617997802734376,0.8209500312805176,-3.037050247192383,9.040950775146484
1781034521755524900,17.63752490234375,1.336050033569336,-2.989950180053711,9.094950675964355
1781034521775051800,17.6570517578125,2.968050241470337,-2.934000253677368,9.193050384521484
1781034521794572500,17.676572509765624,3.211050033569336,-2.809950113296509,9.256950378417969
1781034521814094600,17.696094482421874,3.472050189971924,-2.6760001182556152,9.157950401306152
1781034521833618200,17.7156181640625,3.8749501705169678,-2.590050220489502,9.003000259399414
1781034521853137000,17.735136962890625,4.102050304412842,-2.632050037384033,8.770950317382812
1781034521872657700,17.75465771484375,4.489950180053711,-2.76705002784729,8.452950477600098
1781034521892179500,17.774179443359376,4.920000076293945,-2.994000196456909,8.17199993133545
1781034521911700200,17.7937001953125,5.257950305938721,-3.1630501747131348,7.915050506591797
1781034521931219200,17.81321923828125,5.6010003089904785,-3.3289501667022705,7.582950592041016
1781034521950737400,17.8327373046875,6.001950263977051,-3.5899500846862793,7.512000560760498
1781034521970256000,17.852255859375,6.391050338745117,-3.8340001106262207,7.561950206756592
1781034521989768700,17.871768798828125,6.591000080108643,-4.195950031280518,7.567950248718262
1781034522009288700,17.891288818359374,6.828000545501709,-4.539000034332275,7.630950450897217
1781034522028813000,17.91081298828125,6.942000389099121,-4.798050403594971,7.575000286102295
1781034522048334300,17.930334228515626,6.892950534820557,-5.155050277709961,7.579050540924072
1781034522067856100,17.949856201171876,6.823050498962402,-5.47005033493042,7.735050201416016
1781034522087381200,17.96938134765625,6.750000476837158,-5.698050498962402,7.831050395965576
1781034522106904800,17.98890478515625,6.808050155639648,-5.9599504470825195,7.864950180053711
1781034522126423300,18.00842333984375,7.024050235748291,-6.051000118255615,7.845000267028809
1781034522145943000,18.027943115234375,7.114050388336182,-6.000000476837158,7.656000137329102
1781034522165468200,18.04746826171875,7.228050231933594,-6.0960001945495605,7.458000183105469
1781034522184994300,18.066994384765625,7.2109503746032715,-6.21405029296875,7.276950359344482
1781034522204517400,18.086517333984375,7.173000335693359,-6.348000526428223,7.117950439453125
1781034522224043000,18.10604296875,7.215000152587891,-6.378000259399414,6.997950553894043
1781034522243568000,18.125568115234376,7.204950332641602,-6.246000289916992,6.897000312805176
1781034522263089000,18.1450888671875,7.344000339508057,-6.106050491333008,6.781050205230713
1781034522282611000,18.16461083984375,7.348050117492676,-5.944050312042236,6.624000549316406
1781034522302131000,18.184130859375,7.038000106811523,-5.878950119018555,6.5809502601623535
1781034522321649700,18.203649658203126,6.603000164031982,-5.835000514984131,6.604950428009033
1781034522341168000,18.223168212890624,6.13800048828125,-5.719050407409668,6.558000087738037
1781034522360688000,18.242688232421877,5.800950050354004,-5.619000434875488,6.496950149536133
1781034522380213800,18.2622138671875,5.754000186920166,-5.469000339508057,6.409050464630127
1781034522399741200,18.2817412109375,5.851950168609619,-5.271000385284424,6.295950412750244
1781034522419266300,18.301266357421873,5.995950222015381,-5.136000156402588,6.331050395965576
1781034522438789600,18.32078955078125,6.229050159454346,-5.0370001792907715,6.463050365447998
1781034522458312400,18.3403125,6.29295015335083,-4.974000453948975,6.595950126647949
1781034522477833200,18.359833251953123,6.240000247955322,-5.005050182342529,6.729000091552734
1781034522497352400,18.3793525390625,6.220950126647949,-4.975050449371338,6.784950256347656
1781034522516875300,18.398875244140626,6.267000198364258,-4.780050277709961,6.811950206756592
1781034522536402000,18.41840185546875,6.361050128936768,-4.495950222015381,6.841950416564941
1781034522555929000,18.43792919921875,6.423000335693359,-4.135950088500977,6.918000221252441
1781034522575457800,18.457457763671876,6.523050308227539,-3.8050501346588135,7.03695011138916
1781034522594985500,18.4769853515625,6.633000373840332,-3.5940001010894775,7.117950439453125
1781034522614513200,18.49651318359375,6.813000202178955,-3.343050241470337,7.105950355529785
1781034522634041900,18.516041748046874,6.907050132751465,-3.015000104904175,7.059000492095947
1781034522653567200,18.535567138671876,6.76800012588501,-2.757000207901001,7.095000267028809
1781034522673090000,18.555090087890626,6.5620503425598145,-2.5909500122070312,7.138050556182861
1781034522692613400,18.57461328125,6.277950286865234,-2.4750001430511475,7.141050338745117
1781034522712137500,18.594137451171875,6.034050464630127,-2.427000045776367,7.168050289154053
1781034522731666700,18.613666748046874,5.755950450897217,-2.4000000953674316,7.218000411987305
1781034522751197700,18.63319775390625,5.2699503898620605,-2.395050048828125,7.303050518035889
1781034522770725400,18.652725341796874,4.717950344085693,-2.4100501537323,7.548000335693359
1781034522790252500,18.67225244140625,4.14300012588501,-2.395050048828125,7.8319501876831055
1781034522809784800,18.691784912109377,3.570000171661377,-2.364000082015991,7.963950157165527
1781034522829319400,18.7113193359375,3.1120500564575195,-2.389050006866455,7.954950332641602
1781034522848854800,18.730854736328126,2.731950044631958,-2.4570000171661377,7.954050540924072
1781034522868390000,18.750389892578124,2.2860000133514404,-2.511000156402588,8.136000633239746
1781034522887918300,18.76991845703125,1.870050072669983,-2.5480501651763916,8.385000228881836
1781034522907442400,18.7894423828125,1.7010000944137573,-2.5609500408172607,8.652000427246094
1781034522926967800,18.8089677734375,1.6669501066207886,-2.577000141143799,8.82705020904541
1781034522946494500,18.828494384765627,1.7770501375198364,-2.6389501094818115,8.832000732421875
1781034522966021000,18.848021240234374,1.9720500707626343,-2.7139501571655273,8.9239501953125
1781034522985547500,18.867547607421876,2.0250000953674316,-2.6989500522613525,9.065999984741211
1781034523005076500,18.887076416015624,1.9620001316070557,-2.682000160217285,9.178950309753418
1781034523024607500,18.906607421875,1.9420500993728638,-2.6770501136779785,9.286050796508789
1781034523044136400,18.926136474609375,1.8220500946044922,-2.5980000495910645,9.2920503616333
1781034523063662300,18.945662353515626,1.6900501251220703,-2.3910000324249268,9.327000617980957
1781034523083183400,18.965183349609376,1.6410000324249268,-2.2240500450134277,9.388050079345703
1781034523102706200,18.9847060546875,1.5859500169754028,-2.305950164794922,9.375
1781034523122235400,19.0042353515625,1.6630500555038452,-2.3899500370025635,9.294000625610352
1781034523141762600,19.023762451171876,1.7730001211166382,-2.4460501670837402,9.142050743103027
1781034523161287200,19.043287109375,1.9750500917434692,-2.4600000381469727,8.973000526428223
1781034523180809700,19.062809814453125,2.284950017929077,-2.3299500942230225,8.728950500488281
1781034523200332000,19.08233203125,2.5380001068115234,-2.245950222015381,8.451000213623047
1781034523219857000,19.10185693359375,2.5729501247406006,-2.379000186920166,8.235000610351562
1781034523239379000,19.12137890625,2.5039501190185547,-2.467050075531006,7.99500036239624
1781034523258900500,19.140900390625,2.491950035095215,-2.410950183868408,7.759950160980225
1781034523278427000,19.160427001953124,2.617950201034546,-2.3560500144958496,7.615950584411621
1781034523297958000,19.1799580078125,2.857950210571289,-2.1720001697540283,7.386000156402588
1781034523317490000,19.199489990234376,3.003000259399414,-2.0029501914978027,7.168050289154053
1781034523337018000,19.21901806640625,2.974950075149536,-1.927950143814087,7.134000301361084
1781034523356543700,19.238543701171874,2.974950075149536,-1.8160500526428223,7.1860504150390625
1781034523376068600,19.258068603515625,3.1210501194000244,-1.6639500856399536,7.24500036239624
1781034523395592400,19.277592529296875,3.3070502281188965,-1.555050015449524,7.2900004386901855
1781034523415116500,19.297116455078125,3.432000160217285,-1.53000009059906,7.300050258636475
1781034523434640400,19.316640380859376,3.421950101852417,-1.5430500507354736,7.198950290679932
1781034523454167600,19.33616748046875,3.3799500465393066,-1.6350001096725464,7.105950355529785
1781034523473696300,19.3556962890625,3.3040502071380615,-1.7239500284194946,7.141050338745117
1781034523493221600,19.3752216796875,3.309000253677368,-1.7190001010894775,7.297950267791748
1781034523512743000,19.394742919921875,3.3409502506256104,-1.7419500350952148,7.554000377655029
1781034523532263400,19.414263427734376,3.295950174331665,-1.8799500465393066,8.020050048828125
1781034523551786500,19.433786376953126,3.2400002479553223,-2.0410501956939697,8.533050537109375
1781034523571309300,19.453309326171876,3.175950050354004,-2.1949501037597656,8.898000717163086
1781034523590834000,19.472833984375,2.9569501876831055,-2.326050043106079,9.193950653076172
1781034523610361900,19.49236181640625,2.6740500926971436,-2.3989500999450684,9.315000534057617
1781034523629890600,19.511890625,2.368950128555298,-2.4750001430511475,9.26400089263916
1781034523649418000,19.53141796875,2.004000186920166,-2.593950033187866,9.145950317382812
1781034523668940300,19.550940185546875,1.67205011844635,-2.8950002193450928,9.010950088500977
1781034523688466000,19.5704658203125,1.4310001134872437,-3.361950159072876,8.82705020904541
1781034523707992300,19.589992431640624,1.5130500793457031,-3.9019501209259033,8.599050521850586
1781034523727517200,19.60951708984375,1.8310500383377075,-4.468950271606445,8.361000061035156
1781034523747046700,19.629046630859374,2.275050163269043,-4.9110002517700195,7.984950542449951
1781034523766574800,19.648574951171874,2.4430501461029053,-5.236950397491455,7.573050498962402
1781034523786098200,19.66809814453125,2.1820499897003174,-5.440950393676758,7.234950542449951
1781034523805623800,19.687623779296874,1.7010000944137573,-5.502000331878662,6.9720001220703125
1781034523825152300,19.70715234375,1.1269500255584717,-5.4210004806518555,6.816000461578369
1781034523844678400,19.726678466796876,0.7429500222206116,-5.230050086975098,6.8110504150390625
1781034523864196400,19.7461962890625,0.6460500359535217,-4.933950424194336,6.820050239562988
1781034523883713800,19.7657138671875,0.8419500589370728,-4.560000419616699,6.825000286102295
1781034523903231700,19.785231689453123,1.2780001163482666,-4.23900032043457,6.874050140380859
1781034523922752500,19.80475244140625,1.8820500373840332,-3.916950225830078,6.922950267791748
1781034523942280000,19.824280029296876,2.533050060272217,-3.598950147628784,6.948000431060791
1781034523961808400,19.843808349609375,4.194000244140625,-3.2980501651763916,6.951000213623047
1781034523981337600,19.863337646484375,4.350000381469727,-2.9640002250671387,6.957000255584717
1781034524000862700,19.88286279296875,4.576050281524658,-2.63700008392334,6.960000514984131
1781034524020385500,19.902385498046876,4.786050319671631,-2.386050224304199,6.978000164031982
1781034524039910000,19.921909912109374,4.854000091552734,-2.2770001888275146,6.943950176239014
1781034524059439400,19.941439453125,4.8949503898620605,-2.3929500579833984,6.86400032043457
1781034524078972700,19.96097265625,5.089950084686279,-2.7550501823425293,6.837000370025635
1781034524098500400,19.980500244140625,5.4280500411987305,-3.2860500812530518,6.868950366973877
1781034524118023400,20.0000234375,5.671950340270996,-3.7110002040863037,6.903000354766846
1781034524137547800,20.0195478515625,5.526000499725342,-3.81600022315979,6.961050510406494
1781034524157077500,20.039077392578125,3.427950143814087,-3.555000066757202,7.035000324249268
1781034524176608800,20.05860888671875,2.9440500736236572,-1.9099501371383667,7.1010003089904785
1781034524196136400,20.078136474609376,1.4440500736236572,-1.6710001230239868,7.228050231933594
1781034524215670500,20.09767041015625,1.0270500183105469,-1.4530500173568726,7.291950225830078
1781034524235202300,20.117202392578125,0.6760500073432922,-1.5610500574111938,7.158000469207764
1781034524254728400,20.136728515625,0.5329500436782837,-3.4780502319335938,6.952950477600098
1781034524274258400,20.156258544921876,0.6840000152587891,-3.9439501762390137,6.807000160217285
1781034524293790200,20.175790283203124,2.3740501403808594,-4.486950397491455,6.828000545501709
1781034524313320700,20.19532080078125,2.7460501194000244,-4.870950222015381,6.942000389099121
1781034524332846000,20.21484619140625,3.0420000553131104,-5.032050132751465,6.970950126647949
1781034524352366600,20.23436669921875,3.046950101852417,-5.091000080108643,6.885000228881836
1781034524371890200,20.25389013671875,2.77305006980896,-5.176950454711914,6.7510504722595215
1781034524391417300,20.273417236328125,2.3179500102996826,-5.125950336456299,6.826050281524658
1781034524410944300,20.2929443359375,1.7040001153945923,-4.7410502433776855,7.132950305938721
1781034524430468600,20.312468505859375,0.22200001776218414,-3.0960001945495605,7.411050319671631
1781034524449989600,20.33198974609375,-0.10905000567436218,-2.860950231552124,7.440000534057617
1781034524469511200,20.35151123046875,-0.3859500288963318,-2.614950180053711,7.06695032119751
1781034524489029600,20.371029541015623,-0.5299500226974487,-2.5860002040863037,6.520050525665283
1781034524508548000,20.390548095703124,-0.4630500078201294,-2.748000144958496,6.163950443267822
1781034524528065800,20.410065673828125,-0.17205001413822174,-3.015000104904175,6.078000068664551
1781034524547586000,20.4295859375,0.20400001108646393,-3.2530500888824463,6.142950057983398
1781034524567112000,20.44911181640625,0.544950008392334,-3.2970001697540283,6.202950477600098
1781034524586636500,20.468636474609376,0.9400500655174255,-3.1870501041412354,6.273000240325928
1781034524606155000,20.488155029296873,1.0920000076293945,-3.037950038909912,6.4770002365112305
1781034524625667600,20.50766748046875,1.0369499921798706,-2.860950231552124,6.694950103759766
1781034524645184300,20.527184326171874,1.2330000400543213,-2.6509501934051514,6.805050373077393
1781034524664702500,20.546702392578126,1.5780000686645508,-2.5660500526428223,6.928950309753418
1781034524684216000,20.566216064453126,2.0350501537323,-2.6650500297546387,7.1670002937316895
1781034524703731500,20.5857314453125,2.53695011138916,-2.836050033569336,7.462950229644775
1781034524723249000,20.605248779296875,2.9580001831054688,-3.0480000972747803,7.734000205993652
1781034524742764000,20.624763916015624,3.0610501766204834,-3.324000120162964,7.933050155639648
1781034524762282500,20.644282470703125,3.0859501361846924,-3.504000186920166,7.9860005378723145
1781034524781800200,20.66380029296875,3.330000162124634,-3.595950126647949,8.092050552368164
1781034524801319200,20.683319091796875,3.6889500617980957,-3.702000141143799,8.48805046081543
1781034524820841700,20.702841796875,3.750000238418579,-3.742950201034546,9.034049987792969
1781034524840359700,20.722359619140626,3.9439501762390137,-3.642000198364258,9.540000915527344
1781034524859877600,20.741877685546875,4.555950164794922,-3.4020001888275146,9.768000602722168
1781034524879395800,20.761395751953124,5.155050277709961,-3.094050168991089,9.6739501953125
1781034524898915800,20.780915771484374,7.243950366973877,-2.725950241088867,9.502050399780273
1781034524918438700,20.800438720703124,7.627950191497803,-2.260050058364868,9.231000900268555
1781034524937961500,20.81996142578125,7.582050323486328,-1.8469500541687012,9.03795051574707
1781034524957484500,20.839484619140624,7.4569501876831055,-1.5739500522613525,8.925000190734863
1781034524977006600,20.859006591796874,7.225050449371338,-1.585050106048584,8.533050537109375
1781034524996526800,20.87852685546875,7.06095027923584,-1.987950086593628,8.0149507522583
1781034525016050000,20.8980498046875,6.724050521850586,-2.419950008392334,7.582050323486328
1781034525035571700,20.91757177734375,6.427950382232666,-2.7049500942230225,7.3690505027771
1781034525055089200,20.937089111328124,6.585000514984131,-2.934000253677368,7.278000354766846
1781034525074609700,20.956609619140625,6.9970502853393555,-3.198000192642212,7.14900016784668
1781034525094136300,20.97613623046875,8.676000595092773,-3.5470502376556396,6.886950492858887
1781034525113660700,20.99566064453125,9.093000411987305,-3.9900002479553223,6.598950386047363
1781034525133178000,21.01517822265625,9.577950477600098,-4.369050025939941,6.4770002365112305
1781034525152696600,21.034696533203125,10.05405044555664,-4.73805046081543,6.3919501304626465
1781034525172217300,21.05421728515625,10.35105037689209,-5.253000259399414,6.186000347137451
1781034525191737000,21.073737060546875,10.540050506591797,-5.884050369262695,5.868000507354736
1781034525211254300,21.093254150390624,10.357950210571289,-6.430050373077393,5.455050468444824
1781034525230774300,21.112774169921874,10.02495002746582,-6.652950286865234,5.046000003814697
1781034525250297900,21.1322978515625,9.759000778198242,-6.525000095367432,4.654950141906738
1781034525269820200,21.151820068359374,9.607950210571289,-6.091950416564941,4.1579999923706055
1781034525289341700,21.171341796875,9.651000022888184,-5.458950042724609,3.703050136566162
1781034525308863000,21.190863037109374,9.645000457763672,-4.968000411987305,3.511050224304199
1781034525328384300,21.21038427734375,9.63900089263916,-4.600050449371338,3.5680501461029053
1781034525347904800,21.22990478515625,9.720000267028809,-4.2330002784729,3.627000093460083
1781034525367427000,21.249427001953126,9.651000022888184,-3.933000087738037,3.5899500846862793
1781034525386950100,21.2689501953125,9.490950584411621,-3.624000072479248,3.637050151824951
1781034525406472200,21.28847216796875,9.241950035095215,-3.358950138092041,3.807000160217285
1781034525425997300,21.307997314453125,8.907000541687012,-3.2340002059936523,3.9750001430511475
1781034525445521000,21.32752099609375,8.657999992370605,-3.2310001850128174,4.06095027923584
1781034525465036000,21.3470361328125,8.505000114440918,-3.0769500732421875,3.9589502811431885
1781034525484555500,21.366555419921873,8.326050758361816,-2.866950035095215,3.850950241088867
1781034525504076800,21.386076904296875,8.194950103759766,-2.800950050354004,3.988950252532959
1781034525523598000,21.40559814453125,8.158950805664062,-2.8969502449035645,4.261050224304199
1781034525543121200,21.42512109375,8.269050598144531,-2.947050094604492,4.371000289916992
1781034525562647800,21.444647705078125,8.587950706481934,-2.854950189590454,4.200000286102295
1781034525582175700,21.46417578125,8.755050659179688,-2.9130001068115234,4.030050277709961
1781034525601700400,21.483700439453123,8.69895076751709,-2.9730000495910645,4.051050186157227
1781034525621229000,21.50322900390625,8.743950843811035,-2.9110500812530518,4.176000118255615
1781034525640753700,21.522753662109373,8.725950241088867,-2.823000192642212,4.417050361633301
1781034525660272400,21.5422724609375,8.55405044555664,-2.5990500450134277,4.723050117492676
1781034525679794700,21.561794677734376,8.359950065612793,-2.311950206756592,5.0560503005981445
1781034525699316700,21.581316650390626,7.837050437927246,-2.203050136566162,5.4150004386901855
1781034525718839600,21.600839599609376,6.4110002517700195,-2.215050220489502,5.862000465393066
1781034525738364700,21.62036474609375,6.32295036315918,-2.1349501609802246,6.193050384521484
1781034525757887700,21.6398876953125,6.1180500984191895,-2.0239500999450684,6.3760504722595215
1781034525777411800,21.659411865234375,5.874000072479248,-2.0179500579833984,6.631950378417969
1781034525796936700,21.678936767578126,5.749050140380859,-2.064000129699707,6.95805025100708
1781034525816462000,21.698462158203125,5.731950283050537,-2.16195011138916,7.189950466156006
1781034525835988500,21.717988525390624,5.8470001220703125,-2.350050210952759,7.282050132751465
1781034525855511000,21.737510986328125,5.986950397491455,-2.5630500316619873,7.284000396728516
1781034525875035600,21.75703564453125,5.83905029296875,-2.800950050354004,7.266000270843506
1781034525894557400,21.776557373046874,5.584050178527832,-3.019050121307373,7.291950225830078
1781034525914078000,21.796077880859375,5.173050403594971,-3.0949501991271973,7.332000255584717
1781034525933606700,21.815606689453126,4.588950157165527,-3.079050064086914,7.395000457763672
1781034525953130500,21.835130615234377,3.985950231552124,-3.0960001945495605,7.5420002937316895
1781034525972650500,21.854650390625,3.4450502395629883,-3.0510001182556152,7.819050312042236
1781034525992171500,21.874171630859376,3.1780500411987305,-2.920950174331665,8.138999938964844
1781034526011692800,21.89369287109375,2.9830501079559326,-2.8570501804351807,8.454000473022461
1781034526031214300,21.91321435546875,2.82705020904541,-2.8399500846862793,8.65095043182373
1781034526050736000,21.932736083984373,2.680950164794922,-2.8219501972198486,8.697000503540039
1781034526070256000,21.952256103515627,2.5500001907348633,-2.7960002422332764,8.754000663757324
1781034526089775000,21.971775146484376,2.502000093460083,-2.698050022125244,8.802000045776367
1781034526109293600,21.99129345703125,2.5480501651763916,-2.5420501232147217,8.73705005645752
1781034526128814000,22.01081396484375,2.467050075531006,-2.3899500370025635,8.69895076751709
1781034526148338700,22.030338623046877,2.260050058364868,-2.308950185775757,8.62695026397705
1781034526167869200,22.049869140625,2.1450002193450928,-2.284950017929077,8.473950386047363
1781034526187400700,22.069400634765625,2.0719501972198486,-2.239950180053711,8.326050758361816
1781034526206926800,22.0889267578125,2.095050096511841,-2.224950075149536,8.068950653076172
1781034526226448600,22.10844873046875,2.149049997329712,-2.1820499897003174,7.786050319671631
1781034526245972500,22.127972412109376,2.176950216293335,-2.1409502029418945,7.594050407409668
1781034526265496300,22.147496337890626,2.1859500408172607,-2.1630001068115234,7.633950233459473
1781034526285017900,22.167017822265624,2.1090002059936523,-2.179949998855591,7.743000507354736
1781034526304542000,22.1865419921875,2.0500500202178955,-2.2139999866485596,7.864050388336182
1781034526324069400,22.2060693359375,2.059950113296509,-2.2579500675201416,8.032050132751465
1781034526343593700,22.22559375,2.047950029373169,-2.2990500926971436,8.148000717163086
1781034526363116300,22.2451162109375,2.083050012588501,-2.3929500579833984,8.31195068359375
1781034526382645800,22.264645751953125,2.118000030517578,-2.473950147628784,8.394000053405762
1781034526402172000,22.284171875,2.0850000381469727,-2.4979500770568848,8.40195083618164
1781034526421693200,22.303693115234374,2.1229500770568848,-2.533950090408325,8.422950744628906
1781034526441216800,22.323216796875,2.0970001220703125,-2.5570502281188965,8.482950210571289
1781034526460741000,22.3427412109375,1.9270501136779785,-2.577000141143799,8.635950088500977
1781034526480264000,22.362263916015625,1.699950098991394,-2.622000217437744,8.785050392150879
1781034526499785200,22.38178515625,1.4910000562667847,-2.6710500717163086,8.890950202941895
1781034526519307500,22.4013076171875,1.4070000648498535,-2.6899502277374268,9.028950691223145
1781034526538827000,22.420826904296874,1.3990501165390015,-2.776050090789795,9.253050804138184
1781034526558344700,22.4403447265625,1.3639500141143799,-3.0180001258850098,9.471000671386719
1781034526577868300,22.459868408203125,1.4380500316619873,-3.4099502563476562,9.619050025939941
1781034526597397000,22.47939697265625,1.675950050354004,-3.715050220489502,9.580950736999512
1781034526616924000,22.498923828125,2.095950126647949,-3.928950071334839,9.382050514221191
1781034526636443100,22.518443115234376,3.8490002155303955,-4.052999973297119,9.127050399780273
1781034526655958500,22.53795849609375,3.8830502033233643,-4.111050128936768,8.758049964904785
1781034526675477800,22.557477783203126,3.739950180053711,-4.321950435638428,8.395950317382812
1781034526695002000,22.577002197265625,3.385050058364868,-4.570950031280518,8.011950492858887
1781034526714525400,22.596525390625,2.811000108718872,-4.672950267791748,7.510950565338135
1781034526734050300,22.61605029296875,2.209050178527832,-4.639950275421143,7.07205057144165
1781034526753573000,22.635572998046875,1.6770000457763672,-4.422000408172607,6.736950397491455
1781034526773086200,22.655086181640623,1.165950059890747,-4.095000267028809,6.514950275421143
1781034526792601300,22.674601318359375,0.775950014591217,-3.7570502758026123,6.51900053024292
1781034526812121600,22.69412158203125,0.48795002698898315,-3.3919501304626465,6.603000164031982
1781034526831638800,22.713638671875,0.30105000734329224,-3.1330502033233643,6.757950305938721
1781034526851152600,22.733152587890626,0.29805001616477966,-3.0270001888275146,6.960000514984131
1781034526870669800,22.752669921875,0.27300000190734863,-3.0700502395629883,7.1170501708984375
1781034526890186500,22.7721865234375,0.26205000281333923,-3.1930501461029053,7.23900032043457
1781034526909700000,22.7917001953125,0.32805001735687256,-3.271050214767456,7.288950443267822
1781034526929216800,22.811216796875,0.37995001673698425,-3.277050256729126,7.31505012512207
1781034526948734200,22.830734130859376,0.49695003032684326,-3.264000177383423,7.365000247955322
1781034526968252000,22.850251953125,0.6960000395774841,-3.2530500888824463,7.462950229644775
1781034526987773000,22.86977294921875,0.9010500311851501,-3.2820000648498535,7.564950466156006
1781034527007292700,22.889292724609376,1.0699501037597656,-3.3630001544952393,7.648950576782227
1781034527026813400,22.9088134765625,1.1980500221252441,-3.418950080871582,7.693050384521484
1781034527046334700,22.928334716796876,1.3519500494003296,-3.466050148010254,7.708950519561768
1781034527065853400,22.947853515625,1.7200500965118408,-3.472050189971924,7.722000598907471
1781034527085376500,22.96737646484375,2.3020501136779785,-3.4230000972747803,7.7310004234313965
1781034527104897300,22.986897216796876,4.038000106811523,-3.38100004196167,7.732950210571289
1781034527124413700,23.00641357421875,4.335000038146973,-3.3450002670288086,7.689000129699707
1781034527143931400,23.025931396484374,4.719000339508057,-3.349950075149536,7.623000144958496
1781034527163448600,23.045448486328127,5.119950294494629,-3.4050002098083496,7.551000595092773
1781034527182966300,23.06496630859375,5.413050174713135,-3.4330501556396484,7.44705057144165
1781034527202485800,23.08448583984375,5.430000305175781,-3.532050132751465,7.215000152587891
1781034527222002200,23.104002197265626,5.350950241088867,-3.7609500885009766,6.765000343322754
1781034527241517600,23.123517578125,5.145000457763672,-3.870000123977661,6.610050201416016
1781034527261033700,23.14303369140625,4.630950450897217,-3.627000093460083,6.676050186157227
1781034527280549600,23.162549560546875,3.0829501152038574,-3.052950143814087,6.694050312042236
1781034527300067300,23.1820673828125,2.7150001525878906,-1.3260000944137573,6.904950141906738
1781034527319587800,23.201587890625,1.1809500455856323,-1.0600500106811523,6.873000144958496
1781034527339107300,23.221107421875,0.9160500168800354,-1.0990500450134277,6.727950096130371
1781034527358631700,23.240631591796873,0.8020500540733337,-1.4530500173568726,6.813000202178955
1781034527378157600,23.260157470703124,0.6250500082969666,-2.01104998588562,6.865050315856934
1781034527397676000,23.279676025390625,0.8020500540733337,-2.622000217437744,6.849000453948975
1781034527417192700,23.299192626953126,1.287000060081482,-3.091050148010254,6.7069501876831055
1781034527436713500,23.31871337890625,1.8730500936508179,-3.3790502548217773,6.492000102996826
1781034527456234500,23.338234375,2.2170000076293945,-3.6150002479553223,6.442050457000732
1781034527475755300,23.35775537109375,2.2450501918792725,-3.790950298309326,6.5370001792907715
1781034527495275300,23.377275146484376,1.9069501161575317,-3.9190502166748047,6.754050254821777
1781034527514794500,23.39679443359375,1.2880500555038452,-3.945000171661377,6.990000247955322
1781034527534313000,23.41631298828125,0.7120500206947327,-3.80400013923645,7.177950382232666
1781034527553828600,23.43582861328125,0.29805001616477966,-3.6310501098632812,7.3690505027771
1781034527573345500,23.455345458984375,0.2659500241279602,-3.4620001316070557,7.402050495147705
1781034527592863000,23.474863037109376,0.5700000524520874,-3.3109500408172607,7.267950534820557
1781034527612382700,23.4943828125,0.9790500402450562,-3.265050172805786,7.144050121307373
1781034527631897300,23.5138974609375,1.1530500650405884,-3.28695011138916,6.957000255584717
1781034527651407000,23.533406982421877,1.051050066947937,-3.289950132369995,6.6850504875183105
1781034527670921700,23.552921630859377,1.0120500326156616,-3.283950090408325,6.577950477600098
1781034527690439400,23.572439453125,0.9589500427246094,-3.2730002403259277,6.577950477600098
1781034527709949200,23.59194921875,0.8820000290870667,-3.2700002193450928,6.628050327301025
1781034527729460500,23.61146044921875,0.8580000400543213,-3.3379502296447754,7.033950328826904
1781034527748974600,23.630974609375,1.0060499906539917,-3.340050220489502,7.663050174713135
1781034527768491800,23.65049169921875,1.363050103187561,-3.2719502449035645,8.257950782775879
1781034527788012500,23.670012451171875,1.7230501174926758,-3.1650002002716064,8.730000495910645
1781034527807530500,23.689530517578124,1.8580501079559326,-3.0990002155303955,8.92905044555664
1781034527827048400,23.70904833984375,1.6530001163482666,-3.2089500427246094,9.0600004196167
1781034527846570000,23.728570068359375,1.4389500617980957,-3.4800002574920654,9.189000129699707
1781034527866091000,23.748091064453124,1.5310500860214233,-3.690000057220459,9.26400089263916
1781034527885610000,23.76760986328125,1.752000093460083,-3.882000207901001,9.232950210571289
1781034527905132300,23.78713232421875,2.0209500789642334,-4.113000392913818,9.064949989318848
1781034527924653600,23.806653564453125,2.328000068664551,-4.2970499992370605,8.86500072479248
1781034527944170000,23.826169921875,2.69100022315979,-4.41795015335083,8.809050559997559
1781034527963684600,23.8456845703125,2.8030500411987305,-4.546950340270996,8.944950103759766
1781034527983203800,23.865203857421875,2.710050106048584,-4.666950225830078,9.010050773620605
1781034528002726000,23.884725830078125,2.8180501461029053,-4.756950378417969,9.118050575256348
1781034528022250800,23.904250732421875,2.6950502395629883,-4.873950004577637,9.073050498962402
1781034528041774000,23.923774169921874,2.587050199508667,-5.031000137329102,8.617950439453125
1781034528061297000,23.943296875,2.7660000324249268,-5.2230000495910645,8.09595012664795
1781034528080819200,23.962819091796874,3.0550501346588135,-5.367000102996826,6.292050361633301
1781034528100338000,23.982337890625,4.806000232696533,-5.521050453186035,6.294000148773193
1781034528119853000,24.00185302734375,5.337000370025635,-5.664000034332275,6.771000385284424
1781034528139368700,24.02136865234375,5.794050216674805,-5.91795015335083,7.345950126647949
1781034528158888000,24.040887939453125,6.003000259399414,-6.385050296783447,7.902000427246094
1781034528178409000,24.060408935546874,6.352950096130371,-6.763050556182861,8.203949928283691
1781034528197927000,24.079927001953124,6.361050128936768,-7.123950481414795,8.196000099182129
1781034528217441300,24.099441162109375,6.0259504318237305,-7.494000434875488,8.224950790405273
1781034528236955000,24.118954833984375,5.63700008392334,-7.780050277709961,8.196000099182129
1781034528256466400,24.138466552734375,5.18595027923584,-7.981950283050537,8.116050720214844
1781034528275979800,24.157979736328127,5.023050308227539,-8.16195011138916,8.077950477600098
1781034528295496200,24.17749609375,6.60705041885376,-8.242950439453125,8.131950378417969
1781034528315013400,24.197013427734376,6.781050205230713,-8.11500072479248,8.089950561523438
1781034528334534100,24.2165341796875,6.844050407409668,-8.22705078125,7.894050598144531
1781034528354055700,24.2360556640625,6.925950527191162,-8.355000495910645,7.7500505447387695
1781034528373576700,24.25557666015625,6.679050445556641,-8.167950630187988,7.390050411224365
1781034528393096200,24.27509619140625,6.154950141906738,-7.978950500488281,7.1569504737854
1781034528412617500,24.294617431640624,4.648050308227539,-7.737000465393066,7.254000186920166
1781034528432142000,24.31414208984375,4.2330002784729,-7.384950160980225,7.1569504737854
1781034528451662300,24.333662353515624,3.682950258255005,-7.225950241088867,7.0909504890441895
1781034528471180800,24.353180908203125,3.2400002479553223,-7.077000141143799,7.080000400543213
1781034528490702600,24.37270263671875,3.2860500812530518,-6.820050239562988,6.8680500984191895
1781034528510224100,24.39222412109375,3.6379501819610596,-6.672000408172607,6.70395040512085
1781034528529742000,24.4117421875,4.174950122833252,-6.528000354766846,6.526950359344482
1781034528549261800,24.43126171875,4.765050411224365,-6.382050514221191,6.357000350952148
1781034528568783600,24.45078369140625,5.3110504150390625,-6.22005033493042,6.400050163269043
1781034528588300800,24.47030078125,5.680050373077393,-5.926950454711914,6.459000110626221
1781034528607819500,24.489819580078127,5.776050090789795,-5.620950222015381,6.553050518035889
1781034528627340500,24.509340576171876,5.706000328063965,-5.3620500564575195,6.712950229644775
1781034528646859000,24.52885888671875,5.544000148773193,-5.116950035095215,6.832050323486328
1781034528666378800,24.548378662109375,5.497950077056885,-4.915050029754639,6.937950134277344
1781034528685896400,24.567896484375,5.911050319671631,-4.6720499992370605,7.068000316619873
1781034528705412000,24.587412109375,7.359000205993652,-4.294050216674805,6.98205041885376
1781034528724930000,24.606929931640625,7.666050434112549,-3.9280502796173096,6.7159504890441895
1781034528744447700,24.62644775390625,7.950000286102295,-3.5430002212524414,6.69195032119751
1781034528763964700,24.645964599609375,7.935000419616699,-3.115950107574463,6.753000259399414
1781034528783483600,24.665483642578124,7.579050540924072,-2.800950050354004,6.909000396728516
1781034528803005200,24.685005126953126,7.051050186157227,-2.48895001411438,7.200000286102295
1781034528822519800,24.704519775390626,6.583950519561768,-2.1310501098632812,7.276050567626953
1781034528842033200,24.724033203125,6.106050491333008,-1.9360500574111938,7.31505012512207
1781034528861549600,24.743549560546874,5.704950332641602,-1.8019500970840454,7.473000526428223
1781034528881065500,24.7630654296875,5.410950183868408,-1.6360501050949097,7.689000129699707
1781034528900580000,24.782580078125,4.959000110626221,-1.7569501399993896,7.926000595092773
1781034528920094200,24.80209423828125,4.408950328826904,-2.0280001163482666,8.118000030517578
1781034528939610400,24.8216103515625,2.3940000534057617,-2.290950059890747,8.229000091552734
1781034528959125000,24.841125,2.067000150680542,-2.6950502395629883,8.260050773620605
1781034528978639000,24.86063916015625,1.9609501361846924,-3.0330002307891846,8.128950119018555
1781034528998151700,24.880151611328124,2.074050188064575,-3.075000047683716,7.825050354003906
1781034529017667600,24.89966748046875,2.215050220489502,-2.9160001277923584,7.563000202178955
1781034529037182700,24.9191826171875,2.491950035095215,-2.620950222015381,7.366950511932373
1781034529056696800,24.93869677734375,2.4619500637054443,-2.224950075149536,7.293000221252441
1781034529076214800,24.95821484375,2.3550000190734863,-1.9180500507354736,7.389000415802002
1781034529095734500,24.977734619140627,2.388000011444092,-1.7280000448226929,7.4920501708984375
1781034529115251700,24.997251708984376,2.3329501152038574,-1.5570000410079956,7.642950534820557
1781034529134764800,25.016764892578124,2.269050121307373,-1.3690500259399414,7.833000183105469
1781034529154278100,25.036278076171875,2.2290000915527344,-1.1160000562667847,7.984950542449951
1781034529173791700,25.055791748046875,2.3310000896453857,-0.8989500403404236,8.059050559997559
1781034529193309200,25.07530908203125,2.4400501251220703,-0.6919500231742859,8.128950119018555
1781034529212834300,25.094834228515627,2.5350000858306885,-0.45600003004074097,8.269050598144531
1781034529232360400,25.1143603515625,2.5699501037597656,-0.2770500183105469,8.472000122070312
1781034529251880200,25.133880126953127,2.508000135421753,-0.2370000183582306,8.595000267028809
1781034529271392800,25.153392822265626,2.491950035095215,-0.26805001497268677,8.647950172424316
1781034529290910700,25.17291064453125,2.6100001335144043,-0.2740500271320343,8.580000877380371
1781034529310435000,25.19243505859375,2.743950128555298,-0.39900001883506775,8.452950477600098
1781034529329959000,25.211958984375,2.9800500869750977,-0.5490000247955322,8.368950843811035
1781034529349479400,25.2314794921875,3.2749502658843994,-0.6859500408172607,8.320050239562988
1781034529369002200,25.251002197265624,3.3730502128601074,-0.7969500422477722,8.244000434875488
1781034529388520400,25.2705205078125,3.3600001335144043,-0.7570500373840332,8.155050277709961
1781034529408040700,25.290040771484374,3.2479500770568848,-0.6690000295639038,8.119950294494629
1781034529427564000,25.30956396484375,3.1249501705169678,-0.6040500402450562,8.082000732421875
1781034529447080200,25.329080078125,3.0550501346588135,-0.6340500116348267,8.0910005569458
1781034529466593800,25.34859375,3.0679502487182617,-0.6739500164985657,8.082000732421875
1781034529486107000,25.36810693359375,3.05400013923645,-0.5730000138282776,7.972950458526611
1781034529505623300,25.387623291015625,2.91195011138916,-0.4600500166416168,7.8259501457214355
1781034529525145600,25.4071455078125,2.683950185775757,-0.41805002093315125,7.831050395965576
1781034529544668700,25.426668701171874,2.4280500411987305,-0.3960000276565552,7.90500020980835
1781034529564191200,25.446191162109375,2.245950222015381,-0.4410000145435333,8.005050659179688
1781034529583715800,25.4657158203125,2.1820499897003174,-0.5400000214576721,8.223000526428223
1781034529603238100,25.485238037109376,2.1349501609802246,-0.5940000414848328,8.344050407409668
