Time (s),Acc_X,Acc_Y,Acc_Z,Gyro_X,Gyro_Y,Gyro_Z,activity_label
5.0501885,-1.848805389,9.547445984,-0.5230123901,0.003610730171,0.0264833793,-0.01152347215,1
5.0702295,-1.864073639,9.58411972,-0.467328186,0.01426503994,0.03318572789,-0.01430862304,1
5.0902715,-1.909429321,9.621990967,-0.5842350769,0.01121558715,0.0236999616,-0.01545474865,1
5.1103125,-1.89431076,9.661957855,-0.6198609924,-0.002814544132,0.00514503615,-0.02576935664,1
5.1303545,-1.944755859,9.607770538,-0.5224136353,-0.01136795059,0.03762802482,-0.01877180487,1
5.1503955,-1.848655701,9.518106995,-0.4984634399,-0.007167682052,0.04388240352,-0.01455792785,1
5.1704375,-1.833387451,9.50807785,-0.449664917,0.007359194569,0.05755699426,-0.009843037464,1
5.1904785,-1.902393951,9.489815826,-0.4989125061,0.01771496423,0.03999797255,-0.008139226586,1
5.2105205,-1.921703796,9.530830536,-0.4637356567,0.03648006544,0.05270726234,-0.02023209445,1
5.2305615,-1.940863953,9.54669754,-0.6147715759,0.04408551753,0.07088304311,-0.03551058099,1
5.2506035,-1.945504303,9.499246216,-0.533789978,0.05102584884,0.1232369095,-0.04001142457,1
5.2706445,-1.895208893,9.530680847,-0.5221142578,0.05454055965,0.1208918467,-0.02954237163,1
5.2906865,-2.018103333,9.694290619,-0.603993988,0.0186916776,0.02995404042,-0.01653853804,1
5.3107275,-2.029928741,10.05653732,-0.7812254333,-0.03065882437,-0.08254314959,-0.04357801378,1
5.3307695,-2.255359955,10.25128235,-0.453407135,-0.02935580909,-0.1615627855,-0.07591876388,1
5.3508105,-2.478695526,10.03782623,0.2995271301,-0.04176587239,-0.1929655969,-0.09377012402,1
5.3708515,-3.159779205,10.11671219,1.053209839,-0.05913560465,-0.1632687747,0.01705567166,1
5.3908935,-2.816542969,10.83297272,0.3382965088,-0.1541967392,-0.1130377948,0.03830966353,1
5.4109345,-2.347268829,9.899962921,-0.1686991882,-0.1699676514,0.1511129737,0.05196739733,1
5.4309765,-2.312541046,8.827443237,-1.429527283,-0.2612807751,0.3584591448,0.0283712633,1
5.4510175,-2.132615204,8.343349915,-2.070494385,-0.1534554511,0.3929714859,-0.1740301847,1
5.4710595,-1.605860596,7.070247345,-0.6096821594,0.04507135227,0.1648508161,-0.2610051334,1
5.4911005,-1.518143005,7.164102173,0.06631210327,0.002709647641,-0.2632296681,-0.1412347108,1
5.5111425,-1.75629776,8.974736938,-1.059646454,0.1054911539,-0.2926327884,-0.2282040715,1
5.5311835,-3.503165131,10.72729248,1.789229279,0.3498718739,0.09685566276,-0.1102373675,1
5.5512255,-3.809877319,10.7389682,-0.6487509155,0.1449458897,0.2916089892,-0.08228549361,1
5.5712665,-3.248993683,9.498048706,-0.4706213379,0.1391585022,0.06558509171,-0.03893807158,1
5.591308583,-3.060236206,8.859776001,0.1681004333,0.2697786391,-0.2138887793,0.07387707382,1
5.611349583,-2.711910553,8.965755615,-0.4676275635,0.2379158288,-0.4410137236,0.182158649,1
5.631390583,-2.254910889,9.257947998,-0.8717871094,0.1034190804,-0.5677918792,0.2040864527,1
5.651432583,-1.728904724,9.219028931,-0.7897576904,0.01220961194,-0.4233985841,0.1559936106,1
5.671473583,-1.426683197,9.340426483,-1.318757629,-0.03603421524,-0.2677830756,0.08453989774,1
5.691515583,-0.832868042,9.698332214,-1.33043335,-0.04353394732,-0.196196273,0.03294334561,1
5.711556583,-0.4129911804,10.62325882,-0.9894424438,-0.0008836861234,-0.1434653103,0.03606137261,1
5.731598583,0.129181366,10.84180435,-0.2749781799,0.1866814196,-0.1589324623,0.06957286596,1
5.751639583,0.1878593445,9.959089966,-1.065783691,0.1536156088,-0.3762339056,0.1005518883,1
5.771681583,-0.5475613403,9.227112122,0.5150788879,0.1678334177,-0.5433017015,0.04062696546,1
5.791722583,-0.1008901978,9.304052124,1.025966492,0.1032379866,-0.426609993,-0.0647213161,1
5.811764583,0.1460961914,10.02644989,-0.07424560547,0.05253826082,-0.03261734173,-0.0385588035,1
5.831805583,0.7503895569,9.96088623,-0.1294807434,0.2059284151,0.2362488806,0.03101353534,1
5.851847583,0.4715194702,9.150920563,-0.2785707092,0.2847467959,0.2419338524,0.1172056124,1
5.871888583,-0.2914439392,9.188043365,0.2812651062,0.2821202576,0.09651963413,0.06567707658,1
5.891929583,-0.8637039185,9.568103027,0.9845027161,0.2429955602,0.05698905885,-0.05233174562,1
5.911971583,-1.121467896,9.640851746,0.742306366,0.309663415,-0.02293707989,-0.120050706,1
5.932012583,-1.144969025,9.418563995,0.2107617188,0.3519622386,-0.2353468686,-0.1377578229,1
5.952054583,-1.152752838,9.386979675,-0.1164578247,0.2949673533,-0.3733070195,-0.1566799581,1
5.972095583,-0.9225315857,9.588011627,-0.3556604004,0.1984093189,-0.3521208465,-0.1934894919,1
5.992137583,-0.6051914978,9.806706848,-0.2670446777,0.2006784528,-0.2966674566,-0.1861866117,1
6.012178583,-0.399818573,10.05489075,0.04146377563,0.3193162084,-0.2408753783,-0.1573509127,1
6.032220583,-0.3188369751,10.14470398,0.168848877,0.298247695,-0.2235589474,-0.1924162954,1
6.052261583,-0.1984872437,10.14964371,-0.03053649902,0.09795121849,-0.1159174964,-0.2847265601,1
6.072303583,-0.1282832336,10.05698639,0.1582209778,0.05341051146,0.1060607359,-0.329043299,1
6.092344583,0.2912942505,10.13108231,-0.1499880981,0.1264849901,-0.008693370968,-0.3188290894,1
6.112385583,0.6659651184,10.73462723,-0.7696994019,0.09240964055,-0.30383268,-0.2416226715,1
6.132427583,0.6397695923,11.31167725,0.09819580078,-0.04638219625,-0.348482132,-0.07192914188,1
6.152468583,1.13613739,11.90968369,0.8349636841,-0.2522574663,-0.05810888484,0.1039817929,1
6.172510583,1.369801483,13.52557343,0.2757266235,-0.5991948247,0.2898581028,0.3004983068,1
6.192551583,0.5572911072,14.73386078,-0.9195378113,-1.022809267,0.4868364334,0.4728346765,1
6.212593583,-0.9621990967,13.6799025,-1.498384094,-1.362624049,0.6244522929,0.6022320986,1
6.232634583,-1.537602539,11.373349,-1.501826935,-1.811229944,0.1674383134,0.5870114565,1
6.252676583,-2.075284424,9.238039398,-0.9957293701,-2.440866232,-1.200593352,0.5451575518,1
6.272717583,-2.603835297,8.520731049,2.316582642,-2.146138906,-1.846817017,0.2918315232,1
6.292759583,-4.371359711,9.572893066,3.247796173,-1.616308928,-1.545799375,0.3065728247,1
6.312800583,-5.963748322,11.21018829,1.736239471,-1.446160078,-0.8547844887,0.5635154247,1
6.332841583,-6.355034637,11.17860397,0.7644602966,-1.390460968,-0.6736316681,0.963301599,1
6.352883583,-4.118086395,10.38540344,0.9717791748,-1.185963035,-0.763461709,1.089854002,1
6.372924583,-2.556833038,10.31205597,1.501826935,-0.9006797671,-0.2589373887,1.315621495,1
6.392966583,-1.46141098,10.99478622,1.217717743,-1.163317442,0.3507243097,1.4817698,1
6.413007583,-0.5471122742,10.79525116,1.403780823,-1.295010567,0.8774333,1.239112616,1
6.433049583,-1.298699341,9.287286987,0.3775149536,-1.514502525,1.136664629,0.9251848459,1
6.453090583,-2.679727478,7.828271027,0.04385879517,-1.717892766,1.313232541,0.8085347414,1
6.473132583,-3.836072845,6.779551849,1.159937897,-1.773693442,1.527936935,0.8020352721,1
6.493173583,-2.481689301,6.563401337,2.799628143,-1.534620762,1.672401667,0.5147975683,1
6.513215583,-1.913770294,6.692732391,3.125650177,-1.042834163,1.33574605,0.1903053075,1
6.533256583,-2.006577301,5.997577972,2.726580048,-0.5965911746,1.053404808,-0.1042226478,1
6.553297583,-2.484533386,5.031786346,3.087928619,-0.1691374034,0.8810017109,-0.3041713834,1
6.573339583,-2.164049835,5.035977631,4.045487366,0.3006617725,0.7819681764,-0.468221277,1
6.593380958,-1.36201767,5.546565857,4.592899017,0.7003827691,0.7564539313,-0.5695564151,1
6.613422958,-0.8921447754,6.370452576,4.581672363,0.9108322263,0.7918233871,-0.642503202,1
6.633463958,-1.192869415,6.969207458,4.929249573,1.007209897,0.8442183733,-0.6257463694,1
6.653505958,-0.935255127,7.390132141,4.726870422,1.047405362,0.7996018529,-0.5483288169,1
6.673546958,-0.8768765259,8.560697937,4.371210022,1.024882436,0.8109253645,-0.4273862839,1
6.693588958,-0.8913963318,9.848170624,4.654271393,0.8541158438,0.7599545717,-0.1296227872,1
6.713629958,0.6959028625,10.93386292,5.731880493,0.5624331832,0.5350401402,0.2091109157,1
6.733671958,2.386187897,10.69316345,5.117408295,0.2722113729,-0.2373837233,0.4894139171,1
6.753712958,1.073417816,9.267827454,4.620292053,0.1614889801,-0.7716313601,0.7236145735,1
6.773753958,-1.04258194,7.330106964,3.675756226,0.4114587307,-1.088904142,0.7132647634,1
6.793795958,-4.083957367,7.589667206,2.238295441,1.1075629,-1.317435741,0.4325863719,1
6.813836958,-7.510182495,11.27290787,3.538641357,1.132837296,-0.833058238,-0.04601630941,1
6.833878958,-7.222031708,18.7401297,2.447260895,0.1591202915,-1.004744053,-0.3888908327,1
6.853919958,-2.891387329,15.66237991,1.653760986,1.607005119,-0.7542948723,0.3456973732,1
6.873961958,0.6596781921,6.692582703,-5.3893927,1.36079061,-1.04636538,0.1651737392,1
6.894002958,0.8958869934,3.318449249,-4.011508026,0.285292536,-1.336629391,-0.5393869877,1
6.914044958,-1.244362335,6.350693665,-0.4950205994,0.4315617979,-0.1231687218,-0.757796526,1
6.934085958,-1.592687988,10.54886353,-0.3954776001,0.6607210636,1.387132406,-0.6724404693,1
6.954126958,-0.2582130432,12.17538116,-0.02918930054,0.6365701556,1.578366995,-0.4952613413,1
6.974168958,-0.5517526245,11.46705414,0.21061203,0.752756536,0.6209785938,-0.1604180783,1
6.994209958,-2.403701477,9.948911133,1.556762695,1.06743288,-0.4675534964,-0.02207607776,1
7.014251958,-2.958747253,8.382867737,1.599873047,1.109032989,-0.9484012723,-0.09571987391,1
7.034292958,-2.753973083,7.893235931,0.9125024414,1.102186203,-0.9447099566,-0.2166950405,1
7.054334958,-1.338067474,8.518934784,-0.5854325867,1.030262589,-0.6369902492,-0.398437649,1
7.074375958,-0.4182302856,9.341623993,-1.430126038,0.8126875758,-0.01152661815,-0.4754692316,1
7.094417958,0.4677772522,9.930798798,-0.7243437195,0.7493421435,0.1418230832,-0.4758866727,1
7.114458958,0.1131646729,9.968071289,0.07933502197,0.7923517227,-0.01365632564,-0.3455944061,1
7.134500958,-0.7441026306,9.640252991,0.3007246399,0.7614444494,-0.08277620375,-0.2348025888,1
7.154541958,-1.343007202,9.120084686,-0.05688171387,0.6608077288,-0.1250877231,-0.2570819259,1
7.174582958,-1.786235504,9.306447144,-0.2432441711,0.5850718021,-0.2402142435,-0.3073290586,1
7.194624958,-1.936223602,9.485624542,-0.6057902527,0.5771383047,-0.3103473186,-0.3491092026,1
7.214665958,-1.771865387,9.289682007,-0.5451663208,0.5420903563,-0.2386196703,-0.4005304575,1
7.234707958,-1.520388336,9.224717102,-0.2142045593,0.5106530786,-0.1479797959,-0.4393987656,1
7.254748958,-1.308429108,9.710457001,0.4249662781,0.6107473373,-0.1151415408,-0.4637844265,1
7.274790958,-1.005010071,10.24215134,1.635049896,0.9015618563,-0.147748217,-0.519372344,1
7.294831958,-0.06676116943,10.56458084,0.9478289795,0.9695658088,-0.2817541063,-0.5918061733,1
7.314873958,0.3809577942,11.11783035,-1.364562378,0.7473323345,-0.03025411628,-0.6518136263,1
7.334914958,-0.09550140381,11.34880005,-1.681603088,0.6321270466,0.2877451181,-0.6765075922,1
7.354955958,-0.162412262,10.99897751,-0.2101629639,0.5461881161,0.3818305433,-0.6136869192,1
7.374997958,-0.1254391479,10.65035248,-0.5912704468,0.1212306991,0.1488894075,-0.4063523412,1
7.395038958,-0.4522096252,10.64466431,-0.6471043396,-0.05478320271,-0.003805758432,-0.1061165258,1
7.415080958,-0.7198530579,10.94703552,-0.4863386536,-0.250901103,-0.1063855737,0.1447792351,1
7.435121958,-1.197360077,11.71164551,0.1610650635,-0.6691212058,-0.09498822689,0.3396816254,1
7.455163958,-1.082399139,12.21819214,-1.226399689,-1.250904918,0.2766775489,0.5215822458,1
7.475204958,-0.9713301086,12.27477448,-2.579735413,-1.755493641,0.6543586254,0.8133723736,1
7.495246958,-1.733096008,10.00399658,-1.456620941,-2.265812159,-0.03722233325,1.182420492,1
7.515287958,-2.188000031,8.515641632,-0.9343569946,-2.794962645,-1.362797856,1.201774836,1
7.535328958,-3.278482361,8.981921997,1.766027527,-2.34441781,-2.012782097,0.846447885,1
7.555370958,-4.524940338,11.79756683,2.430495758,-1.421201706,-1.28478992,0.3319239318,1
7.575411958,-5.64805481,13.39175171,-0.9530680847,-1.344532132,-0.9378786087,0.3274549544,1
7.59545725,-5.074597321,11.45238464,-1.630259857,-1.825880885,-1.533633947,0.7752600312,1
7.61549825,-1.860930176,9.029672699,0.3201841736,-1.570142984,-1.135572076,0.8961029053,1
7.63554025,-1.694476318,8.844208374,0.733175354,-1.383137465,-0.9950019717,1.051566958,1
7.65558125,-2.021097107,10.54616913,1.82889679,-1.533192396,-0.6054510474,1.022903681,1
7.67562325,-3.179687805,10.57655594,3.42248291,-1.40427649,0.890568316,0.9897850752,1
7.69566425,-3.192261658,9.329798584,1.780697021,-1.281799912,1.743631601,1.01694715,1
7.71570625,-2.329306183,8.440497894,-0.7729925537,-1.405088186,1.650908232,0.9186450243,1
7.73574725,-2.506986694,7.946375427,-1.158740387,-1.541246653,1.454738736,0.8904104233,1
7.75578825,-2.212698669,7.841593323,0.7421566772,-1.344122171,1.575782776,0.7842473388,1
7.77583025,-1.159488831,7.461833038,3.992198181,-0.7837021351,1.691374302,0.5509585738,1
7.79587125,-1.445843353,7.154522095,3.619922333,-0.3783420026,1.547184944,0.4646291435,1
7.81591325,-1.174158325,6.537505188,3.824247437,-0.002985855564,1.332800627,0.3522312939,1
7.83595425,-1.003513184,5.995332642,3.817361755,0.2891581357,1.175775766,0.1696414351,1
7.85599625,-1.272952881,5.952521667,3.903582458,0.5431005955,1.101439595,0.00732661318,1
7.87603725,-1.199006653,6.242319031,3.539838867,0.6753146052,0.9407585263,-0.1698194146,1
7.89607825,-1.349743195,6.378386078,4.068838806,0.8111003041,0.8515662551,-0.3432267904,1
7.91612025,-1.32459549,6.437064056,4.411027222,0.9282583594,0.8254740834,-0.4814299047,1
7.93616125,-1.040935364,7.071295166,4.248315582,0.950445056,0.9191108942,-0.5449059606,1
7.95620325,-1.151255951,8.639284515,4.104764099,0.8006132841,1.096863747,-0.4645085037,1
7.97624425,-0.8611592102,10.54646851,4.714446259,0.5550350547,1.027900815,-0.266654253,1
7.99628625,-0.01586700439,11.24970612,5.289400635,0.4677325785,0.7859321833,-0.02596187033,1
8.01632725,0.9568103027,10.68029022,5.110372925,0.3767852485,0.5884298682,0.1931221187,1
8.03636925,1.589993591,10.05339386,4.871619415,0.3590494394,0.4350898266,0.336088568,1
8.05641025,0.8535250854,9.323511658,3.412753143,0.5942915082,-0.3211176991,0.4047443271,1
8.07645225,-1.496138763,9.928703156,3.141367493,1.210107565,-0.8290961385,0.2142125815,1
8.09649325,-4.440366211,12.40485397,4.053271179,1.552164674,-0.3367057145,-0.03828335181,1
8.11653425,-6.942862244,16.35648651,0.1960922241,0.262802273,-0.4429748952,0.1011098847,1
8.13657625,-3.56169342,14.50079544,-0.8777746582,0.7887542844,-0.326831013,0.4329999983,1
8.15661725,-0.8346643066,5.968089294,-0.7785310364,1.757652521,0.03294482827,0.2506304383,1
8.17665925,-0.4125421143,1.897304535,-2.904410248,0.390217483,-1.213711619,-0.4049435258,1
8.19670025,-3.066972198,4.961432648,-1.016386414,0.4309174418,-0.5087524652,-0.8344222903,1
8.21674225,-3.303630066,9.494156799,-0.7610174561,1.028248668,0.8686187863,-0.8736015558,1
8.23678325,-2.021546173,11.64129181,-2.38109848,1.128085494,1.536976814,-0.7642351389,1
8.25682425,-1.158291321,11.73814041,-2.061812439,0.9916606545,0.6674886346,-0.4843305051,1
8.27686625,-1.946552124,9.796078949,-0.1878593445,1.097128749,-0.6818386316,-0.2311417013,1
8.29690725,-3.548071747,8.747210083,0.5062472534,1.219920158,-0.908094883,-0.177082181,1
8.31694925,-3.247047729,8.224347382,-0.5292993164,1.04120934,-0.6298714876,-0.3645008504,1
8.33699025,-3.071163483,8.293054504,-1.461111603,0.8413156867,-0.5469029546,-0.4472982287,1
8.35703225,-1.971999207,8.781189423,-1.616638184,0.7892749906,-0.4980818331,-0.4670945406,1
8.37707325,-1.28822113,9.667346649,-1.25663681,0.7688214779,-0.5427989364,-0.339531064,1
8.39711525,-0.593815155,10.27657974,-0.45984375,0.6418870687,-0.6476977468,-0.1969315559,1
8.41715625,-0.7066804504,10.54646851,0.1568737793,0.4724484384,-0.7487262487,-0.0928818509,1
8.43719725,-0.904119873,10.48749115,0.7107220459,0.5231627226,-0.6614342928,-0.06845717132,1
8.45723925,-0.8635542297,10.08527756,-0.1389111328,0.5798933506,-0.5962915421,-0.08351995051,1
8.47728025,-0.9475296021,9.557175751,-1.298998718,0.5454231501,-0.4812953472,-0.1132883281,1
8.49732225,-1.142723694,8.99449585,-1.190923462,0.4846321344,-0.3425120115,-0.1837001592,1
8.51736325,-1.424886932,8.802145844,-0.07694000244,0.4933257699,-0.2601011097,-0.253626585,1
8.53740525,-1.679357758,9.339228973,0.5010081482,0.5594915152,-0.2322314829,-0.3450740874,1
8.55744625,-1.69896698,10.20966888,0.6930587769,0.7044938803,-0.3402832448,-0.4814566076,1
8.57748825,-1.538800049,10.37836807,0.7963439941,0.8573822975,-0.2876410186,-0.586120069,1
8.597525458,-1.172212372,10.14874557,0.7530839539,0.7397528887,-0.1730252653,-0.6330379248,1
8.617566458,-0.8161029053,10.50201096,-0.04535568237,0.4605867267,-0.2695385516,-0.5978752971,1
8.637608458,-0.647403717,10.58568695,-0.04505630493,0.2594236135,-0.2371165156,-0.4869633317,1
8.657649458,0.5683680725,10.02405487,0.02200424194,0.08777993917,-0.2079330385,-0.3472928405,1
8.677691458,1.322948914,9.766440582,0.6875202942,0.04175005481,-0.1833771616,-0.09249151498,1
8.697732458,0.9258247375,10.17030075,0.3264710999,-0.2297652066,-0.0865675509,0.2142430395,1
8.717774458,-0.1097218323,11.39894577,-0.008681945801,-0.7678508759,0.0532601811,0.3920974135,1
8.737815458,-1.34091156,12.23256226,-2.570754089,-1.657662988,0.1907069087,0.5889725089,1
8.757857458,-3.626808014,12.80227753,-3.009342041,-2.052651644,0.1856573671,1.094198227,1
8.777898458,-5.085823975,12.56726624,0.8819659424,-2.155552864,-0.9127051234,1.405322313,1
8.797939458,-4.187092896,12.19678665,-0.9238787842,-2.013194084,-1.018840909,1.119199753,1
8.817981458,-4.342918854,11.34490814,-2.026186523,-2.183882952,-1.478594303,0.5613697171,1
8.838022458,-7.918533325,10.13482452,1.220861206,-2.00347805,-2.526664019,0.6918364167,1
8.858064458,-5.861061859,9.865384827,3.058889008,-1.537676454,-2.23499465,0.5896655917,1
8.878105458,-2.690355377,9.577084351,0.7286846924,-1.716031313,-0.8970711231,0.4545646608,1
8.898147458,-2.39980957,9.293124847,-0.5140310669,-2.012391329,-0.6139194965,0.7960547209,1
8.918188458,-1.671573944,10.82219513,0.4279600525,-1.854070425,-1.328679919,0.926205337,1
8.938229458,-2.341730347,12.07000031,2.611469421,-1.39396131,-0.7154035568,1.066476703,1
8.958271458,-2.892584839,10.50350784,2.646646271,-1.415499926,0.3985968232,1.20463264,1
8.978312458,-2.690954132,9.239236908,1.443298645,-1.513853788,1.152663469,1.067706466,1
8.998354458,-3.426823883,8.450976105,0.7478448486,-1.555524707,1.424398184,1.016242623,1
9.018395458,-2.559377747,7.639962616,0.7756869507,-1.467578888,1.367605686,0.8706005216,1
9.038437458,-1.889221344,6.979236603,2.848276978,-1.001545668,1.580413461,0.6857914329,1
9.058478458,-1.242416382,6.274502106,3.222947845,-0.530348897,1.566851139,0.4578953087,1
9.078519458,-1.232836304,5.427862701,2.957250366,-0.07556857914,1.245586276,0.3006567359,1
9.098561458,-1.677711182,4.646637268,2.704575806,0.325237751,1.067734361,0.1839730889,1
9.118602458,-1.475631409,4.044289856,2.965782623,0.6870657802,1.069256067,0.03882521391,1
9.138644458,-0.7453001404,3.8963974,3.14989975,0.9548231363,1.02151835,-0.1905020475,1
9.158685458,-0.7963439941,4.431534576,3.937412109,1.208808899,1.096296191,-0.4080340862,1
9.178727458,-1.009051666,4.972359924,4.840484161,1.430064082,1.393111944,-0.610439837,1
9.198768458,-0.8659492493,6.246510315,5.405110016,1.528493285,1.672269702,-0.6229618788,1
9.218810458,-0.07798782349,9.133556671,6.343957672,1.198739886,2.04387784,-0.5046703815,1
9.238851458,1.246607666,12.86888901,6.626869354,0.4262115955,1.72141099,-0.230412513,1
9.258892458,1.42279129,16.38387955,6.163283386,-0.4396472871,0.4698055983,0.250397712,1
9.278934458,0.6759942627,14.41532318,6.256689148,-0.7485535145,-0.2661820352,0.6331214905,1
9.298975458,-0.9259744263,10.34289185,5.517825623,-0.3400696218,-0.3175261915,0.6179534793,1
9.319017458,-4.31058609,7.651039581,2.471959534,0.5684292912,-0.4655787945,0.4361857176,1
9.339058458,-8.491541748,8.783135376,1.915117493,1.239547729,-0.1097574085,0.2447134256,1
9.359100458,-8.810528412,14.57578949,1.609153748,0.293512255,-0.1798427552,0.065763399,1
9.379141458,-4.329596558,16.84387299,1.723964996,1.090736032,-1.01183486,0.5452111363,1
9.399182458,0.6668632507,7.661368103,-0.9598040771,2.195345402,-0.2438704222,0.6015604138,1
9.419224458,-0.6134243774,3.398532715,-6.528224487,1.043418169,-0.8340181112,0.1250129342,1
9.439265458,-1.299447784,4.87461319,-3.570824432,0.4546549916,-1.100277185,-0.6067817211,1
9.459307458,-2.251917114,8.849597168,0.260458374,1.032628775,-0.4035874605,-0.9448764324,1
9.479348458,-3.343297577,11.27141098,0.3614982605,1.54916954,0.5621064901,-0.7624562979,1
9.499390458,-2.718197479,11.00286942,-1.285377045,1.139553785,0.2304201722,-0.4202823043,1
9.519431458,-1.976639557,9.431736603,-0.943787384,0.858576715,-0.8686340451,-0.2886151969,1
9.539473458,-2.744692383,8.665929108,0.3002755737,1.052992344,-1.182348847,-0.2449489832,1
9.559514458,-2.615361328,8.488098907,-0.09894424438,0.988666296,-1.098573327,-0.3113671243,1
9.579555458,-1.387315063,8.936416626,-0.1290316772,0.8952866197,-0.7563966513,-0.3587244451,1
9.599597625,-0.369282074,9.56780365,-0.3712280273,0.8607517481,-0.3444194496,-0.3140449226,1
9.619638625,0.0802331543,10.12284943,-0.603993988,0.8245105743,-0.2305782735,-0.2617520094,1
9.639680625,0.0002993774414,10.02091141,-0.6909631348,0.7776259184,-0.4964326024,-0.2029684335,1
9.659721625,-0.7158114624,9.622140656,-0.1140628052,0.7373185158,-0.508120954,-0.1782005727,1
9.679763625,-1.092278595,9.160051575,-0.4080514526,0.62476331,-0.3238424659,-0.2371181548,1
9.699804625,-1.391656036,8.864715729,-0.9469308472,0.6342155337,-0.2986016273,-0.2977410555,1
9.719845625,-1.706152039,9.212891693,-0.7427554321,0.6171617508,-0.3333040178,-0.3548825681,1
9.739887625,-1.750010834,9.71404953,0.3800596619,0.6355476379,-0.3620895445,-0.3980566859,1
9.759928625,-1.329535217,9.778715057,0.3838018799,0.6718686223,-0.4240897596,-0.4308190048,1
9.779970625,-1.03434906,9.66255661,-0.1222956848,0.7283929586,-0.4274973571,-0.4426552951,1
9.800011625,-0.9554631042,9.40045166,-0.04550537109,0.7050062418,-0.3537511826,-0.4083763361,1
9.820053625,-1.474134521,9.310788116,0.4912783813,0.6006401777,-0.3702829182,-0.3516563475,1
9.840094625,-1.559606781,9.978699188,1.325044556,0.545104146,-0.5438824296,-0.3544402719,1
9.860136625,-0.9864486694,10.66951263,-0.3161425781,0.4326181412,-0.747392714,-0.3721141517,1
9.880177625,-0.3281176758,10.49497559,-1.294508057,0.2814660668,-0.6611346006,-0.3276618719,1
9.900218625,0.6239025879,10.50919601,-0.9803114319,0.1551962495,-0.3518321514,-0.2462298721,1
9.920260625,0.6438111877,10.62400726,-0.1889071655,0.03304171935,-0.03682332113,-0.1417923421,1
9.940301625,0.5652246094,10.56428146,-0.1052311707,-0.2031068951,0.07793308794,-0.04897024855,1
9.960343625,-0.356408844,10.89928482,1.09991272,-0.4078132808,0.113776058,0.09084583074,1
9.980384625,-0.8376580811,11.16752701,0.7463479614,-0.9013098478,0.125594452,0.2152875215,1
10.00042662,-0.2606080627,10.66741699,-1.196012878,-1.556558371,0.381891638,0.4801723957,1
10.02046762,-0.3300636292,11.08370132,-2.851420441,-2.142576694,0.6991426945,0.9427239895,1
10.04050863,-2.813399506,11.91686874,-1.093176727,-2.72999692,-0.8905361891,1.389916301,1
10.06055062,-3.459156647,12.18825439,2.326462097,-2.528584957,-0.9877872467,1.263569832,1
10.08059163,-4.485272827,13.21257431,2.104623413,-2.153887272,-0.3919374645,0.7560299635,1
10.10063362,-7.940687256,13.25508591,0.0592767334,-1.730314255,-1.608962059,0.6629287004,1
10.12067463,-6.61444519,11.25883713,-1.004261627,-1.592635989,-2.147167921,0.6176344156,1
10.14071662,-2.818638611,9.951306152,-0.1513352966,-1.903625846,-1.671226859,0.5570545197,1
10.16075763,-1.71767807,8.760532379,1.678908691,-1.731206179,-1.28198874,0.8133212328,1
10.18079862,-0.5363346863,9.72931778,2.2746698,-1.531790495,-0.6869930029,0.8832361102,1
10.20084063,-1.372944946,10.14156052,2.367327118,-1.529035807,0.6197510958,0.9543781877,1
10.22088162,-2.259850616,9.013057251,1.311572571,-1.824802756,1.540538788,0.8663375974,1
10.24092363,-3.049308929,8.296647034,0.4516108704,-1.802499652,2.078953266,0.6867392659,1
10.26096462,-4.238885193,8.21985672,-0.08442443848,-1.524699807,1.750913382,0.8344222903,1
10.28100663,-2.879112854,8.24560318,1.056952057,-1.249488235,1.09141171,0.8722200394,1
10.30104762,-1.593436432,7.944579163,4.70142334,-0.6972283125,1.340781569,0.7156922817,1
10.32108963,-1.730850677,7.317982178,3.773652649,-0.2919073403,1.468037248,0.5705599189,1
10.34113062,-1.981728973,6.171366577,3.7676651,0.1425396502,1.443004131,0.4475338161,1
10.36117163,-1.486558685,4.722679138,3.167113953,0.262743175,1.357004881,0.2275213152,1
10.38121362,-0.7692503357,4.532125397,3.515439606,0.3533291817,1.214469552,-0.009622044861,1
10.40125463,-0.4185296631,5.561684418,4.372108154,0.597807467,1.024536371,-0.130274564,1
10.42129662,-0.622256012,6.408323822,3.975133667,0.8197645545,0.9424315691,-0.2599349916,1
10.44133763,-1.577419739,7.02638855,3.965553589,0.941650331,1.002625346,-0.346776098,1
10.46137962,-1.503473511,7.9507164,4.948409729,0.9563532472,1.143540263,-0.34495157,1
10.48142063,-0.8759783936,8.955127716,5.166805573,0.8513336778,0.8802143335,-0.1738177091,1
10.50146162,0.135617981,10.02285736,5.254223785,0.6093602777,0.4623658657,0.00825239718,1
10.52150363,0.6875202942,10.96739319,4.922962646,0.3339339197,0.1506859809,0.1243197992,1
10.54154462,-0.338745575,10.30681686,4.760101318,0.2294624895,0.3741820157,0.3269988298,1
10.56158663,0.1249900818,9.0190448,5.297184448,0.3258910477,0.6664202213,0.4699707031,1
10.58162762,1.017733612,8.572972412,5.055586853,0.4557352662,0.6057081819,0.4713326395,1
10.6016695,0.5339396667,8.690328369,3.418441315,0.6534081101,0.01581396908,0.2902516127,1
10.6217105,-2.184856567,9.354646912,3.684887238,0.971596241,-0.07784534246,0.05468849465,1
10.6417515,-4.519551544,11.0627449,3.976480865,0.7785217762,0.02664386854,-0.1269226968,1
10.6617935,-7.219037933,15.65160233,2.552492065,-0.6047841311,-1.045024514,0.06840209663,1
10.6818345,-4.684807892,16.6274231,5.667664032,0.8331106901,-0.9435093999,0.3010242581,1
10.7018765,-2.94512558,6.547534332,-2.883753204,1.821123958,-0.6861200333,0.5299598575,1
10.7219175,-2.30041626,2.465672607,-4.332141266,1.227777839,-0.8868050575,0.1492350399,1
10.7419595,-0.4742138672,4.799020386,-1.903292084,0.4923935831,-1.16189456,-0.7298247814,1
10.7620005,-2.894231415,9.100475464,-1.175655212,0.6778609753,-0.1328921765,-0.876871407,1
10.7820425,-2.677781525,10.9513765,-0.9083111572,0.785227716,1.033436894,-0.7528851628,1
10.8020835,-0.4641847229,11.98931808,-0.3751199341,0.3989467919,0.2555104196,-0.5195021629,1
10.8221245,-0.6568341064,11.09537704,2.083666992,0.7250727415,-0.597219348,-0.2029507756,1
10.8421665,-2.230511627,9.850266266,1.20873642,1.222178102,-0.7904543281,-0.02960961685,1
10.8622075,-2.308200073,8.989855499,-0.5528004456,1.172950387,-0.7885872126,-0.04410675913,1
10.8822495,-1.706900482,8.800349579,0.009729766846,1.000212312,-0.6609866023,-0.1708306074,1
10.9022905,-0.9282197571,9.071136475,0.2782713318,0.9780564904,-0.2989702225,-0.2432569712,1
10.9223325,-0.264200592,9.406439209,0.2821632385,1.005017281,-0.0402944833,-0.3156916797,1
10.9423735,-0.365539856,9.445058899,0.3847000122,1.036631346,-0.2261615247,-0.3486030698,1
10.9624145,-1.012494507,9.566007385,0.09205856323,0.9707438946,-0.2834225297,-0.3449089825,1
10.9824565,-1.625469818,9.529333649,0.1234931946,0.9426891804,-0.2779098153,-0.3483868241,1
11.0024975,-1.82889679,9.303752747,0.1213975525,0.9599995017,-0.3867626488,-0.3649919927,1
11.0225395,-1.656904449,9.179960175,-0.3727249146,0.9271019101,-0.4166972935,-0.4076527655,1
11.0425805,-1.256487122,9.205856323,-0.6159690857,0.835048914,-0.4262932539,-0.4577621222,1
11.0626225,-1.025667114,9.385333099,-0.2799179077,0.8130510449,-0.346675396,-0.5083113909,1
11.0826635,-1.053509216,9.297166443,-0.5016069031,0.7997325659,-0.3608701527,-0.5251535177,1
11.1027045,-1.346599731,9.476044464,-0.3942800903,0.778942883,-0.2586026788,-0.5306723118,1
11.1227465,-1.613345032,9.921817474,1.044677582,0.8331666589,-0.1653057784,-0.5262063742,1
11.1427875,-1.743723907,10.32912048,1.169817352,0.6851424575,-0.2366871685,-0.5120874047,1
11.1628295,-1.219663696,10.80258591,0.3514691162,0.3032060266,-0.5231842995,-0.4479077458,1
11.1828705,-0.06706054688,11.37903717,-0.1327738953,0.06518607587,-0.5215514302,-0.3101058006,1
11.2029125,0.9855505371,11.81582886,1.019978943,0.1783985794,-0.2056819499,-0.1487743109,1
11.2229535,1.525926819,12.08526855,0.09265731812,-0.04410719499,0.009788217023,-0.003566393629,1
11.2429945,0.859662323,11.53965317,-0.255668335,-0.4306140244,0.04169499502,0.1424471885,1
11.2630365,-0.2173480225,11.11289062,0.622256012,-0.739282012,0.2719304264,0.3254753053,1
11.2830775,-0.9551637268,11.18444183,-0.3724255371,-1.20797658,0.2762938738,0.5739433169,1
11.3031195,-1.336121521,11.33023865,-1.23089035,-1.733345032,0.1387626082,0.8500174284,1
11.3231605,-2.695295105,11.61794037,-1.456471252,-2.161366463,-0.1129426956,1.113961935,1
11.3432025,-3.841761017,10.93820389,0.1454974365,-2.62217617,-1.340417743,1.053441525,1
11.3632435,-4.299658813,10.67071014,1.619332581,-2.314344883,-1.662595272,0.7473118901,1
11.3832845,-7.814050598,11.33502869,1.46021347,-1.636250496,-2.370037794,0.8281260133,1
11.4033265,-5.450914764,11.8776503,0.5095404053,-1.417390704,-2.597570419,0.5143405795,1
11.4233675,-2.803969116,10.40950333,-0.4396357727,-1.805835843,-1.484638214,0.4896897674,1
11.4434095,-0.8048762512,9.165140991,-0.1410067749,-1.925086141,-0.5507039428,0.9384782314,1
11.4634505,1.316961365,10.438992,1.651365967,-1.627750278,-0.3786679208,1.226657391,1
11.4834925,1.211131439,11.21976837,2.052980804,-1.507860303,0.4525736868,1.020168781,1
11.5035335,-1.369651794,10.3301683,0.7692503357,-1.713896036,1.470505238,0.9090399146,1
11.5235745,-3.290756836,8.694669342,-0.1169068909,-1.927505851,1.731437087,1.022135973,1
11.5436165,-3.090922394,7.800428925,0.7285350037,-1.791536331,1.519548297,0.9976073503,1
11.5636575,-2.650538177,7.722141724,2.292632446,-1.401792169,1.492543459,0.8686067462,1
11.5836995,-2.583627319,7.18086731,3.103196869,-0.9904636741,1.634983778,0.6852451563,1
11.60374558,-2.447709961,6.27749588,3.083737335,-0.6495360136,1.579554319,0.4674465656,1
11.62378758,-2.468816071,5.345533905,3.661386108,-0.1742096692,1.318662643,0.3169341087,1
11.64382858,-1.991009674,5.217250671,3.990701294,0.2988542318,1.079213858,0.12663728,1
11.66386958,-1.459015961,5.471871185,3.965553589,0.663244009,0.996388793,-0.06145063788,1
11.68391158,-0.7753875732,5.846392365,3.775748291,0.9025608897,0.8619735241,-0.2321215719,1
11.70395258,-0.3866459656,5.937403107,3.971990204,1.032143831,0.7876493931,-0.4880125523,1
11.72399458,-1.405876465,5.649701385,4.533622284,1.178279877,1.083054543,-0.6502582431,1
11.74403558,-1.073268127,6.069877625,4.579127655,1.309481025,1.176131248,-0.735296905,1
11.76407758,-1.207987976,7.679480438,5.130131836,1.258172989,1.059488177,-0.7616778612,1
11.78411858,-2.124382324,10.40770706,6.243666229,0.9147171378,1.186166286,-0.5886663198,1
11.80416058,-2.145039368,13.52707031,7.06381073,0.6020267606,1.000152349,-0.09487565607,1
11.82420158,0.3646417236,13.67645966,5.336552582,0.2614269555,0.4076066911,0.4461532831,1
11.84424258,2.829116821,9.871222687,4.414619751,0.16286695,-0.3168190718,0.606331706,1
11.86428458,1.056203613,7.692353668,3.532653809,0.4700723886,-0.9848085642,0.5665571094,1
11.88432558,-3.413202209,8.63404541,3.043471069,1.205520391,-0.9884144664,0.3409038484,1
11.90436758,-7.481142883,11.35523666,2.896327057,1.566234469,-0.06175319105,0.1299379766,1
11.92440858,-10.01761826,16.64748138,0.4471202087,-0.03579965979,-0.6326404214,0.3135884106,1
11.94444958,-2.362836456,14.93474304,0.9059161377,0.8207645416,-1.365788341,0.3381841481,1
11.96449158,-0.6987469482,5.127587128,-0.5980064392,1.852140665,-0.6446532607,0.322450012,1
11.98453258,-0.7893086243,1.649120636,-4.785847778,0.6285502315,-1.21514535,-0.2797367573,1
12.00457458,-0.4897814941,5.012027435,-2.704426117,0.5160267353,-1.146516323,-0.8604201078,1
12.02461558,-1.365161133,9.770033112,-2.544109497,0.6631968021,0.3324770033,-0.9827624559,1
12.04465758,-1.133592682,13.06737625,-0.9912387085,0.7257118225,1.482944608,-0.5985720158,1
12.06469858,0.6381230164,12.96109726,2.505639496,0.8845074773,0.4373099506,-0.01676868834,1
12.08474058,-0.6735992432,10.13078293,0.936302948,1.152257562,-0.5285848379,0.1777454466,1
12.10478158,-2.785856781,8.981772308,-0.2815644836,1.191334605,-0.8872551918,0.1349474192,1
12.12482258,-3.062331848,8.516240387,0.126486969,1.03673923,-0.9825149775,-0.1462402046,1
12.14486458,-2.158511353,8.291108551,-0.08846603394,0.8921699524,-0.5318235159,-0.4792215228,1
12.16490558,-1.314416656,8.429720306,-0.9228309631,0.8408347368,0.1031921431,-0.5854649544,1
12.18494758,-0.4176315308,9.260343018,-1.172212372,0.8726039529,0.2303802818,-0.4945822358,1
12.20498858,-0.4647834778,10.05309448,-0.8978329468,0.8982847333,-0.1609375328,-0.2841013968,1
12.22503058,-1.135987701,9.92466156,-0.7111711121,0.8509597778,-0.5012747645,-0.1378454566,1
12.24507158,-1.643282776,9.881551208,-0.1038839722,0.7881650329,-0.6010816097,-0.1947374344,1
12.26511258,-1.808539124,9.61345871,-0.4337979126,0.770868957,-0.4380832911,-0.3283230364,1
12.28515458,-1.731000366,9.434580688,-0.5742059326,0.7573418021,-0.2562782168,-0.4531100988,1
12.30519558,-1.504521332,9.396859131,-0.001796264648,0.7921068072,-0.1671536267,-0.5736398697,1
12.32523758,-1.107247467,9.379495239,0.09175918579,0.8129386306,-0.1750574708,-0.6390088201,1
12.34527858,-0.748742981,9.377698975,-0.1426533508,0.8141114712,-0.1222605631,-0.6456640363,1
12.36532058,-0.9440867615,9.63097229,0.4819976807,0.8133437634,0.02792416699,-0.6287699342,1
12.38536158,-1.322799225,10.32253418,1.0285112,0.6950951219,-0.0004430315457,-0.5706945658,1
12.40540258,-1.113684082,10.68268524,0.352666626,0.3475175202,-0.2332783192,-0.4651220441,1
12.42544458,0.01990859985,10.45770309,0.1830693054,0.02826780453,-0.4298988581,-0.3054620028,1
12.44548558,1.59717865,10.75558365,0.005089416504,-0.162314266,-0.3245901167,-0.1153977364,1
12.46552758,1.810634766,11.87779999,-1.350491638,-0.4691661596,0.07790865749,0.1524443626,1
12.48556858,1.394949188,13.41944412,-1.391656036,-0.7733368278,0.5575073361,0.4080097079,1
12.50560958,0.5474116516,14.02433624,-0.4562512207,-1.298856258,0.6328803897,0.7362805009,1
12.52565158,-1.195713501,13.34534821,-1.85105072,-1.925163031,0.001223559259,1.131400466,1
12.54569258,-3.663182373,11.45852188,-0.3115022278,-2.382849932,-0.6453219652,1.185168505,1
12.56573458,-4.591851196,9.585466919,-0.01871109009,-2.58541441,-1.062281013,0.7288246155,1
12.58577558,-7.424710236,8.744365997,0.7875123596,-2.172216415,-1.352241993,0.7997889519,1
12.60581612,-9.345815277,10.14650024,1.031205597,-1.820972323,-1.765950799,0.9642231464,1
12.62585713,-4.129612427,11.472892,0.8134085083,-1.938776731,-1.884246826,0.5817575455,1
12.64589912,-1.195713501,10.27762756,1.113534393,-1.916054845,-1.164519191,0.3654268086,1
12.66594012,-1.787582703,9.493707733,1.18059494,-1.600217223,-0.5292328596,0.6541013718,1
12.68598113,-1.338217163,10.75408676,0.2296224976,-1.661093116,-1.455227733,0.9424551129,1
12.70602312,-1.448088684,11.62527512,2.214345245,-1.379734039,-1.120808005,1.072099805,1
12.72606413,-2.310595093,10.21191422,2.667602692,-1.436909676,0.07311920077,1.073243618,1
12.74610612,-2.564317474,8.769214325,1.398841095,-1.616141558,1.17791605,0.9822317362,1
12.76614713,-2.23724762,7.906109161,0.6499484253,-1.642883658,1.57002008,0.8066750765,1
12.78618912,-2.103425903,6.964417419,0.4516108704,-1.631095409,1.528078675,0.6736773252,1
12.80623013,-1.903142395,6.449188843,1.461860046,-1.328631163,1.469914675,0.4839378595,1
12.82627112,-1.822160797,5.850134583,3.379821625,-0.813876152,1.579828739,0.2667627037,1
12.84631313,-1.790726166,5.557792511,3.360811157,-0.2807723284,1.314742327,0.1247746944,1
12.86635412,-1.904639282,5.46079422,3.490142212,0.2941894233,0.8978464007,0.02359138802,1
12.88639613,-1.996398468,4.98104187,3.924239502,0.8603979349,0.7797988057,-0.02977098152,1
12.90643712,-0.9937834167,4.649631042,4.051624603,1.317763448,0.7186438441,-0.1683784127,1
12.92647913,-0.3143463135,4.649331665,3.728296967,1.526186824,0.69701159,-0.4142436683,1
12.94652012,-0.5777984619,4.62882431,4.506229248,1.686713219,1.135603786,-0.6679343581,1
12.96656113,0.04819976807,5.963299255,4.924010468,1.729823947,1.495423794,-0.8237501979,1
12.98660312,-0.192948761,8.798104248,5.067412262,1.428620219,1.868914008,-0.7437334657,1
13.00664413,-0.03652404785,13.12725174,6.849755859,0.7063824534,2.04452014,-0.5472457409,1
13.02668612,-0.8027806091,17.12304245,7.471712494,-0.1669674665,1.054063439,0.1335333288,1
13.04672713,-0.5415737915,15.28516434,6.999145203,-0.6264048219,0.01691291854,0.8234420419,1
13.06676912,0.4543052673,9.734556885,5.420078888,-0.322042346,-0.8268774748,0.9843772054,1
13.08681013,-1.61005188,7.127278748,2.615211639,0.6241328716,-1.146095514,0.8146442175,1
13.10685112,-6.554569702,7.457941132,1.859433289,1.490664959,-0.4283317327,0.6312513351,1
13.12689313,-8.659193115,12.74809021,1.311572571,1.231135964,0.6133761406,0.354437232,1
13.14693412,-4.686604156,17.97057999,-0.2511776733,0.248607561,-0.4097414315,0.1639402956,1
13.16697613,-0.5742059326,10.32971924,0.1977388,1.669743896,-0.50788486,0.5083902478,1
13.18701712,-0.07035369873,3.8764888,-6.024971008,0.9542968869,-1.240059018,0.1818280667,1
13.20705913,-0.8020321655,2.823877716,-3.806733856,0.3289664686,-1.125941277,-0.5691273808,1
13.22710012,-2.429298248,7.263645172,-0.5490582275,0.681697607,-0.3919011354,-0.7366188169,1
13.24714113,-1.89086792,11.52767807,-1.029259644,0.9742459655,0.7570586205,-0.6763983369,1
13.26718312,-1.660646667,12.76859756,-2.076481934,0.7966454625,0.6976287365,-0.2801090777,1
13.28722413,-0.4667294312,11.64488434,0.4210743713,0.9383156896,-0.3220269084,-0.04049622267,1
13.30726612,-2.200573883,9.768386536,0.7271878052,1.154871225,-0.7673100829,0.02980051562,1
13.32730713,-2.946173401,8.973090363,-1.035097504,0.916821599,-0.9305906892,-0.03096379526,1
13.34734912,-2.240241394,8.327033844,-0.532742157,0.695656836,-1.079607606,-0.2387996614,1
13.36739013,-1.480870514,8.363258514,0.5643264771,0.733499527,-0.6226119995,-0.4214692712,1
13.38743112,-0.5650749207,9.3256073,-0.1267863464,0.8008592129,-0.05037162453,-0.4339777827,1
13.40747313,-0.03996688843,10.36369858,-1.615440674,0.9065151811,-0.2956756949,-0.3706265092,1
13.42751412,-0.1621128845,10.25652145,-1.610650635,0.9391610622,-0.4978521168,-0.3228289485,1
13.44755613,-1.340462494,9.178762665,-0.2019300842,0.9337761402,-0.4970496297,-0.3082616031,1
13.46759712,-1.834435272,8.95348114,-0.1874102783,0.8821746707,-0.3335925937,-0.4265440106,1
13.48763912,-2.158361664,9.280550995,-0.5957611084,0.8062018752,-0.2877794206,-0.5832226872,1
13.50768012,-2.099234619,9.608369293,-0.2981799316,0.7697829008,-0.3731160164,-0.6723040938,1
13.52772112,-1.950444031,9.528435516,-0.4049079895,0.7916969061,-0.4800572395,-0.677415669,1
13.54776313,-1.709894257,9.576485596,0.03218307495,0.9100881219,-0.4543325007,-0.6590412259,1
13.56780412,-1.322050781,9.882898407,1.381177826,1.024660945,-0.5672613382,-0.6367435455,1
13.58784613,-0.833915863,9.850565643,0.5596861267,0.8136556149,-0.7233242989,-0.5992016196,1
13.60788396,-0.0773890686,9.54205719,-0.7075785828,0.5323237777,-0.6720775962,-0.5512711406,1
13.62792596,0.5983058167,9.801617432,-0.5114863586,0.3396570683,-0.4699767232,-0.4364592135,1
13.64796696,0.7464976501,10.37387741,0.02365081787,0.1800465435,-0.1646887213,-0.2771511674,1
13.66800796,1.075214081,10.92128906,-0.01032852173,0.01655582152,0.003989040852,-0.1072061434,1
13.68804996,0.675844574,10.65379532,0.3758683777,-0.07139334083,-0.04381684214,0.07582399994,1
13.70809096,-0.05748046875,10.94628708,0.1788780212,-0.3025521338,-0.1369575262,0.1359912455,1
13.72813296,-1.286424866,11.62362854,0.3585044861,-0.6416441798,-0.01364714745,0.183858335,1
13.74817396,-1.810784454,12.23615479,-0.63887146,-1.214265347,0.2118555605,0.3788042068,1
13.76821596,-0.9340576172,12.02150116,-2.439327393,-1.96255064,0.4061199129,0.7541565299,1
13.78825696,-0.1514849854,10.34244278,-1.603166199,-2.557284594,0.2491861284,1.072184205,1
13.80829796,-1.891167297,9.13370636,-0.3338058472,-2.730718136,0.00678526843,1.210503101,1
13.82833996,-3.771557007,10.80752563,0.4102967834,-2.343457222,-0.6769019961,0.7736592889,1
13.84838096,-7.335495758,12.67189865,0.242795105,-1.937084198,-1.867639303,0.6168651581,1
13.86842296,-9.592801666,12.61965729,0.7673043823,-1.699786305,-2.674898863,0.9685349464,1
13.88846396,-4.029620361,11.5564183,2.215093689,-1.344824195,-2.121958256,0.7436251044,1
13.90850596,-2.087708588,9.805209961,1.468296661,-0.9571909904,-0.995903492,0.6944568753,1
13.92854696,-1.671723633,9.531878357,-0.2002835083,-1.122978568,-0.2737680972,0.9919135571,1
13.94858796,0.1814227295,10.42911255,-0.5851332092,-1.491060615,-0.06464000046,1.234668493,1
13.96862996,0.9994715881,10.51174072,0.4896318054,-1.808467507,0.4478264153,0.930161953,1
13.98867096,-0.7072792053,8.801846466,1.747316437,-1.713153243,1.063658595,0.7075234056,1
14.00871296,-2.899171143,7.982151031,2.18919754,-1.404886007,1.60614121,0.6791636348,1
14.02875396,-3.632945251,7.282356262,2.092049561,-1.043017507,1.720604897,0.6454457045,1
14.04879596,-3.419938202,6.769971771,0.9093589783,-0.8547574878,1.639063001,0.5786647797,1
14.06883696,-2.812351685,6.593937836,1.19586319,-0.5912943482,1.322581172,0.44688797,1
14.08887796,-2.111509094,6.557413788,2.979404297,-0.1401839256,1.169790387,0.2285655141,1
14.10891996,-1.777703247,6.557563477,3.340154114,0.2978570163,0.9465306997,0.04715013877,1
14.12896096,-1.50946106,6.361920319,3.500171356,0.5975612402,0.8458228707,-0.05402066186,1
14.14900296,-0.8783734131,6.669979706,3.579207001,0.7223645449,0.7645725608,-0.1821293533,1
14.16904396,-0.9621990967,7.182813263,3.590882721,0.6791275144,0.6060166955,-0.2738364935,1
14.18908596,-1.290316772,7.457492065,4.482129364,0.7865549326,0.9469676614,-0.3710282743,1
14.20912696,-1.047970734,7.779173126,4.102668457,0.933314383,1.146064281,-0.4559435546,1
14.22916796,-1.016536102,8.447084198,3.834875336,0.8940922618,1.098210335,-0.4928194284,1
14.24920996,-1.204395447,9.40045166,4.635410614,0.6396007538,1.2022084,-0.3184515834,1
14.26925096,0.1131646729,11.01095261,5.646408234,0.4057509005,1.086483955,-0.05106862262,1
14.28929296,1.538350983,12.32162704,5.741011505,0.1810267866,0.6849926114,0.2859779,1
14.30933396,2.323917389,11.47244293,5.050347748,0.1236393973,0.228990525,0.5304777622,1
14.32937496,0.3369493103,9.914333038,4.298311615,0.1719581187,-0.1768361181,0.766600728,1
14.34941696,-1.034648438,8.465046844,3.68922821,0.4325697422,-0.28465572,0.8601606488,1
14.36945796,-2.182012482,9.071136475,2.820135498,0.95744133,-0.2435339391,0.4902878106,1
14.38949996,-5.359754333,11.75385773,2.148631897,0.9745011926,-0.4533300102,0.1081653014,1
14.40954096,-8.088579712,15.43739777,-0.1766326904,-0.3245462477,-1.192351818,0.3631665111,1
14.42958296,-2.540067902,12.45200592,2.082619171,0.6654075384,-0.7207986116,0.4536187947,1
14.44962396,-2.138303375,5.107079773,0.1249900818,1.2857126,-0.9757843018,0.2243992388,1
14.46966596,-2.676134949,2.705324249,-3.897295532,0.7058061957,-1.374032259,-0.4960931242,1
14.48970696,-2.270328827,6.000721436,-3.073109436,0.6630954146,-0.7580592036,-1.034341931,1
14.50974796,-1.833986206,10.21460861,-2.557132416,0.6472659707,0.453466326,-1.012906551,1
14.52978996,0.08412506104,12.9658873,-1.694925385,0.4492984414,0.840123713,-0.6739965677,1
14.54983096,2.234702911,13.73798172,1.647174683,0.7599025965,0.0512255542,-0.1858641952,1
14.56987296,1.419198761,11.12576385,2.138003998,1.242848516,-0.1286561787,-0.002753056586,1
14.58991396,-1.477427673,9.207951965,0.144150238,1.175489902,-0.1022500545,0.04151070118,1
14.60995596,-2.438728638,8.390801239,-0.4444258118,0.8170129657,-0.06172480807,-0.1366793066,1
14.62999696,-2.626587982,7.827672272,0.254021759,0.6678991914,-0.1647428721,-0.3322378397,1
14.65003796,-1.814077606,8.214916992,0.7225474548,0.84383744,-0.03108479641,-0.4991911948,1
14.67007996,-1.261277161,9.277856598,-0.1673519897,0.9583970904,0.1501509696,-0.4836771488,1
14.69012096,-1.080902252,10.0276474,-1.484463043,0.8174321651,-0.2468353659,-0.3185298741,1
14.71016296,-1.257085876,9.629625092,-0.5554948425,0.8219973445,-0.502037406,-0.1955809295,1
14.73020396,-1.373244324,9.26124115,0.4252656555,0.8482455611,-0.4797858894,-0.1988170147,1
14.75024596,-1.348994751,8.902736664,0.04370910645,0.731802702,-0.3959313929,-0.2930611968,1
14.77028696,-1.066232758,9.125772858,-0.3138972473,0.6468146443,-0.4219127893,-0.3649059832,1
14.79032796,-0.8190966797,9.457033997,-0.3254232788,0.6231987476,-0.4988295734,-0.3954418898,1
14.81036996,-0.9253756714,9.359586639,0.1293310547,0.6654654741,-0.4510934651,-0.4110626876,1
14.83041096,-0.8985813904,9.43907135,0.6285429382,0.8168786764,-0.4377058446,-0.4701494575,1
14.85045296,-0.3882925415,9.882898407,0.5191204834,0.9699174762,-0.5951123238,-0.6358115673,1
14.87049396,-0.2354603577,10.55889267,-0.7375163269,1.018052101,-0.3822238147,-0.7870143652,1
14.89053496,-0.7647596741,11.03145996,-0.6982978821,1.010656834,0.04407959059,-0.8031552434,1
14.91057696,-1.080453186,10.54422318,-0.4451742554,0.7849799395,0.03927840292,-0.7147573829,1
14.93061796,-0.7539820862,9.496102753,-0.6707551575,0.3238093555,-0.06300032884,-0.4904933274,1
14.95065996,0.2767744446,9.671388245,-1.198856964,0.1129530594,-0.04592187703,-0.1941825449,1
14.97070096,0.6249504089,11.65326691,-0.04984634399,0.1945766211,0.1037734896,0.0222388804,1
14.99074296,-0.3736230469,12.34692444,-0.1074765015,-0.1352896988,-0.02613701671,0.2466614246,1
15.01078396,-0.4011657715,12.50050507,0.4472698975,-0.5140962005,0.05961666629,0.4406124949,1
15.03082596,-0.8412506104,12.72279282,-1.297501831,-1.00822556,0.2933941782,0.6074507833,1
15.05086696,-1.637893982,13.18578003,-3.335513763,-1.499295592,0.519536078,0.6948177814,1
15.07090796,-3.000809784,12.09290268,-1.430425415,-2.075942993,0.2497812957,0.8367314339,1
15.09094996,-3.272943878,8.999884644,-0.83661026,-2.617868185,-0.8039830327,0.8784062266,1
15.11099096,-4.420756989,7.646997986,0.6939569092,-2.526548147,-1.723063111,0.6888606548,1
15.13103296,-7.463329926,9.944420471,2.138153687,-1.866554976,-1.844570756,0.924572885,1
15.15107396,-5.663472748,12.48553619,0.1598675537,-1.27004838,-1.108327866,0.7740938067,1
15.17111496,-2.593955841,12.32566864,-1.721869354,-1.56411624,-0.3266220093,0.537129581,1
15.19115696,-1.497635651,10.42417282,-1.169368286,-2.033618212,-0.5774880052,0.520041585,1
15.21119796,-0.9430389404,9.211245117,0.9607022095,-1.662678719,-0.9937174916,0.6745173931,1
15.23123996,-0.7881111145,9.328750763,1.439556427,-1.287718296,-1.063251972,0.955868423,1
15.25128096,-0.8080197144,9.569300537,1.512604523,-1.309448481,-0.2738481462,0.9179388881,1
15.27132296,-1.507215729,8.745114441,1.123413849,-1.650346875,1.330576658,0.8132721186,1
15.29136396,-2.30625412,8.414452057,0.7617658997,-1.621669054,1.869395375,0.7354410887,1
15.31140596,-2.817291412,8.35786972,0.8994795227,-1.318487406,1.495732784,0.6808056831,1
15.33144696,-3.33596283,8.15788559,0.9090596008,-1.060444355,1.090815067,0.6804878116,1
15.35148796,-3.288361816,7.88754776,1.776805115,-0.8198245764,0.9535194635,0.6160577536,1
15.37152996,-2.711162109,7.395371246,3.480861511,-0.3904948235,1.048382521,0.5241227746,1
15.39157096,-1.300794983,6.901398468,3.567231903,0.05179629847,0.9155849218,0.3321045339,1
15.41161296,-0.6746470642,6.150260468,2.840193787,0.2918841839,0.6871003509,0.05865489691,1
15.43165396,-1.21098175,5.689219208,3.247496796,0.5096276999,0.7249369621,-0.157501623,1
15.45169596,-1.427281952,5.765710144,3.178490295,0.7064402103,0.5926817656,-0.3416787982,1
15.47173696,-1.693428497,5.815706177,3.526516571,0.8567915559,0.5591010451,-0.5376603603,1
15.49177796,-1.641785889,6.181246033,4.154460754,0.9980072975,0.7405034304,-0.7233227491,1
15.51181996,-1.012344818,6.938521271,4.467759247,1.051269293,0.8752635717,-0.7394367456,1
15.53186096,-0.4070036316,8.834478607,5.622008972,0.8259182572,1.303457141,-0.5899441838,1
15.55190296,0.8463400269,11.91073151,6.337820435,0.498044163,1.14845252,-0.337926954,1
15.57194396,1.590292969,13.83153717,5.280269623,0.248875469,0.4280792177,0.1482023001,1
15.59198496,2.111359406,11.93228668,4.703369293,0.1098731831,0.128022328,0.5162531734,1
15.61202683,1.613644409,9.474846954,3.727997589,0.1779438406,-0.2488629073,0.706852138,1
15.63206783,0.2561174011,9.215137024,3.235372009,0.4918850064,-0.5674870014,0.4605763853,1
15.65210983,-3.717968445,10.61846878,3.827540588,1.140868306,-0.300314188,0.1286304742,1
15.67215083,-8.666527863,12.91364594,3.753294983,1.428310275,0.07855319977,0.3223663867,1
15.69219283,-7.92377243,17.19174957,1.388362885,0.5324670672,-0.4808884263,0.522228837,1
15.71223383,-2.282603302,10.22044647,-1.672621765,1.367484689,-0.8677211404,0.5622194409,1
15.73227583,-3.031196594,3.701352997,-5.942492523,1.245143294,-1.729742527,0.4761059284,1
15.75231683,-2.201771393,1.265318756,-1.213975525,0.3269405365,-1.890145898,-0.4320318997,1
15.77235783,-2.008373566,5.016667786,1.735491028,0.1165060475,-1.387696028,-1.521429062,1
15.79239983,-2.354902954,9.839039612,-2.174378357,0.5202311277,0.07372319698,-1.63661325,1
15.81244083,-1.093176727,13.71507935,-4.103716278,0.9334617257,1.889895201,-0.8631260991,1
15.83248283,2.426154785,14.80107101,-0.5698649597,1.248213291,0.6737310886,0.1262564659,1
15.85252383,4.051774292,10.76905563,-0.7002438354,0.8842895031,-1.361790419,0.3818767965,1
15.87256483,-0.1957928467,9.018895111,2.354004822,1.066316128,-0.9133633375,0.4646763802,1
15.89260683,-2.080523529,8.893006897,1.109941864,0.8328096271,-0.08255630732,0.1928736418,1
15.91264783,-2.152673492,8.504265289,-0.339793396,0.4165791273,0.1564576477,-0.2514532804,1
15.93268983,-2.099533997,8.596922607,-0.3854484558,0.5440260172,0.2315276861,-0.5147028565,1
15.95273083,-1.898352356,9.414672089,-1.262175293,0.6729755998,0.1238824278,-0.5172877908,1
15.97277283,-1.640289001,9.7011763,-1.278191986,0.6002395749,-0.09781517833,-0.3793030679,1
15.99281383,-1.275647278,9.635762329,-0.8743318176,0.6185860634,-0.2633984685,-0.2525879145,1
16.01285483,-1.379680939,9.793833618,-0.1390608215,0.6484315991,-0.3510020971,-0.2240137309,1
16.03289683,-1.513352966,9.560169525,-0.0217048645,0.5334276557,-0.3260673881,-0.271795094,1
16.05293783,-1.267863464,9.508676605,0.2158511353,0.5255699158,-0.1950638294,-0.3916631341,1
16.07297983,-1.000220032,9.880802765,-0.01601669312,0.6008021235,-0.07707479596,-0.5220538378,1
16.09302083,-0.6674620056,9.96208374,-0.0940045166,0.6991942525,-0.05164293945,-0.6030520201,1
16.11306283,-0.6126759338,9.55837326,0.3863465881,0.7734161019,-0.05445453152,-0.6051278114,1
16.13310383,-1.176553345,9.089697876,0.3864962769,0.7370666862,-0.009793378413,-0.5641896725,1
16.15314583,-1.40288269,9.344917145,0.5047503662,0.6408586502,-0.1366136372,-0.5593672395,1
16.17318683,-1.348545685,10.2267334,0.3454815674,0.4106045961,-0.3788627088,-0.5332477689,1
16.19322783,-0.4471202087,10.25607239,-0.7744894409,0.1318295449,-0.3241354227,-0.4728623331,1
16.21326983,0.5560935974,10.16341507,-0.4661306763,0.04097347707,-0.04440576956,-0.3582487106,1
16.23331083,1.176703033,10.12614258,-0.1552272034,-0.03100863472,0.01734624058,-0.1649920493,1
16.25335283,0.7569758606,10.68657715,-1.679806824,-0.2742660046,0.01111987233,0.1170151681,1
16.27339383,-0.2552192688,12.91873535,-0.3300636292,-0.4657866359,0.1706501544,0.4537816942,1
16.29343483,-0.6728507996,14.07118881,-0.8985813904,-0.9082404375,0.3118062913,0.7480672002,1
16.31347683,-1.365610199,13.76417725,-1.266216888,-1.252030969,0.3713158667,0.9484773278,1
16.33351783,-2.702031097,11.65656006,-1.214125214,-1.914296985,0.05703894049,1.01465416,1
16.35355983,-3.111878815,9.060807953,-1.35962265,-2.548098564,-0.6428693533,0.8645567894,1
16.37360083,-4.257296906,7.345225525,0.2174977112,-2.442350149,-1.508010983,0.6175221801,1
16.39364283,-5.539380798,9.094038849,1.777553558,-1.904147983,-1.677037001,0.4515117407,1
16.41368383,-7.788603516,11.38771912,1.197958832,-1.592591286,-1.479380488,0.7849133015,1
16.43372583,-2.483186188,11.67557053,0.001646575928,-1.871404171,-0.9911383986,0.5329781771,1
16.45376683,-1.1572435,9.852661285,0.672102356,-1.859336734,-0.4650122225,0.4629136622,1
16.47380783,-1.237626343,9.746382294,1.037642212,-1.730378032,-0.3268801272,0.7343208194,1
16.49384983,-1.002615051,11.09881989,0.3855981445,-1.746875405,-0.1169228256,0.7892981172,1
16.51389083,-1.569186859,10.81845291,1.402283936,-1.710544467,0.4572996497,0.801769495,1
16.53393283,-2.539169769,9.8498172,1.800156555,-1.67453146,1.156664371,0.9115152359,1
16.55397383,-2.260299683,9.118138733,1.750160522,-1.409417868,1.414660215,0.8786690831,1
16.57401583,-2.285597076,8.172106018,1.035097504,-1.264572024,1.334552526,0.8361097574,1
16.59405683,-2.204914856,7.70148468,1.284329224,-1.081539273,1.128637075,0.7781991959,1
16.61409787,-2.225122833,7.079378357,2.794987793,-0.6603862643,1.103693843,0.6179130673,1
16.63413988,-2.306104431,6.064788208,3.694167938,-0.1863146722,1.089974642,0.4092434943,1
16.65418087,-2.324366455,5.764512634,3.462000732,0.2070947438,0.9236851335,0.236668095,1
16.67422288,-2.153122559,5.566175079,3.509152679,0.5817872882,0.7982634306,0.08718402684,1
16.69426387,-1.79371994,5.439388733,3.55825058,0.8338156343,0.7372164726,-0.05390573665,1
16.71430588,-1.218316498,5.887257385,3.540287933,0.9497478008,0.5333313942,-0.2271589339,1
16.73434687,-1.05186264,5.88665863,4.603676605,1.052685618,0.4660033286,-0.4367498159,1
16.75438788,-1.110241241,6.263125763,5.525010681,1.19551897,0.6799361706,-0.5753127337,1
16.77442987,-0.7785310364,7.812254333,5.573360138,1.13946712,1.037105203,-0.5731592774,1
16.79447088,-0.05164260864,10.53374496,6.0821521,0.851344049,1.466475964,-0.4956434071,1
16.81451287,0.6253994751,13.11991699,5.579347687,0.4952656329,0.9369018078,-0.1117074043,1
16.83455387,0.9403445435,13.93631927,4.554578705,0.04993202165,0.09707269818,0.3468458056,1
16.85459587,0.5971083069,11.84426971,5.29224472,0.0378466621,-0.5382516384,0.7205164433,1
16.87463687,0.6535409546,10.27223877,5.341043243,0.2850035727,-0.8014999032,0.8298230767,1
16.89467788,-1.306034088,9.275910645,3.739822998,1.016739845,-0.6035542488,0.7237662077,1
16.91471987,-5.255570984,9.397607574,1.219813385,1.601048112,-0.04035573453,0.6374062896,1
16.93476088,-8.478668518,12.42940292,-0.07394622803,0.6824318171,-0.3774950802,0.5263827443,1
16.95480287,-5.337001648,13.29864532,2.021546173,0.2732535899,-1.450101972,0.06069217622,1
16.97484388,-2.435585175,5.573659515,-1.886526947,1.091053367,-2.136928082,4.299613647e-05,1
16.99488587,-0.6923103333,2.328108673,-0.6418652344,0.9660804868,-1.613156557,-0.653570354,1
17.01492688,-1.401685181,5.563330994,-1.38072876,0.7651074529,-0.7446585894,-1.269653797,1
17.03496787,-2.05238205,10.21640488,-3.519930267,0.8805606961,0.2126465589,-1.180470943,1
17.05500988,0.02754272461,12.42012222,-4.111200714,0.8874425888,1.21771729,-0.905318737,1
17.07505087,3.027154999,13.54413483,-1.190324707,0.772713244,0.2661172748,-0.6111274958,1
17.09509288,2.02304306,11.15869537,2.893183594,0.8967743516,-0.8163590431,-0.01433649287,1
17.11513387,-1.135688324,9.717642059,3.119962006,1.104240894,-0.8251687288,0.2413912416,1
17.13517588,-2.409988403,8.898844757,0.2348616028,0.9162840247,-0.5049757361,0.173866868,1
17.15521687,-2.109114075,8.416098633,-1.107995911,0.8399878144,-0.7791244388,-0.1132155806,1
17.17525788,-1.628164215,8.45382019,-0.9457333374,0.9903701544,-0.5909162164,-0.3948967755,1
17.19529987,-0.8503816223,8.798253937,-0.9157955933,0.9957124591,-0.002576563973,-0.5156345963,1
17.21534088,-0.3085084534,9.745783539,-1.047521667,0.7766776681,0.04185282812,-0.5109022856,1
17.23538287,-0.7298822021,10.21161484,-0.5400769043,0.7433619499,-0.0934214741,-0.3876471817,1
17.25542388,-1.592238922,9.837093658,-0.7806266785,0.7861374617,-0.2996135652,-0.2981674075,1
17.27546587,-1.912722473,9.386829987,-0.8581654358,0.6721948385,-0.4008729458,-0.3159457147,1
17.29550688,-1.969604187,9.126072235,-0.5944139099,0.517929852,-0.4456288517,-0.3861055076,1
17.31554787,-1.750759277,9.241033173,0.1631607056,0.5176492333,-0.414865911,-0.4634037912,1
17.33558988,-1.224753113,9.674531708,0.3150947571,0.6187934875,-0.3527402878,-0.528301239,1
17.35563087,-0.7258406067,10.15608032,-0.1579216003,0.7153945565,-0.2625986636,-0.5591768026,1
17.37567288,-1.044976959,9.961335297,0.07050338745,0.7477681041,-0.221813336,-0.4990067482,1
17.39571387,-1.115330658,9.71988739,0.8910969543,0.6731960177,-0.1591782868,-0.4541843832,1
17.41575588,-0.5569917297,9.907597046,0.652792511,0.5121360421,-0.1380788833,-0.4515873194,1
17.43579687,0.4824467468,10.70019882,-0.2778222656,0.3558169901,-0.1780121773,-0.4216615558,1
17.45583788,0.7268884277,11.40178986,-0.1700463867,0.2843566537,-0.1236942932,-0.3527601063,1
17.47587987,1.022373962,11.09133545,-0.3010240173,0.04983254895,0.005841833539,-0.2678957582,1
17.49592088,0.8566685486,10.58419006,-0.8256829834,-0.1619669199,0.09572267532,-0.05580327287,1
17.51596287,0.3019221497,11.60012741,-1.024768982,-0.311614722,0.1588778347,0.2163861394,1
17.53600388,-0.4393363953,13.18892349,-0.6518943787,-0.775134325,0.09569013119,0.4435538054,1
17.55604587,-1.640139313,13.68633911,-1.877395935,-1.334553957,0.05724071711,0.6596389413,1
17.57608688,-2.474803619,12.25112366,-0.6753955078,-1.832333684,0.0272850953,0.809335947,1
17.59612787,-2.835852814,9.132209473,-1.193019104,-2.384271145,-0.3101264536,0.9312143326,1
17.61617021,-3.642225952,6.98776886,-0.2959346008,-2.495545626,-0.984382689,0.8307852149,1
17.63621121,-4.888833618,8.940757599,1.375190277,-2.072361946,-1.360017061,0.5820250511,1
17.65625321,-7.406747589,11.72436905,1.095571747,-1.671747804,-1.277612567,0.8714659214,1
17.67629421,-2.983445892,12.88191193,-0.4697232056,-1.908638835,-1.310794711,0.5700314641,1
17.69633621,-1.947300568,11.15180969,-0.2814147949,-2.175827503,-0.7381275892,0.458981514,1
17.71637721,-2.044598236,10.14365616,0.8493338013,-2.083059549,-0.5904700756,0.7853597999,1
17.73641821,-2.063309326,10.65783691,2.29098587,-1.738089323,-1.437859297,0.9383804798,1
17.75646021,-3.040626984,10.43300446,3.720213776,-1.230926752,-1.080844522,1.067177892,1
17.77650121,-2.369572449,9.338330841,2.528092804,-1.159636497,0.06006034836,1.035286188,1
17.79654321,-1.786235504,8.509205017,1.332229614,-1.225479364,1.002548218,0.9958803654,1
17.81658421,-1.301992493,8.336015167,0.4219725037,-1.361446023,1.224820375,0.8524806499,1
17.83662621,-1.13613739,7.361990662,0.2116598511,-1.458777189,1.073687196,0.6157575846,1
17.85666721,-1.541344757,6.367758179,1.917662201,-1.250860691,1.342541695,0.3619070053,1
17.87670821,-1.858834534,5.588927765,4.048780518,-0.7359063029,1.758908987,0.1579223424,1
17.89675021,-1.525627441,5.355862427,3.509152679,-0.2154847383,1.57249403,-0.002528834622,1
17.91679121,-0.9857002258,5.712570648,3.362457733,0.2485990375,1.269845963,-0.1221056134,1
17.93683321,-1.072070618,5.878725128,3.260968781,0.6126763821,1.147796869,-0.2134065032,1
17.95687421,-1.298549652,5.294040985,3.43999649,0.9222073555,1.07220304,-0.3267921507,1
17.97691621,-1.322050781,5.275479584,4.442461853,1.221894026,0.9616709948,-0.512429893,1
17.99695721,-1.4040802,5.587879944,5.15303421,1.45169282,1.04432416,-0.6306643486,1
18.01699821,-0.8833131409,6.763834534,5.474266205,1.631245613,1.337572694,-0.6314079762,1
18.03704021,-0.2597099304,9.257498932,6.340963898,1.68993485,1.637181163,-0.5330576897,1
18.05708121,-0.07394622803,12.17807556,5.7755896,1.126418114,1.567132711,-0.2554019392,1
18.07712321,0.1513352966,14.22491913,4.761149139,0.1369151324,0.828925848,0.2542817891,1
18.09716421,-0.2758763123,12.68222717,5.3402948,-0.2103403807,-0.2219486088,0.7429767251,1
18.11720621,-0.6896159363,10.30442184,4.595743103,0.1809838414,-1.198318124,0.7710087895,1
18.13724721,-4.096531219,11.05226669,3.742816772,0.9967360497,-1.430915594,0.4766587019,1
18.15728821,-8.576115875,14.92007355,3.394042053,1.40312314,-0.3442497849,0.1994252056,1
18.17733021,-8.749455414,17.13501755,-2.195933533,0.6688364744,-0.2106774896,0.3350769877,1
18.19737121,-2.602488098,6.594237213,-4.836741943,1.553515315,-0.4840672016,0.6538537145,1
18.21741321,0.2121089172,2.524200897,-1.648821259,1.934711933,-0.9145004153,0.3159263134,1
18.23745421,1.071621552,1.880090332,-2.638263702,0.56712991,-1.787331939,-0.7148416042,1
18.25749621,-2.160307617,7.140601044,-1.844614105,0.5336273909,-0.8014623523,-1.247152686,1
18.27753721,-2.417323151,11.62841858,-1.132993927,0.8345426917,0.7535766959,-1.387355685,1
18.29757821,-0.9012757874,13.30059128,-1.194216614,0.9312213659,1.808569431,-1.10326457,1
18.31762021,-0.3908372498,10.96933914,-2.359243927,0.9560768604,0.6504784822,-0.2739807963,1
18.33766121,-0.001347198486,9.148824921,-0.9162446594,1.061389446,-1.011471629,0.06170726195,1
18.35770321,-2.37990097,9.335187378,0.6210585022,1.079049826,-0.9724364877,0.2333649248,1
18.37774421,-2.609673157,9.621092834,0.3121009827,0.8112593293,-0.6675642729,0.1203667745,1
18.39778621,-1.920506287,9.588610382,0.1519340515,0.522770226,-0.5581564903,-0.1420534551,1
18.41782721,-1.229692841,9.645492096,0.3617976379,0.4793124795,-0.2302358598,-0.2748190165,1
18.43786821,-0.7279362488,10.02854553,-0.450712738,0.533326149,-0.150460735,-0.2307650298,1
18.45791021,-0.5272036743,10.14395554,-1.66498764,0.5666700602,-0.3375964761,-0.1506005973,1
18.47795121,-1.018631744,10.03662872,-1.437460785,0.5273686647,-0.4545904994,-0.09109927714,1
18.49799321,-1.664688263,9.718989258,-0.2799179077,0.5676496029,-0.4256520569,-0.1143192351,1
18.51803421,-1.532962189,9.452693024,-0.1833686829,0.6396058798,-0.1923315227,-0.1868287623,1
18.53807621,-1.3947995,9.337732086,-0.7213499451,0.6886339188,-0.2030018121,-0.2781180441,1
18.55811721,-1.400487671,9.595346375,-0.9024732971,0.7065119147,-0.2896912694,-0.4053747654,1
18.57815921,-1.551972656,9.447453918,-0.2001338196,0.7533479333,-0.2085020691,-0.4929483235,1
18.59820021,-1.608704681,9.156459045,0.263152771,0.824917078,-0.1271498948,-0.5621774793,1
18.61824133,-1.533111877,8.951984253,0.5516029358,0.8455123305,-0.1246315241,-0.5983718634,1
18.63828333,-1.135388947,9.070088654,0.844094696,0.7361328602,-0.2208141536,-0.5894860625,1
18.65832433,-0.7647596741,10.02285736,0.325872345,0.5410296321,-0.445892036,-0.5018743873,1
18.67836633,-0.5140310669,10.99134338,-0.1296304321,0.3387227356,-0.4388968647,-0.3249364793,1
18.69840733,0.3254232788,10.36699173,-0.2201921082,0.1169812977,-0.3030979037,-0.1499510705,1
18.71844933,0.9563612366,10.09635452,-1.333127747,-0.1406756043,-0.2811078429,0.02624008246,1
18.73849033,1.015937347,10.85123474,-1.032852173,-0.271533221,-0.1315200478,0.2155631185,1
18.75853133,0.09789642334,13.08114761,-1.0285112,-0.445530057,0.2547062635,0.4496388733,1
18.77857333,-0.3585044861,14.77442642,-2.122136993,-0.9513103366,0.530167222,0.5915960073,1
18.79861433,-1.326990509,14.33119812,-1.764680328,-1.338430762,0.617022872,0.7623218298,1
18.81865633,-2.239792328,11.21093674,-0.499511261,-2.077390671,0.01698929258,0.8144222498,1
18.83869733,-3.21187088,8.168513489,-0.409997406,-2.405273914,-0.5745358467,0.7138184309,1
18.85873933,-4.2029599,6.340215454,-0.5237608337,-2.2111063,-0.6988086104,0.5526177287,1
18.87878033,-8.504414978,7.194189606,0.06406677246,-2.091653824,-1.398155332,0.8848561645,1
18.89882133,-5.666616211,11.47513733,1.491648102,-1.947761416,-1.751932383,0.6479364038,1
18.91886333,-2.509681091,12.80841476,0.726738739,-2.027958155,-1.367616773,0.4112850428,1
18.93890433,-1.077758789,11.63440613,0.2404000854,-1.998700976,-0.2604722977,0.367518127,1
18.95894633,-1.254241791,10.42552002,0.2139051819,-1.738430738,-0.3141622543,0.6689240932,1
18.97898733,-0.7385641479,9.880802765,0.7146139526,-1.423710585,-1.902905345,0.9033513665,1
18.99902933,-1.289268951,10.05833359,2.384840698,-1.158474565,-1.702916265,0.9660772085,1
19.01907033,-2.034120026,9.520202637,3.317401428,-1.170646429,-0.07590839267,0.9760800004,1
19.03911133,-2.118095398,9.271270294,2.540966034,-1.216541648,1.323121548,0.9527055621,1
19.05915333,-1.623074799,9.002579041,0.3803590393,-1.358588219,1.70905447,0.8753110766,1
19.07919433,-1.149609375,8.423882446,-0.3454815674,-1.419569254,1.42488265,0.7793213129,1
19.09923633,-1.122815094,7.560028839,0.8526269531,-1.127971053,1.160847783,0.649621129,1
19.11927733,-1.547631683,6.994205475,2.941533051,-0.6446712613,1.37122333,0.5091695189,1
19.13931933,-1.966161346,6.502328339,3.479514313,-0.1633425057,1.439079762,0.4238262177,1
19.15936033,-1.835483093,6.216273193,3.341351624,0.3154118955,1.176825881,0.2979511023,1
19.17940133,-2.100132751,5.762416992,3.575165405,0.7275451422,1.024083257,0.1851775646,1
19.19944333,-1.661395111,5.6866745,3.945195923,1.020369053,0.9661437273,0.02974514291,1
19.21948433,-1.07057373,6.054309998,3.978576508,1.1364429,0.7815349698,-0.145075649,1
19.23952633,-0.4863386536,6.39215744,4.258943481,1.171405196,0.9985020161,-0.3254735172,1
19.25956733,0.04819976807,6.830895081,3.657194824,1.215205431,1.132318497,-0.4881188571,1
19.27960933,-0.0043409729,7.816894684,3.490291901,1.080314159,1.260096788,-0.5534040928,1
19.29965033,-0.05658233643,9.974507904,5.303171997,0.6680551767,1.68443203,-0.3841518164,1
19.31969133,1.314266968,12.92502228,5.826483765,0.2636584044,1.33552742,-0.09356086701,1
19.33973333,1.452579346,14.05981247,5.034031677,-0.1040825099,0.4413446188,0.4401002228,1
19.35977433,1.271605682,11.4516362,5.536087646,-0.02406357601,-0.08908739686,0.7592297196,1
19.37981633,-0.3576063538,10.27732819,3.211272125,0.5216721892,-0.6734883785,0.7640729547,1
19.39985733,-4.074526978,11.27350662,1.83233963,1.199673176,-0.4833448827,0.4527824819,1
19.41989933,-7.780370636,14.36921906,0.132923584,0.8135684133,0.2031799257,0.3491779864,1
19.43994033,-4.422253876,12.92322601,-1.835483093,0.05088110641,-0.3310067952,0.3906088769,1
19.45998233,-1.07536377,6.107599182,-0.299078064,0.860647738,-0.9465593696,0.4243349433,1
19.48002333,-0.2278262329,2.22317688,0.1681004333,0.02749715187,-1.83703804,-0.2135123461,1
19.50006433,-2.435136108,4.284540253,3.586092682,0.3397585154,-0.3103185892,-0.9684064984,1
19.52010633,-2.134860535,9.034313049,0.8536747742,1.133366346,1.101056457,-1.047440052,1
19.54014733,-0.4457730103,12.04530167,-5.111420746,0.7156012058,1.705339193,-0.7860330939,1
19.56018933,1.285227356,13.60460907,-4.319866791,0.2501491904,0.7226370573,-0.311421752,1
19.58023033,1.781894531,12.00129318,1.411714325,0.6606773138,-0.2164304107,0.08555684984,1
19.60027233,-1.721569977,10.08318192,2.780767365,1.115806222,-0.27145347,0.3263221681,1
19.62031246,-2.765499115,9.304052124,1.214424591,1.131462097,-0.1715877503,0.188755095,1
19.64035346,-2.875670013,8.657696228,-1.043031006,0.7543407083,-0.3148694634,-0.1033439189,1
19.66039546,-2.379002838,8.505013733,-0.2980302429,0.640219152,-0.3286214173,-0.4062537849,1
19.68043646,-1.825004883,9.173224182,0.63887146,0.8795155883,0.01511329133,-0.5088570714,1
19.70047846,-0.7822732544,9.875114594,-0.4884342957,1.028799415,0.09238342941,-0.4207469821,1
19.72051946,-0.1751358032,10.04516098,-1.420096893,0.9750825167,-0.107375212,-0.2805603743,1
19.74056146,-0.6415658569,9.941576385,-1.051413574,0.8256556392,-0.2040433437,-0.1983686984,1
19.76060246,-1.557511139,9.880952454,-0.6577322388,0.819779098,-0.3205380738,-0.228959769,1
19.78064346,-2.087109833,9.651329956,-0.5415737915,0.7583473921,-0.3141206503,-0.3150775731,1
19.80068546,-2.036215668,9.286688232,-0.672102356,0.6579038501,-0.2972405255,-0.4056419432,1
19.82072646,-1.720372467,8.95467865,-0.8267308044,0.6148499846,-0.306506604,-0.4508835971,1
19.84076846,-1.308279419,9.011410675,-0.7888595581,0.6060261726,-0.3691135943,-0.4495744407,1
19.86080946,-1.141077118,9.599238281,-0.5486091614,0.5711722374,-0.4202868044,-0.4607253075,5
19.88085146,-0.9626481628,10.06851242,0.3290158081,0.6387813091,-0.3388834,-0.5038181543,5
19.90089246,-0.8830137634,9.850565643,0.7586224365,0.7812622786,-0.1925399601,-0.506900847,5
19.92093446,-0.3200344849,9.656868439,0.6390211487,0.811837256,-0.1971464306,-0.5493764281,5
19.94097546,0.03727249146,10.1616188,-0.2185455322,0.6559950113,-0.2413208038,-0.5397728682,5
19.96101646,0.05792953491,10.74839859,-0.4821473694,0.529050827,-0.2025385052,-0.4916948974,5
19.98105846,-0.02709365845,10.45426025,0.2257305908,0.3788694143,-0.2501024306,-0.3972694278,5
20.00109946,-0.1456471252,9.919871521,-0.6176156616,0.09447105974,-0.4021178484,-0.2331882715,5
20.02114146,-0.347277832,9.530980225,-0.4614903259,-0.1194334403,-0.6896013021,-0.0749008581,5
20.04118246,-0.8231382751,9.061556396,-0.5725593567,-0.379591316,-0.6363284588,0.08466165513,5
20.06122446,-2.107766876,9.789043579,-2.45833786,-0.7887799144,-0.2051841617,0.3875250816,5
20.08126546,-3.77589798,11.32125732,-4.139641571,-1.044946074,0.02218931727,0.9355959296,5
20.10130646,-4.78330307,13.32199677,-1.574276276,-1.060675263,-0.7129113674,1.260260582,5
20.12134846,-2.997366943,13.93901367,-1.35378479,-1.416697025,-1.300260901,1.005917072,5
20.14138946,-3.552712097,11.94980026,-2.508782959,-1.343456149,-0.9676917791,0.56779778,5
20.16143146,-5.815706177,8.602760468,-1.365759888,-1.261741042,-1.061209917,0.3374218345,5
20.18147246,-7.293283539,7.449558563,-0.3707789612,-0.6954713464,-1.18187499,0.2772145271,5
20.20151446,-5.540727997,8.266110535,-1.116977234,-0.4487797022,-0.5041309595,-0.00452943705,5
20.22155546,-3.970343628,8.748257904,-2.0371138,-0.5606655478,0.1319568455,-0.2994782031,5
20.24159746,-4.738995209,8.227490845,-1.346000977,-0.2305175364,-0.1994607151,-0.305531621,5
20.26163846,-4.171525269,7.212301941,-1.220112762,0.02650865354,-0.2176386565,-0.2419145554,5
20.28167946,-3.766916656,7.860154724,-1.797312469,-0.02542984486,0.02009658143,-0.1952667832,5
20.30172146,-3.402723999,8.972940674,-1.359023895,0.1997808367,-0.01000196673,-0.255112946,5
20.32176246,-3.313359833,9.034762115,-1.334025879,0.438288331,0.2319768071,-0.2953038514,5
20.34180446,-3.080743561,8.574020233,-2.174977112,0.4543041289,0.3983856142,-0.3472610712,5
20.36184546,-3.448379059,8.335865479,-1.940115509,0.2641270161,0.4087766409,-0.3592560589,5
20.38188746,-3.29958847,8.984915771,-0.1236428833,0.2829253972,0.1233969554,-0.3665522337,5
20.40192846,-3.05035675,9.188941498,1.062191162,0.6465349197,0.3433158696,-0.3497376442,5
20.42196946,-2.987487488,9.238787842,-0.9241781616,0.6117638946,0.6582523584,-0.3010840118,5
20.44201146,-3.018473053,9.084907837,-1.926344147,0.4013323188,0.4224525392,-0.2946201861,5
20.46205246,-3.198099518,8.87279892,-1.012494507,0.2479825914,0.1389316767,-0.2905828357,5
20.48209446,-3.582649841,8.986113281,0.1666035461,0.1933006346,-0.01466669329,-0.2868694663,5
20.50213546,-3.738176422,9.353150024,0.2429447937,0.1708327383,0.06594828516,-0.3147188425,5
20.52217746,-3.638034668,9.416168976,-0.08427474976,0.161825195,0.05362110585,-0.3345132768,5
20.54221846,-3.324885864,8.949589233,-0.3460803223,0.1383319944,-0.07975097746,-0.3063037694,5
20.56225946,-2.975362701,8.652008057,-0.5275030518,0.07932047546,-0.1725193262,-0.2557660341,5
20.58230146,-2.709066467,9.06934021,-0.4290078735,0.09222721308,-0.2026689649,-0.1803738177,5
20.60234246,-2.625839539,9.656269684,-0.6839277649,0.116785951,-0.0913733393,-0.09587024152,5
20.6223845,-2.479294281,9.867630157,-0.7348219299,0.1102590784,0.08071959764,-0.04200141877,5
20.6424255,-2.595153351,9.51047287,-0.4222718811,0.1174512804,0.1254114658,-0.002000078559,5
20.6624675,-2.579885101,9.126371613,-0.2395019531,0.07065108418,0.1095915735,-0.008456078358,5
20.6825085,-2.723885651,8.724457397,-0.146844635,0.02255658992,0.1448648721,-0.0457412079,5
20.7025505,-2.837050323,8.778195648,-0.307610321,-0.07559288293,0.137807101,-0.06193271652,5
20.7225915,-2.855162659,9.272018738,-0.2023791504,-0.1003493592,0.04892896861,-0.02190259472,5
20.7426325,-2.934347992,9.681118011,-0.1444496155,-0.08107580245,-0.01465530414,0.02987052687,5
20.7626745,-2.935994568,10.01058289,-0.4486170959,-0.06574930251,-0.106764093,0.06161064655,5
20.7827155,-2.867736511,10.30576904,-0.6686595154,-0.0534988977,-0.09377589822,0.08429411054,5
20.8027575,-2.617756348,10.2930455,-0.5760021973,-0.04837803543,0.01575296745,0.08483465016,5
20.8227985,-2.531984711,9.894574127,-0.375718689,-0.07032135129,0.03953593969,0.07268548757,5
20.8428405,-2.727178802,9.429640961,-0.1877096558,-0.08762484044,0.07170011848,0.02951420657,5
20.8628815,-2.870430908,8.824150085,-0.3641926575,-0.1011965796,0.1609943658,-0.02225883491,5
20.8829225,-2.899320831,8.495583344,-0.6589297485,-0.1144583821,0.1428817064,-0.06677328795,5
20.9029645,-3.056793365,8.699309692,-0.1640588379,-0.04958318546,0.06582459062,-0.07335106283,5
20.9230055,-3.127296753,9.085805969,-0.177381134,0.003492083633,0.009440647438,-0.04301314428,5
20.9430475,-2.948269043,9.425299988,-0.4661306763,0.0497228317,-0.001646208111,-0.007394326851,5
20.9630885,-2.849923553,9.406588898,-0.5815406799,0.06246365607,0.01255945303,0.01795105636,5
20.9831305,-2.759960632,9.38638092,-0.7815248108,0.05421251804,0.01823077165,0.03121962026,5
21.0031715,-2.7590625,9.677226105,-0.5990542603,0.05155255646,0.008024535142,0.04233552888,5
21.0232135,-2.842738495,9.667047272,-0.2083666992,0.06362040341,0.07093366235,0.02826777473,5
21.0432545,-2.966381378,9.289232941,-0.422870636,0.02076561376,0.1358259022,-0.007979307324,5
21.0632955,-3.036884766,9.137897644,-0.4782554626,0.006547795609,0.07294618338,-0.02639327757,5
21.0833375,-2.969375153,9.298363953,-0.3248245239,0.01817335933,-0.04128265008,-0.01867391355,5
21.1033785,-3.072959747,9.326056366,-0.6876699829,-0.006938584615,-0.07494453341,-0.01949278638,5
21.1234205,-2.992427216,9.325756989,-0.440533905,0.02064164169,0.07223124057,-0.02682135068,5
21.1434615,-2.907553711,9.290280762,-0.7238946533,-0.009055731818,0.00720910402,-0.01009277813,5
21.1635035,-2.674937439,9.301956482,-0.3995191956,0.02889784239,0.06950221956,0.004560314119,5
21.1835445,-2.812052307,9.307345276,-0.6099815369,0.00341105694,-0.02405040711,0.006285910495,5
21.2035855,-2.930007019,9.396110687,-0.5525010681,0.03218904138,-0.009960977361,0.01523697842,5
21.2236275,-3.06682251,9.297016754,-0.5945635986,0.04034550488,-0.07973958552,0.01790372655,5
21.2436685,-3.090024261,9.198371887,-0.4454736328,0.03078449145,-0.1355141699,0.009301450104,5
21.2637105,-3.046315155,9.252858582,-0.4399351501,0.03391037509,-0.1598155648,0.02024515346,5
21.2837515,-2.778671722,9.285640411,-0.5566923523,0.06021735072,-0.16435197,0.04585617781,5
21.3037935,-2.670297089,9.276958466,-0.7966433716,0.03786430508,-0.1400770545,0.05307301134,5
21.3238345,-2.602637787,9.409283295,-0.4796026611,0.02882986516,-0.08404766768,0.03344130516,5
21.3438765,-2.44082428,9.509724426,-0.3391946411,0.01465885341,-0.03868369758,0.01431811042,5
21.3639175,-2.41852066,9.378896484,-0.4980143738,-0.01249953173,0.01697600819,0.01249643322,5
21.3839585,-2.61865448,9.308991852,-0.3632945251,-0.02019433677,0.07336290181,0.003800966544,5
21.4040005,-2.79184433,9.395511932,-0.1739382935,-0.01146642584,0.06665049493,0.007783611305,5
21.4240415,-2.729274445,9.416019287,-0.4053570557,-0.02539176121,0.0625301972,0.01257800683,5
21.4440835,-2.852019196,9.345964966,-0.5486091614,-0.03660579771,0.06992939115,0.0227872543,5
21.4641245,-3.021915894,9.436376953,-0.4076023865,-0.03831741214,0.04354961589,0.02115758508,5
21.4841665,-3.089724884,9.457033997,-0.5084925842,-0.04512119293,0.02330757305,0.02842238732,5
21.5042075,-3.020568695,9.417665863,-0.5592370605,-0.06266203523,0.02209912986,0.01798600703,5
21.5242495,-2.941982117,9.274713135,-0.5858816528,-0.061893709,0.01584822126,0.005395253655,5
21.5442905,-2.934946747,9.234746246,-0.5066963196,-0.04912378639,-0.02803047188,-0.005085049197,5
21.5643315,-2.899769897,9.415570221,-0.443228302,-0.03532548621,-0.07139983028,-0.003552499693,5
21.5843735,-2.81519577,9.326206055,-0.5412744141,-0.0198529847,-0.0399900116,0.003331490327,5
21.60441933,-2.680176544,9.233548737,-0.5307962036,-0.02475127205,0.00181484269,0.009698489681,5
21.62446133,-2.564167786,9.254355469,-0.4484674072,-0.004507119302,0.01241321489,0.02092214115,5
21.64450233,-2.576142883,9.168733521,-0.5447172546,0.007300071418,0.03153269365,0.02887511067,5
21.66454433,-2.715503082,9.318272552,-0.5004093933,0.004604819231,0.04556510225,0.02522202954,5
21.68458533,-2.720592499,9.536518707,-0.2709365845,-0.005417522043,0.04106751829,0.01931394078,5
21.70462633,-2.730471954,9.416019287,-0.3647914124,-0.02996833995,0.04370991141,0.02011121996,5
21.72466833,-2.820883942,9.276060333,-0.4760101318,-0.04455320537,0.01389171463,0.02847863361,5
21.74470933,-2.861150208,9.291927338,-0.3007246399,-0.02363980189,0.01575498097,0.03397529572,5
21.76475133,-2.78361145,9.356892242,-0.3495231628,-0.02580181882,0.02004151791,0.02949768119,5
21.78479233,-2.851270752,9.39925415,-0.3552113342,-0.0260857828,0.0151078226,0.02943555079,5
21.80483433,-2.7192453,9.450896759,-0.3264710999,-0.04072231427,-0.01342439465,0.02672700398,5
21.82487533,-2.640509033,9.455387421,-0.2306703186,-0.03410975263,0.06867112964,0.01500253007,5
21.84491733,-2.63616806,9.276958466,-0.407303009,-0.05478120968,0.09191573411,0.001438517589,5
21.86495833,-2.820883942,9.258546753,-0.3917353821,-0.045063667,0.05748058483,0.0005846570712,5
21.88499933,-2.963237915,9.391170959,-0.1396595764,-0.01282763388,-0.01699128002,0.01301148813,5
21.90504133,-3.067570953,9.534722443,-0.2700384521,-0.0166982729,-0.06038060039,0.01312580053,5
21.92508233,-2.900817719,9.436826019,-0.3165916443,-0.001089752419,-0.04089168087,0.01338191144,5
21.94512433,-2.59530304,9.338779907,-0.349972229,-0.005179833155,-0.04432750121,0.002247929806,5
21.96516533,-2.565664673,9.29986084,-0.2781216431,-0.01884830743,-0.05589588732,0.0006229551509,5
21.98520733,-2.516417084,9.396559753,-0.1713935852,-0.009674916044,-0.05675922707,0.005662483163,5
22.00524833,-2.515219574,9.36302948,-0.296383667,0.01439320203,-0.02722036466,0.01482313499,5
22.02529033,-2.403701477,9.405391388,-0.4617897034,0.005896052811,-0.02378485911,0.01738510653,5
22.04533133,-2.410736847,9.555529175,-0.2293231201,0.02064783499,0.006489784457,0.02149683982,5
22.06537233,-2.449206848,9.454938354,-0.4296066284,0.02405581623,0.02299022675,0.03643452376,5
22.08541433,-2.461181946,9.374405823,-0.468974762,0.0108655123,0.06539307535,0.03537397832,5
22.10545533,-2.532583466,9.452243958,-0.4206253052,-0.008266104385,0.06217195466,0.02479223534,5
22.12549733,-2.68302063,9.496102753,-0.4743635559,-0.007506238297,0.0276372917,0.02405018918,5
22.14553833,-2.765798492,9.435329132,-0.3378474426,0.003196141683,0.04113943502,-0.0003944728523,5
22.16558033,-2.78600647,9.33608551,-0.6108796692,-0.01367065683,0.00646223221,-0.02315993421,5
22.18562133,-2.853216705,9.335786133,-0.4064048767,0.005957771558,-0.01945127174,-0.0280349534,5
22.20566233,-2.787353668,9.485325165,-0.2312690735,0.02513519675,0.01585248299,-0.03342857584,5
22.22570433,-2.676134949,9.379046173,-0.4400848389,0.001676075161,0.01361661032,-0.04615325853,5
22.24574533,-2.664758606,9.271869049,-0.4056564331,0.004885849543,0.03113653697,-0.03487874568,5
22.26578733,-2.612966309,9.309590607,-0.4132905579,0.00470009353,0.04287450761,-0.03261003643,5
22.28582833,-2.696941681,9.278305664,-0.5637277222,-0.005431502592,0.03212143853,-0.01890443079,5
22.30587033,-2.747237091,9.466763763,-0.3912863159,-0.01117327809,0.01738080755,-0.01881861314,5
22.32591133,-2.810705109,9.423354034,-0.374072113,-0.002913550707,0.04702690989,-0.01121986657,5
22.34595333,-2.908751221,9.298962708,-0.4924758911,0.001593117951,-0.004122290295,-0.002022448927,5
22.36599433,-3.011437683,9.433383179,-0.3035687256,-0.009432703257,-0.02253947966,-0.006833722815,5
22.38603533,-2.877017212,9.339079285,-0.3728746033,-0.01244334038,-0.03781380132,-0.01484079193,5
22.40607733,-2.709515533,9.159901886,-0.4773573303,-0.0181566868,-0.04922861233,-0.005135424435,5
22.42611833,-2.734363861,9.291927338,-0.4604425049,-0.02454514243,-0.09626314789,-0.008341982961,5
22.44616033,-2.737058258,9.428144073,-0.2245330811,-0.01399056893,-0.02010930516,-0.0117019238,5
22.46620133,-2.61745697,9.42155777,-0.2230361938,-0.01360334642,0.01653676294,-0.01525519043,5
22.48624333,-2.652184753,9.378297729,-0.3456312561,-0.02827356756,-0.01713384502,-0.009184323251,5
22.50628433,-2.77777359,9.436376953,-0.3930825806,-0.02505493909,0.01742738672,-0.009024583735,5
22.52632633,-2.819836121,9.371711426,-0.3653901672,-0.01661045291,0.02927990258,0.0004543038085,5
22.54636733,-2.925366669,9.287137299,-0.2698887634,-0.02281215601,-0.01889046468,0.004253908992,5
22.56640833,-2.95096344,9.403445435,-0.2905458069,-0.02166013978,-0.03000896052,-0.001674881671,5
22.58645033,-2.807861023,9.44850174,-0.2615061951,-0.01857373677,-0.09440797567,0.000161951175,5
22.606487,-2.769840088,9.305249634,-0.3147953796,-0.02510720119,-0.08511224389,0.00728829205,5
22.626529,-2.721939697,9.302704926,-0.2897973633,-0.03206671029,-0.07343506068,0.006911005825,5
22.64657,-2.60817627,9.398206329,-0.2433938599,-0.02792442776,-0.05961179733,0.007248446345,5
22.666612,-2.52270401,9.373058624,-0.2300715637,-0.01439197548,-0.05666309223,0.001925609773,5
22.686653,-2.572849731,9.40748703,-0.3182382202,-0.02020798624,-0.05688546225,0.002524746582,5
22.706695,-2.646646271,9.523046722,-0.1501377869,-0.01348004024,-0.0458708927,-0.005895369686,5
22.726736,-2.628833313,9.487420807,-0.09340576172,-0.01354196109,0.001151202247,-0.01865789294,5
22.746777,-2.629282379,9.40748703,-0.2986289978,-0.02820532396,0.03696288913,-0.02407320589,5
22.766819,-2.601290588,9.353449402,-0.2844085693,-0.02804380469,0.06368689984,-0.02721825242,5
22.78686,-2.65727417,9.266779633,-0.2929408264,-0.02535680681,0.0646738112,-0.02601026371,5
22.806902,-2.812950439,9.297016754,-0.3466790771,-0.0187170133,0.0548504144,-0.01892133802,5
22.826943,-2.938838654,9.337133331,-0.2859054565,-0.006429920904,0.05013512075,-0.01226316765,5
22.846985,-2.954256592,9.347162476,-0.2453398132,0.003464920912,0.02205886319,-0.008519129828,5
22.867026,-2.972219238,9.283844147,-0.266894989,0.0119705908,-0.004886324052,-0.005613176152,5
22.887068,-2.950514374,9.379644928,-0.1938468933,0.01936745457,-0.01391245518,-0.006504181772,5
22.907109,-2.762205963,9.488768005,-0.1490899658,0.02848185599,-0.01647494733,-0.005094304681,5
22.92715,-2.588716736,9.321266327,-0.1947450256,0.02461601235,-0.02537822537,0.00560267549,5
22.947192,-2.613864441,9.146429901,-0.1695973206,0.02224912867,0.008100553416,0.007763336413,5
22.967233,-2.579136658,9.330097961,-0.213306427,0.01787934639,0.04790951312,0.01018256508,5
22.987275,-2.551593933,9.412277069,-0.3504212952,0.01146272756,0.06023444608,0.004091456067,5
23.007316,-2.67718277,9.416468353,-0.1695973206,0.01960673928,0.05485154688,0.007454942446,5
23.027358,-2.824925537,9.557175751,0.04056564331,0.03559369594,0.08380564302,0.0185228996,5
23.047399,-2.884202271,9.665999451,-0.269589386,0.01860458963,0.1129337326,0.02185040526,5
23.067441,-2.909499664,9.580078125,-0.3276686096,0.008097222075,0.1012270898,0.01045661606,5
23.087482,-2.900817719,9.396410065,-0.192948761,0.00409775367,0.0767184943,-0.001618638169,5
23.107523,-2.862647095,9.364975433,-0.2601589966,-0.004548331723,0.05643097684,-0.01576158404,5
23.127565,-2.917283478,9.231902161,-0.4152365112,-0.009439160116,0.0472368896,-0.02937720716,5
23.147606,-2.949167175,9.1079599,-0.3041674805,0.006021223962,0.02240418456,-0.03875537589,5
23.167648,-2.882705383,9.054371338,-0.3659889221,0.009879276156,-0.01260035485,-0.04028457031,5
23.187689,-2.752625885,9.091494141,-0.3393443298,0.0130232051,-0.003424335271,-0.03322612122,5
23.207731,-2.578986969,9.147328033,-0.3772155762,0.009528604336,6.960798055e-05,-0.03091584891,5
23.227772,-2.738555145,9.191785583,-0.5294490051,0.0195874311,-0.06443847716,0.0002642420586,5
23.247814,-2.812800751,9.514065399,-0.2607577515,0.030956598,-0.01861533709,0.0134885842,5
23.267855,-2.621348877,9.73276062,-0.22348526,0.03548637033,0.05814474821,0.01194569096,5
23.287896,-2.432741089,9.537566528,-0.5255570984,0.0154170543,0.05781005323,0.01842556894,5
23.307938,-2.59290802,9.342222748,-0.4230203247,-0.004739147145,0.02395065129,0.01545296051,5
23.327979,-3.016676788,9.191935272,-0.263152771,-0.004452925175,-0.03333794326,0.01390813477,5
23.348021,-3.30782135,9.088350677,-0.1901046753,-0.01525716856,-0.068728894,0.009976724163,5
23.368062,-3.166814575,9.279203796,-0.1639091492,-0.001995890401,-0.05817629397,0.008184418082,5
23.388104,-2.710862732,9.521699524,-0.1901046753,0.00971981883,-0.04226213321,-0.002344922861,5
23.408145,-2.637664948,9.452243958,-0.622256012,-0.004171361215,-0.0409514159,-0.003589377739,5
23.428187,-2.722089386,9.408385162,-0.5054988098,-0.006631121971,-0.03505952284,-0.01306148246,5
23.448228,-2.781665497,9.448950806,-0.1031355286,0.0140807461,-0.04544375092,-0.01160272676,5
23.468269,-2.891387329,9.328601074,-0.2709365845,0.004784317221,-0.09450722486,-5.422160029e-05,5
23.488311,-2.814746704,9.25181076,-0.2857557678,0.01682267152,-0.07979651541,0.007144352887,5
23.508352,-2.690505066,9.18160675,-0.4722679138,0.00775846839,-0.02992690541,-0.0007002276834,5
23.528394,-2.69709137,9.126072235,-0.5291496277,-0.01137694251,-0.01722563431,-0.01305693947,5
23.548435,-2.661016388,9.089398499,-0.3709286499,-0.01831987128,-0.01980224624,-0.03586097807,5
23.568477,-2.794389038,8.935368805,-0.5487588501,-0.02060153335,-0.1172186956,-0.03631195426,5
23.588518,-3.190615082,9.062753906,-0.2528242493,0.01474427246,-0.2545289695,-0.004335532896,5
23.60856296,-3.262465668,9.843380585,0.04790039063,0.04963348061,-0.2060321569,0.02293346077,5
23.62860396,-2.548001404,10.16581009,-0.1252894592,0.0664530769,-0.04899093509,0.006237813272,5
23.64864496,-2.239193573,9.742340698,-1.044378204,0.03024879843,-0.02316395193,0.001279655029,5
23.66868696,-2.417472839,9.359886017,-0.9806108093,-0.01064710319,-0.07741159201,-0.004978406709,5
23.68872796,-2.734962616,9.356742554,0.1363664246,-0.0009890161455,-0.002431774978,-0.03070623986,5
23.70876996,-2.940934296,9.303752747,0.06256988525,0.01887643337,0.1043408588,-0.03731790558,5
23.72881096,-2.928061066,9.128916321,-0.3559597778,0.0298438631,0.06497880816,-0.03165336326,5
23.74885296,-2.792892151,9.134454803,-0.4326004028,0.01828561351,-0.007755373139,-0.02169636451,5
23.76889396,-2.758164368,9.3547966,-0.4206253052,0.01638285071,-0.06997619569,-0.01157896593,5
23.78893596,-2.762505341,9.404493256,-0.2600093079,0.003654273227,-0.04439514503,-0.009490382858,5
23.80897696,-2.636617126,9.397906952,-0.2595602417,-0.003414824838,0.008952490985,-0.009778758511,5
23.82901796,-2.607128448,9.376052399,-0.3100053406,-0.004364906345,-0.003145771567,0.002059771214,5
23.84905996,-2.612217865,9.415420532,-0.1953437805,0.006956923753,-0.007488764357,0.01370912325,5
23.86910096,-2.602338409,9.401499481,-0.4222718811,-0.00242845621,-0.001867575571,0.02198145539,5
23.88914296,-2.655926971,9.393266602,-0.4845423889,-0.003680939553,0.004621873144,0.02767078206,5
23.90918396,-2.751578064,9.437724152,-0.3559597778,-0.01097986568,0.0363874957,0.01721181348,5
23.92922596,-2.696043549,9.353898468,-0.3176394653,-0.006323329173,0.04748985544,0.0187007077,5
23.94926696,-2.795736237,9.220376129,-0.426612854,-0.01696698368,0.07515181601,0.01850852929,5
23.96930896,-2.942580872,9.263037415,-0.3246748352,-0.02020379156,0.09720081091,0.01002022624,5
23.98934996,-2.984344025,9.404343567,-0.2570155334,-0.01486954372,0.03306171298,0.007840322331,5
24.00939196,-2.981949005,9.467661896,-0.1454974365,-0.01493386179,-0.01124296896,0.006898110732,5
24.02943296,-2.921923828,9.373208313,-0.3225791931,-0.01119092107,0.006855614949,0.00349790277,5
24.04947396,-2.869682465,9.279054108,-0.453407135,-0.01852246933,-0.01365617011,0.008632045239,5
24.06951596,-2.841690674,9.331145782,-0.2329156494,-0.01061501354,0.02164633572,0.0102229435,5
24.08955696,-2.853516083,9.399104462,-0.2504292297,-0.009490759112,0.03190264478,0.003647306003,5
24.10959896,-2.897374878,9.425299988,-0.3144960022,0.004695966374,0.02130021341,-0.001723578898,5
24.12963996,-2.90411087,9.333540802,-0.3248245239,0.0145041896,0.007563068531,-0.004075163044,5
24.14968196,-2.948119354,9.277108154,-0.2643502808,0.008215134032,-0.01042448357,-0.007747331634,5
24.16972296,-3.057092743,9.241631927,-0.242795105,-0.002661815379,-0.01226366684,-0.004251060076,5
24.18976496,-3.002606049,9.286239166,-0.2639012146,0.0008922393899,-0.0363336727,-0.003803802421,5
24.20980596,-2.877615967,9.427545319,-0.3047662354,0.005733267404,-0.08133298159,-0.009609135799,5
24.22984696,-2.750530243,9.403445435,-0.2667453003,0.008533447981,-0.07612612098,-0.01517471299,5
24.24988896,-2.699636078,9.379495239,-0.3019221497,0.002254913561,-0.04901413247,-0.01173606236,5
24.26992996,-2.640509033,9.453441467,-0.2598596191,-0.002053215401,-0.003540182486,-0.005237633362,5
24.28997196,-2.51686615,9.398206329,-0.2293231201,-0.00566046685,0.0374799557,-0.001464466332,5
24.31001296,-2.589465179,9.279054108,-0.3504212952,-0.01608747616,0.02941122279,0.008811315522,5
24.33005496,-2.724185028,9.154513092,-0.2812651062,-0.01562248729,0.06592455506,0.008927302435,5
24.35009596,-2.765948181,9.270072784,-0.2508782959,-0.003973553423,0.05893917382,0.006262881681,5
24.37013796,-2.819536743,9.315578156,-0.2954855347,0.003340018215,0.01057448145,0.009514263831,5
24.39017896,-2.892135773,9.327253876,-0.2877017212,0.01103995182,0.006490171421,0.01224102918,5
24.41021996,-2.872077484,9.382638702,-0.286204834,0.01157151535,0.006639391184,0.008083155379,5
24.43026196,-2.775977325,9.402996368,-0.320483551,0.01617898419,-0.008831558749,0.009367890656,5
24.45030296,-2.68182312,9.392069092,-0.3927832031,0.01305682771,-0.03037694655,0.01277903281,5
24.47034496,-2.696043549,9.487720184,-0.2561174011,0.01336981729,-0.0400846675,0.01094876416,5
24.49038596,-2.719095612,9.409732361,-0.2752775574,0.00809935201,-0.005894898903,0.005264639854,5
24.51042796,-2.756368103,9.261540527,-0.3894900513,0.002928825561,0.02603965998,0.004458111711,5
24.53046896,-2.691702576,9.296567688,-0.2689906311,0.008195960894,0.01386893168,0.006353178062,5
24.55051096,-2.763104095,9.354347534,-0.276026001,0.006302452646,-0.008162867278,0.003182685003,5
24.57055196,-2.756218414,9.313183136,-0.3766168213,0.0007543545216,-0.001434839331,0.002780586714,5
24.59059396,-2.755469971,9.292226715,-0.470022583,-0.001438226784,-0.00747684855,0.01263153646,5
24.61063483,-2.796784058,9.380243683,-0.3517684937,0.009242582135,-0.006960244384,0.01989042014,5
24.63067583,-2.827919312,9.452094269,-0.2347119141,0.01464247424,-0.04083621502,0.01881608739,1
24.65071783,-2.780318298,9.43907135,-0.4938230896,0.01299843844,-0.05424996465,0.02100755274,1
24.67075883,-2.802172852,9.375453644,-0.5014572144,0.005911366548,-0.04111197218,0.01906180941,1
24.69080083,-2.787802734,9.395362244,-0.4315525818,0.0001859704498,-0.03049456701,0.02028317377,1
24.71084183,-2.736758881,9.330696716,-0.4379891968,4.908279516e-05,-0.00852091983,0.01913607307,1
24.73088383,-2.801424408,9.268725586,-0.4942721558,0.004858485423,0.008224473335,0.008763655089,1
24.75092483,-2.819536743,9.295370178,-0.5511538696,-0.00315196882,-0.002178833354,-0.003746744944,1
24.77096683,-2.846480713,9.386530609,-0.375718689,0.00966196321,0.002642906737,-0.001464186935,1
24.79100783,-2.881657562,9.463919678,-0.2854563904,0.009099036455,0.006384558044,-0.003978363238,1
24.81104883,-2.85501297,9.423204346,-0.3338058472,0.008275521919,-0.003359294962,-0.002845365554,1
24.83109083,-2.850222931,9.321715393,-0.4034111023,0.002259508474,-0.02448082343,-0.008153924718,1
24.85113183,-2.792293396,9.383387146,-0.3137475586,0.001158622908,-0.03288058192,-0.01660868339,1
24.87117383,-2.703378296,9.433532867,-0.2796185303,-0.0002705627121,-0.03013131768,-0.01865296438,1
24.89121483,-2.699785767,9.289831696,-0.3608995056,-0.0006715673953,0.002317972481,-0.01270034257,1
24.91125683,-2.723885651,9.206305389,-0.3603007507,-0.006163671147,0.0373293981,-0.006110048387,1
24.93129783,-2.781815186,9.39700882,-0.2544708252,-0.004883623682,0.01697944291,-0.001050280873,1
24.95133983,-2.862647095,9.487720184,-0.3736230469,-0.004368367605,-0.008754296228,-0.002273117192,1
24.97138083,-2.915337524,9.744885406,-0.2136058044,-0.0305861868,-0.05595257878,-0.02784497105,1
24.99142283,-2.560575256,9.80535965,0.122744751,-0.1298123747,0.07100430131,-0.03830933198,1
25.01146383,-2.193538513,10.45066772,0.687071228,-0.3283423781,0.2329919636,-0.008726704866,1
25.03150483,-1.910177765,11.17710709,1.130748596,-0.4984566271,0.2099557966,0.03426709771,1
25.05154683,-1.87095932,10.22897873,0.7237449646,-0.8833413124,0.246324569,0.1542537808,1
25.07158783,-1.017883301,9.411378937,0.9116043091,-1.245559216,-0.08385712653,0.2981698215,1
25.09162983,-1.225351868,9.421857147,1.2753479,-1.206765532,-0.3916365206,0.4639431834,1
25.11167083,-1.959125977,9.278155975,1.342707825,-1.330598474,-0.67946136,0.6050499082,1
25.13171283,-2.153421936,9.360933838,1.910327454,-1.640564561,-0.5662144423,0.5645666718,1
25.15175383,-2.511327667,9.40284668,1.84760788,-1.299923062,0.4543113112,0.4575656354,1
25.17179583,-2.501747589,9.643396454,-0.1588197327,-1.011823893,0.8547871113,0.4815666676,1
25.19183683,-1.541943512,10.34723282,0.05882766724,-0.8225018382,0.3446248472,0.599881947,1
25.21187883,-0.4704716492,10.32522858,1.483864288,-0.2551220357,0.1962521672,0.7495794296,1
25.23191983,-0.121098175,9.973909149,1.715582428,0.2088620216,0.4696526825,0.8506612778,1
25.25196083,-0.4002676392,8.99674118,0.8211923218,0.3944602311,0.8104878664,0.8386021852,1
25.27200283,-1.226848755,8.3369133,0.7966433716,0.5886855721,1.416753769,0.7746113539,1
25.29204383,-1.74462204,8.402476959,0.9126521301,0.8809120655,2.13158083,0.6989187598,1
25.31208583,-1.771266632,8.980724487,0.4200265503,1.05959487,2.634376049,0.608546555,1
25.33212683,-1.262175293,9.472601624,0.07798782349,1.197706103,2.77065897,0.5733481646,1
25.35216883,-0.6915618896,9.852810974,-0.1531315613,1.44885993,2.972126007,0.6505874991,1
25.37220983,-0.1357676697,10.14874557,-1.794468384,1.545668006,3.401552439,0.6438680291,1
25.39225183,0.1097218323,9.676028595,-4.115691376,0.9049692154,3.657304049,0.6714110374,1
25.41229283,1.036893768,9.576186218,-5.010231171,-0.8564555645,3.707708836,0.2980998158,1
25.43233383,-1.630858612,10.02405487,-0.7093748474,-2.087441444,3.129291296,-0.3694235981,1
25.45237583,-7.026538239,8.568781128,6.628665619,-1.158840537,2.516530514,-0.4648669362,1
25.47241683,-4.787793732,6.812333679,2.078577576,-0.1894950867,1.84323585,-0.7989259958,1
25.49245883,-3.293900299,6.84736084,-1.869312744,2.145394683e-05,1.855715275,-0.9420626163,1
25.51249983,-2.159559174,7.717651062,-6.936575317,-1.148124576,2.986475468,-1.028458238,1
25.53254183,-1.316811676,8.752149811,-6.789431305,-1.983290553,3.418981552,-1.194177866,1
25.55258283,-3.610491943,10.85348007,-0.5255570984,-1.617939353,2.819756508,-0.8843306899,1
25.57262483,-3.013233948,14.98758316,5.264402618,-0.7919819355,2.628620148,-0.3567471504,1
25.59266583,-0.2671943665,13.80249756,0.4334985352,-0.9066755176,2.490093708,0.2009469569,1
25.61270508,1.908830566,10.58493851,0.781973877,-0.714263916,1.772434592,0.453171134,1
25.63274608,3.090473328,7.97182251,2.004631348,-0.2153996378,2.180178404,0.3525445163,1
25.65278708,2.68766098,9.267378387,-1.167871399,-0.419544816,3.834785461,0.1700949967,1
25.67282908,1.581311646,10.8079747,-2.788700867,-0.7999244928,4.301998615,0.1771312952,1
25.69287008,0.6086343384,10.53479279,-1.341360626,-0.7887879014,3.540809393,0.2397126406,1
25.71291208,-0.3932322693,9.685608673,0.2284249878,-0.5144436359,3.376316071,0.2468968034,1
25.73295308,-1.402283936,9.242080994,0.4004173279,-0.3474111259,3.602549076,0.1604929566,1
25.75299508,-2.431693268,9.238638153,-0.6081852722,-0.3366802633,3.563197136,0.1232513785,1
25.77303608,-2.83166153,9.196126556,-0.8843609619,-0.2581957877,3.114621878,0.07843182236,1
25.79307808,-2.882855072,9.354497223,-0.4361929321,-0.09324790537,2.723109484,0.005643395707,1
25.81311908,-2.157313843,9.560468903,-0.08247848511,-0.1062976569,2.581789494,-0.1161017418,1
25.83316108,-1.108295288,9.722731476,0.1414558411,-0.1666995436,2.456953287,-0.2124448419,1
25.85320208,-0.4093986511,9.751771088,0.2942880249,-0.1409403235,2.602717161,-0.269128263,1
25.87324308,-0.1423539734,9.577683105,0.4095483398,-0.1329495162,2.839624882,-0.3341530561,1
25.89328508,0.3713777161,9.463171234,-0.4101470947,-0.12846075,2.479051828,-0.3546214402,1
25.91332608,0.5634283447,9.730964355,-1.313817902,-0.135203138,1.829462767,-0.302185446,1
25.93336808,0.5035528564,9.89187973,-1.410666504,-0.117294848,1.607694983,-0.2641942203,1
25.95340908,0.4971162415,9.923314362,-1.795815582,-0.2595325708,1.699451923,-0.3372009099,1
25.97345108,0.3007246399,10.16251694,-1.39824234,-0.3681564331,1.915082932,-0.3624792993,1
25.99349208,1.309027863,10.5253624,-0.556842041,-0.509799242,2.083102465,-0.4396900833,1
26.01353408,2.09324707,10.40351578,-0.5292993164,-0.798153758,2.069568396,-0.4635216594,1
26.03357508,2.594554596,10.64092209,-1.822310486,-1.244402409,2.103026867,-0.3335451782,1
26.05361708,0.9785151672,12.46966919,-2.419269104,-1.674138546,2.148360729,0.007379745133,1
26.07365808,-0.8177494812,13.81177826,-1.923350372,-2.156159639,2.398400545,0.265981257,1
26.09369908,-1.94939621,12.40754837,-0.3270698547,-2.645347595,2.520718813,0.1846015751,1
26.11374108,-3.48924408,9.841883698,0.3341052246,-2.848475695,1.670185685,-0.07143741101,1
26.13378208,-5.023254089,8.396938477,0.23635849,-2.662544012,0.8591504693,-0.06100879982,1
26.15382408,-5.744304657,9.700876923,1.446442108,-2.127323627,1.861053109,0.2538945973,1
26.17386508,-4.320016479,11.18309464,0.2740800476,-1.743481278,2.434782028,0.5726533532,1
26.19390708,-2.35774704,10.9394014,-1.202748871,-1.441376925,1.508687854,1.016077638,1
26.21394808,-0.807121582,9.562714233,-2.363884277,-0.8328066468,1.073106885,1.494744539,1
26.23399008,-0.6123765564,9.013506317,-2.321821747,0.1635625064,1.322828412,1.270652294,1
26.25403108,-1.979932709,9.480984192,-2.285597076,0.3891072869,0.381526351,1.146249413,1
26.27407308,-3.915258179,10.37567368,-1.068927155,-0.3819649518,-1.064622641,1.583178401,1
26.29411408,-1.877096558,11.9652182,5.306914215,-0.4490490258,1.242084026,1.521109343,1
26.31415508,-0.9993218994,11.32739456,6.729555817,-0.02553763613,4.11098814,1.432445288,1
26.33419708,-0.9148974609,9.510622559,0.6617738342,0.2047612071,3.588371992,1.475644827,1
26.35423808,-0.4947212219,8.657845917,-4.828658752,-0.272814393,2.660630703,1.335473537,1
26.37428008,-1.266516266,8.756640472,-5.410947876,-1.032916427,2.272428274,1.064659476,1
26.39432108,-2.973865814,9.544302521,-1.607507172,-1.396319866,2.35108304,1.004348755,1
26.41436308,-4.043691101,9.390123138,2.555036774,-1.203348994,2.566070557,1.034690261,1
26.43440408,-3.377426605,8.91605896,4.873864746,-0.7284768224,2.657069445,0.9244689345,1
26.45444608,-2.650837555,8.332572327,2.732567596,-0.5822757483,2.361446142,0.8190944791,1
26.47448708,-2.410736847,8.386310577,1.298100586,-0.6031707525,1.963289499,0.7145311832,1
26.49452908,-2.288141785,8.282426605,1.987716522,-0.5501042604,1.65762949,0.5627322197,1
26.51457008,-1.995650024,8.033344574,2.703827362,-0.5325876474,1.465313077,0.3518704176,1
26.53461108,-1.666933594,7.687563629,3.310665436,-0.562227428,1.406820178,0.1437205076,1
26.55465308,-1.259780273,7.279362488,3.855682068,-0.4751397371,1.298643947,-0.04203361645,1
26.57469408,-0.9900411987,6.844367065,3.732488251,-0.285564363,1.025114298,-0.1636515558,1
26.59473608,-0.5342390442,6.858737183,4.164489899,-0.04964970052,1.05937624,-0.2389871031,1
26.61477708,0.4647834778,7.017107849,4.871769104,0.2992442846,1.244512081,-0.2067734748,1
26.63481908,1.317260742,7.36453537,5.241051178,0.7100176811,1.251359582,-0.01755340025,1
26.65486008,2.577789459,8.352780304,4.727768555,0.9560991526,1.071368217,0.1300357729,1
26.67490208,2.885699158,9.629924469,3.016976166,0.8102129698,0.5556103587,0.2518849373,1
26.69494308,1.80195282,10.61607376,2.825524292,0.5360853672,0.3994508684,0.4708096683,1
26.71498508,1.220711517,10.0595311,4.232897644,0.5105450749,0.5993834138,0.6118090749,1
26.73502608,1.94700119,8.80843277,3.760929108,0.5850344896,0.3553035855,0.3959023356,1
26.75506808,-0.5065466309,9.300609283,1.297202454,0.8425574303,-0.4862903059,0.05074594542,1
26.77510908,-5.146597595,11.7143399,0.2856060791,0.6682109237,-0.939820528,-0.3020588756,1
26.79515008,-9.862091675,16.07103012,2.22197937,-0.4969636202,-0.8864132166,-0.2811829448,1
26.81519208,-4.974754944,16.36546783,5.921985168,0.4725063741,-0.2816517353,0.01551644504,1
26.83523308,-0.6976991272,7.38908432,-2.305206299,1.406211972,-0.1746005267,0.09290968627,1
26.85527508,-1.11278595,3.432661743,-5.258265381,0.9611141086,-0.2542411089,-0.1341828406,1
26.87531608,-1.572480011,5.51572998,-3.237916718,0.5175555944,-0.8978804946,-0.406378448,1
26.89535808,-2.404150543,9.61690155,-2.061812439,0.5923067331,-0.7600461841,-0.6481739283,1
26.91539908,-2.678979034,11.19896164,0.07484436035,0.8670728803,-0.3789744377,-0.6592790484,1
26.93544108,-1.056652679,11.96432007,3.286116486,1.305558205,-0.06370493025,-0.5460236669,1
26.95548208,-0.510737915,10.57416092,0.2008822632,1.081176877,0.197112456,-0.4543246925,1
26.97552408,-1.091829529,9.466165009,-2.219135284,0.6512640715,0.2729126513,-0.3513503671,1
26.99556508,-1.749112701,8.609945526,-0.7994874573,0.6938627958,-0.03723295778,-0.2641716599,1
27.01560708,-1.938169556,8.592581635,0.798589325,0.9783350229,-0.4705447555,-0.2113640606,1
27.03564808,-1.067879333,9.023535461,0.4590953064,1.085920334,-0.5505712032,-0.2245689481,1
27.05568908,-0.6378236389,9.672585754,-0.2173480225,1.020424724,-0.45759058,-0.2044633627,1
27.07573108,-0.4926255798,9.973310394,-0.6252497864,0.8106066585,-0.4225966334,-0.1723844111,1
27.09577208,-0.7658074951,9.830207977,-0.9074130249,0.5427877903,-0.4601007402,-0.1280053109,1
27.11581408,-1.110690308,9.433832245,-0.1694476318,0.5304749608,-0.4293878376,-0.1123388261,1
27.13585508,-1.12790451,9.452842712,0.0390687561,0.5929892063,-0.3178474605,-0.152379021,1
27.15589708,-1.056353302,9.426048431,-0.649050293,0.5767350793,-0.2917719483,-0.206520468,1
27.17593808,-1.155297546,9.362430725,-0.5896238708,0.5762546062,-0.2935566902,-0.246002838,1
27.19598008,-1.125210114,9.298813019,-0.09370513916,0.6322984695,-0.2681041658,-0.2961893678,1
27.21602108,-0.8970845032,9.55837326,0.1118174744,0.6608540416,-0.3328180611,-0.383295089,1
27.23606308,-0.9229806519,9.668244781,0.5650749207,0.6943789124,-0.4014471173,-0.4409515858,1
27.25610408,-1.231938171,9.818083191,-0.02933898926,0.6453095675,-0.3190603256,-0.4484409094,1
27.27614608,-1.616488495,10.30726593,-0.2932402039,0.4937459528,-0.2734622657,-0.4689799845,1
27.29618708,-1.513352966,10.77055252,-0.1251397705,0.2840201557,-0.3854915202,-0.4441130757,1
27.31622808,-0.5525010681,10.79644867,0.8496331787,0.3078168929,-0.6100397706,-0.3584492505,1
27.33627008,0.5475613403,10.73253159,0.07035369873,0.303887248,-0.6338476539,-0.269061327,1
27.35631108,0.6619235229,11.29625931,-0.9798623657,0.1708140373,-0.425478965,-0.1987314969,1
27.37635308,0.0940045166,11.22111557,0.05254074097,-0.04174390063,-0.2149487436,-0.1225234494,1
27.39639408,-0.8396040344,10.95122681,0.1936972046,-0.4234651625,-0.1361422986,0.000732043758,1
27.41643608,-1.237027588,11.20929016,-0.5201683044,-0.9087958336,0.03471251577,0.176389873,1
27.43647708,-1.16891922,11.59384048,-1.70600235,-1.511263728,0.2522396147,0.4813959897,1
27.45651908,-1.285526733,11.50357819,-1.684147797,-2.021668911,0.2054749876,0.807520926,1
27.47656008,-2.798430634,10.32717453,-0.2406994629,-2.482400417,-0.4238557816,1.015346289,1
27.49660208,-3.432362366,10.05294479,1.572779388,-2.390257597,-0.9166609645,0.8275886178,1
27.51664308,-4.318070526,10.60664337,1.623374176,-1.698579669,-1.748981714,0.6103180647,1
27.53668508,-6.534661102,10.84824097,-0.324225769,-1.30106318,-2.106666088,0.9285158515,1
27.55672608,-2.55668335,11.52663025,-0.765358429,-1.277891994,-1.459344983,0.778790772,1
27.57676808,-1.851200409,10.81560883,0.1739382935,-1.227111936,-1.410816193,0.9109230638,1
27.59680908,-0.9910890198,10.56338333,1.028660889,-0.9805067182,-1.847922206,1.063280582,1
27.61684983,-0.605640564,10.40755737,1.307381287,-0.9803546667,-1.318502188,1.114070058,1
27.63689183,-1.648821259,10.00579285,2.465522919,-1.138755083,0.2677016854,1.128272295,1
27.65693283,-1.878443756,8.981173553,1.39000946,-1.313769817,1.514851928,1.00591898,1
27.67697483,-2.028431854,8.700507202,-0.6053411865,-1.582581043,2.011320114,0.9268654585,1
27.69701583,-1.4929953,8.613837433,-0.6430627441,-1.541043878,1.612883449,0.8470013142,1
27.71705783,-1.320404205,8.231682129,0.9406439209,-1.187234759,1.338943601,0.7747684121,1
27.73709883,-1.532363434,7.805069275,2.150278473,-0.8531642556,1.541892767,0.605496943,1
27.75714083,-2.299368439,7.130571899,2.442919922,-0.5408802032,1.558929086,0.4446541071,1
27.77718183,-2.358794861,6.577172699,2.913690948,-0.07375582308,1.247219086,0.2673445344,1
27.79722383,-2.176024933,5.906716919,3.121009827,0.3356348872,0.9912052751,0.1136128902,1
27.81726483,-1.558409271,5.852828979,3.29494812,0.5961837173,0.9301052094,-0.06082588807,1
27.83730683,-1.151255951,6.447691956,3.329226837,0.8043061495,0.663929522,-0.1998762488,1
27.85734783,-0.9961784363,6.864125977,3.403472443,0.9658133984,0.6322044134,-0.3513166606,1
27.87738983,-0.7291337585,7.289391632,3.69746109,1.143730283,0.8530572057,-0.5227841735,1
27.89743083,-0.5141807556,7.710316315,3.315605164,1.175203562,0.9463610649,-0.6187227964,1
27.91747283,-0.4079017639,8.35322937,4.13739624,1.025056481,1.169373274,-0.5649213791,1
27.93751383,0.5243595886,9.565109253,5.87618042,0.7488141656,1.468524814,-0.349337548,1
27.95755583,2.288590851,11.74562485,4.53526886,0.3180857301,1.035485983,-0.063708812,1
27.97759683,2.683769073,13.30583038,3.684438171,-0.02051917277,0.258949548,0.3386670351,1
27.99763783,2.587818604,11.95698532,4.214485931,-0.1262709647,-0.1985310763,0.5504091382,1
28.01767983,1.039139099,10.13302826,4.661007385,-0.01199246384,-0.1660317183,0.5748768449,1
28.03772083,-1.132395172,10.00848724,3.318898315,0.4447702169,-0.3229130208,0.4308628738,1
28.05776283,-4.886438599,9.847571869,3.185226288,1.142809749,0.02913899347,0.3342639804,1
28.07780383,-6.103557587,12.53493347,2.730471954,1.223007202,0.3953054845,0.1896563321,1
28.09784583,-4.518803101,14.25635376,0.2522254944,0.843123138,-0.5396496654,0.3998548388,1
28.11788683,-2.411036224,9.44850174,-2.494562531,1.243648767,-1.090520859,0.4261218905,1
28.13792883,-1.717229004,5.100194092,-3.110980682,0.8461625576,-1.733494759,-0.08975952119,1
28.15796983,-2.050885162,3.042423248,0.08592132568,-0.03032932431,-1.114187717,-0.8266655803,1
28.17801183,-2.340832214,7.284601593,2.091600494,0.5233639479,0.9660720229,-1.194391251,1
28.19805283,-1.053209839,11.4197525,-3.247646484,0.7784130573,1.635326743,-0.7769557238,1
28.21809483,1.682800598,13.59996872,-5.137167206,0.5945117474,0.7729327679,-0.2358610034,1
28.23813583,3.09017395,12.19648727,-1.561852112,0.5397750139,0.02774275467,-0.05855669081,1
28.25817783,-1.136586456,9.208401031,2.087259521,0.8115265369,-0.3908720613,0.1337910146,1
28.27821883,-2.944077759,8.705746307,2.318378906,1.066228032,-0.2165162265,0.007261582185,1
28.29826083,-2.993475037,8.757388916,-0.4861889648,0.8894000649,-0.0812433511,-0.2199663371,1
28.31830183,-2.277064819,9.057963867,-1.380878448,0.7696793675,-0.2185015231,-0.3811400533,1
28.33834383,-1.193767548,8.997489624,-1.207688599,0.7089480162,-0.2186043561,-0.4575289488,1
28.35838483,-0.7033872986,9.235943756,-0.8376580811,0.7494686246,-0.3178755343,-0.3570197821,1
28.37842683,-0.6271957397,9.435927887,-0.9623487854,0.7749983072,-0.5120255351,-0.2226076126,1
28.39846783,-0.8822653198,9.853858795,-0.94543396,0.7003942728,-0.5988301635,-0.1476764977,1
28.41850983,-1.307081909,9.832752686,-0.6331832886,0.6160559654,-0.5442376137,-0.1045503542,1
28.43855083,-1.598675537,9.568851471,-0.662971344,0.5387862325,-0.5333845019,-0.1364543587,1
28.45859283,-1.549877014,9.401948547,-0.4614903259,0.503634274,-0.4821651578,-0.2136318088,1
28.47863383,-0.9843530273,9.247320099,-0.4243675232,0.5518542528,-0.3936949968,-0.3221829534,1
28.49867583,-0.7481442261,9.572893066,-0.6502478027,0.6373852491,-0.3544151485,-0.4218834937,1
28.51871683,-1.011596375,9.789642334,-0.7378157043,0.6984375715,-0.2758544683,-0.4874968231,1
28.53875883,-1.395098877,9.392069092,-0.2037263489,0.7426335216,-0.2401559949,-0.5278622508,1
28.55879983,-1.825903015,9.001082153,0.6652166748,0.7370195389,-0.2843669057,-0.5139890909,1
28.57884183,-1.554217987,9.678722992,0.8846603394,0.6452540159,-0.3646277487,-0.5135270953,1
28.59888283,-0.7253915405,10.80123871,-0.1860630798,0.4275385141,-0.3639422059,-0.511017859,1
28.618924,0.1749861145,11.93647797,-0.9337582397,0.2913124263,-0.2637824714,-0.4312992096,1
28.638966,0.9204359436,11.75670181,0.1011895752,0.3532301188,-0.1027819365,-0.347309351,1
28.659007,0.9202862549,10.75124268,0.3531156921,0.1997986138,-0.1014794186,-0.2201379538,1
28.679049,0.4346960449,10.34513718,-0.5367837524,-0.04728899896,-0.1895003021,-0.01119597629,1
28.69909,-0.08382568359,11.04178848,-0.7318281555,-0.22842969,-0.1312562078,0.2056878507,1
28.719132,-0.7933502197,12.59106674,-0.7816744995,-0.6626793742,0.04995496944,0.3672294021,1
28.739173,-1.205592957,13.60460907,-2.208357697,-1.329469204,0.3409209549,0.5456692576,1
28.759215,-2.101330261,12.39677078,-0.6116281128,-1.780273557,0.6231309772,0.8491638303,1
28.779256,-2.060315552,8.991352386,-0.6614744568,-2.248336554,0.1992523968,1.041256785,1
28.799298,-2.456242218,6.868466949,-1.601968689,-2.653949976,-0.7723604441,0.782787919,1
28.819339,-3.813020782,8.18587738,0.5053491211,-2.274454832,-1.982730746,0.2965910435,1
28.839381,-8.357420654,11.4835199,1.832639008,-1.551845074,-2.579003572,0.7297514677,1
28.859422,-3.596421204,12.87981628,-0.2296224976,-1.692954302,-1.966079712,0.5457828045,1
28.879464,-1.597777405,11.46510818,-0.3207829285,-2.029545546,-0.8847706914,0.5726324916,1
28.899505,0.0296383667,10.4151915,0.9039701843,-1.871717691,-0.3522358239,0.8709856272,1
28.919547,0.6818321228,10.90317673,1.643881531,-1.420788169,-0.2744534612,1.078667998,1
28.939588,-0.4252656555,11.95069839,0.8821156311,-1.296324253,-0.4454711676,1.029218078,1
28.95963,-1.572929077,10.51323761,1.425635376,-1.486055493,0.5784297585,1.022738218,1
28.979671,-2.575693817,9.26243866,1.672322388,-1.61738503,1.825200438,1.02941668,1
28.999713,-2.546504517,8.275241547,0.9237290955,-1.512269258,1.853245854,0.9601764083,1
29.019754,-2.061363373,7.900271301,0.5785469055,-1.380558133,1.261427879,0.8610351682,1
29.039796,-1.90718399,7.948321381,1.790576477,-1.217651129,1.059544683,0.7350517511,1
29.059837,-1.91421936,7.651488647,3.467838593,-0.8460978866,1.221848726,0.5428725481,1
29.079879,-2.039209442,6.775659943,4.089346161,-0.4014816284,1.166544199,0.4107402265,1
29.09992,-1.483115845,6.276747437,4.014801178,0.02778085321,0.8113350272,0.2395483106,1
29.119962,-1.10455307,5.879174194,3.671115875,0.3199765384,0.563292861,0.03466353565,1
29.140003,-1.073567505,5.781726837,3.482508087,0.4462071359,0.6466576457,-0.147979632,1
29.160045,-0.9840536499,6.080206146,3.487447815,0.5354021788,0.7854129076,-0.3114081025,1
29.180086,-0.7403604126,5.931265869,3.905977478,0.7390536666,0.7900765538,-0.4903356433,1
29.200128,-0.616867218,6.050418091,4.376449127,1.018155932,0.7809433937,-0.6293639541,1
29.220169,-0.7188052368,6.81697403,4.25445282,1.135083556,0.7472221851,-0.6717869043,1
29.240211,-0.7918533325,8.376131744,5.26305542,1.097257972,0.867701292,-0.5253545642,1
29.260252,0.0303868103,10.46533722,6.496939545,1.092391253,0.6953905225,-0.1751909107,1
29.280294,1.99385376,11.67392395,5.439388733,0.8335185051,0.4012535214,0.1895891428,1
29.300335,3.07730072,11.08953918,4.478087769,0.4703935683,0.1545748115,0.486141026,1
29.320377,3.082090759,9.044042816,4.552483063,0.3194523156,0.07609965652,0.6175915003,1
29.340418,2.686313782,7.856262817,3.812272339,0.5399737358,-0.09528625757,0.4709905982,1
29.36046,-0.4659809875,9.169332275,1.811083832,1.123210669,-0.5613464117,0.07213725895,1
29.380501,-5.931565247,11.85804108,1.275497589,1.421557546,-0.2059559226,-0.2532620132,1
29.400543,-10.28615982,17.94318695,0.818946991,-0.03306186199,-0.1916106492,-0.0888999477,1
29.420584,-5.378016357,18.57906464,2.206860809,0.2205537707,-0.1293823719,0.3260918558,1
29.440626,-0.3749702454,7.349566498,-1.713786163,1.194068909,0.06109584123,0.3315866888,1
29.460667,-0.1748364258,1.331331482,-4.394711151,0.3336223066,-0.8764330149,-0.3496791422,1
29.480709,-2.677332458,2.971171417,-0.7167095947,0.3139607608,-0.2501947582,-0.6581139565,1
29.50075,-2.376308441,9.067543945,-1.940414886,0.7420940399,0.1526458561,-0.5210118294,1
29.520792,-0.1752854919,11.87660248,-2.713706818,0.6037965417,0.3484584093,-0.4127973616,1
29.540833,1.01324295,13.14566345,0.2463876343,0.6238027811,-0.1386895478,-0.2067622542,1
29.560875,-0.3761677551,10.93476105,2.404150543,0.9823529124,-0.3334416449,-0.03490222618,1
29.580916,-1.77500885,9.170978851,0.8229885864,1.140905023,-0.4801772535,-0.06377716362,1
29.600958,-2.201472015,8.422834625,-0.3227288818,1.014740467,-0.636236012,-0.2526165247,1
29.62099925,-1.840123444,8.37553299,0.1228944397,0.9176017642,-0.6009956598,-0.4297680855,1
29.64104125,-0.9761201477,9.188043365,0.1182540894,0.9079176188,-0.3806155622,-0.4989385009,1
29.66108225,-0.03787124634,9.98079483,-0.633482666,0.7964265347,-0.08673410118,-0.4769022465,1
29.68112425,-0.3550616455,10.11087433,-0.409997406,0.8097301722,-0.08363429457,-0.3192751408,1
29.70116525,-0.6701564026,9.852062531,-0.5352868652,0.7587040663,-0.2088862807,-0.1947922856,1
29.72120725,-1.452878723,9.019194489,-0.9544152832,0.5616148114,-0.3301540315,-0.1118632704,1
29.74124825,-1.279539185,9.044940948,-0.3508703613,0.4872517586,-0.2549651265,-0.1576730013,1
29.76129025,-1.376238098,9.186247101,-0.1278341675,0.5591004491,-0.2390051484,-0.2028622776,1
29.78133125,-1.153501282,9.427245941,-0.3257226562,0.6279425025,-0.2723213136,-0.2989780903,1
29.80137325,-1.027014313,9.68007019,-0.4433779907,0.617505312,-0.2586051524,-0.3884107769,1
29.82141425,-1.040785675,9.377249908,-0.4575984192,0.6836894155,-0.1965079606,-0.4239259064,1
29.84145625,-1.045575714,9.337732086,-0.4017645264,0.6675793529,-0.1823940426,-0.465709269,1
29.86149725,-1.143322449,9.770931244,0.6556365967,0.7451447248,-0.05703826249,-0.54615587,1
29.88153925,-1.417402496,10.37761963,0.5396278381,0.8310832381,-0.006792899221,-0.6132097244,1
29.90158025,-1.562600555,10.79195801,-0.09939331055,0.7033290267,-0.1361104101,-0.6163264513,1
29.92162225,-1.178648987,10.60784088,0.1419049072,0.4949636161,-0.1732516587,-0.5510604382,1
29.94166325,-0.4207749939,10.44482986,-0.1767823792,0.3341789246,-0.2230770588,-0.3969990015,1
29.96170525,0.1028361511,10.70304291,-0.6251000977,0.2059866041,-0.312361151,-0.2419318408,1
29.98174625,0.3972738647,10.52236862,0.3011737061,0.1214510202,-0.4451813102,-0.07286181301,1
30.00178825,0.382155304,10.6181694,1.095422058,-0.06702275574,-0.4446387291,0.112626791,1
30.02183025,-0.1896556091,11.05496109,0.9533674622,-0.4646572769,-0.3690172136,0.2854401171,1
30.04187125,-0.2174977112,11.98991684,-1.171014862,-1.199539065,0.08708829433,0.4349511564,1
30.06191325,-0.4056564331,12.36773117,-2.29921875,-1.775912881,0.6717924476,0.7250754237,1
30.08195425,-0.5912704468,11.09567642,-1.215921478,-2.283669233,0.2249568254,1.207724214,1
30.10199625,-1.748963013,10.25756927,-0.572409668,-2.583286524,-0.5628948808,1.336684465,1
30.12203725,-3.29614563,10.37896683,-0.17902771,-2.350430965,-1.172406673,0.8643595576,1
30.14207925,-5.921685791,11.25299927,0.7798782349,-1.906401038,-2.423269272,0.5819421411,1
30.16212025,-8.932075653,12.18391342,1.348395996,-1.569719672,-2.908729792,0.9581530094,1
30.18216225,-4.496200104,12.48882935,1.028211823,-1.602218628,-1.318648815,0.7833400369,1
30.20220325,-1.520088959,11.01469482,0.8192463684,-1.668214202,0.2296333015,0.9908612967,1
30.22224525,0.3029699707,10.92383377,-0.3640429688,-1.825329185,0.3434528708,1.473789573,1
30.24228625,1.816772003,11.65536255,0.6295907593,-1.602911353,-0.1503880322,1.206295133,1
30.26232825,-0.5701643372,9.797875214,1.81362854,-1.392685175,-0.1417477727,0.9851873517,1
30.28236925,-2.491419067,8.120313721,2.084864502,-1.478806973,0.5158099532,0.8909063339,1
30.30241125,-3.380270691,7.093000031,1.708247681,-1.576425552,1.286691308,0.8638718724,1
30.32245225,-2.345322876,7.408693542,1.218615875,-1.602890134,1.44216764,0.7716751695,1
30.34249425,-1.196012878,7.733667755,1.774260406,-1.378039718,1.188771248,0.5826271772,1
30.36253525,-0.7661068726,7.280709686,3.014581146,-0.9533512592,1.312579393,0.3054937124,1
30.38257725,-1.504072266,6.285429382,2.975213013,-0.5855646729,1.320961595,0.08648624271,1
30.40261825,-1.827399902,5.706583099,3.310964813,-0.1502462029,1.0529145,-0.07237512618,1
30.42266025,-1.431473236,5.347629547,3.88936203,0.3318635225,0.7863054276,-0.1929397583,1
30.44270125,-0.7776329041,5.311404877,4.072730713,0.6478842497,0.7203983665,-0.3202762902,1
30.46274325,-0.2630030823,5.881868591,4.093088379,0.797971189,0.6845690608,-0.4346852005,1
30.48278425,-0.2823129272,6.362668762,4.363426208,0.9119290709,0.6637250781,-0.5671105981,1
30.50282625,-1.164727936,6.340814209,5.088817749,1.140979052,0.9023740888,-0.5824367404,1
30.52286725,-1.01563797,7.366930389,5.202431488,1.320420265,0.9527218938,-0.5271497369,1
30.54290925,-0.7634124756,9.606722717,5.542524261,1.167219758,0.95668751,-0.3457589149,1
30.56295025,0.4230203247,12.23495728,5.719007263,0.7505251169,0.645499289,-0.06866297871,1
30.58299225,1.481020203,13.64712067,5.732778625,0.2650766373,0.2620095015,0.234553501,1
30.60303425,1.630409546,11.79891403,6.482419739,0.04190506786,0.1653307527,0.4388265908,1
30.62307496,1.563648376,9.598489838,5.947432251,0.1756259203,-0.02913318574,0.4595019817,1
30.64311696,-0.6547384644,9.438622284,3.632346497,0.5370749831,-0.4165647924,0.3293352425,1
30.66315796,-5.229824524,9.471104736,2.975811768,1.055531025,-0.344550997,0.3411039114,1
30.68319996,-6.091283112,9.903705139,1.043330383,1.123810768,-0.7403215766,0.2869215608,1
30.70324096,-4.587360535,11.13025452,1.257984009,0.3528218567,-1.836575747,0.2476622462,1
30.72328296,-1.624871063,9.07637558,5.247338104,1.408145785,-1.334891677,-0.06306479871,1
30.74332396,-2.647544403,6.289321289,-0.4686753845,1.997081995,-0.7003385425,-0.2661738992,1
30.76336596,-1.44853775,7.419920197,-3.646417236,1.617485046,-0.3930815756,-0.6449839473,1
30.78340696,-0.6855743408,9.727521515,-4.119433594,0.934282124,-0.3587935269,-0.7313981056,1
30.80344896,1.120270386,10.96679443,-2.203567657,0.774284482,0.2946564853,-0.7358182669,1
30.82348996,1.643133087,10.69196594,-0.04176315308,0.885730207,0.3433852494,-0.6193827391,1
30.84353196,-0.1534309387,9.495503998,1.189875641,1.012296915,0.08765948564,-0.5031510592,1
30.86357296,-2.121837616,9.174272003,-0.3885919189,0.9714425802,-0.3791946769,-0.4675304592,1
30.88361496,-2.850671997,8.910520477,-1.343605957,0.8155205846,-0.7015422583,-0.5266444087,1
30.90365596,-2.495610352,9.104217682,0.4053570557,0.8438397646,-0.42338714,-0.5323467851,1
30.92369796,-1.312919769,9.641749878,0.2477348328,0.917529583,-0.1745429784,-0.4133606553,1
30.94373996,0.3008743286,9.832303619,-1.355581055,0.7719177604,-0.04249987379,-0.3695599437,1
30.96378096,-0.04071533203,9.660011902,-1.229243774,0.7223331332,-0.1197964028,-0.2002423257,1
30.98382296,-0.9145980835,9.568402405,-0.5647755432,0.8485746384,-0.3953402042,-0.07932031155,1
31.00386396,-1.243913269,9.923314362,-0.1826202393,0.7258889675,-0.5206978917,-0.1182916239,1
31.02390596,-1.500180359,9.517358551,-0.09774673462,0.6748306751,-0.5640935302,-0.165180549,1
31.04394696,-1.55391861,9.273216248,-0.6462062073,0.6642968655,-0.7205446362,-0.198980689,1
31.06398896,-1.469494171,9.1570578,-0.9018745422,0.6188884974,-0.6222233176,-0.2497773021,1
31.08402996,-1.144070892,9.19927002,-0.8930429077,0.5801478028,-0.394941777,-0.4161124527,1
31.10407196,-1.167572021,9.657317505,-0.8063731384,0.5975889564,-0.308187753,-0.5853044391,1
31.12411296,-1.612297211,9.796977081,-0.1097218323,0.7389240861,-0.239730835,-0.6567098498,1
