time,seconds_elapsed,z,y,x
1781032222073119700,0.35711962890625,2.7360000610351562,1.4110500812530518,8.862000465393066
1781032222092646400,0.376646484375,2.710050106048584,1.4010000228881836,8.850000381469727
1781032222112170800,0.396170654296875,2.722050189971924,1.3489500284194946,8.833050727844238
1781032222131696400,0.4156962890625,2.7499501705169678,1.264050006866455,8.830950736999512
1781032222151222300,0.43522216796875,2.8120501041412354,1.2460500001907349,8.82194995880127
1781032222170747600,0.45474755859375,2.845050096511841,1.225950002670288,8.81505012512207
1781032222190272500,0.4742724609375,2.8159501552581787,1.2660000324249268,8.832000732421875
1781032222209796400,0.49379638671875,2.728950023651123,1.3930500745773315,8.8410005569458
1781032222229316900,0.51331689453125,2.6230502128601074,1.582050085067749,8.854050636291504
1781032222248836400,0.53283642578125,2.4810001850128174,1.8079501390457153,8.895000457763672
1781032222268356000,0.552356201171875,2.308950185775757,1.9789501428604126,8.935050010681152
1781032222287872000,0.5718720703125,2.1760501861572266,2.01705002784729,9
1781032222307386000,0.59138623046875,2.07705020904541,1.8619500398635864,9.046950340270996
1781032222326901500,0.610901611328125,2.07705020904541,1.5799500942230225,8.991000175476074
1781032222346415000,0.6304150390625,2.1790502071380615,1.3200000524520874,8.88900089263916
1781032222365936400,0.649936279296875,2.2320001125335693,1.225950002670288,8.73900032043457
1781032222385464600,0.669464599609375,2.152050018310547,1.2829500436782837,8.66100025177002
1781032222404991000,0.688990966796875,1.9620001316070557,1.3459500074386597,8.686050415039062
1781032222424517400,0.708517333984375,1.8349500894546509,1.2529500722885132,8.75100040435791
1781032222444044000,0.7280439453125,1.951050043106079,0.8719500303268433,8.87505054473877
1781032222463570200,0.747570068359375,2.4220499992370605,0.2530499994754791,9.045000076293945
1781032222483097900,0.767097900390625,3.853950262069702,-0.3469500243663788,9.199050903320312
1781032222502627800,0.7866279296875,4.06695032119751,-0.595050036907196,9.295950889587402
1781032222522150000,0.80614990234375,4.084949970245361,-0.36900001764297485,9.306000709533691
1781032222541670000,0.825669921875,3.5880000591278076,0.08205000311136246,9.327000617980957
1781032222561195500,0.845195556640625,1.9699500799179077,0.6709500551223755,9.361050605773926
1781032222580722000,0.864721923828125,1.672950029373169,1.1380500793457031,9.388050079345703
1781032222600245800,0.884245849609375,1.5229500532150269,1.3020000457763672,9.486000061035156
1781032222619768800,0.903768798828125,1.665000081062317,1.4719500541687012,9.442049980163574
1781032222639292000,0.9232919921875,1.9470001459121704,1.8049501180648804,9.277950286865234
1781032222658814200,0.942814208984375,2.149049997329712,2.0089499950408936,9.235950469970703
1781032222678340900,0.9623408203125,2.196000099182129,1.765950083732605,9.37695026397705
1781032222697870800,0.981870849609375,2.364000082015991,0.2670000195503235,9.634050369262695
1781032222717396500,1.001396484375,2.8470001220703125,-0.22905001044273376,9.76200008392334
1781032222736918300,1.020918212890625,3.3420002460479736,-0.5220000147819519,9.57705020904541
1781032222756443000,1.04044287109375,3.4429502487182617,-0.3829500079154968,9.2920503616333
1781032222775964700,1.059964599609375,3.0640501976013184,0.1680000126361847,9.013050079345703
1781032222795480800,1.079480712890625,1.3560000658035278,0.5809500217437744,8.83905029296875
1781032222815004200,1.099004150390625,1.0110000371932983,0.6589500308036804,8.822999954223633
1781032222834531300,1.11853125,1.0930500030517578,0.6460500359535217,8.629050254821777
1781032222854058000,1.13805810546875,1.5049500465393066,0.6190500259399414,8.317950248718262
1781032222873585400,1.15758544921875,1.9240500926971436,0.6240000128746033,8.109000205993652
1781032222893111600,1.177111572265625,2.284050226211548,0.6270000338554382,8.11305046081543
1781032222912637400,1.196637451171875,2.571000099182129,0.6030000448226929,8.275050163269043
1781032222932160800,1.216160888671875,2.7310500144958496,0.43605002760887146,8.326050758361816
1781032222951683800,1.235683837890625,2.9110500812530518,0.13005000352859497,8.212050437927246
1781032222971205600,1.25520556640625,3.019050121307373,-0.10095000267028809,7.891950607299805
1781032222990730000,1.27472998046875,2.931000232696533,-0.1969500035047531,7.570050239562988
1781032223010254300,1.29425439453125,2.701050043106079,-0.028050001710653305,7.540050506591797
1781032223029776000,1.31377587890625,2.338050127029419,0.20100000500679016,7.734000205993652
1781032223049298700,1.333298583984375,1.9140000343322754,0.31095001101493835,8.005050659179688
1781032223068825600,1.35282568359375,1.6090500354766846,0.24795001745224,8.269950866699219
1781032223088351700,1.372351806640625,1.6540501117706299,0.022950001060962677,8.530050277709961
1781032223107877400,1.39187744140625,1.9650001525878906,-0.18195000290870667,8.848950386047363
1781032223127404300,1.411404296875,2.2699501514434814,-0.3139500021934509,9.250950813293457
1781032223146928000,1.43092822265625,2.4910500049591064,-0.36705002188682556,9.634050369262695
1781032223166454500,1.45045458984375,2.568000078201294,-0.4510500133037567,9.922050476074219
1781032223185982000,1.46998193359375,2.6640000343322754,-0.6330000162124634,10.056000709533691
1781032223205505800,1.489505859375,2.9220001697540283,-0.8020500540733337,10.06095027923584
1781032223225027600,1.509027587890625,3.1369502544403076,-0.8809500336647034,9.984000205993652
1781032223244552400,1.528552490234375,3.2280001640319824,-0.8869500160217285,9.856050491333008
1781032223264081400,1.548081298828125,3.192000150680542,-0.7699500322341919,9.732000350952148
1781032223283607000,1.56760693359375,3.0610501766204834,-0.6349500417709351,9.520950317382812
1781032223303132400,1.58713232421875,2.991000175476074,-0.5220000147819519,9.261000633239746
1781032223322657800,1.60665771484375,2.9359500408172607,-0.3949500322341919,9.01395034790039
1781032223342183700,1.62618359375,2.8249502182006836,-0.28005000948905945,8.76300048828125
1781032223361708800,1.645708740234375,2.6830501556396484,-0.19500000774860382,8.613000869750977
1781032223381230300,1.665230224609375,2.545950174331665,-0.25905001163482666,8.583000183105469
1781032223400753200,1.684753173828125,2.491950035095215,-0.4050000309944153,8.554950714111328
1781032223420274700,1.704274658203125,2.4649500846862793,-0.5700000524520874,8.572050094604492
1781032223439798300,1.72379833984375,2.451000213623047,-0.7369500398635864,8.58495044708252
1781032223459323400,1.743323486328125,2.428950071334839,-0.8130000233650208,8.563950538635254
1781032223478848800,1.762848876953125,2.370000123977661,-0.8670000433921814,8.5489501953125
1781032223498373600,1.78237353515625,2.3530499935150146,-0.999000072479248,8.544000625610352
1781032223517895700,1.801895751953125,2.3910000324249268,-1.234950065612793,8.652000427246094
1781032223537419500,1.82141943359375,2.455050230026245,-1.4010000228881836,8.728950500488281
1781032223556945700,1.840945556640625,2.5350000858306885,-1.4530500173568726,8.803950309753418
1781032223576470500,1.860470458984375,2.6130001544952393,-1.4020500183105469,8.991000175476074
1781032223595990500,1.879990478515625,2.6070001125335693,-1.26705002784729,9.105000495910645
1781032223615505700,1.899505615234375,2.575050115585327,-1.2160500288009644,9.205950736999512
1781032223635021000,1.91902099609375,2.539950132369995,-1.2619500160217285,9.232050895690918
1781032223654533600,1.93853369140625,2.434950113296509,-1.380000114440918,9.163949966430664
1781032223674050000,1.958050048828125,2.299950122833252,-1.5340501070022583,9.145950317382812
1781032223693570600,1.977570556640625,2.1100502014160156,-1.6960500478744507,9.193950653076172
1781032223713090600,1.997090576171875,1.858950138092041,-1.842000126838684,9.2920503616333
1781032223732617500,2.016617431640625,1.579050064086914,-1.9810501337051392,9.331950187683105
1781032223752143400,2.036143310546875,1.2720000743865967,-2.155050039291382,9.417000770568848
1781032223771666700,2.055666748046875,0.9790500402450562,-2.344050168991089,9.604950904846191
1781032223791190000,2.07518994140625,0.8190000653266907,-2.4660000801086426,9.784050941467285
1781032223810714600,2.094714599609375,0.7620000243186951,-2.4600000381469727,9.95205020904541
1781032223830239500,2.114239501953125,0.7099500298500061,-2.4660000801086426,10.006050109863281
1781032223849765600,2.133765625,0.6220500469207764,-2.4430501461029053,9.894000053405762
1781032223869290500,2.15329052734375,0.42705002427101135,-2.4690001010894775,9.772050857543945
1781032223888813600,2.1728134765625,0.2659500241279602,-2.590050220489502,9.57705020904541
1781032223908336600,2.192336669921875,0.2569500207901001,-2.6020500659942627,9.307950019836426
1781032223927861200,2.211861328125,0.3160500228404999,-2.4820501804351807,9.015000343322754
1781032223947386000,2.23138623046875,0.4620000123977661,-2.218950033187866,8.755050659179688
1781032223966907000,2.250906982421875,0.5560500025749207,-1.8769501447677612,8.721000671386719
1781032223986425000,2.270425048828125,0.6040500402450562,-1.5580500364303589,8.764050483703613
1781032224005947000,2.28994677734375,0.7579500079154968,-1.440000057220459,8.748000144958496
1781032224025467600,2.309467529296875,1.0639500617980957,-1.4989501237869263,8.629050254821777
1781032224044988400,2.328988525390625,1.4089500904083252,-1.5720000267028809,8.437050819396973
1781032224064509000,2.348509033203125,1.6560001373291016,-1.5420000553131104,8.368050575256348
1781032224084027100,2.368027099609375,1.683000087738037,-1.4080500602722168,8.41604995727539
1781032224103545600,2.387545654296875,1.384950041770935,-1.3030500411987305,8.518050193786621
1781032224123065900,2.40706591796875,1.1059499979019165,-1.4239500761032104,8.539050102233887
1781032224142591500,2.426591552734375,0.9919500350952148,-1.7290500402450562,8.395050048828125
1781032224162118100,2.4461181640625,1.0249500274658203,-2.0850000381469727,8.263050079345703
1781032224181638000,2.465637939453125,1.1569499969482422,-2.439000129699707,8.211000442504883
1781032224201152800,2.48515283203125,1.0780500173568726,-2.700000047683716,8.229000091552734
1781032224220672500,2.504672607421875,0.8880000710487366,-2.9239501953125,8.215950012207031
1781032224240200200,2.5242001953125,0.7429500222206116,-3.06000018119812,8.12505054473877
1781032224259725800,2.543725830078125,0.5839500427246094,-3.046950101852417,8.002950668334961
1781032224279246600,2.56324658203125,0.8329500555992126,-2.9250001907348633,7.762950420379639
1781032224298771200,2.582771240234375,0.7399500608444214,-2.6610000133514404,7.71405029296875
1781032224318296000,2.602296142578125,0.4240500330924988,-2.3779501914978027,7.734000205993652
1781032224337810400,2.621810546875,0.2070000171661377,-2.1889500617980957,7.660050392150879
1781032224357322000,2.641322021484375,-0.1969500035047531,-2.0500500202178955,7.711050510406494
1781032224376840000,2.66083984375,-0.09300000220537186,-1.987950086593628,7.654050350189209
1781032224396362200,2.6803623046875,0.226950004696846,-2.0209500789642334,7.681950569152832
1781032224415882500,2.699882568359375,0.5230500102043152,-2.0899500846862793,7.839000225067139
1781032224435402500,2.719402587890625,0.7879500389099121,-2.184000015258789,7.966050148010254
1781032224454926000,2.738926025390625,0.9340500235557556,-2.2789502143859863,8.142000198364258
1781032224474450200,2.7584501953125,1.0270500183105469,-2.3299500942230225,8.308950424194336
1781032224493973500,2.777973388671875,1.0830000638961792,-2.350050210952759,8.518950462341309
1781032224513499000,2.797498779296875,1.2030000686645508,-2.3370001316070557,8.80305004119873
1781032224533029600,2.817029541015625,1.4140501022338867,-2.3530499935150146,9.070950508117676
1781032224552558000,2.83655810546875,1.6900501251220703,-2.3869500160217285,9.300000190734863
1781032224572084000,2.856083984375,1.954050064086914,-2.4130501747131348,9.447000503540039
1781032224591612000,2.87561181640625,2.038950204849243,-2.388000011444092,9.53895092010498
1781032224611137300,2.89513720703125,1.9620001316070557,-2.263050079345703,9.628950119018555
1781032224630660000,2.91466015625,1.8310500383377075,-2.104950189590454,9.754050254821777
1781032224650184000,2.934183837890625,1.7590501308441162,-2.0160000324249268,9.883050918579102
1781032224669709000,2.953708984375,1.7820000648498535,-2.0299501419067383,9.99000072479248
1781032224689232100,2.973232177734375,1.7880001068115234,-2.116950035095215,10.057050704956055
1781032224708754400,2.99275439453125,1.665000081062317,-2.2170000076293945,10.077000617980957
1781032224728278800,3.01227880859375,1.4010000228881836,-2.25600004196167,10.083000183105469
1781032224747799800,3.0317998046875,1.171950101852417,-2.2770001888275146,10.141950607299805
1781032224767317500,3.0513173828125,1.1830500364303589,-2.287950038909912,10.162050247192383
1781032224786840300,3.07084033203125,1.3309500217437744,-2.293950080871582,10.12695026397705
1781032224806368300,3.0903681640625,1.5510001182556152,-2.2980000972747803,10.006050109863281
1781032224825894100,3.10989404296875,1.6140000820159912,-2.31600022315979,9.70305061340332
1781032224845413000,3.1294130859375,1.546950101852417,-2.3299500942230225,9.277050018310547
1781032224864930000,3.148929931640625,1.3369500637054443,-2.322000026702881,8.785950660705566
1781032224884451000,3.168451171875,1.0290000438690186,-2.30400013923645,8.422950744628906
1781032224903970600,3.187970458984375,0.673050045967102,-2.257050037384033,8.245950698852539
1781032224923485200,3.207485107421875,0.283050000667572,-2.287950038909912,8.343000411987305
1781032224943000000,3.227,0.022050000727176666,-2.4030001163482666,8.599950790405273
1781032224962517800,3.246517822265625,-0.06300000101327896,-2.638050079345703,8.892000198364258
1781032224982040600,3.26604052734375,0.07695000618696213,-2.9440500736236572,9.213000297546387
1781032225001567700,3.285567626953125,0.47505003213882446,-3.198000192642212,9.492000579833984
1781032225021092900,3.3050927734375,2.3170502185821533,-3.384000062942505,9.85200023651123
1781032225040617200,3.3246171875,2.7180001735687256,-3.4260001182556152,10.195050239562988
1781032225060139000,3.344138916015625,3.2779500484466553,-3.2569501399993896,10.378950119018555
1781032225079656400,3.363656494140625,3.687000274658203,-2.854950189590454,10.378950119018555
1781032225099175700,3.38317578125,3.766050100326538,-1.1809500455856323,10.101000785827637
1781032225118701600,3.40270166015625,3.5850002765655518,-0.8119500279426575,9.702000617980957
1781032225138228200,3.422228271484375,3.366000175476074,-0.21300001442432404,9.333000183105469
1781032225157750800,3.441750732421875,3.1680002212524414,0.2659500241279602,9.055950164794922
1781032225177271000,3.46127099609375,3.0979502201080322,0.51705002784729,8.986050605773926
1781032225196792000,3.4807919921875,3.20205020904541,0.453000009059906,8.982000350952148
1781032225216310500,3.500310546875,3.4429502487182617,0.07395000010728836,9.05505084991455
1781032225235831800,3.519831787109375,3.576000213623047,-0.4440000355243683,9.151050567626953
1781032225255358200,3.539358154296875,3.3540000915527344,-0.9750000238418579,9.151050567626953
1781032225274881000,3.558881103515625,2.811000108718872,-1.396950125694275,9.16200065612793
1781032225294408200,3.578408203125,1.194000005722046,-1.6080000400543213,9.168000221252441
1781032225313939000,3.59793896484375,0.8869500160217285,-1.7040001153945923,9.12405014038086
1781032225333464000,3.617464111328125,0.6349500417709351,-1.8060001134872437,9.019950866699219
1781032225352987100,3.636987060546875,0.41100001335144043,-1.9900500774383545,8.8410005569458
1781032225372509400,3.656509521484375,0.2550000250339508,-2.269050121307373,8.503050804138184
1781032225392031700,3.67603173828125,-0.2550000250339508,-2.6040000915527344,8.152050018310547
1781032225411559000,3.695558837890625,-0.7780500650405884,-2.8380000591278076,7.909950256347656
1781032225431085000,3.7150849609375,-0.9310500621795654,-2.908950090408325,7.744950294494629
1781032225450609400,3.734609375,-0.8640000224113464,-2.9100000858306885,7.846950531005859
1781032225470133200,3.75413330078125,0.8580000400543213,-2.8369500637054443,7.933950424194336
1781032225489653200,3.7736533203125,1.1590501070022583,-2.76705002784729,7.888950347900391
1781032225509174000,3.793174072265625,1.1610000133514404,-2.716050148010254,7.8070502281188965
1781032225528700000,3.812699951171875,0.817050039768219,-2.5410001277923584,7.527000427246094
1781032225548221200,3.83222119140625,0.40605002641677856,-2.2170000076293945,7.234950542449951
1781032225567741400,3.851741455078125,0.004950000438839197,-1.7920501232147217,7.123950481414795
1781032225587266800,3.871266845703125,-0.05295000225305557,-1.3639500141143799,7.123950481414795
1781032225606795500,3.89079541015625,0.3660000264644623,-1.0249500274658203,7.105950355529785
1781032225626319000,3.910319091796875,0.775950014591217,-0.778950035572052,7.126950263977051
1781032225645831400,3.92983154296875,1.048050045967102,-0.6829500198364258,7.111950397491455
1781032225665343000,3.949343017578125,1.1590501070022583,-0.6220500469207764,7.039050102233887
1781032225684861400,3.968861328125,1.120050072669983,-0.5260500311851501,7.1260504722595215
1781032225704380700,3.988380615234375,1.2030000686645508,-0.42000001668930054,7.354950428009033
1781032225723898000,4.007898193359375,1.3720500469207764,-0.28995001316070557,7.548000335693359
1781032225743415600,4.02741552734375,1.651050090789795,-0.2179500162601471,7.735050201416016
1781032225762935600,4.046935546875,1.9519500732421875,-0.2550000250339508,7.981050491333008
1781032225782459000,4.066458984375,2.086050033569336,-0.3049500286579132,8.167950630187988
1781032225801985800,4.08598583984375,2.0850000381469727,-0.31800001859664917,8.38800048828125
1781032225821506300,4.10550634765625,2.1730501651763916,-0.27300000190734863,8.557050704956055
1781032225841023000,4.12502294921875,2.290950059890747,-0.1879500150680542,8.662050247192383
1781032225860543700,4.144543701171875,2.419950008392334,-0.10095000267028809,8.719050407409668
1781032225880068000,4.164068115234375,2.713050127029419,0.004950000438839197,8.82705020904541
1781032225899590100,4.183590087890625,2.971950054168701,0.07304999977350235,9.016950607299805
1781032225919113200,4.20311328125,3.0510001182556152,0.17205001413822174,9.118050575256348
1781032225938639600,4.2226396484375,3.1020002365112305,0.3360000252723694,9.15000057220459
1781032225958161000,4.242160888671875,3.115950107574463,0.5149500370025635,9.04800033569336
1781032225977680600,4.2616806640625,3.261000156402588,0.6820500493049622,8.826000213623047
1781032225997202200,4.2812021484375,3.390000104904175,0.8419500589370728,8.61405086517334
1781032226016728000,4.30072802734375,3.5500502586364746,0.9780000448226929,8.518050193786621
1781032226036256300,4.32025634765625,3.7849502563476562,1.0330500602722168,8.571000099182129
1781032226055783700,4.33978369140625,3.9079501628875732,1.0180500745773315,8.848950386047363
1781032226075315000,4.35931494140625,4.165950298309326,0.8790000677108765,9.127050399780273
1781032226094841000,4.378841064453125,4.4239501953125,0.5560500025749207,9.300000190734863
1781032226114359000,4.398359130859375,4.369050025939941,0.15900000929832458,9.445950508117676
1781032226133880300,4.41788037109375,4.0159502029418945,-0.24300001561641693,9.54900074005127
1781032226153403400,4.4374033203125,3.5650501251220703,-0.6270000338554382,9.555000305175781
1781032226172929300,4.45692919921875,3.163950204849243,-1.054050087928772,9.502050399780273
1781032226192456200,4.476456298828125,3.1459500789642334,-1.5570000410079956,9.393000602722168
1781032226211979500,4.4959794921875,3.4680001735687256,-2.001000165939331,9.313050270080566
1781032226231500300,4.515500244140625,3.895050287246704,-2.2950000762939453,9.409049987792969
1781032226251021000,4.53502099609375,5.626950263977051,-2.434950113296509,9.502050399780273
1781032226270540000,4.5545400390625,5.808000087738037,-2.4240000247955322,9.52500057220459
1781032226290056400,4.574056396484375,6.013050079345703,-2.3809502124786377,9.475050926208496
1781032226309575400,4.593575439453125,6.307950496673584,-2.379000186920166,9.337050437927246
1781032226329094000,4.613093994140625,6.550050258636475,-2.416950225830078,9.27405071258545
1781032226348613600,4.632613525390625,6.720000267028809,-2.517000198364258,9.39900016784668
1781032226368137200,4.65213720703125,6.973050117492676,-2.5890002250671387,9.64995002746582
1781032226387658500,4.671658447265625,7.383000373840332,-2.640000104904175,10.006950378417969
1781032226407178800,4.6911787109375,7.761000156402588,-2.688000202178955,10.37700080871582
1781032226426697000,4.710697021484375,8.175000190734863,-2.605950117111206,10.449000358581543
1781032226446212900,4.730212890625,8.565000534057617,-2.5849502086639404,10.158000946044922
1781032226465729800,4.749729736328125,8.610000610351562,-2.7679500579833984,9.802050590515137
1781032226485249800,4.769249755859375,8.395950317382812,-2.8849501609802246,9.511950492858887
1781032226504771300,4.788771240234375,8.002050399780273,-2.883000135421753,9.352950096130371
1781032226524296700,4.808296630859375,7.470000267028809,-2.7799501419067383,9.250950813293457
1781032226543825000,4.827824951171875,6.951000213623047,-2.6800501346588135,9.088050842285156
1781032226563350300,4.847350341796875,6.553050518035889,-2.617950201034546,8.839950561523438
1781032226582879000,4.86687890625,6.309000492095947,-2.5129501819610596,8.542950630187988
1781032226602408200,4.886408203125,6.19005012512207,-2.373000144958496,8.329950332641602
1781032226621934300,4.905934326171875,6.217950344085693,-2.1979501247406006,8.343000411987305
1781032226641461200,4.925461181640625,6.154050350189209,-2.07705020904541,8.557950019836426
1781032226660985600,4.944985595703125,5.82105016708374,-2.127000093460083,8.796000480651855
1781032226680506400,4.96450634765625,5.587050437927246,-2.203050136566162,8.998950004577637
1781032226700025600,4.984025634765625,5.26800012588501,-2.089050054550171,8.868000030517578
1781032226719546400,5.00354638671875,4.888950347900391,-1.9500000476837158,8.539050102233887
1781032226739070700,5.02307080078125,4.668000221252441,-1.7239500284194946,8.152050018310547
1781032226758595600,5.042595703125,4.51200008392334,-1.3830000162124634,7.813950538635254
1781032226778117000,5.0621171875,4.282950401306152,-0.973050057888031,7.819950580596924
1781032226797639000,5.081638916015625,3.9750001430511475,-0.41505002975463867,8.09595012664795
1781032226817160400,5.101160400390625,3.5710501670837402,0.1270500123500824,8.611050605773926
1781032226836684000,5.12068408203125,1.7770501375198364,0.5290500521659851,10.09695053100586
1781032226856211200,5.140211181640625,1.6240500211715698,0.8020500540733337,10.317000389099121
1781032226875735300,5.1597353515625,1.7839500904083252,0.8059500455856323,10.434000968933105
1781032226895256600,5.179256591796875,2.137050151824951,0.6850500106811523,10.33905029296875
1781032226914778600,5.198778564453125,2.640000104904175,0.6420000195503235,9.856950759887695
1781032226934299400,5.21829931640625,3.1440000534057617,0.3540000021457672,9.31605052947998
1781032226953822500,5.237822509765625,3.3190500736236572,-0.08895000070333481,8.812050819396973
1781032226973344500,5.257344482421875,3.1710002422332764,-0.5640000104904175,8.320950508117676
1781032226992865500,5.276865478515625,2.9770500659942627,-1.1320500373840332,8.119050025939941
1781032227012388000,5.29638818359375,2.940000057220459,-1.503000020980835,8.056050300598145
1781032227031910100,5.31591015625,2.9670002460479736,-1.4880000352859497,8.166000366210938
1781032227051436300,5.335436279296875,3.0670502185821533,-1.281000018119812,8.605950355529785
1781032227070963700,5.354963623046875,3.0040502548217773,-0.9949500560760498,9.064050674438477
1781032227090487600,5.374487548828125,2.7679500579833984,-0.6480000019073486,9.36405086517334
1781032227110009000,5.394009033203125,2.4469501972198486,-0.34800001978874207,9.613950729370117
1781032227129529600,5.413529541015625,2.3710501194000244,-0.15900000929832458,9.70995044708252
1781032227149051600,5.4330517578125,2.4720001220703125,-0.004950000438839197,9.550050735473633
1781032227168577800,5.452577880859375,2.4049501419067383,0.0990000069141388,9.418050765991211
1781032227188097500,5.47209765625,2.40405011177063,0.09795000404119492,9.405000686645508
1781032227207613700,5.49161376953125,2.2680001258850098,0.0690000057220459,9.19800090789795
1781032227227135000,5.511135009765625,2.1700501441955566,-0.0019500000635161996,9.076050758361816
1781032227246657000,5.530656982421875,2.041949987411499,-0.05595000088214874,9.067950248718262
1781032227266178300,5.55017822265625,1.7440500259399414,-0.028050001710653305,8.756999969482422
1781032227285702400,5.569702392578125,1.7779500484466553,-0.037950001657009125,8.491950035095215
1781032227305227300,5.589227294921875,1.6230000257492065,-0.14595000445842743,8.421000480651855
1781032227324755200,5.608755126953125,1.4899500608444214,-0.24300001561641693,8.218050003051758
1781032227344286500,5.628286376953125,1.6060501337051392,-0.34995001554489136,8.004000663757324
1781032227363817200,5.647817138671875,1.588050127029419,-0.5059500336647034,8.023050308227539
1781032227383343400,5.66734326171875,1.546950101852417,-0.6040500402450562,8.19795036315918
1781032227402864600,5.68686474609375,1.6120500564575195,-0.6559500098228455,8.461950302124023
1781032227422382000,5.706382080078125,1.645050048828125,-0.7270500063896179,8.756999969482422
1781032227441901300,5.7259013671875,1.5250500440597534,-0.7470000386238098,8.923050880432129
1781032227461419000,5.7454189453125,1.3810501098632812,-0.7219500541687012,8.958000183105469
1781032227480938800,5.764938720703125,1.3519500494003296,-0.7690500617027283,9.018000602722168
1781032227500461300,5.78446142578125,1.3819500207901,-0.8329500555992126,9.019950866699219
1781032227519980000,5.80397998046875,1.270050048828125,-0.8329500555992126,8.908050537109375
1781032227539501000,5.8235009765625,1.1880000829696655,-0.8280000686645508,8.755050659179688
1781032227559026400,5.8430263671875,1.1680500507354736,-0.8580000400543213,8.443950653076172
1781032227578547200,5.862547119140625,0.9550500512123108,-0.9120000600814819,7.92495059967041
1781032227598066000,5.88206591796875,0.7330500483512878,-1.0950000286102295,7.539000511169434
1781032227617588700,5.901588623046875,0.7399500608444214,-1.4029500484466553,7.252950191497803
1781032227637113900,5.92111376953125,0.8530500531196594,-1.7070001363754272,7.099050521850586
1781032227656639000,5.940638916015625,1.13100004196167,-1.9519500732421875,7.3399505615234375
1781032227676162000,5.960162109375,1.4130001068115234,-2.0650501251220703,7.792050361633301
1781032227695684000,5.97968408203125,1.4070000648498535,-2.052000045776367,8.124000549316406
1781032227715209000,5.999208984375,1.0260000228881836,-1.9890000820159912,8.259000778198242
1781032227734736000,6.01873583984375,0.44895002245903015,-1.9890000820159912,8.241000175476074
1781032227754260500,6.038260498046875,-0.0690000057220459,-2.047950029373169,8.044950485229492
1781032227773785300,6.057785400390625,-0.14595000445842743,-2.176950216293335,7.866000175476074
1781032227793312000,6.07731201171875,0.24195000529289246,-2.365950107574463,7.845000267028809
1781032227812839000,6.0968388671875,0.8400000333786011,-2.580000162124634,7.864950180053711
1781032227832369400,6.116369384765625,1.27305006980896,-2.7690000534057617,7.908000469207764
1781032227851901700,6.135901611328125,1.3150500059127808,-2.8590002059936523,7.918050289154053
1781032227871429600,6.1554296875,1.1680500507354736,-2.83305025100708,7.91895055770874
1781032227890954200,6.174954345703125,1.0369499921798706,-2.704050064086914,7.954950332641602
1781032227910477300,6.194477294921875,1.1490000486373901,-2.5129501819610596,7.974000453948975
1781032227929999000,6.2139990234375,1.5460500717163086,-2.3269500732421875,8.0110502243042
1781032227949522400,6.2335224609375,1.9990501403808594,-2.1439499855041504,8.032950401306152
1781032227969046000,6.2530458984375,2.31600022315979,-1.897050142288208,8.034000396728516
1781032227988565500,6.2725654296875,2.4079501628875732,-1.5430500507354736,8.016000747680664
1781032228008087600,6.292087646484375,2.356950044631958,-1.2480000257492065,7.9110002517700195
1781032228027611000,6.31161083984375,2.182950019836426,-1.068000078201294,7.659000396728516
1781032228047137000,6.331136962890625,1.9210500717163086,-0.9940500259399414,7.378050327301025
1781032228066663200,6.3506630859375,1.8109500408172607,-1.0380001068115234,7.162050247192383
1781032228086185500,6.370185546875,1.7809500694274902,-1.1539500951766968,7.0660505294799805
1781032228105706500,6.38970654296875,1.8540000915527344,-1.3300501108169556,7.183950424194336
1781032228125231900,6.40923193359375,2.0380501747131348,-1.5859500169754028,7.359000205993652
1781032228144759600,6.428759521484375,2.020050048828125,-1.828050136566162,7.405950546264648
1781032228164281000,6.448281005859375,1.672950029373169,-1.9000500440597534,7.342050552368164
1781032228183804000,6.467803955078125,1.1970000267028809,-1.7449500560760498,7.185000419616699
1781032228203327200,6.4873271484375,0.6379500031471252,-1.4100000858306885,6.978000164031982
1781032228222846700,6.5068466796875,0.18300001323223114,-1.0500000715255737,6.942000389099121
1781032228242365200,6.526365234375,-0.05895000323653221,-0.7579500079154968,7.009950160980225
1781032228261882000,6.545882080078125,-0.22395001351833344,-0.5580000281333923,7.131000518798828
1781032228281402400,6.56540234375,-0.22995001077651978,-0.5070000290870667,7.305000305175781
1781032228300921000,6.584921142578125,-0.2179500162601471,-0.5800500512123108,7.414950370788574
1781032228320438500,6.6044384765625,-0.1879500150680542,-0.6510000228881836,7.572000503540039
1781032228339958500,6.62395849609375,0.08100000023841858,-0.7230000495910645,7.879950523376465
1781032228359478300,6.643478271484375,0.364950031042099,-0.6889500617980957,8.256000518798828
1781032228378997500,6.66299755859375,0.597000002861023,-0.5770500302314758,8.647950172424316
1781032228398516000,6.682515869140625,0.7999500632286072,-0.5260500311851501,8.911050796508789
1781032228418034700,6.70203466796875,0.8299500346183777,-0.527999997138977,9.058050155639648
1781032228437556700,6.721556640625,0.8490000367164612,-0.520050048828125,9.285000801086426
1781032228457081300,6.741081298828125,1.0500000715255737,-0.47805002331733704,9.540000915527344
1781032228476609500,6.760609619140625,1.3140000104904175,-0.37800002098083496,9.754950523376465
1781032228496138000,6.780137939453125,1.585050106048584,-0.28200000524520874,9.867000579833984
1781032228515659800,6.79965966796875,1.951050043106079,-0.2530499994754791,9.904950141906738
1781032228535180000,6.819179931640625,2.0869500637054443,-0.18900001049041748,10.027050018310547
1781032228554701300,6.838701416015625,2.2200000286102295,-0.06599999964237213,10.015050888061523
1781032228574224400,6.858224365234375,2.4790501594543457,0.009000000543892384,9.82800006866455
1781032228593748000,6.877748046875,2.659950017929077,0.003000000026077032,9.696000099182129
1781032228613272000,6.89727197265625,3.0580501556396484,0.027000000700354576,9.570000648498535
1781032228632795000,6.916794921875,3.450000047683716,0.06105000153183937,9.445050239562988
1781032228652313000,6.93631298828125,3.8340001106262207,0.05205000191926956,9.343050003051758
1781032228671830300,6.955830322265625,4.13100004196167,0.004050000105053186,9.199050903320312
1781032228691348500,6.975348388671875,4.2330002784729,-0.12000000476837158,9.019050598144531
1781032228710865700,6.99486572265625,4.383000373840332,-0.25905001163482666,9.028950691223145
1781032228730382800,7.0143828125,4.377000331878662,-0.2670000195503235,9.265950202941895
1781032228749903400,7.0339033203125,4.230000019073486,-0.13095000386238098,9.60105037689209
1781032228769428200,7.05342822265625,4.306950092315674,0.034950003027915955,9.90000057220459
1781032228788954400,7.072954345703125,4.639950275421143,0.22305001318454742,10.177050590515137
1781032228808478700,7.092478759765625,4.885950088500977,0.3660000264644623,10.587000846862793
1781032228827997700,7.111997802734375,5.137050151824951,0.35895001888275146,10.89900016784668
1781032228847518000,7.13151806640625,5.583000183105469,0.1570500135421753,10.830000877380371
1781032228867037700,7.15103759765625,5.610000133514404,-0.3360000252723694,10.62405014038086
1781032228886552000,7.170552001953125,5.365950107574463,-1.8739501237869263,10.4170503616333
1781032228906071300,7.1900712890625,5.0530500411987305,-3.5370001792907715,9.922950744628906
1781032228925592000,7.209592041015625,3.5809502601623535,-3.9240002632141113,9.517950057983398
1781032228945111000,7.229111083984375,3.3160500526428223,-4.435050010681152,9.098999977111816
1781032228964630800,7.248630859375,3.1680002212524414,-4.819950103759766,7.329000473022461
1781032228984150500,7.268150634765625,3.204000234603882,-4.98105001449585,7.135050296783447
1781032229003675400,7.28767529296875,3.361950159072876,-4.861050128936768,6.889050483703613
1781032229023201000,7.307200927734375,3.7189502716064453,-4.554000377655029,6.825000286102295
1781032229042719500,7.326719482421875,4.104000091552734,-4.2330002784729,6.885000228881836
1781032229062239500,7.346239501953125,4.575000286102295,-3.9529502391815186,7.3309502601623535
1781032229081760000,7.365760009765625,6.259050369262695,-3.6259500980377197,8.784000396728516
1781032229101279700,7.38527978515625,6.412050247192383,-3.358950138092041,9.034950256347656
1781032229120806100,7.40480615234375,6.835050106048584,-3.277050256729126,9.15000057220459
1781032229140337200,7.424337158203125,7.200000286102295,-3.1530001163482666,9.193950653076172
1781032229159869000,7.443868896484375,7.414950370788574,-3.0979502201080322,9.312000274658203
1781032229179397600,7.463397705078125,7.411050319671631,-3.106950044631958,9.331050872802734
1781032229198925600,7.482925537109375,7.2330002784729,-2.9890501499176025,9.360000610351562
1781032229218451500,7.502451416015625,6.832950115203857,-2.9599502086639404,9.204000473022461
1781032229237973000,7.521972900390625,6.216000080108643,-3.091050148010254,8.749950408935547
1781032229257494500,7.54149462890625,5.677950382232666,-3.2599501609802246,8.179950714111328
1781032229277019600,7.56101953125,5.367000102996826,-3.412950277328491,7.678950309753418
1781032229296546300,7.58054638671875,5.164950370788574,-3.6889500617980957,7.549950122833252
1781032229316073200,7.6000732421875,5.133000373840332,-3.954000234603882,7.578000545501709
1781032229335598000,7.61959814453125,4.9519500732421875,-4.0980000495910645,7.5420002937316895
1781032229355119900,7.639119873046875,4.431000232696533,-4.102950096130371,7.498050212860107
1781032229374640600,7.658640625,3.828000068664551,-3.8010001182556152,7.278000354766846
1781032229394161000,7.678160888671875,3.184950113296509,-3.2760002613067627,6.807000160217285
1781032229413678600,7.6976787109375,2.805000066757202,-2.653050184249878,6.6499505043029785
1781032229433197800,7.71719775390625,2.5390501022338867,-2.013000011444092,6.429000377655029
1781032229452717800,7.7367177734375,2.4570000171661377,-1.5130500793457031,6.237000465393066
1781032229472235300,7.7562353515625,2.3940000534057617,-1.120050072669983,6.375000476837158
1781032229491753200,7.775753173828125,2.4130501747131348,-0.8220000267028809,6.300000190734863
1781032229511272200,7.795272216796875,2.722050189971924,-0.700950026512146,6.352050304412842
1781032229530790100,7.8147900390625,3.0679502487182617,-0.6540000438690186,6.51900053024292
1781032229550304500,7.834304443359375,3.4330501556396484,-0.6850500106811523,6.250950336456299
1781032229569819600,7.853819580078125,3.8110501766204834,-0.89205002784729,6.151950359344482
1781032229589339100,7.873339111328125,4.085999965667725,-1.0630500316619873,6.561000347137451
1781032229608861000,7.89286083984375,4.549950122833252,-1.0960500240325928,6.652950286865234
1781032229628381200,7.912381103515625,5.164950370788574,-1.1790000200271606,6.712950229644775
1781032229647898400,7.9318984375,5.653050422668457,-1.215000033378601,6.951000213623047
1781032229667416800,7.951416748046875,6.151050090789795,-1.1380500793457031,6.865950107574463
1781032229686933800,7.970933837890625,6.469950199127197,-1.1130000352859497,6.898950099945068
1781032229706449700,7.99044970703125,6.388950347900391,-1.1040000915527344,7.213950157165527
1781032229725967600,8.009967529296874,6.202950477600098,-1.1230500936508179,7.375950336456299
1781032229745488600,8.029488525390626,6.013050079345703,-1.2820500135421753,7.471950531005859
1781032229765005600,8.049005615234375,5.707050323486328,-1.492050051689148,7.477050304412842
1781032229784518700,8.0685185546875,5.57295036315918,-1.6540501117706299,7.428000450134277
1781032229804038400,8.088038330078126,5.44005012512207,-1.8250501155853271,7.443000316619873
1781032229823564000,8.10756396484375,5.152050018310547,-2.0880000591278076,7.5010504722595215
1781032229843087600,8.127087646484375,4.974000453948975,-2.3779501914978027,7.780050277709961
1781032229862607600,8.146607666015624,4.954050064086914,-2.593050241470337,8.19795036315918
1781032229882130700,8.166130615234374,5.053950309753418,-2.7490501403808594,8.50005054473877
1781032229901652500,8.185652587890624,5.343000411987305,-2.868000030517578,8.581050872802734
1781032229921170700,8.205170654296875,5.803950309753418,-2.8510501384735107,8.63700008392334
1781032229940687600,8.2246875,6.213000297546387,-2.7499501705169678,8.638050079345703
1781032229960207400,8.244207275390625,6.526950359344482,-2.638050079345703,8.583000183105469
1781032229979730200,8.263730224609375,6.639000415802002,-2.479950189590454,8.401050567626953
1781032229999254000,8.28325390625,6.5590500831604,-2.4499502182006836,8.13794994354248
1781032230018778000,8.302778076171874,6.418050289154053,-2.6479501724243164,8.215950012207031
1781032230038306800,8.322306884765625,6.3760504722595215,-2.8060500621795654,8.314949989318848
1781032230057838000,8.341838134765625,6.543000221252441,-2.829000234603882,8.533950805664062
1781032230077370400,8.361370361328126,6.418050289154053,-2.577000141143799,8.938050270080566
1781032230096902000,8.38090185546875,5.980050086975098,-2.247000217437744,8.974050521850586
1781032230116430300,8.400430419921875,5.670000076293945,-2.385000228881836,9.21405029296875
1781032230135957000,8.41995703125,5.362950325012207,-2.67900013923645,9.77595043182373
1781032230155484000,8.43948388671875,4.912950038909912,-2.739000082015991,10.260000228881836
1781032230175008500,8.459008544921875,4.417050361633301,-2.6680500507354736,10.567950248718262
1781032230194531600,8.478531494140626,4.033950328826904,-2.614950180053711,10.61400032043457
1781032230214057700,8.4980576171875,3.4590001106262207,-2.6100001335144043,10.308000564575195
1781032230233580800,8.517580810546875,3.238950252532959,-2.697000026702881,9.856050491333008
1781032230253102600,8.5371025390625,3.5050501823425293,-2.829000234603882,9.571050643920898
1781032230272631600,8.556631591796876,3.5659501552581787,-2.616000175476074,9.35205078125
1781032230292158500,8.576158447265625,3.6480002403259277,-2.07705020904541,9.211950302124023
1781032230311682000,8.59568212890625,3.756000280380249,-1.6260000467300415,9.283050537109375
1781032230331212300,8.61521240234375,3.7200002670288086,-1.2649500370025635,9.37695026397705
1781032230350745000,8.6347451171875,3.4210500717163086,-0.8260500431060791,9.370050430297852
1781032230370277600,8.654277587890626,3.135000228881836,-0.4330500066280365,9.406949996948242
1781032230389807900,8.673807861328125,2.91795015335083,-0.1770000010728836,9.2989501953125
1781032230409340200,8.693340087890626,2.802000045776367,0.004950000438839197,9.163949966430664
1781032230428871000,8.712870849609375,2.854950189590454,0.15300001204013824,9.172050476074219
1781032230448394200,8.732394287109376,2.9479501247406006,0.18000000715255737,9.058050155639648
1781032230467915500,8.75191552734375,2.896050214767456,0.13695000112056732,8.84595012664795
1781032230487441400,8.77144140625,2.6989500522613525,0.14400000870227814,8.676000595092773
1781032230506968600,8.790968505859375,2.4000000953674316,0.09495000541210175,8.611950874328613
1781032230526498300,8.810498291015625,2.1070501804351807,-0.025050001218914986,8.548050880432129
1781032230546028000,8.830028076171875,1.9960501194000244,-0.10695000737905502,8.457000732421875
1781032230565557200,8.84955712890625,1.7820000648498535,-0.15000000596046448,8.644050598144531
1781032230585086200,8.869086181640625,1.4830501079559326,-0.08295000344514847,8.925000190734863
1781032230604612900,8.88861279296875,1.2570000886917114,0.09105000644922256,9.187950134277344
1781032230624138500,8.908138427734375,1.051050066947937,0.19500000774860382,9.592950820922852
1781032230643667200,8.927667236328125,0.8470500111579895,0.22500000894069672,9.756000518798828
1781032230663201000,8.947200927734375,0.7720500230789185,0.22305001318454742,9.646050453186035
1781032230682739500,8.966739501953125,0.6949500441551208,0.06599999964237213,9.547950744628906
1781032230702274600,8.986274658203126,0.7150500416755676,-0.28395000100135803,9.346050262451172
1781032230721806800,9.005806884765626,0.8830500245094299,-0.7290000319480896,9.043050765991211
1781032230741338600,9.025338623046874,0.8280000686645508,-1.0309500694274902,8.779950141906738
1781032230760868400,9.044868408203126,0.6840000152587891,-1.1950500011444092,8.614950180053711
1781032230780397800,9.064397705078125,0.5640000104904175,-1.3260000944137573,8.5489501953125
1781032230799927300,9.08392724609375,0.3859500288963318,-1.3450500965118408,8.599950790405273
1781032230819456300,9.103456298828124,0.33000001311302185,-1.3759500980377197,8.731050491333008
1781032230838985000,9.12298486328125,0.36900001764297485,-1.4440500736236572,8.745000839233398
1781032230858513700,9.142513671875,0.25905001163482666,-1.3750500679016113,8.808000564575195
1781032230878042400,9.16204248046875,0.2760000228881836,-1.2679500579833984,8.7649507522583
1781032230897574000,9.181573974609375,0.43995001912117004,-1.165950059890747,8.755949974060059
1781032230917106000,9.20110595703125,0.5710500478744507,-1.0410000085830688,8.83395004272461
1781032230936630300,9.22063037109375,0.8080500364303589,-0.9910500645637512,8.713950157165527
1781032230956152600,9.240152587890625,0.9480000734329224,-1.0170000791549683,8.620950698852539
1781032230975678700,9.2596787109375,1.0840500593185425,-1.1569499969482422,8.53695011138916
1781032230995199200,9.27919921875,1.1929500102996826,-1.3729500770568848,8.467050552368164
1781032231014719500,9.298719482421875,1.0890001058578491,-1.5750000476837158,8.443950653076172
1781032231034242800,9.318242919921875,1.1260499954223633,-1.7419500350952148,8.32395076751709
1781032231053766700,9.3377666015625,1.0939500331878662,-1.8919501304626465,8.08905029296875
1781032231073295400,9.35729541015625,1.0440000295639038,-1.9669500589370728,7.894050598144531
1781032231092825300,9.376825439453125,1.210050106048584,-1.9800001382827759,7.7560505867004395
1781032231112355300,9.396355224609374,1.3819500207901,-1.9990501403808594,7.636950492858887
1781032231131882200,9.41588232421875,1.5349500179290771,-2.0160000324249268,7.636950492858887
1781032231151405600,9.435405517578126,1.675950050354004,-2.110949993133545,7.8319501876831055
1781032231170930700,9.4549306640625,1.5720000267028809,-2.1739501953125,7.981950283050537
1781032231190455600,9.47445556640625,1.3170000314712524,-2.182950019836426,8.13794994354248
1781032231209977900,9.493977783203125,1.0740000009536743,-2.212050199508667,8.374950408935547
1781032231229502000,9.513501953125,0.7740000486373901,-2.176950216293335,8.47095012664795
1781032231249029400,9.533029296875,0.595050036907196,-2.1780002117156982,8.5489501953125
1781032231268558000,9.55255810546875,0.5580000281333923,-2.086050033569336,8.586000442504883
1781032231288087000,9.572087158203125,0.4930500090122223,-1.990950107574463,8.38800048828125
1781032231307610600,9.591610595703125,0.45705002546310425,-2.0340001583099365,8.116950035095215
1781032231327135700,9.6111357421875,0.4639500081539154,-2.1700501441955566,7.875000476837158
1781032231346663400,9.630663330078125,0.5740500092506409,-2.5530002117156982,7.711950302124023
1781032231366192000,9.650192138671875,0.8970000147819519,-3.0049500465393066,7.675950527191162
1781032231385721900,9.669721923828124,1.1779500246047974,-3.3949501514434814,7.669950485229492
1781032231405246500,9.68924658203125,1.3789501190185547,-3.5839502811431885,7.7410502433776855
1781032231424768000,9.70876806640625,1.4770500659942627,-3.5899500846862793,7.852950572967529
1781032231444286200,9.7282861328125,1.5280500650405884,-3.5209500789642334,8.016000747680664
1781032231463805000,9.747804931640625,1.8720000982284546,-3.3960001468658447,8.16195011138916
1781032231483335200,9.767335205078124,2.3839499950408936,-3.2569501399993896,8.248950004577637
1781032231502862300,9.7868623046875,2.8500001430511475,-3.0430500507354736,8.290050506591797
1781032231522386700,9.80638671875,3.181950092315674,-2.740950107574463,8.247000694274902
1781032231541917700,9.825917724609376,3.390000104904175,-2.3839499950408936,8.125950813293457
1781032231561447000,9.845447021484375,3.6060001850128174,-2.0910000801086426,7.972950458526611
1781032231580973600,9.8649736328125,3.865950107574463,-1.8979500532150269,7.82205057144165
1781032231600502500,9.88450244140625,3.9049501419067383,-1.7590501308441162,7.759950160980225
1781032231620031200,9.90403125,3.690000057220459,-1.606950044631958,7.801950454711914
1781032231639561000,9.92356103515625,3.252000093460083,-1.3900500535964966,7.824000358581543
1781032231659088100,9.943088134765626,1.7130000591278076,-1.2559500932693481,7.8319501876831055
1781032231678609000,9.96260888671875,1.3870500326156616,-1.1929500102996826,7.705050468444824
1781032231698135600,9.982135498046874,0.9030000567436218,-1.311000108718872,7.558050155639648
1781032231717667300,10.001667236328124,-0.62295001745224,-1.537950038909912,7.482000350952148
1781032231737196000,10.021196044921876,-0.7189500331878662,-1.7470500469207764,7.405950546264648
1781032231756727300,10.040727294921876,-0.7210500240325928,-1.9339500665664673,7.393950462341309
1781032231776258600,10.060258544921876,-0.778950035572052,-1.9900500774383545,7.341000556945801
1781032231795787000,10.079787109375,-0.9180000424385071,-1.981950044631958,7.284000396728516
1781032231815310800,10.099310791015625,-1.1350500583648682,-1.915950059890747,7.225950241088867
1781032231834834200,10.118834228515626,-1.4929500818252563,-1.7940000295639038,7.209000110626221
1781032231854360600,10.138360595703125,-1.7590501308441162,-1.6429500579833984,7.228050231933594
1781032231873884000,10.1578837890625,-1.7209501266479492,-1.5169501304626465,7.2270002365112305
1781032231893412400,10.177412353515624,-1.5240000486373901,-1.437000036239624,7.288050174713135
1781032231912943000,10.196943115234374,-1.1820000410079956,-1.3690500259399414,7.3690505027771
1781032231932471300,10.21647119140625,0.47700002789497375,-1.308000087738037,7.470000267028809
1781032231952000500,10.23600048828125,0.6700500249862671,-1.2580500841140747,7.615950584411621
1781032231971530500,10.255530517578125,0.9379500150680542,-1.141050100326538,7.7560505867004395
1781032231991061800,10.275061767578125,1.2390000820159912,-1.0180500745773315,7.888950347900391
1781032232010592300,10.29459228515625,1.4380500316619873,-0.8850000500679016,8.014050483703613
1781032232030123000,10.314123046875,1.4490001201629639,-0.7339500188827515,8.062950134277344
1781032232049651700,10.333651611328126,1.3150500059127808,-0.7210500240325928,8.095050811767578
1781032232069174800,10.3531748046875,1.2130500078201294,-0.7159500122070312,8.214000701904297
1781032232088702500,10.372702392578125,1.1809500455856323,-0.6709500551223755,8.413949966430664
1781032232108234800,10.39223486328125,1.5360000133514404,-0.6370500326156616,8.5420503616333
1781032232127767800,10.411767822265626,1.9390500783920288,-0.5860500335693359,8.632950782775879
1781032232147301600,10.431301513671874,2.0239500999450684,-0.5400000214576721,8.76300048828125
1781032232166833700,10.450833740234375,1.957050085067749,-0.5539500117301941,8.812050819396973
1781032232186363600,10.47036376953125,1.990950107574463,-0.6409500241279602,8.890950202941895
1781032232205891000,10.48989111328125,2.227950096130371,-0.7000500559806824,8.857950210571289
1781032232225415700,10.509415771484376,2.5879502296447754,-0.6880500316619873,8.731050491333008
1781032232244939500,10.528939453125,2.991000175476074,-0.736050009727478,8.737950325012207
1781032232264462800,10.548462890625,3.246000051498413,-0.8410500288009644,8.96505069732666
1781032232283991600,10.567991455078126,3.5190000534057617,-0.8629500269889832,9.199050903320312
1781032232303519200,10.587519287109375,5.167050361633301,-0.906000018119812,9.118950843811035
1781032232323049500,10.607049560546875,5.314950466156006,-1.0380001068115234,9.09000015258789
1781032232342580500,10.62658056640625,5.137050151824951,-1.0800000429153442,9.315000534057617
1781032232362104600,10.6461044921875,4.795950412750244,-1.0999500751495361,9.711000442504883
1781032232381629000,10.66562890625,4.429050445556641,-1.2750000953674316,10.171950340270996
1781032232401155600,10.685155517578124,4.209000110626221,-1.5610500574111938,10.20300006866455
1781032232420684000,10.70468408203125,4.177950382232666,-1.8190500736236572,9.838950157165527
1781032232440211500,10.72421142578125,4.255949974060059,-2.1259500980377197,9.856950759887695
1781032232459739100,10.7437392578125,4.281000137329102,-2.3970000743865967,10.16100025177002
1781032232479268000,10.76326806640625,4.464000225067139,-2.7799501419067383,10.381050109863281
1781032232498797300,10.78279736328125,4.746000289916992,-3.3229501247406006,10.396050453186035
1781032232518321200,10.802321044921875,5.18595027923584,-3.736950159072876,10.107000350952148
1781032232537843000,10.821843017578125,5.5159502029418945,-4.019999980926514,10.134000778198242
1781032232557365000,10.841364990234375,5.212950229644775,-4.1170501708984375,10.600950241088867
1781032232576887300,10.86088720703125,5.164050102233887,-4.228050231933594,11.116050720214844
1781032232596415200,10.880415283203124,5.6260504722595215,-4.363950252532959,11.02695083618164
1781032232615942000,10.89994189453125,7.525050163269043,-4.492950439453125,9.357000350952148
1781032232635464400,10.91946435546875,9.1360502243042,-4.669050216674805,7.735950469970703
1781032232654988000,10.938988037109375,9.103950500488281,-4.659000396728516,7.381950378417969
1781032232674514700,10.9585146484375,7.411050319671631,-4.555950164794922,7.45395040512085
1781032232694043600,10.978043701171876,7.194000244140625,-4.4670000076293945,7.852950572967529
1781032232713572900,10.99757275390625,6.57105016708374,-4.296000003814697,8.344950675964355
1781032232733102800,11.017102783203125,5.122950077056885,-4.190999984741211,8.652000427246094
1781032232752632800,11.0366328125,5.397000312805176,-4.183950424194336,8.716050148010254
1781032232772162000,11.056162109375,5.706000328063965,-4.125,8.67495059967041
1781032232791688000,11.07568798828125,6.178950309753418,-4.009950160980225,8.688000679016113
1781032232811212000,11.0952119140625,6.574950218200684,-3.8269500732421875,9.028950691223145
1781032232830740500,11.114740478515625,6.3100504875183105,-3.5500502586364746,9.4350004196167
1781032232850270200,11.134270263671874,5.964000225067139,-3.3349502086639404,9.865950584411621
1781032232869798100,11.153798095703126,3.4459502696990967,-3.1600501537323,10.359000205993652
1781032232889324500,11.173324462890625,3.3330001831054688,-2.9659502506256104,10.402050018310547
1781032232908852500,11.1928525390625,3.5520002841949463,-3.0510001182556152,10.300950050354004
1781032232928384000,11.212384033203126,3.2779500484466553,-3.0490500926971436,9.913050651550293
1781032232947912000,11.231911865234375,3.639000177383423,-2.746950149536133,8.461050033569336
1781032232967441000,11.25144091796875,3.970950126647949,-2.4780001640319824,8.671050071716309
1781032232986971600,11.2709716796875,3.8140501976013184,-2.1070501804351807,8.779950141906738
1781032233006499300,11.290499267578125,4.009050369262695,-1.7329500913619995,8.994000434875488
1781032233026023700,11.310023681640626,3.7800002098083496,-1.5480000972747803,9.418950080871582
1781032233045548500,11.329548583984375,3.5460002422332764,-1.270050048828125,9.475050926208496
1781032233065074200,11.34907421875,3.58305025100708,-0.9120000600814819,9.210000038146973
1781032233084600600,11.3686005859375,3.826050281524658,-0.7320000529289246,8.97195053100586
1781032233104126700,11.388126708984375,3.853950262069702,-0.5719500184059143,8.977950096130371
1781032233123654400,11.407654296875,3.5650501251220703,-0.226950004696846,9.079050064086914
1781032233143184100,11.42718408203125,3.046950101852417,0.10305000841617584,9.381000518798828
1781032233162708500,11.44670849609375,2.5410001277923584,0.14805001020431519,9.66195011138916
1781032233182230500,11.46623046875,2.3149502277374268,0.22200001776218414,9.508950233459473
1781032233201755600,11.485755615234375,2.2009501457214355,0.3130500018596649,9.376049995422363
1781032233221279700,11.50527978515625,2.253000020980835,0.24195000529289246,9.32295036315918
1781032233240801800,11.5248017578125,2.215050220489502,0.2659500241279602,9.168000221252441
1781032233260322800,11.54432275390625,2.0329501628875732,0.26295000314712524,9.065999984741211
1781032233279851000,11.56385107421875,1.8450000286102295,0.09600000083446503,9
1781032233299385000,11.583385009765625,1.6360501050949097,0.06495000422000885,8.886000633239746
1781032233318919700,11.602919677734375,1.5700501203536987,0.043950002640485764,8.740050315856934
1781032233338453800,11.622453857421876,1.64805006980896,0.036000002175569534,8.473050117492676
1781032233357988400,11.64198828125,1.8229501247406006,0.05700000375509262,8.338950157165527
1781032233377522700,11.661522705078125,1.7959500551223755,-0.08100000023841858,8.469000816345215
1781032233397052400,11.681052490234375,1.636950135231018,-0.0990000069141388,8.527050018310547
1781032233416578000,11.700578125,1.609950065612793,-0.05205000191926956,8.659950256347656
1781032233436104700,11.720104736328125,1.5010501146316528,-0.15600000321865082,8.745000839233398
1781032233455634000,11.739634033203124,1.4970000982284546,-0.19995000958442688,8.536050796508789
1781032233475164400,11.759164306640624,1.4119501113891602,-0.11100000888109207,8.281050682067871
1781032233494695000,11.77869482421875,1.0150500535964966,-0.0990000069141388,8.155050277709961
1781032233514220300,11.79822021484375,0.8340000510215759,-0.11700000613927841,8.031000137329102
1781032233533742300,11.817742431640625,0.6420000195503235,-0.0580500029027462,7.885050296783447
1781032233553264600,11.8372646484375,0.48000001907348633,-0.036000002175569534,7.849950313568115
1781032233572786000,11.856785888671874,0.6019500494003296,-0.09795000404119492,7.897950172424316
1781032233592306200,11.87630615234375,0.583050012588501,-0.12300000339746475,7.92495059967041
1781032233611829000,11.8958291015625,0.4909500181674957,-0.12000000476837158,7.954950332641602
1781032233631356200,11.915356201171875,0.38100001215934753,-0.1380000114440918,8.047950744628906
1781032233650887700,11.9348876953125,0.22200001776218414,-0.14205001294612885,8.068050384521484
1781032233670418200,11.954418212890625,0.1879500150680542,-0.16695000231266022,7.978050231933594
1781032233689950000,11.973949951171875,0.2650500237941742,-0.30105000734329224,7.888050556182861
1781032233709477400,11.993477294921876,0.2770500183105469,-0.48405003547668457,7.7310004234313965
1781032233729004300,12.01300439453125,0.26100000739097595,-0.6930000185966492,7.554000377655029
1781032233748535300,12.032535400390625,0.31095001101493835,-0.8080500364303589,7.479000568389893
1781032233768063200,12.052063232421874,0.42900002002716064,-0.8470500111579895,7.624050140380859
1781032233787589400,12.07158935546875,0.6019500494003296,-0.8959500193595886,8.023950576782227
1781032233807118800,12.091118896484375,0.8580000400543213,-0.9589500427246094,8.452950477600098
1781032233826643700,12.110643798828125,0.9940500259399414,-1.1790000200271606,8.857950210571289
1781032233846169300,12.13016943359375,1.072950005531311,-1.4749500751495361,9.166950225830078
1781032233865696500,12.149696533203125,1.228950023651123,-1.711050033569336,9.382950782775879
1781032233885223000,12.169222900390626,1.4629501104354858,-1.8870000839233398,9.609000205993652
1781032233904751600,12.188751708984375,1.9470001459121704,-1.987950086593628,9.690000534057617
1781032233924276700,12.20827685546875,2.53695011138916,-2.118000030517578,9.751049995422363
1781032233943804000,12.227803955078125,2.9770500659942627,-2.266050100326538,9.72195053100586
1781032233963331600,12.24733154296875,3.1900501251220703,-2.322000026702881,9.432000160217285
1781032233982857000,12.26685693359375,2.9359500408172607,-2.257050037384033,9.141000747680664
1781032234002384000,12.2863837890625,1.1490000486373901,-2.0160000324249268,8.87505054473877
1781032234021912300,12.305912353515625,0.7429500222206116,-1.6750500202178955,8.626049995422363
1781032234041440300,12.325440185546874,0.3840000033378601,-1.4380500316619873,8.451000213623047
1781032234060969500,12.344969482421876,0.4540500342845917,-1.3860000371932983,8.173049926757812
1781032234080495900,12.364495849609375,0.909000039100647,-1.5259500741958618,7.984950542449951
1781032234100019200,12.384019287109375,1.5070500373840332,-1.8190500736236572,7.903950214385986
1781032234119550200,12.40355029296875,1.8660000562667847,-2.1220500469207764,7.990950584411621
1781032234139080000,12.423079833984374,1.8520500659942627,-2.3389501571655273,8.271000862121582
1781032234158604800,12.442604736328125,1.6219500303268433,-2.4600000381469727,8.484000205993652
1781032234178133200,12.46213330078125,1.3350000381469727,-2.467050075531006,8.662050247192383
1781032234197662200,12.481662109375,1.002000093460083,-2.386050224304199,8.695050239562988
1781032234217189400,12.501189453125,0.8490000367164612,-2.299950122833252,8.641950607299805
1781032234236715000,12.520715087890625,0.7939500212669373,-2.259000062942505,8.598000526428223
1781032234256240400,12.540240478515624,0.7830000519752502,-2.2890000343322754,8.569950103759766
1781032234275771000,12.55977099609375,0.895050048828125,-2.39805006980896,8.616000175476074
1781032234295302100,12.57930224609375,1.0230000019073486,-2.545950174331665,8.718000411987305
1781032234314831600,12.59883154296875,1.218000054359436,-2.6760001182556152,8.800050735473633
1781032234334359800,12.61835986328125,1.396950125694275,-2.8060500621795654,8.84595012664795
1781032234353885700,12.6378857421875,1.5430500507354736,-2.940000057220459,8.854949951171875
1781032234373412600,12.65741259765625,1.735050082206726,-3.058950185775757,8.832000732421875
1781032234392941000,12.676941162109374,1.9620001316070557,-3.142050266265869,8.734050750732422
1781032234412470800,12.696470703125,2.2800002098083496,-3.1939501762390137,8.638050079345703
1781032234431996000,12.715995849609374,2.6200501918792725,-3.186000108718872,8.596050262451172
1781032234451518700,12.735518798828124,2.9440500736236572,-3.118950128555298,8.513999938964844
1781032234471042800,12.755042724609375,3.2530500888824463,-3.025050163269043,8.440950393676758
1781032234490569000,12.77456884765625,3.5590500831604004,-2.9250001907348633,8.314050674438477
1781032234510099000,12.794098876953125,3.8839502334594727,-2.82705020904541,8.167950630187988
1781032234529628700,12.813628662109375,3.8490002155303955,-2.682000160217285,8.008950233459473
1781032234549155000,12.833155029296876,3.4450502395629883,-2.5069501399993896,7.885950565338135
1781032234568683000,12.85268310546875,2.9710500240325928,-2.278050184249878,7.707000255584717
1781032234588212200,12.872212158203125,2.3449501991271973,-1.9800001382827759,7.390050411224365
1781032234607739100,12.8917392578125,1.8499500751495361,-1.6540501117706299,7.204950332641602
1781032234627268400,12.911268310546875,1.321950078010559,-1.3189500570297241,7.25100040435791
1781032234646796300,12.93079638671875,-0.30195000767707825,-1.1269500255584717,7.24500036239624
1781032234666316800,12.95031689453125,-0.4020000100135803,-1.2360000610351562,7.095000267028809
1781032234685840000,12.96983984375,-0.8040000200271606,-1.6600500345230103,6.931950092315674
1781032234705364000,12.989364013671874,-1.1770501136779785,-2.190000057220459,6.717000484466553
1781032234724891100,13.00889111328125,-1.2220500707626343,-2.511000156402588,6.759000301361084
1781032234744420600,13.028420654296875,-1.350000023841858,-2.5069501399993896,7.051050186157227
1781032234763947800,13.04794775390625,-1.1869500875473022,-2.313000202178955,7.450050354003906
1781032234783471900,13.067471923828125,-0.8910000324249268,-2.086050033569336,7.821000576019287
1781032234802993200,13.0869931640625,-0.8089500665664673,-1.891050100326538,8.122950553894043
1781032234822515700,13.106515625,-0.7030500173568726,-1.7440500259399414,8.319000244140625
1781032234842040000,13.1260400390625,-0.4429500102996826,-1.602000117301941,8.356950759887695
1781032234861562000,13.14556201171875,-0.16305001080036163,-1.380000114440918,8.33595085144043
1781032234881087200,13.165087158203125,-0.0990000069141388,-1.0900501012802124,8.196000099182129
1781032234900615200,13.184615234375,-0.3150000274181366,-0.7810500264167786,7.975050449371338
1781032234920137200,13.20413720703125,-0.5520000457763672,-0.5020500421524048,7.788000583648682
1781032234939657700,13.22365771484375,-0.931950032711029,-0.325950026512146,7.62000036239624
1781032234959178000,13.243177978515625,-0.9490500688552856,-0.44505003094673157,7.4160003662109375
1781032234978702000,13.2627021484375,-0.6109500527381897,-0.9030000567436218,7.359000205993652
1781032234998225400,13.282225341796876,-0.13695000112056732,-1.4010000228881836,7.300950527191162
1781032235017748700,13.301748779296876,1.3819500207901,-1.6930500268936157,7.317000389099121
1781032235037276700,13.321276611328125,3.6160502433776855,-1.7170500755310059,7.687950134277344
1781032235056804000,13.34080419921875,4.000950336456299,-1.4719500541687012,9.26205062866211
1781032235076329200,13.3603291015625,4.501049995422363,-1.0900501012802124,9.712950706481934
1781032235095853000,13.37985302734375,6.432000160217285,-0.7939500212669373,10.02405071258545
1781032235115378400,13.39937841796875,6.364950180053711,-0.6100500226020813,10.317000389099121
1781032235134904600,13.418904541015625,6.070050239562988,-0.42795002460479736,10.51395034790039
1781032235154437000,13.43843701171875,5.962050437927246,-0.2560500204563141,10.507050514221191
1781032235173967400,13.45796728515625,5.980050086975098,-0.3850500285625458,10.43595027923584
1781032235193488600,13.477488525390624,5.773050308227539,-0.778950035572052,10.13700008392334
1781032235213010400,13.497010498046874,5.466000080108643,-1.1080501079559326,8.401050567626953
1781032235232534300,13.5165341796875,4.978050231933594,-1.3860000371932983,8.361000061035156
1781032235252052500,13.536052490234376,3.469050168991089,-1.4869500398635864,8.380949974060059
1781032235271571700,13.55557177734375,2.931000232696533,-1.3510500192642212,8.33595085144043
1781032235291094500,13.575094482421875,2.436000108718872,-1.2990000247955322,8.440950393676758
1781032235310616600,13.594616455078125,0.42000001668930054,-1.4449501037597656,8.554950714111328
1781032235330139400,13.614139404296875,0.2569500207901001,-1.7130000591278076,8.496000289916992
1781032235349659600,13.63365966796875,0.15300001204013824,-1.9900500774383545,8.35004997253418
1781032235369180700,13.6531806640625,0.09300000220537186,-2.176950216293335,8.088000297546387
1781032235388705000,13.672705078125,0.3960000276565552,-2.2759501934051514,7.801050186157227
1781032235408231400,13.6922314453125,0.817050039768219,-2.4600000381469727,7.53795051574707
1781032235427756800,13.7117568359375,2.3590500354766846,-2.742000102996826,7.272000312805176
1781032235447281000,13.731281005859374,2.8309500217437744,-3.1440000534057617,7.3120503425598145
1781032235466803500,13.750803466796874,4.999050140380859,-3.498000144958496,7.480050563812256
1781032235486327800,13.770327880859375,5.565000057220459,-3.655050277709961,7.729050159454346
1781032235505848600,13.7898486328125,6.175050258636475,-3.850950241088867,7.954950332641602
1781032235525371100,13.80937109375,6.775050163269043,-4.102050304412842,7.82295036315918
1781032235544897300,13.828897216796875,7.192050457000732,-4.377000331878662,7.702950477600098
1781032235564424000,13.848423828125,7.501950263977051,-4.5259504318237305,7.44705057144165
1781032235583951000,13.867951171875,8.010000228881836,-4.527000427246094,7.108050346374512
1781032235603474700,13.887474609375,9.742950439453125,-4.471950054168701,7.048050403594971
1781032235622994400,13.906994384765625,10.138050079345703,-4.336050033569336,7.092000484466553
1781032235642515000,13.926514892578124,10.386000633239746,-4.177950382232666,7.266000270843506
1781032235662041300,13.946041259765625,10.284000396728516,-4.219050407409668,7.525050163269043
1781032235681564200,13.965564208984375,9.778050422668457,-4.3470001220703125,7.549050331115723
1781032235701082400,13.985082275390624,9.226950645446777,-4.482000350952148,7.308000564575195
1781032235720598300,14.004598388671875,8.67495059967041,-4.786050319671631,7.120050430297852
1781032235740114400,14.024114501953125,8.197050094604492,-4.926000118255615,6.97605037689209
1781032235759630000,14.043630126953126,8.056050300598145,-5.029050350189209,6.679050445556641
1781032235779147300,14.063147216796875,8.032950401306152,-5.284950256347656,6.358050346374512
1781032235798667800,14.082667724609376,8.17199993133545,-5.425050258636475,6.154050350189209
1781032235818190600,14.102190673828124,8.380949974060059,-5.305950164794922,6.067950248718262
1781032235837716000,14.121716064453125,8.44005012512207,-5.164050102233887,6.235950469970703
1781032235857236500,14.141236572265624,8.282999992370605,-5.038050174713135,6.493950366973877
1781032235876753200,14.160753173828125,8.005050659179688,-4.855950355529785,6.564000129699707
1781032235896270600,14.1802705078125,7.513950347900391,-4.789950370788574,6.3670501708984375
1781032235915785500,14.199785400390626,7.038000106811523,-4.88700008392334,5.902050495147705
1781032235935302100,14.21930224609375,6.6820502281188965,-4.920000076293945,5.335050106048584
1781032235954818600,14.238818603515625,6.373950481414795,-4.828050136566162,5.038950443267822
1781032235974335200,14.258335205078126,6.352950096130371,-4.6459503173828125,5.260050296783447
1781032235993855000,14.27785498046875,6.490050315856934,-4.278000354766846,7.444050312042236
1781032236013373400,14.29737353515625,6.5620503425598145,-4.065000057220459,7.953000545501709
1781032236032893200,14.31689306640625,6.475950241088867,-4.183950424194336,8.2339506149292
1781032236052418600,14.33641845703125,6.210000514984131,-4.50600004196167,8.391000747680664
1781032236071947800,14.35594775390625,4.326000213623047,-4.70205020904541,8.644950866699219
1781032236091476700,14.375476806640625,4.168950080871582,-4.528050422668457,8.671950340270996
1781032236111005200,14.395005126953125,3.954000234603882,-4.111050128936768,9.001049995422363
1781032236130536400,14.414536376953125,3.4990501403808594,-3.5590500831604004,9.424050331115723
1781032236150069000,14.434069091796875,3.199050188064575,-3.0960001945495605,9.532050132751465
1781032236169599000,14.453598876953125,2.9850001335144043,-2.7739500999450684,9.508950233459473
1781032236189121500,14.47312158203125,3.0180001258850098,-2.6389501094818115,9.496950149536133
1781032236208642000,14.49264208984375,3.2730002403259277,-2.68500018119812,9.372000694274902
1781032236228166100,14.512166259765625,4.939050197601318,-2.596950054168701,9.02595043182373
1781032236247692300,14.5316923828125,5.07705020904541,-2.4570000171661377,8.769000053405762
1781032236267222800,14.551222900390625,4.804050445556641,-2.2800002098083496,8.723999977111816
1781032236286754300,14.57075439453125,4.419000148773193,-1.9260001182556152,8.81100082397461
1781032236306278400,14.5902783203125,4.054049968719482,-1.599000096321106,9
1781032236325798100,14.609798095703125,3.784050226211548,-1.2679500579833984,9.168000221252441
1781032236345320700,14.62932080078125,3.759000062942505,-0.9709500670433044,9.168000221252441
1781032236364846600,14.6488466796875,3.8310000896453857,-0.7860000133514404,9.007050514221191
1781032236384374500,14.66837451171875,3.5809502601623535,-0.6589500308036804,8.997000694274902
1781032236403903200,14.6879033203125,3.3349502086639404,-0.7180500626564026,9.277950286865234
1781032236423427800,14.707427734375,3.2749502658843994,-0.7909500598907471,9.394950866699219
1781032236442951400,14.726951416015625,3.258000135421753,-0.7800000309944153,9.471000671386719
1781032236462476800,14.746476806640626,3.1339502334594727,-0.7669500112533569,9.48900032043457
1781032236482002000,14.766001953125,2.968950033187866,-0.6850500106811523,9.271950721740723
1781032236501528800,14.78552880859375,2.580000162124634,-0.5359500050544739,9.075000762939453
1781032236521056000,14.805055908203125,2.1259500980377197,-0.46605002880096436,8.822999954223633
1781032236540585200,14.824585205078124,1.8679500818252563,-0.49800002574920654,8.513999938964844
1781032236560115500,14.844115478515626,1.5070500373840332,-0.39705002307891846,8.146050453186035
1781032236579643100,14.86364306640625,1.3950001001358032,-0.22005000710487366,7.942950248718262
1781032236599172400,14.88317236328125,1.3810501098632812,-0.13199999928474426,8.0110502243042
1781032236618699300,14.90269921875,1.420050024986267,-0.009000000543892384,8.130000114440918
1781032236638223600,14.9222236328125,1.4689500331878662,0.13905000686645508,8.272050857543945
1781032236657745000,14.941744873046876,1.2229501008987427,0.27195000648498535,8.395950317382812
1781032236677268200,14.961268310546876,0.8620500564575195,0.4069500267505646,8.469000816345215
1781032236696794000,14.980794189453125,0.559950053691864,0.5040000081062317,8.434050559997559
1781032236716317000,15.00031689453125,0.32805001735687256,0.4620000123977661,8.368050575256348
1781032236735840000,15.019840087890625,0.2350500077009201,0.18405000865459442,8.313000679016113
1781032236755367200,15.0393671875,0.2779500186443329,-0.027000000700354576,8.02500057220459
1781032236774892800,15.058892822265625,0.29205000400543213,-0.21495001018047333,7.7910003662109375
1781032236794415000,15.0784150390625,0.3079500198364258,-0.5350500345230103,7.789950370788574
1781032236813938700,15.097938720703125,0.1489500105381012,-0.8179500102996826,7.741950511932373
1781032236833463800,15.1174638671875,0.0690000057220459,-1.1069999933242798,7.615050315856934
1781032236852989000,15.136989013671876,0.12300000339746475,-1.3579500913619995,7.489950180053711
1781032236872513000,15.156512939453124,0.10905000567436218,-1.4359500408172607,7.540050506591797
1781032236892035600,15.17603564453125,0.2530499994754791,-1.4089500904083252,7.70205020904541
1781032236911558700,15.19555859375,0.5959500074386597,-1.3680000305175781,7.930950164794922
1781032236931085000,15.2150849609375,0.820050060749054,-1.3609501123428345,8.290950775146484
1781032236950611200,15.234611083984374,1.2019500732421875,-1.384950041770935,8.54699993133545
1781032236970135300,15.25413525390625,1.6189501285552979,-1.4179500341415405,8.605050086975098
1781032236989657900,15.273657958984375,1.8049501180648804,-1.4520000219345093,8.664000511169434
1781032237009180700,15.2931806640625,1.828950047492981,-1.4050500392913818,8.68005084991455
1781032237028704300,15.312704345703125,1.7740501165390015,-1.3410000801086426,8.557950019836426
1781032237048227600,15.3322275390625,1.7989500761032104,-1.3189500570297241,8.3860502243042
1781032237067752200,15.351752197265625,1.9780501127243042,-1.3459500074386597,8.325000762939453
1781032237087281700,15.37128173828125,2.209050178527832,-1.4940000772476196,8.365950584411621
1781032237106806500,15.390806640625,2.625000238418579,-1.645050048828125,8.45205020904541
1781032237126327000,15.4103271484375,3.046950101852417,-1.6870501041412354,8.62695026397705
1781032237145848000,15.42984814453125,3.184950113296509,-1.7050501108169556,8.887950897216797
1781032237165372400,15.449372314453125,3.120000123977661,-1.7359501123428345,9.13800048828125
1781032237184900400,15.468900390625,2.7199501991271973,-1.7479500770568848,9.2920503616333
1781032237204426200,15.48842626953125,2.1010501384735107,-1.6810500621795654,9.403050422668457
1781032237223948500,15.507948486328125,1.4940000772476196,-1.5120000839233398,9.475050926208496
1781032237243472400,15.527472412109375,1.0720500946044922,-1.3369500637054443,9.415050506591797
1781032237262999800,15.546999755859375,0.7969500422477722,-1.2169500589370728,9.222000122070312
1781032237282525400,15.566525390625,0.6409500241279602,-1.324950098991394,8.974950790405273
1781032237302049800,15.5860498046875,0.5100000500679016,-1.6009501218795776,8.701950073242188
1781032237321579500,15.60557958984375,0.4330500066280365,-1.8829500675201416,8.499000549316406
1781032237341109800,15.62510986328125,0.3660000264644623,-2.218050003051758,8.40195083618164
1781032237360635100,15.64463525390625,0.25005000829696655,-2.499000072479248,8.414999961853027
1781032237380163600,15.66416357421875,0.1660500019788742,-2.719050168991089,8.563950538635254
1781032237399694300,15.6836943359375,0.11595000326633453,-2.9130001068115234,8.67300033569336
1781032237419218700,15.70321875,0.18000000715255737,-2.9569501876831055,8.63895034790039
1781032237438743800,15.722743896484374,0.4420500099658966,-2.7970502376556396,8.542950630187988
1781032237458268700,15.7422685546875,0.7879500389099121,-2.430000066757202,8.431950569152832
1781032237477793300,15.761793212890625,1.1899501085281372,-1.8739501237869263,8.451000213623047
1781032237497316600,15.781316650390625,1.6300500631332397,-1.3290001153945923,8.509050369262695
1781032237516834800,15.800834716796874,2.0269501209259033,-0.895050048828125,8.541000366210938
1781032237536359000,15.82035888671875,2.382000207901001,-0.6019500494003296,8.482950210571289
1781032237555888400,15.839888427734374,2.6740500926971436,-0.43995001912117004,8.326950073242188
1781032237575412700,15.859412841796875,2.877000093460083,-0.3850500285625458,8.292000770568848
1781032237594931500,15.878931396484376,2.9410500526428223,-0.3940500319004059,8.30505084991455
1781032237614452500,15.898452392578125,2.839050054550171,-0.48795002698898315,8.296050071716309
1781032237633969200,15.91796923828125,2.665950059890747,-0.7860000133514404,8.170949935913086
1781032237653487900,15.93748779296875,2.6929500102996826,-1.3129500150680542,7.843950271606445
1781032237673017600,15.957017578125,2.956050157546997,-2.8180501461029053,7.411950588226318
1781032237692546800,15.976546875,3.325050115585327,-2.968950033187866,7.137000560760498
1781032237712073000,15.996072998046875,1.6470000743865967,-2.7720000743865967,6.916950225830078
1781032237731599600,16.015599609375,1.3459500074386597,-2.245950222015381,6.799050331115723
1781032237751123000,16.035123046875,-0.8620500564575195,-1.6750500202178955,6.916950225830078
1781032237770643700,16.054643798828124,-1.3609501123428345,-1.4749500751495361,7.102950572967529
1781032237790169300,16.07416943359375,-1.2460500001907349,-1.7070001363754272,7.428000450134277
1781032237809697500,16.093697509765626,-1.1560500860214233,-2.0970001220703125,7.869000434875488
1781032237829225700,16.113225830078125,-0.8860500454902649,-2.224950075149536,8.143050193786621
1781032237848756000,16.132755859375,0.6589500308036804,-2.047950029373169,8.203949928283691
1781032237868284700,16.15228466796875,0.8329500555992126,-1.738050103187561,8.254050254821777
1781032237887813400,16.1718134765625,0.7660500407218933,-1.4800500869750977,8.16195011138916
1781032237907341300,16.19134130859375,0.3630000054836273,-1.377000093460083,7.8100504875183105
1781032237926860800,16.21086083984375,-0.04905000329017639,-1.5640500783920288,7.255050182342529
1781032237946382800,16.2303828125,-0.37005001306533813,-2.01705002784729,6.895050525665283
1781032237965909800,16.24990966796875,-0.48900002241134644,-2.296950101852417,6.913950443267822
1781032237985434000,16.26943408203125,-0.031050002202391624,-2.2729501724243164,8.688000679016113
1781032238004957700,16.288957763671874,0.361050009727478,-1.9590001106262207,9.148050308227539
1781032238024475100,16.30847509765625,0.6790500283241272,-1.4830501079559326,9.667950630187988
1781032238043988200,16.32798828125,1.231950044631958,-1.2649500370025635,10.045950889587402
1781032238063506000,16.347505859375,1.3519500494003296,-1.4119501113891602,10.045950889587402
1781032238083028200,16.3670283203125,1.2280501127243042,-1.6350001096725464,9.826050758361816
1781032238102548200,16.38654833984375,1.111050009727478,-1.6630500555038452,9.508050918579102
1781032238122067500,16.4060673828125,0.8659500479698181,-1.4659500122070312,9.055950164794922
1781032238141587700,16.425587646484374,0.6919500231742859,-1.158000111579895,8.635950088500977
1781032238161111000,16.445111083984376,0.5869500041007996,-0.8710500597953796,8.431950569152832
1781032238180637700,16.4646376953125,0.47505003213882446,-0.673050045967102,8.380050659179688
1781032238200163600,16.48416357421875,0.19995000958442688,-0.6619500517845154,8.313000679016113
1781032238219689000,16.50368896484375,-0.2350500077009201,-0.7710000276565552,8.379000663757324
1781032238239215000,16.523215087890627,-0.6679500341415405,-0.8869500160217285,8.473050117492676
1781032238258739200,16.5427392578125,-1.1830500364303589,-1.0330500602722168,8.425950050354004
1781032238278262800,16.5622626953125,-1.6090500354766846,-1.0810500383377075,8.302050590515137
1781032238297790500,16.58179052734375,-1.5070500373840332,-1.062000036239624,8.26200008392334
1781032238317320000,16.60131982421875,-1.2370500564575195,-1.0219500064849854,8.28600025177002
1781032238336850000,16.620849853515626,-0.8620500564575195,-0.9180000424385071,8.455950736999512
1781032238356382200,16.64038232421875,-0.24195000529289246,-0.8959500193595886,8.866950035095215
1781032238375911700,16.65991162109375,0.4050000309944153,-1.0300500392913818,9.106950759887695
1781032238395436500,16.6794365234375,2.0680501461029053,-1.2120000123977661,9.147000312805176
1781032238414958000,16.6989580078125,2.493000030517578,-1.3020000457763672,9.103050231933594
1781032238434479000,16.71847900390625,4.105950355529785,-1.3420500755310059,8.974050521850586
1781032238454001000,16.7380009765625,4.3060503005981445,-1.5340501070022583,8.706000328063965
1781032238473523700,16.757523681640624,4.617000102996826,-1.9960501194000244,8.329050064086914
1781032238493044500,16.77704443359375,6.199950218200684,-2.4690001010894775,8.118000030517578
1781032238512568800,16.79656884765625,6.292050361633301,-2.7520501613616943,7.936950206756592
1781032238532098300,16.816098388671875,6.0610504150390625,-2.9250001907348633,7.959000587463379
1781032238551626200,16.835626220703126,5.880000114440918,-3.1519501209259033,8.224950790405273
1781032238571156700,16.85515673828125,5.473050117492676,-3.5149502754211426,8.260950088500977
1781032238590690000,16.87468994140625,5.260950088500977,-3.9310503005981445,8.398050308227539
1781032238610219000,16.894218994140626,6.853950500488281,-4.15500020980835,8.656949996948242
1781032238629746200,16.91374609375,8.713950157165527,-4.071000099182129,8.778000831604004
1781032238649276700,16.933276611328125,9.03795051574707,-3.876000165939331,8.694000244140625
1781032238668806700,16.952806640625,9.637950897216797,-3.775050163269043,8.562000274658203
1781032238688335000,16.972335205078124,10.042950630187988,-3.865950107574463,8.346000671386719
1781032238707857400,16.991857421875,10.087950706481934,-3.882000207901001,7.846050262451172
1781032238727381800,17.0113818359375,9.973950386047363,-4.011000156402588,7.467000484466553
1781032238746908200,17.030908203125,9.439949989318848,-4.401000022888184,7.095000267028809
1781032238766431700,17.050431640625,8.932050704956055,-4.6080002784729,6.5970001220703125
1781032238785958000,17.0699580078125,8.578950881958008,-4.726950168609619,6.237000465393066
1781032238805481200,17.089481201171875,8.36400032043457,-4.7820000648498535,5.952000141143799
1781032238825006300,17.10900634765625,8.428950309753418,-4.7029500007629395,5.731050491333008
1781032238844536800,17.128536865234373,8.37600040435791,-4.546050071716309,5.581050395965576
1781032238864065300,17.148065185546876,8.134050369262695,-4.381050109863281,5.689050197601318
1781032238883592700,17.1675927734375,7.82895040512085,-4.437000274658203,5.9320502281188965
1781032238903118000,17.1871181640625,7.743000507354736,-4.389000415802002,5.920950412750244
1781032238922641700,17.2066416015625,8.010000228881836,-4.293000221252441,5.9760003089904785
1781032238942168300,17.226168212890624,8.28600025177002,-4.35105037689209,6.046050071716309
1781032238961698800,17.24569873046875,8.583000183105469,-4.2900004386901855,5.9160003662109375
1781032238981228500,17.265228515625,8.884950637817383,-4.291050434112549,5.605950355529785
1781032239000751000,17.284751220703125,9.145050048828125,-4.318050384521484,5.127000331878662
1781032239020272400,17.3042724609375,9.448050498962402,-4.105050086975098,4.714950084686279
1781032239039796700,17.323796630859373,9.682950019836426,-3.805950164794922,4.701000213623047
1781032239059322600,17.343322509765624,9.723000526428223,-3.5470502376556396,5.175000190734863
1781032239078847200,17.36284716796875,9.418050765991211,-3.412050247192383,6.654000282287598
1781032239098371800,17.382371826171877,8.949000358581543,-3.42900013923645,7.009950160980225
1781032239117893400,17.401893310546875,8.463000297546387,-3.4579501152038574,7.270050525665283
1781032239137418500,17.42141845703125,6.757050514221191,-3.4069502353668213,7.4569501876831055
1781032239156950500,17.440950439453125,6.735000133514404,-3.3379502296447754,7.570950508117676
1781032239176479000,17.46047900390625,6.639000415802002,-3.369000196456909,7.653000354766846
1781032239196003800,17.48000390625,6.382950305938721,-3.4300501346588135,7.695000171661377
1781032239215531300,17.49953125,6.028050422668457,-3.3919501304626465,7.774050235748291
1781032239235063300,17.519063232421875,5.500050067901611,-3.375000238418579,7.9710001945495605
1781032239254592300,17.53859228515625,5.052000045776367,-3.3030002117156982,8.038050651550293
1781032239274117400,17.558117431640625,4.569000244140625,-3.1470000743865967,8.070000648498535
1781032239293646600,17.577646484375,4.332000255584717,-2.9770500659942627,8.072999954223633
1781032239313180000,17.597179931640625,4.278000354766846,-2.7060000896453857,8.08905029296875
1781032239332708600,17.61670849609375,4.188000202178955,-2.3809502124786377,8.259000778198242
1781032239352236800,17.63623681640625,4.234050273895264,-1.998000144958496,8.5420503616333
1781032239371766800,17.655766845703123,4.450050354003906,-1.5970500707626343,8.785950660705566
1781032239391295700,17.675295654296875,4.641000270843506,-1.2790501117706299,8.935050010681152
1781032239410824400,17.694824462890626,4.695000171661377,-1.1560500860214233,8.9839506149292
1781032239430349800,17.714349853515625,4.4730000495910645,-1.1740500926971436,8.881950378417969
1781032239449875700,17.733875732421875,2.410950183868408,-1.2550500631332397,8.749950408935547
1781032239469404700,17.75340478515625,2.2450501918792725,-1.2630000114440918,8.563050270080566
1781032239488934100,17.77293408203125,1.8400501012802124,-1.152000069618225,8.34000015258789
1781032239508462000,17.792462158203126,1.2060000896453857,-0.8410500288009644,8.064000129699707
1781032239527987000,17.811987060546876,0.895050048828125,-0.44505003094673157,7.845000267028809
1781032239547511600,17.831511474609375,0.7170000076293945,-0.14400000870227814,7.687950134277344
1781032239567037000,17.851036865234374,0.5299500226974487,0.11400000751018524,7.677000522613525
1781032239586562000,17.87056201171875,0.5010000467300415,0.1660500019788742,7.771050453186035
1781032239606089000,17.8900888671875,0.6649500131607056,0.07200000435113907,7.779000282287598
1781032239625613000,17.909613037109374,0.8400000333786011,-0.04605000093579292,7.836000442504883
1781032239645138200,17.92913818359375,0.909000039100647,-0.1189500093460083,7.9200005531311035
1781032239664668000,17.94866796875,1.1610000133514404,-0.20100000500679016,8.079000473022461
1781032239684200200,17.9682001953125,1.2720000743865967,-0.3559500277042389,8.272950172424316
1781032239703730200,17.987730224609376,1.2630000114440918,-0.37605002522468567,8.421000480651855
1781032239723256800,18.0072568359375,1.1839500665664673,-0.2740500271320343,8.60205078125
1781032239742779600,18.026779541015625,1.1509500741958618,-0.20100000500679016,8.789999961853027
1781032239762299100,18.046299072265626,1.2469500303268433,-0.10200000554323196,9.022950172424316
1781032239781818600,18.065818603515623,1.1910001039505005,-0.040950000286102295,9.16200065612793
1781032239801341700,18.085341796875,1.3519500494003296,-0.11205000430345535,9.16200065612793
1781032239820870000,18.104869873046876,1.371000051498413,-0.2440500110387802,9.211950302124023
1781032239840398600,18.124398681640624,1.0920000076293945,-0.33195000886917114,9.31605052947998
1781032239859926000,18.143926025390623,0.8749500513076782,-0.40095001459121704,9.400050163269043
1781032239879454000,18.163453857421874,0.6559500098228455,-0.4410000145435333,9.394050598144531
1781032239898982000,18.18298193359375,0.5359500050544739,-0.45795002579689026,9.457950592041016
1781032239918505000,18.2025048828125,0.4849500358104706,-0.4930500090122223,9.50100040435791
1781032239938025500,18.222025390625,0.41505002975463867,-0.48000001907348633,9.546000480651855
1781032239957546200,18.241546142578127,0.4030500054359436,-0.5029500126838684,9.636000633239746
1781032239977065000,18.26106494140625,0.3630000054836273,-0.5350500345230103,9.558000564575195
1781032239996583200,18.280583251953125,0.20100000500679016,-0.4990500211715698,9.415950775146484
1781032240016102000,18.300101806640626,0.20595000684261322,-0.5509500503540039,9.402000427246094
1781032240035623700,18.319623779296876,0.29295000433921814,-0.6150000095367432,9.414000511169434
1781032240055145500,18.3391455078125,0.39795002341270447,-0.5879999995231628,9.315000534057617
1781032240074667500,18.35866748046875,0.6930000185966492,-0.6310500502586365,9.133950233459473
1781032240094188500,18.3781884765625,0.9739500284194946,-0.8179500102996826,8.830050468444824
1781032240113709600,18.39770947265625,0.9109500646591187,-1.0309500694274902,8.47800064086914
1781032240133233200,18.417233154296873,0.6930000185966492,-1.3050000667572021,8.19795036315918
1781032240152760300,18.43676025390625,0.4900500178337097,-1.6320000886917114,8.10105037689209
1781032240172287200,18.456287353515624,0.2639999985694885,-1.9200000762939453,8.188050270080566
1781032240191810600,18.475810546875,0.2659500241279602,-2.1570000648498535,8.266950607299805
1781032240211336400,18.49533642578125,0.4230000078678131,-2.344050168991089,8.359050750732422
1781032240230860800,18.51486083984375,0.4459500312805176,-2.4690001010894775,8.437950134277344
1781032240250381000,18.534381103515624,0.3850500285625458,-2.5600500106811523,8.500950813293457
1781032240269900500,18.553900634765625,0.3910500109195709,-2.6860501766204834,8.641950607299805
1781032240289419000,18.5734189453125,0.44505003094673157,-2.8939502239227295,8.788050651550293
1781032240308939800,18.592939697265624,0.5149500370025635,-3.1060502529144287,8.89995002746582
1781032240328459500,18.61245947265625,0.534000039100647,-3.261000156402588,8.914050102233887
1781032240347976700,18.631976806640626,0.364950031042099,-3.349950075149536,8.78700065612793
1781032240367498800,18.651498779296876,-0.0880500078201294,-3.3160500526428223,8.68005084991455
1781032240387026200,18.671026123046875,-0.5419500470161438,-3.192000150680542,8.57295036315918
1781032240406552800,18.690552734375,-0.7710000276565552,-3.061950206756592,8.52405071258545
1781032240426071800,18.71007177734375,-0.7699500322341919,-2.971950054168701,8.571000099182129
1781032240445592600,18.729592529296873,-0.5040000081062317,-2.899050235748291,8.586000442504883
1781032240465118500,18.749118408203124,-0.1099500060081482,-2.836050033569336,8.629950523376465
1781032240484642000,18.76864208984375,0.1789500117301941,-2.7019500732421875,8.617050170898438
1781032240504168000,18.78816796875,0.364950031042099,-2.479950189590454,8.557950019836426
1781032240523696000,18.807696044921876,0.5899500250816345,-2.2039501667022705,8.476950645446777
1781032240543219500,18.827219482421874,0.8149500489234924,-1.915950059890747,8.403000831604004
1781032240562740700,18.84674072265625,1.0230000019073486,-1.6470000743865967,8.346000671386719
1781032240582260700,18.8662607421875,1.3069500923156738,-1.3900500535964966,8.36205005645752
1781032240601784800,18.885784912109376,1.636950135231018,-1.1959500312805176,8.410950660705566
1781032240621312000,18.90531201171875,1.9489500522613525,-1.0080000162124634,8.370000839233398
1781032240640835600,18.924835693359373,2.2129499912261963,-0.9450000524520874,8.338950157165527
1781032240660360400,18.9443603515625,2.359950065612793,-1.0849500894546509,8.268000602722168
1781032240679885300,18.96388525390625,2.433000087738037,-1.3570500612258911,8.14995002746582
1781032240699406300,18.98340625,2.4660000801086426,-1.7790000438690186,8.119050025939941
1781032240718926600,19.002926513671873,2.455050230026245,-2.2260000705718994,8.151000022888184
1781032240738450000,19.022449951171875,2.305950164794922,-2.6359500885009766,8.22705078125
1781032240757977300,19.041977294921875,2.0530500411987305,-2.997000217437744,8.367000579833984
1781032240777507600,19.061507568359374,1.714050054550171,-3.268050193786621,8.491050720214844
1781032240797032200,19.0810322265625,1.3099501132965088,-3.484950065612793,8.6089506149292
1781032240816552200,19.10055224609375,1.0180500745773315,-3.6030001640319824,8.721000671386719
1781032240836074500,19.120074462890624,0.7920000553131104,-3.630000114440918,8.791950225830078
1781032240855598800,19.139598876953126,0.6180000305175781,-3.5839502811431885,8.806950569152832
1781032240875123200,19.159123291015625,0.5100000500679016,-3.4230000972747803,8.731950759887695
1781032240894650400,19.178650390625,0.35100001096725464,-3.169950246810913,8.554950714111328
1781032240914177500,19.198177490234375,0.0799500048160553,-2.914950132369995,8.317950248718262
1781032240933701000,19.217701171875,-0.1489500105381012,-2.7340500354766846,8.148000717163086
1781032240953228500,19.237228515625,-0.24900001287460327,-2.6140501499176025,8.170949935913086
1781032240972759300,19.25675927734375,0.06599999964237213,-2.545950174331665,8.282999992370605
1781032240992286200,19.2762861328125,1.6750500202178955,-2.5909500122070312,8.380949974060059
1781032241011813000,19.295813232421875,2.0970001220703125,-2.8090500831604004,8.368050575256348
1781032241031344600,19.3153447265625,2.4660000801086426,-2.983950138092041,8.187000274658203
1781032241050876700,19.334876708984375,2.482950210571289,-3.003000259399414,7.975950241088867
1781032241070403800,19.35440380859375,2.1640501022338867,-2.817000150680542,7.848000526428223
1781032241089928000,19.373927978515624,1.8739501237869263,-2.4280500411987305,7.79295015335083
1781032241109452500,19.39345263671875,1.4940000772476196,-2.0710501670837402,7.813950538635254
1781032241128981800,19.412981689453126,1.144950032234192,-1.8760501146316528,7.921950340270996
1781032241148510500,19.432510498046874,0.7999500632286072,-1.8220500946044922,7.890000343322754
1781032241168038400,19.452038330078125,0.4540500342845917,-1.8880500793457031,7.69605016708374
1781032241187571000,19.471571044921873,0.2659500241279602,-2.053950071334839,7.422000408172607
1781032241207100200,19.49110009765625,0.18105000257492065,-2.193000078201294,7.231050491333008
1781032241226624000,19.5106240234375,0.14505000412464142,-2.329050064086914,7.278000354766846
1781032241246147300,19.530147216796873,0.08595000207424164,-2.3650500774383545,7.437000274658203
1781032241265674500,19.549674560546876,-0.08400000631809235,-2.2770001888275146,7.648950576782227
1781032241285205200,19.569205322265624,-0.4600500166416168,-2.1940500736236572,7.762050151824951
1781032241304732700,19.588732666015623,-0.7500000596046448,-1.9960501194000244,7.719000339508057
1781032241324257500,19.608257568359374,-0.8650500178337097,-1.7389501333236694,7.768050193786621
1781032241343784700,19.62778466796875,-0.7519500255584717,-1.5139501094818115,7.738950252532959
1781032241363313700,19.647313720703124,-0.6619500517845154,-1.3999500274658203,7.599000453948975
1781032241382835000,19.6668349609375,-0.859950065612793,-1.453950047492981,7.510950565338135
1781032241402360300,19.6863603515625,-1.215000033378601,-1.5100500583648682,7.455000400543213
1781032241421891600,19.7058916015625,-1.6390501260757446,-1.5750000476837158,7.4920501708984375
1781032241441421300,19.72542138671875,-2.076000213623047,-1.7530500888824463,7.567050457000732
1781032241460949200,19.74494921875,-2.259000062942505,-2.0059502124786377,7.705050468444824
1781032241480470500,19.764470458984373,-2.233950138092041,-2.3449501991271973,8.044050216674805
1781032241499993000,19.7839931640625,-2.184000015258789,-2.632050037384033,8.509950637817383
1781032241519520300,19.803520263671874,-0.43995001912117004,-2.671950101852417,8.848050117492676
1781032241539045600,19.823045654296877,-0.09105000644922256,-2.5920000076293945,9.250950813293457
1781032241558568400,19.842568359375,0.3130500018596649,-2.4910500049591064,9.448050498962402
1781032241578094800,19.8620947265625,0.7399500608444214,-2.3460001945495605,9.36405086517334
1781032241597621800,19.881621826171877,1.0939500331878662,-2.209050178527832,9.618000030517578
1781032241617146600,19.901146728515624,1.3980001211166382,-2.0880000591278076,9.891000747680664
1781032241636673300,19.92067333984375,1.537950038909912,-1.9750500917434692,10.012950897216797
1781032241656200200,19.9402001953125,1.6950000524520874,-1.8829500675201416,10.015950202941895
1781032241675725300,19.959725341796876,1.8850500583648682,-1.7910001277923584,9.594000816345215
1781032241695248600,19.97924853515625,1.9350000619888306,-1.6800000667572021,9.153000831604004
1781032241714774300,19.998774169921877,2.089050054550171,-1.5220500230789185,8.86500072479248
1781032241734302200,20.01830224609375,2.1910500526428223,-1.4080500602722168,8.635050773620605
1781032241753825800,20.03782568359375,2.1670501232147217,-1.4080500602722168,8.752050399780273
1781032241773351400,20.057351318359373,1.9500000476837158,-1.4749500751495361,8.806050300598145
1781032241792878600,20.076878662109376,1.4089500904083252,-1.6150500774383545,8.697000503540039
1781032241812403200,20.0964033203125,0.8560500144958496,-1.7680500745773315,8.716950416564941
1781032241831930000,20.11593017578125,0.625950038433075,-1.8780001401901245,8.788050651550293
1781032241851457500,20.13545751953125,0.8700000643730164,-1.9669500589370728,9.072000503540039
1781032241870985200,20.154985107421876,2.791950225830078,-1.9609501361846924,9.487950325012207
1781032241890515000,20.174514892578124,3.3199501037597656,-2.02305006980896,9.922950744628906
1781032241910043000,20.19404296875,3.507000207901001,-2.3530499935150146,10.176000595092773
1781032241929568300,20.213568359375,3.3760502338409424,-2.860950231552124,10.19895076751709
1781032241949095000,20.233094970703124,3.315000057220459,-3.4650001525878906,10.1089506149292
1781032241968623000,20.252623046875,2.8279502391815186,-4.110000133514404,9.856050491333008
1781032241988150000,20.27214990234375,2.5920000076293945,-4.567049980163574,9.57705020904541
1781032242007677700,20.291677734375,2.8219501972198486,-4.779000282287598,9.277050018310547
1781032242027204600,20.31120458984375,3.3700501918792725,-4.936950206756592,8.982000350952148
1781032242046730200,20.330730224609376,5.0209503173828125,-4.969050407409668,8.881950378417969
1781032242066257000,20.3502568359375,5.317950248718262,-4.807950019836426,8.674050331115723
1781032242085783600,20.369783447265625,5.677950382232666,-4.522050380706787,8.368950843811035
1781032242105308200,20.38930810546875,5.764950275421143,-4.180950164794922,8.191950798034668
1781032242124834000,20.408833984375,5.47605037689209,-3.991950273513794,7.947000503540039
1781032242144360400,20.4283603515625,5.1660003662109375,-4.108050346374512,7.7989501953125
1781032242163890000,20.447889892578125,5.148000240325928,-4.2460503578186035,7.61400032043457
1781032242183425000,20.467425048828126,5.47605037689209,-4.240050315856934,7.293000221252441
1781032242202956500,20.48695654296875,7.311000347137451,-4.234950065612793,7.045050144195557
1781032242222484500,20.506484375,7.9069504737854,-4.300050258636475,6.736950397491455
1781032242242009300,20.52600927734375,8.116050720214844,-4.690950393676758,6.294000148773193
1781032242261532700,20.54553271484375,8.22705078125,-6.355050086975098,6.094050407409668
1781032242281058600,20.56505859375,8.308950424194336,-6.520050525665283,6.216000080108643
1781032242300583000,20.5845830078125,8.460000038146973,-6.712050437927246,6.559950351715088
1781032242320112000,20.604112060546875,8.66295051574707,-6.856950283050537,7.027950286865234
1781032242339644000,20.623643798828127,8.779050827026367,-6.933000564575195,7.252950191497803
1781032242359169300,20.643169189453126,8.805000305175781,-6.891000270843506,7.135050296783447
1781032242378694400,20.6626943359375,8.67495059967041,-6.760950088500977,6.910050392150879
1781032242398219000,20.682218994140626,8.36205005645752,-6.59505033493042,6.7009501457214355
1781032242417745400,20.701745361328125,7.848000526428223,-6.345000267028809,6.441000461578369
1781032242437270500,20.7212705078125,6.205050468444824,-6.003000259399414,6.217050075531006
1781032242456794400,20.74079443359375,5.767950057983398,-5.698050498962402,6.013050079345703
1781032242476319000,20.760319091796877,4.114950180053711,-5.494050025939941,5.9569501876831055
1781032242495842600,20.779842529296875,3.6640501022338867,-5.377950191497803,6.112950325012207
1781032242515367700,20.79936767578125,3.4240500926971436,-5.319000244140625,6.198000431060791
1781032242534894300,20.818894287109377,3.8310000896453857,-5.205000400543213,6.183000087738037
1781032242554417700,20.838417724609375,5.512050151824951,-4.906050205230713,6.1080002784729
1781032242573940000,20.85793994140625,5.707950115203857,-4.647000312805176,6.139950275421143
1781032242593461500,20.87746142578125,5.785050392150879,-4.462950229644775,6.414000511169434
1781032242612981000,20.89698095703125,5.451000213623047,-4.228050231933594,6.936000347137451
1781032242632501500,20.91650146484375,5.047950267791748,-4.052999973297119,8.520000457763672
1781032242652024600,20.936024658203124,4.609050273895264,-3.9460501670837402,10.294950485229492
1781032242671547000,20.955546875,4.396049976348877,-3.7789502143859863,10.519950866699219
1781032242691064300,20.975064208984374,4.617000102996826,-3.5530502796173096,10.81605052947998
1781032242710585300,20.99458544921875,5.172000408172607,-3.412050247192383,10.975050926208496
1781032242730108700,21.014108642578126,5.748000144958496,-3.2970001697540283,10.816950798034668
1781032242749630000,21.0336298828125,5.890050411224365,-3.232950210571289,10.518000602722168
1781032242769146400,21.053146484375,5.403000354766846,-3.4020001888275146,10.080000877380371
1781032242788665900,21.072665771484374,3.8149502277374268,-3.7510502338409424,8.479050636291504
1781032242808191200,21.092191162109376,3.375000238418579,-4.050000190734863,8.06100082397461
1781032242827711200,21.111711181640626,2.7799501419067383,-4.204950332641602,7.491000175476074
1781032242847234600,21.131234619140624,2.307000160217285,-4.0320000648498535,7.0759501457214355
1781032242866764500,21.1507646484375,2.1880500316619873,-2.0620501041412354,6.859950542449951
1781032242886293800,21.170293701171875,2.158050060272217,-1.662000060081482,6.928950309753418
1781032242905821000,21.189821044921874,1.8850500583648682,-1.1359500885009766,7.123050212860107
1781032242925352700,21.209352783203126,1.5840001106262207,-0.6060000061988831,7.407000541687012
1781032242944887600,21.228887451171875,-0.40605002641677856,-0.23205001652240753,7.630950450897217
1781032242964417300,21.248417236328127,-0.6810000538825989,-0.06105000153183937,7.870050430297852
1781032242983943000,21.26794287109375,-0.778950035572052,0.0019500000635161996,8.019000053405762
1781032243003469300,21.28746923828125,-0.7740000486373901,0.04005000367760658,8.098050117492676
1781032243023001000,21.3070009765625,-0.7680000066757202,-0.08400000631809235,8.569950103759766
1781032243042531300,21.32653125,-0.361050009727478,-0.33705002069473267,8.923050880432129
1781032243062053000,21.34605322265625,1.3810501098632812,-0.6460500359535217,9.098999977111816
1781032243081575000,21.365574951171876,1.5139501094818115,-1.0279500484466553,9.241050720214844
1781032243101097700,21.38509765625,1.8820500373840332,-1.3140000104904175,9.117000579833984
1781032243120625400,21.40462548828125,2.0910000801086426,-1.492050051689148,9.096000671386719
1781032243140146700,21.424146728515623,1.9120501279830933,-1.7130000591278076,9.18600082397461
1781032243159660800,21.443660888671875,2.1319501399993896,-1.918950080871582,9.109950065612793
1781032243179187700,21.463187744140626,2.2609500885009766,-2.07705020904541,9.130050659179688
1781032243198717200,21.48271728515625,1.9459501504898071,-2.0590500831604004,9.333000183105469
1781032243218239500,21.502239501953124,1.752000093460083,-1.759950041770935,9.472050666809082
1781032243237759000,21.521759033203125,1.5660001039505005,-1.4050500392913818,9.793050765991211
1781032243257281000,21.541281005859375,1.3900500535964966,-1.168950080871582,10.113000869750977
1781032243276808700,21.56080859375,1.3140000104904175,-0.9139500260353088,10.189050674438477
1781032243296331000,21.5803310546875,0.922950029373169,-0.700950026512146,10.42905044555664
1781032243315854000,21.59985400390625,0.4330500066280365,-0.5500500202178955,10.519050598144531
1781032243335380200,21.619380126953125,0.13395000994205475,-0.3739500045776367,10.176000595092773
1781032243354901500,21.638901611328127,-0.07500000298023224,-0.37800002098083496,9.861000061035156
1781032243374424000,21.658424072265625,-0.09195000678300858,-0.5209500193595886,9.442049980163574
1781032243393944000,21.677944091796874,-0.046950001269578934,-0.6469500064849854,8.953950881958008
1781032243413464600,21.697464599609376,-0.037950001657009125,-0.7930500507354736,8.539950370788574
1781032243432988700,21.71698876953125,0.11100000888109207,-1.0350000858306885,8.260950088500977
1781032243452509700,21.736509765625,0.11400000751018524,-1.2559500932693481,8.10300064086914
1781032243472029200,21.756029296875,-0.0799500048160553,-1.3819500207901,7.984950542449951
1781032243491552000,21.775552001953123,-0.2550000250339508,-1.3300501108169556,7.8510003089904785
1781032243511079700,21.79507958984375,-0.4339500069618225,-1.180050015449524,7.797000408172607
1781032243530604300,21.814604248046876,-0.5899500250816345,-1.1059499979019165,7.8949503898620605
1781032243550125000,21.834125,-0.5299500226974487,-1.1269500255584717,8.074950218200684
1781032243569649400,21.8536494140625,-0.4549500346183777,-1.1809500455856323,8.355000495910645
1781032243589175600,21.873175537109375,-0.4159500300884247,-1.2030000686645508,8.571000099182129
1781032243608698400,21.892698486328126,-0.16305001080036163,-1.0399500131607056,8.736000061035156
1781032243628220200,21.91222021484375,0.013050000183284283,-0.8209500312805176,9.016950607299805
1781032243647744500,21.93174462890625,0.26100000739097595,-0.7279500365257263,9.339000701904297
1781032243667268600,21.9512685546875,0.6409500241279602,-0.6810000538825989,9.481950759887695
1781032243686795000,21.970794921875,1.1010000705718994,-0.781950056552887,9.45300006866455
1781032243706322000,21.990322021484374,1.5810000896453857,-1.0210500955581665,9.292950630187988
1781032243725847300,22.009847412109377,1.9390500783920288,-1.2850500345230103,9.04800033569336
1781032243745373400,22.02937353515625,2.203050136566162,-1.5490500926971436,8.824950218200684
1781032243764898000,22.04889794921875,2.3449501991271973,-1.7209501266479492,8.575950622558594
1781032243784422000,22.068421875,2.3710501194000244,-1.8390001058578491,8.404050827026367
1781032243803943700,22.087943603515626,2.3680500984191895,-1.9590001106262207,8.414999961853027
1781032243823466200,22.10746630859375,2.39205002784729,-2.0880000591278076,8.509950637817383
1781032243842995000,22.126994873046876,2.356950044631958,-2.2390501499176025,8.676000595092773
1781032243862522400,22.1465224609375,2.190000057220459,-2.356950044631958,8.920050621032715
1781032243882049000,22.166049072265626,1.88100004196167,-2.350950002670288,9.117000579833984
1781032243901575400,22.185575439453125,1.546950101852417,-2.2900500297546387,9.253950119018555
1781032243921101000,22.20510107421875,1.1850000619888306,-2.259000062942505,9.348000526428223
1781032243940628700,22.224628662109374,0.7950000166893005,-2.2320001125335693,9.292950630187988
1781032243960151800,22.24415185546875,0.3349500298500061,-2.2860000133514404,9.115950584411621
1781032243979675600,22.263675537109375,-0.1870500147342682,-2.3740501403808594,8.857050895690918
1781032243999204000,22.2832041015625,-0.7120500206947327,-2.427000045776367,8.479050636291504
1781032244018731800,22.302731689453125,-1.1539500951766968,-2.5489501953125,8.145000457763672
1781032244038256600,22.322256591796876,-1.4730000495910645,-2.6710500717163086,7.897950172424316
1781032244057779500,22.341779541015626,-1.633950114250183,-2.7370500564575195,7.699050426483154
1781032244077303000,22.361302978515624,-1.5690001249313354,-2.839050054550171,7.64400053024292
1781032244096827400,22.380827392578126,-1.2220500707626343,-2.9260501861572266,7.687950134277344
1781032244116355800,22.40035595703125,-0.6439500451087952,-2.9440500736236572,7.735950469970703
1781032244135883000,22.419883056640625,1.051050066947937,-2.977950096130371,7.7989501953125
1781032244155406800,22.43940673828125,1.3030500411987305,-2.974950075149536,7.887000560760498
1781032244174931000,22.458930908203126,1.7020500898361206,-2.854950189590454,7.92495059967041
1781032244194455300,22.478455322265624,2.1259500980377197,-2.650050163269043,7.929000377655029
1781032244213980700,22.497980712890627,2.5660500526428223,-2.373000144958496,7.918050289154053
1781032244233506000,22.517506103515625,3.0049500465393066,-2.013000011444092,7.873050212860107
1781032244253033200,22.537033203125,3.450000047683716,-1.7500500679016113,7.8600006103515625
1781032244272563000,22.55656298828125,3.882000207901001,-1.636950135231018,7.951950550079346
1781032244292090400,22.57609033203125,4.2709503173828125,-1.6090500354766846,8.107950210571289
1781032244311615200,22.595615234375,4.570950031280518,-1.7149500846862793,8.338950157165527
1781032244331140900,22.615140869140625,4.756050109863281,-1.8169500827789307,8.616000175476074
1781032244350668300,22.634668212890624,4.914000034332275,-1.8469500541687012,8.779950141906738
1781032244370193700,22.654193603515626,5.0809502601623535,-1.8340500593185425,8.697000503540039
1781032244389715700,22.6737158203125,4.903950214385986,-1.752000093460083,8.593050003051758
1781032244409241300,22.693241455078127,4.630950450897217,-1.6549500226974487,8.505000114440918
1781032244428766700,22.7127666015625,4.249050140380859,-1.5070500373840332,8.379000663757324
1781032244448295400,22.73229541015625,3.6010501384735107,-1.3780500888824463,8.350950241088867
1781032244467824400,22.751824462890625,2.9770500659942627,-1.3830000162124634,8.355000495910645
1781032244487350500,22.7713505859375,1.2439500093460083,-1.4740500450134277,8.343000411987305
1781032244506876200,22.790876220703126,1.055999994277954,-1.7149500846862793,8.356050491333008
1781032244526399000,22.81039892578125,0.8179500102996826,-2.0209500789642334,8.36205005645752
1781032244545921300,22.82992138671875,0.41805002093315125,-2.266050100326538,8.365050315856934
1781032244565443300,22.849443359375,-0.12600000202655792,-2.4600000381469727,8.239950180053711
1781032244584967000,22.868966796875,-0.6850500106811523,-2.5830001831054688,8.074950218200684
1781032244604493300,22.888493408203125,-1.3189500570297241,-2.6640000343322754,7.999050617218018
1781032244624018400,22.908018310546876,-1.9180500507354736,-2.710050106048584,7.836000442504883
1781032244643541200,22.927541259765626,-2.2680001258850098,-2.614950180053711,7.669050216674805
1781032244663065900,22.94706591796875,-2.4460501670837402,-2.4810001850128174,7.6080002784729
1781032244682589700,22.966589599609375,-2.386050224304199,-2.335050106048584,7.639950275421143
1781032244692350700,22.976350830078125,-2.206050157546997,-2.247000217437744,7.657950401306152
1781032244702113300,22.98611328125,-1.927950143814087,-2.176950216293335,7.675950527191162
1781032244721637400,23.005637451171875,-1.4299501180648804,-2.0880000591278076,7.660050392150879
1781032244741162000,23.025161865234374,-1.01295006275177,-2.01104998588562,7.65000057220459
1781032244760688000,23.044688232421876,-0.6850500106811523,-1.9240500926971436,7.522950172424316
1781032244780211500,23.06421142578125,-0.5530500411987305,-1.821000099182129,7.422000408172607
1781032244799737900,23.08373779296875,-0.44505003094673157,-1.6549500226974487,7.557000160217285
1781032244819268600,23.1032685546875,-0.36900001764297485,-1.432050108909607,7.747950553894043
1781032244838798600,23.122798583984373,-0.3049500286579132,-1.2250500917434692,7.939950466156006
1781032244858329300,23.142329345703125,-0.15495000779628754,-0.9940500259399414,8.044950485229492
1781032244877859600,23.161859619140625,-0.11505000293254852,-0.859950065612793,8.105999946594238
1781032244897387000,23.181386962890624,-0.10200000554323196,-0.8650500178337097,8.224050521850586
1781032244916913700,23.20091357421875,-0.07800000160932541,-0.9709500670433044,8.374950408935547
1781032244936437500,23.2204375,0.04305000230669975,-1.201050043106079,8.530950546264648
1781032244955962600,23.239962646484376,0.17805001139640808,-1.4550000429153442,8.671050071716309
1781032244975484700,23.259484619140625,0.40800002217292786,-1.5829501152038574,8.7610502243042
1781032244995007500,23.279007568359376,0.906000018119812,-1.5310500860214233,8.680950164794922
1781032245014534100,23.2985341796875,1.2000000476837158,-1.3129500150680542,8.480999946594238
1781032245034059500,23.3180595703125,1.6300500631332397,-1.0219500064849854,8.110050201416016
1781032245053584000,23.337583984375,3.0079500675201416,-0.7639500498771667,7.773000240325928
1781032245073110800,23.35711083984375,3.0430500507354736,-0.5509500503540039,7.70805025100708
1781032245092642000,23.37664208984375,3.1900501251220703,-0.37605002522468567,7.863000392913818
1781032245112173300,23.39617333984375,3.175950050354004,-0.18105000257492065,8.230950355529785
1781032245131707600,23.415707763671875,2.9740500450134277,-0.05205000191926956,8.652000427246094
1781032245151239700,23.43523974609375,2.8690500259399414,-0.0010500000789761543,8.929950714111328
1781032245170767600,23.454767578125,2.746950149536133,-0.13095000386238098,9.061050415039062
1781032245190296300,23.47429638671875,2.6130001544952393,-0.4350000321865082,9.079950332641602
1781032245209823700,23.49382373046875,2.5470001697540283,-0.7129500508308411,9.225000381469727
1781032245229346800,23.513346923828124,2.5290000438690186,-0.9439500570297241,9.559050559997559
1781032245248873200,23.532873291015626,2.6890501976013184,-1.1670000553131104,9.646050453186035
1781032245268403500,23.552403564453126,2.8789501190185547,-1.453950047492981,9.372000694274902
1781032245287934700,23.571934814453126,2.9010000228881836,-1.7779500484466553,9.091050148010254
1781032245307460900,23.5914609375,2.7870001792907715,-2.0809500217437744,9.051000595092773
1781032245326983700,23.610983642578127,2.760000228881836,-2.275050163269043,9.180000305175781
1781032245346510000,23.630510009765626,3.0169501304626465,-2.4679501056671143,9.421050071716309
1781032245366033200,23.650033203125,3.576000213623047,-2.8429501056671143,9.640950202941895
1781032245385554700,23.6695546875,5.035950183868408,-3.1459500789642334,9.871950149536133
1781032245405083000,23.689082763671873,5.317950248718262,-3.2730002403259277,10.23705005645752
1781032245424615400,23.708615478515625,5.886000156402588,-3.466050148010254,10.693950653076172
1781032245444148000,23.72814794921875,6.3760504722595215,-3.6540002822875977,10.873950958251953
1781032245463674400,23.74767431640625,6.5460004806518555,-3.5880000591278076,10.756950378417969
1781032245483196200,23.767196044921874,6.436950206756592,-3.3730502128601074,10.741050720214844
1781032245502713900,23.7867138671875,4.825050354003906,-2.9880001544952393,10.70895004272461
1781032245522233900,23.80623388671875,4.495050430297852,-2.7810001373291016,10.645950317382812
1781032245541759500,23.825759521484375,3.9970502853393555,-3.0810000896453857,10.37700080871582
1781032245561286000,23.845285888671874,3.703050136566162,-3.5490002632141113,10.011000633239746
1781032245580808700,23.86480859375,3.6850502490997314,-3.9720001220703125,9.88800048828125
1781032245600329500,23.88432958984375,4.012950420379639,-4.123950004577637,9.729000091552734
1781032245619851300,23.903851318359376,5.880000114440918,-4.1610002517700195,9.285000801086426
1781032245639371500,23.92337158203125,6.076050281524658,-4.275000095367432,8.778000831604004
1781032245658892800,23.942892822265627,6.270000457763672,-4.2330002784729,8.383049964904785
1781032245678416000,23.962415771484373,6.025050163269043,-3.9250502586364746,8.32800006866455
1781032245697938200,23.981938232421875,4.584000110626221,-3.520050048828125,8.419050216674805
1781032245717457200,24.00145703125,4.573950290679932,-3.2560501098632812,8.505000114440918
1781032245736979500,24.0209794921875,4.549950122833252,-3.145050048828125,8.401050567626953
1781032245756504000,24.040504150390625,4.972050189971924,-3.1369502544403076,8.086050033569336
1781032245776020000,24.06002001953125,7.105050563812256,-3.2089500427246094,7.924050331115723
1781032245795533600,24.079533447265625,7.510050296783447,-3.1900501251220703,7.785000324249268
1781032245815050800,24.09905078125,7.9360504150390625,-3.1110000610351562,7.789950370788574
1781032245834572300,24.118572265625,7.947000503540039,-3.0979502201080322,8.067000389099121
1781032245854094300,24.13809423828125,7.531050205230713,-3.0949501991271973,8.563950538635254
1781032245873615600,24.15761572265625,5.742000102996826,-2.9509501457214355,9.097050666809082
1781032245893140000,24.177139892578126,5.439000129699707,-2.7150001525878906,9.391050338745117
1781032245912660500,24.196660400390623,5.095950126647949,-2.4240000247955322,9.366000175476074
1781032245932181500,24.216181396484377,4.828050136566162,-2.0839500427246094,9.289950370788574
1781032245951702300,24.235702392578126,4.4509501457214355,-1.7389501333236694,9.211050033569336
1781032245971223000,24.25522314453125,4.323000431060791,-1.4149500131607056,9.211950302124023
1781032245990749200,24.274749267578127,4.162950038909912,-1.114050030708313,9.298050880432129
1781032246010273800,24.294273681640625,3.6499502658843994,-0.7909500598907471,9.300000190734863
1781032246029797000,24.313797119140624,3.2310001850128174,-0.6199500560760498,9.106950759887695
1781032246049322000,24.333322021484374,2.9350502490997314,-0.6060000061988831,8.712000846862793
1781032246068838400,24.35283837890625,2.776050090789795,-0.8089500665664673,8.425050735473633
1781032246088353300,24.372353271484375,2.6950502395629883,-1.0879501104354858,8.407050132751465
1781032246107874800,24.391874755859376,2.5639500617980957,-1.0920000076293945,8.625
1781032246127394600,24.41139453125,2.3959500789642334,-1.0180500745773315,9.20205020904541
1781032246146915000,24.4309150390625,2.11395001411438,-0.7870500087738037,9.760050773620605
1781032246166440000,24.45043994140625,2.0380501747131348,-0.4020000100135803,10.128000259399414
1781032246185962000,24.4699619140625,2.0080502033233643,-0.26100000739097595,10.503000259399414
1781032246205483300,24.489483154296874,2.0310001373291016,-0.29295000433921814,10.722000122070312
1781032246225010000,24.509010009765625,2.1250500679016113,-0.19995000958442688,10.576050758361816
1781032246244534500,24.528534423828123,2.16795015335083,-0.19200000166893005,10.338000297546387
1781032246264054000,24.548053955078124,2.272050142288208,-0.40905001759529114,10.092000007629395
1781032246283572200,24.567572265625,2.1760501861572266,-0.5910000205039978,9.712950706481934
1781032246303086800,24.5870869140625,1.9390500783920288,-0.7639500498771667,9.322050094604492
1781032246322602500,24.6066025390625,2.0160000324249268,-0.9910500645637512,9.046050071716309
1781032246342120700,24.62612060546875,2.115000009536743,-0.999000072479248,8.89905071258545
1781032246361641700,24.645641845703125,2.2360501289367676,-0.7920000553131104,8.826000213623047
1781032246381167600,24.665167724609375,2.3809502124786377,-0.5070000290870667,8.857050895690918
1781032246400692700,24.684692626953126,2.2890000343322754,-0.19305001199245453,8.890050888061523
1781032246420216800,24.704216796875,2.227950096130371,0.04800000041723251,8.9239501953125
1781032246439741700,24.72374169921875,2.1060001850128174,0.23895001411437988,8.880000114440918
1781032246459265300,24.743265380859373,1.974000096321106,0.41505002975463867,8.707950592041016
1781032246478786600,24.76278662109375,1.8060001134872437,0.5650500059127808,8.467950820922852
1781032246498311000,24.782310791015625,1.5360000133514404,0.6859500408172607,8.182050704956055
1781032246517834000,24.801833984375,1.3890000581741333,0.7660500407218933,7.921050548553467
1781032246537353200,24.821353271484377,1.2570000886917114,0.8130000233650208,7.798050403594971
1781032246556879400,24.84087939453125,1.111050009727478,0.7699500322341919,7.761000156402588
1781032246576411400,24.860411376953124,0.9280500411987305,0.7309500575065613,7.678050518035889
1781032246595936500,24.8799365234375,0.7459500432014465,0.6619500517845154,7.689000129699707
1781032246615457300,24.899457275390624,0.8520000576972961,0.42795002460479736,7.812000274658203
1781032246634981600,24.918981689453126,0.8940000534057617,0.30300000309944153,7.879050254821777
1781032246654505200,24.938505126953125,0.8460000157356262,0.16305001080036163,8.157000541687012
1781032246674029600,24.958029541015627,0.8050500154495239,-0.015000000596046448,8.505000114440918
1781032246693551400,24.97755126953125,0.7609500288963318,-0.13500000536441803,8.896050453186035
1781032246713066200,24.997066162109373,0.970050036907196,-0.30300000309944153,9.351000785827637
1781032246732587000,25.0165869140625,1.384950041770935,-0.37995001673698425,9.540000915527344
1781032246752113200,25.036113037109374,1.7860500812530518,-0.42900002002716064,9.459000587463379
1781032246771638800,25.055638671875,1.8829500675201416,-0.4639500081539154,9.271950721740723
1781032246791159600,25.07515966796875,1.8460501432418823,-0.4140000343322754,8.955000877380371
1781032246810680000,25.09468017578125,1.804050087928772,-0.40095001459121704,8.575050354003906
1781032246830202400,25.114202392578125,1.675950050354004,-0.4440000355243683,8.445000648498535
1781032246849724700,25.133724609375,1.645050048828125,-0.5470499992370605,8.473050117492676
1781032246869252900,25.1532529296875,1.7059500217437744,-0.7099500298500061,8.550000190734863
1781032246888778000,25.172778076171873,1.6699501276016235,-0.7999500632286072,8.79104995727539
1781032246908299800,25.1922998046875,1.6290000677108765,-0.8419500589370728,9.039000511169434
1781032246927819300,25.2118193359375,1.6120500564575195,-0.8680500388145447,9.175950050354004
1781032246947338000,25.231337890625,1.4599500894546509,-0.8220000267028809,9.238950729370117
1781032246966857000,25.25085693359375,1.276050090789795,-0.7470000386238098,9.288000106811523
