time,seconds_elapsed,z,y,x
1780564796110120000,0.469119873046875,0.11962500214576721,-0.4395875036716461,0.5178250074386597
1780564796119880200,0.478880126953125,0.27059999108314514,-0.39297500252723694,0.6311249732971191
1780564796139406000,0.498406005859375,0.4545750021934509,-0.30250000953674316,0.6791124939918518
1780564796158938400,0.5179384765625,0.6062374711036682,-0.1317249983549118,0.652162492275238
1780564796178468600,0.537468505859375,0.6710000038146973,0.09624999761581421,0.5812125205993652
1780564796197996000,0.55699609375,0.6340125203132629,0.30566251277923584,0.5003625154495239
1780564796217520400,0.576520263671875,0.5478000044822693,0.4283125102519989,0.43793749809265137
1780564796237044500,0.59604443359375,0.4768500030040741,0.4544374942779541,0.4049375057220459
1780564796256569600,0.615569580078125,0.44632500410079956,0.40383750200271606,0.3932499885559082
1780564796276093200,0.63509326171875,0.4577375054359436,0.29411250352859497,0.3871999979019165
1780564796295616500,0.654616455078125,0.5002250075340271,0.14354999363422394,0.37482500076293945
1780564796315142000,0.674141845703125,0.5714499950408936,-0.020762499421834946,0.3543374836444855
1780564796334671600,0.693671630859375,0.675125002861023,-0.16706250607967377,0.3367374837398529
1780564796354196700,0.71319677734375,0.8071249723434448,-0.2700499892234802,0.3409999907016754
1780564796373713000,0.732712890625,0.9838125109672546,-0.306487500667572,0.3815625011920929
1780564796393226800,0.752226806640625,1.2365374565124512,-0.2576749920845032,0.45938751101493835
1780564796412749300,0.771749267578125,1.5793249607086182,-0.11783749610185623,0.5644375085830688
1780564796432278000,0.791278076171875,1.9761500358581543,0.09982500225305557,0.6796625256538391
1780564796451805700,0.8108056640625,2.3401124477386475,0.3651999831199646,0.7844374775886536
1780564796471333000,0.8303330078125,2.565887451171875,0.640749990940094,0.8589624762535095
1780564796490857000,0.84985693359375,2.5190000534057617,0.8882499933242798,0.8923749923706055
1780564796510377700,0.869377685546875,2.129462480545044,1.0865249633789062,0.8845375180244446
1780564796529903900,0.88890380859375,1.5047999620437622,1.2421749830245972,0.8368250131607056
1780564796549431800,0.908431884765625,0.7645000219345093,1.3661999702453613,0.740024983882904
1780564796568955100,0.927955078125,-0.05073750019073486,1.4689124822616577,0.5860249996185303
1780564796588477000,0.947476806640625,-0.8833000063896179,1.1632499694824219,0.3854124844074249
1780564796607999500,0.96699951171875,-1.6278624534606934,0.981612503528595,0.15399999916553497
1780564796627524600,0.986524658203125,-2.2023375034332275,1.2359875440597534,-0.09515000134706497
1780564796647053800,1.0060537109375,-2.620612382888794,1.3319624662399292,-0.3291749954223633
1780564796666583600,1.02558349609375,-2.89520001411438,1.3356750011444092,-0.4992625117301941
1780564796686109400,1.045109375,-2.89520001411438,1.3356750011444092,-0.4992625117301941
1780564796705633800,1.0646337890625,-2.9793500900268555,1.320412516593933,-0.5821750164031982
1780564796725159400,1.084159423828125,-2.9793500900268555,1.320412516593933,-0.5821750164031982
1780564796744683800,1.103683837890625,-2.4068000316619873,1.191849946975708,-0.5666375160217285
1780564796764207600,1.12320751953125,-1.8030375242233276,1.0635625123977661,-0.5385875105857849
1780564796783731200,1.142731201171875,-1.1325875520706177,0.9597499966621399,-0.5405125021934509
1780564796803253500,1.16225341796875,-1.1325875520706177,0.9597499966621399,-0.5405125021934509
1780564796822779000,1.18177880859375,0.04977500066161156,0.9154750108718872,-0.6954749822616577
1780564796842301200,1.20130126953125,0.5267624855041504,0.9653875231742859,-0.8410875201225281
1780564796861822500,1.220822509765625,0.9185000061988831,1.0668624639511108,-0.9964625239372253
1780564796881347000,1.24034716796875,1.194737434387207,1.2359875440597534,-1.12090003490448
1780564796900873500,1.25987353515625,1.3340250253677368,1.4966875314712524,-1.1770000457763672
1780564796920400100,1.279400146484375,1.3297624588012695,1.8365875482559204,-1.1335500478744507
1780564796939926000,1.298926025390625,1.2238874435424805,2.1800625324249268,-1.0029250383377075
1780564796959455000,1.318455078125,1.0966999530792236,2.44254994392395,-0.8449375033378601
1780564796978985500,1.3379853515625,0.9865624904632568,2.5786750316619873,-0.6994624733924866
1780564796998517000,1.35751708984375,0.8804125189781189,2.5840375423431396,-0.5669124722480774
1780564797018053400,1.377053466796875,0.7581750154495239,2.479949951171875,-0.4442625045776367
1780564797037589800,1.39658984375,0.6144874691963196,2.28621244430542,-0.33976250886917114
1780564797057122600,1.41612255859375,0.454025000333786,1.9997999668121338,-0.2633124887943268
1780564797076655600,1.435655517578125,0.2927374839782715,1.6190625429153442,-0.22728750109672546
1780564797096182500,1.4551826171875,0.16321249306201935,1.187037467956543,-0.2609750032424927
1780564797115708400,1.47470849609375,0.11261250078678131,0.7889750003814697,-0.41909998655319214
1780564797135238400,1.49423828125,0.18273749947547913,0.515625,-0.7470374703407288
1780564797154767400,1.513767333984375,0.38472500443458557,0.41538751125335693,-1.2412124872207642
1780564797174295600,1.533295654296875,0.679937481880188,0.47808748483657837,-1.8159624338150024
1780564797193825300,1.5528251953125,0.9805124998092651,0.6478999853134155,-2.3066999912261963
1780564797213353200,1.572353271484375,1.2167375087738037,0.8431500196456909,-2.5975124835968018
1780564797232879000,1.591879150390625,1.3556125164031982,0.9937124848365784,-2.6500375270843506
1780564797252406500,1.611406494140625,1.3991999626159668,0.896637499332428,-2.5196874141693115
1780564797271938000,1.63093798828125,1.387374997138977,0.7908999919891357,-2.353450059890747
1780564797291470600,1.650470703125,1.3639999628067017,0.858412504196167,-2.2923998832702637
1780564797311000300,1.670000244140625,1.3989249467849731,0.8702374696731567,-2.497274875640869
1780564797330530000,1.689530029296875,1.5830374956130981,0.8449375033378601,-3.126612424850464
1780564797350060500,1.709060546875,1.991824984550476,0.8362749814987183,-4.253974914550781
1780564797369593300,1.72859326171875,2.577162504196167,0.8849499821662903,-5.667474746704102
1780564797389130500,1.748130615234375,3.033799886703491,0.9465500116348267,-6.422487258911133
1780564797408666600,1.76766650390625,3.141324996948242,0.9593374729156494,-6.603574752807617
1780564797428201200,1.787201171875,2.9081249237060547,0.9321125149726868,-6.39347505569458
1780564797467261400,1.826261474609375,2.5088250637054443,0.9176750183105469,-5.598999977111816
1780564797486785300,1.845785400390625,2.2107250690460205,0.9541124701499939,-4.981212615966797
1780564797506308400,1.865308349609375,2.0194625854492188,1.1497750282287598,-4.439737319946289
1780564797525835800,1.884835693359375,2.0179500579833984,1.2449250221252441,-4.346787452697754
1780564797545363700,1.90436376953125,2.0179500579833984,1.2449250221252441,-4.346787452697754
1780564797564895500,1.9238955078125,2.0102500915527344,1.292912483215332,-4.263737678527832
1780564797584428500,1.943428466796875,1.9562125205993652,1.2790249586105347,-4.1193623542785645
1780564797603963000,1.962962890625,1.9562125205993652,1.2790249586105347,-4.1193623542785645
1780564797623498800,1.982498779296875,1.8134875297546387,1.1327250003814697,-3.889737367630005
1780564797643033000,2.002033203125,1.7294750213623047,1.0348249673843384,-3.8190624713897705
1780564797662563300,2.021563232421875,1.5042500495910645,0.8936125040054321,-3.490987539291382
1780564797682092000,2.041092041015625,1.04830002784729,0.6821374893188477,-2.692662477493286
1780564797701618400,2.060618408203125,0.3642374873161316,0.4045250117778778,-1.417349934577942
1780564797721147600,2.080147705078125,-0.5143874883651733,0.07975000143051147,0.273624986410141
1780564797740680700,2.0996806640625,-1.0296000242233276,-0.23127499222755432,2.4798123836517334
1780564797760212500,2.11921240234375,-1.1121000051498413,-0.49472498893737793,5.593912601470947
1780564797779742500,2.138742431640625,-1.2332375049591064,-0.7345250248908997,9.000200271606445
1780564797799269000,2.15826904296875,-2.324850082397461,-1.0555875301361084,11.927437782287598
1780564797818796000,2.177796142578125,-3.542412519454956,-1.205049991607666,12.669937133789062
1780564797838325200,2.1973251953125,-3.4978625774383545,-0.948199987411499,11.434499740600586
1780564797857860000,2.216860107421875,-2.8869500160217285,-0.5021499991416931,9.411737442016602
1780564797877395700,2.236395751953125,-2.165212392807007,-0.030937500298023224,7.387324810028076
1780564797896922600,2.255922607421875,-1.5350500345230103,0.37207499146461487,5.876612663269043
1780564797916444700,2.275444580078125,-1.0432125329971313,0.6478999853134155,4.328087329864502
1780564797935970800,2.294970703125,-0.6949250102043152,0.7442874908447266,3.060612440109253
1780564797955492400,2.314492431640625,-0.4600749909877777,0.6496874690055847,1.9839874505996704
1780564797975009300,2.33400927734375,-0.29878750443458557,0.4347749948501587,1.1103124618530273
1780564797994532900,2.353532958984375,-0.17778749763965607,0.21092499792575836,0.47437500953674316
1780564798014059800,2.373059814453125,-0.07397499680519104,0.05169999971985817,0.04908749833703041
1780564798033587500,2.39258740234375,0.028462499380111694,-0.03203750029206276,-0.24199999868869781
1780564798053114400,2.4121142578125,0.13571250438690186,-0.05431250110268593,-0.45374998450279236
1780564798072643300,2.431643310546875,0.24626250565052032,-0.031075000762939453,-0.6084374785423279
1780564798092170000,2.451169921875,0.3535124957561493,0.022687500342726707,-0.7117000222206116
1780564798111696600,2.470696533203125,0.44728749990463257,0.09281250089406967,-0.7653250098228455
1780564798131228000,2.490227783203125,0.5282750129699707,0.16830000281333923,-0.7997000217437744
1780564798150755800,2.509755859375,0.6106374859809875,0.23952500522136688,-0.8713374733924866
1780564798170282800,2.52928271484375,0.7045499682426453,0.3007124960422516,-1.0203875303268433
1780564798189811700,2.548811767578125,0.7972249984741211,0.3480125069618225,-1.230625033378601
1780564798209343700,2.56834375,0.8586875200271606,0.3755125105381012,-1.4337124824523926
1780564798228873500,2.58787353515625,0.8753250241279602,0.38321250677108765,-1.5940375328063965
1780564798248401200,2.607401123046875,0.8604750037193298,0.38225001096725464,-1.7373124361038208
1780564798267930600,2.6269306640625,0.8604750037193298,0.38225001096725464,-1.7373124361038208
1780564798287459800,2.6464599609375,0.8278874754905701,0.3830749988555908,-1.8922749757766724
1780564798306987800,2.66598779296875,0.7688999772071838,0.37661248445510864,-2.040362596511841
1780564798326518500,2.6855185546875,0.5543999671936035,0.2513499855995178,-2.2999625205993652
1780564798346051800,2.7050517578125,0.4996750056743622,0.1358499974012375,-2.67368745803833
1780564798365583000,2.7245830078125,0.4996750056743622,0.1358499974012375,-2.67368745803833
1780564798385112000,2.744112060546875,0.8421875238418579,0.03203750029206276,-4.449224948883057
1780564798404643300,2.763643310546875,0.8421875238418579,0.03203750029206276,-4.449224948883057
1780564798424172000,2.783172119140625,1.2799874544143677,0.09872499853372574,-5.828074932098389
1780564798443694300,2.8026943359375,1.5662624835968018,0.22206249833106995,-7.122775077819824
1780564798463217000,2.822216796875,2.1547625064849854,0.36121249198913574,-8.790787696838379
1780564798482743600,2.84174365234375,3.1660749912261963,0.4661250114440918,-10.199199676513672
1780564798502273300,2.861273193359375,3.7974748611450195,0.5079249739646912,-10.803099632263184
1780564798521804000,2.880803955078125,3.892212390899658,0.5103999972343445,-10.344949722290039
1780564798541335800,2.900335693359375,3.5727999210357666,0.5202999711036682,-9.099200248718262
1780564798560867300,2.919867431640625,3.070924997329712,0.5543999671936035,-7.548887252807617
1780564798580397000,2.93939697265625,2.5482873916625977,0.5937250256538391,-6.2594122886657715
1780564798599928600,2.958928466796875,2.02839994430542,0.6193000078201294,-4.726974964141846
1780564798619458300,2.978458251953125,1.59871244430542,0.6319500207901001,-3.544612407684326
1780564798638987800,2.99798779296875,1.2692625522613525,0.636900007724762,-2.699812412261963
1780564798658518300,3.017518310546875,0.9780374765396118,0.6289250254631042,-2.016849994659424
1780564798678047700,3.0370478515625,0.6391000151634216,0.591112494468689,-1.2597750425338745
1780564798697582000,3.05658203125,0.20116250216960907,0.510812520980835,-0.2694999873638153
1780564798717118200,3.0761181640625,-0.37674999237060547,0.3866499960422516,1.0857000350952148
1780564798736652500,3.095652587890625,-1.2383249998092651,0.20652499794960022,3.215712547302246
1780564798756186400,3.115186279296875,-1.6857500076293945,-0.06792499870061874,6.838837623596191
1780564798775715600,3.134715576171875,-1.5841374397277832,-0.41593748331069946,12.006912231445312
1780564798795239700,3.15423974609375,-2.5863749980926514,-0.6576625108718872,15.863237380981445
1780564798814766300,3.173766357421875,-3.8094375133514404,-0.6754000186920166,16.29759979248047
1780564798834294300,3.193294189453125,-3.8431248664855957,-0.5475249886512756,14.476962089538574
1780564798853824000,3.212823974609375,-3.408900022506714,-0.36781248450279236,12.038125038146973
1780564798873353200,3.232353271484375,-2.863024950027466,-0.17847499251365662,9.756312370300293
1780564798892878300,3.25187841796875,-2.330349922180176,0.002474999986588955,7.851937294006348
1780564798912399600,3.271399658203125,-1.8475874662399292,0.16692499816417694,6.621312618255615
1780564798931925500,3.290925537109375,-1.3979624509811401,0.3086875081062317,5.2403998374938965
1780564798951453400,3.310453369140625,-1.0010000467300415,0.42006251215934753,4.178487300872803
1780564798970980900,3.32998095703125,-0.6653624773025513,0.5003625154495239,3.377274990081787
1780564798990509800,3.349509765625,-0.3928374946117401,0.5522000193595886,2.783412456512451
1780564799010038300,3.369038330078125,-0.17393749952316284,0.5765374898910522,2.3259499073028564
1780564799029568800,3.38856884765625,0.004537499975413084,0.5754374861717224,1.9293999671936035
1780564799049099500,3.408099609375,0.147537499666214,0.5550875067710876,1.548799991607666
1780564799068626000,3.4276259765625,0.2529999911785126,0.5244249701499939,1.1758999824523926
1780564799088152300,3.44715234375,0.320374995470047,0.4801499843597412,0.8208749890327454
1780564799107684000,3.46668408203125,0.3559874892234802,0.39063748717308044,0.4899125099182129
1780564799127215600,3.486215576171875,0.3723500072956085,0.22151249647140503,0.17132499814033508
1780564799146743300,3.505743408203125,0.3723500072956085,0.22151249647140503,0.17132499814033508
1780564799166275300,3.525275390625,0.3889875113964081,-0.25286251306533813,-0.4982999861240387
1780564799185811000,3.54481103515625,0.3889875113964081,-0.25286251306533813,-0.4982999861240387
1780564799205345000,3.564344970703125,0.4235000014305115,-0.5036625266075134,-1.1486749649047852
1780564799224873000,3.583873046875,0.4235000014305115,-0.5036625266075134,-1.1486749649047852
1780564799244400600,3.603400634765625,0.4497624933719635,-0.5000874996185303,-1.363724946975708
1780564799263928800,3.6229287109375,0.4694249927997589,-0.43463748693466187,-1.457087516784668
1780564799283458800,3.642458740234375,0.4791874885559082,-0.3265624940395355,-1.4584624767303467
1780564799302989000,3.661989013671875,0.48221248388290405,-0.20047499239444733,-1.4271124601364136
1780564799322518300,3.681518310546875,0.47574999928474426,-0.08896250277757645,-1.4056625366210938
1780564799342049300,3.70104931640625,0.4632374942302704,-0.04138749837875366,-1.4544750452041626
1780564799361577000,3.720576904296875,0.4676375091075897,-0.09033749997615814,-1.6809375286102295
1780564799420159500,3.779159423828125,0.9651125073432922,-0.43656250834465027,-4.087462425231934
1780564799439677700,3.798677734375,1.4001624584197998,-0.44811248779296875,-5.3073625564575195
1780564799459199700,3.81819970703125,1.9474124908447266,-0.4064500033855438,-6.57346248626709
1780564799478725600,3.8377255859375,2.510474920272827,-0.34127500653266907,-7.256149768829346
1780564799498249200,3.857249267578125,2.7900125980377197,-0.273624986410141,-8.051037788391113
1780564799517774800,3.87677490234375,2.9639499187469482,-0.2003374993801117,-8.587287902832031
1780564799537307600,3.8963076171875,3.357062578201294,-0.11110000312328339,-8.766175270080566
1780564799556839400,3.91583935546875,3.6183125972747803,-0.0030249999836087227,-8.499837875366211
1780564799576365000,3.935364990234375,3.5840749740600586,0.1143999993801117,-7.826362609863281
1780564799595889200,3.95488916015625,3.3439998626708984,0.22536249458789825,-6.925049781799316
1780564799615412700,3.974412841796875,3.0475499629974365,0.3128125071525574,-6.264087677001953
1780564799634940700,3.993940673828125,2.6956875324249268,0.36506250500679016,-5.345037460327148
1780564799654470700,4.013470703125,2.3266375064849854,0.382937490940094,-4.503537654876709
1780564799673998300,4.032998291015625,1.8999749422073364,0.37716248631477356,-3.6152875423431396
1780564799693523700,4.052523681640625,1.4170750379562378,0.3623124957084656,-2.6474249362945557
1780564799713048300,4.07204833984375,0.8751875162124634,0.341825008392334,-1.5622749328613281
1780564799732574200,4.09157421875,0.19580000638961792,0.30662500858306885,-0.17215000092983246
1780564799752099000,4.11109912109375,-0.7679374814033508,0.23622499406337738,1.8680750131607056
1780564799771621400,4.130621337890625,-2.240424871444702,0.09212499856948853,5.191587448120117
1780564799791146000,4.15014599609375,-2.6278998851776123,0.08992499858140945,9.75094985961914
1780564799810670300,4.16967041015625,-3.354449987411499,0.0005499999970197678,14.204025268554688
1780564799830188000,4.18918798828125,-4.712675094604492,-0.2176624983549118,15.500100135803223
1780564799849710000,4.2087099609375,-4.5651373863220215,-0.2213750034570694,13.915962219238281
1780564799869238800,4.22823876953125,-3.8927624225616455,-0.14464999735355377,11.492249488830566
1780564799888768000,4.24776806640625,-3.139400005340576,-0.04455000162124634,9.161487579345703
1780564799908293000,4.267293212890625,-2.4025375843048096,0.07301250100135803,7.101462364196777
1780564799927818800,4.28681884765625,-2.4025375843048096,0.07301250100135803,7.101462364196777
1780564799947345200,4.30634521484375,-1.717787504196167,0.2129874974489212,5.538637638092041
1780564799966867700,4.32586767578125,-1.1005499362945557,0.37950000166893005,4.035487651824951
1780564799986394600,4.34539453125,-0.5961999893188477,0.567187488079071,2.977562427520752
1780564800005925000,4.364925048828125,-0.5961999893188477,0.567187488079071,2.977562427520752
1780564800025450000,4.384449951171875,0.017875000834465027,0.8874250054359436,1.8081250190734863
1780564800044972300,4.40397216796875,0.15028749406337738,0.9277125000953674,1.4293124675750732
1780564800064494300,4.423494384765625,0.2129874974489212,0.8757374882698059,1.0624624490737915
1780564800084018200,4.44301806640625,0.23649999499320984,0.7559750080108643,0.6927250027656555
1780564800103541800,4.462541748046875,0.23526249825954437,0.5900124907493591,0.34251248836517334
1780564800123064300,4.482064208984375,0.22495000064373016,0.39311251044273376,0.015675000846385956
1780564800142587600,4.501587646484375,0.227012500166893,0.18411250412464142,-0.3063499927520752
1780564800162112500,4.521112548828125,0.2642749845981598,-0.014299999922513962,-0.6440500020980835
1780564800181637000,4.54063720703125,0.3405874967575073,-0.18246249854564667,-0.9871125221252441
1780564800201160400,4.560160400390625,0.3405874967575073,-0.18246249854564667,-0.9871125221252441
1780564800220684300,4.579684326171875,0.5262125134468079,-0.281187504529953,-1.4753749370574951
1780564800240208100,4.5992080078125,0.5865749716758728,-0.17311249673366547,-1.528862476348877
1780564800259736300,4.618736328125,0.6175125241279602,-0.016362499445676804,-1.4737249612808228
1780564800279270100,4.638270263671875,0.620537519454956,0.12966249883174896,-1.3516249656677246
1780564800298802400,4.657802490234375,0.603487491607666,0.24763749539852142,-1.2138500213623047
1780564800318334200,4.677334228515625,0.5785999894142151,0.346637487411499,-1.123787522315979
1780564800337864700,4.69686474609375,0.5516499876976013,0.4265249967575073,-1.1345125436782837
1780564800357389000,4.71638916015625,0.5152124762535095,0.47616249322891235,-1.2487750053405762
1780564800376912000,4.735911865234375,0.4563624858856201,0.48138749599456787,-1.4213374853134155
1780564800396440000,4.755440185546875,0.37578749656677246,0.4386250078678131,-1.6259374618530273
1780564800415972600,4.77497265625,0.3040125072002411,0.35186249017715454,-1.932974934577942
1780564800435506200,4.794506103515625,0.3162499964237213,0.24860000610351562,-2.5464999675750732
1780564800455038200,4.8140380859375,0.5395500063896179,0.1975875049829483,-3.7830374240875244
1780564800474570000,4.833570068359375,1.125849962234497,0.26881250739097595,-6.022637367248535
1780564800494101500,4.8531015625,2.1176373958587646,0.4585624933242798,-8.698249816894531
1780564800513631700,4.8726318359375,3.27305006980896,0.6514750123023987,-11.691900253295898
1780564800533161000,4.892160888671875,4.1190876960754395,0.7211874723434448,-13.566849708557129
1780564800552689400,4.911689453125,4.3745622634887695,0.6582124829292297,-13.757974624633789
1780564800572215600,4.931215576171875,4.117300033569336,0.5381749868392944,-12.62181282043457
1780564800591740200,4.950740234375,3.5763750076293945,0.43133750557899475,-10.81190013885498
1780564800611268600,4.9702685546875,2.967525005340576,0.3657499849796295,-8.885662078857422
1780564800630794800,4.989794677734375,2.4221999645233154,0.3343999981880188,-7.174337387084961
1780564800650319400,5.0093193359375,1.981374979019165,0.31459999084472656,-5.99926233291626
1780564800669847000,5.028846923828125,1.5969250202178955,0.28792500495910645,-4.7247748374938965
1780564800689376300,5.048376220703125,1.2574374675750732,0.2503874897956848,-3.680187463760376
1780564800708904700,5.06790478515625,0.9549375176429749,0.21078750491142273,-2.8081624507904053
1780564800728430300,5.087430419921875,0.6895624995231628,0.18177500367164612,-2.0791375637054443
1780564800747957500,5.10695751953125,0.6895624995231628,0.18177500367164612,-2.0791375637054443
1780564800767486000,5.12648583984375,0.45787498354911804,0.171875,-1.4596999883651733
1780564800787012000,5.14601220703125,0.2593249976634979,0.18562500178813934,-0.92826247215271
1780564800806542300,5.165542236328125,-0.003987499978393316,0.28613749146461487,-0.16142499446868896
1780564800826073300,5.1850732421875,-0.0906125009059906,0.35420000553131104,0.1405249983072281
1780564800845606400,5.2046064453125,-0.26922500133514404,0.40617498755455017,0.7258625030517578
1780564800865139200,5.22413916015625,-0.26922500133514404,0.40617498755455017,0.7258625030517578
1780564800884668700,5.243668701171875,-0.9229000210762024,0.3984749913215637,2.7720000743865967
1780564800904198700,5.26319873046875,-4.678299903869629,0.009212499484419823,14.469537734985352
1780564800923729700,5.282729736328125,-8.502449989318848,-0.4338124990463257,26.87904930114746
1780564800943260000,5.302260009765625,-8.00112533569336,-0.3540624976158142,26.00413703918457
1780564800962792000,5.3217919921875,-5.934362411499023,-0.03712499886751175,19.960325241088867
1780564800982323000,5.341322998046875,-4.203512668609619,0.23704999685287476,14.842575073242188
1780564801001849300,5.360849365234375,-4.203512668609619,0.23704999685287476,14.842575073242188
1780564801021376000,5.3803759765625,-1.8998374938964844,0.49994999170303345,7.9839372634887695
1780564801040907800,5.39990771484375,-1.1625624895095825,0.48633748292922974,6.009437561035156
1780564801060434200,5.41943408203125,-0.6221874952316284,0.42336249351501465,4.252737522125244
1780564801079963100,5.438963134765625,-0.24557499587535858,0.36079999804496765,3.049612522125244
1780564801099499300,5.458499267578125,0.010174999944865704,0.3305499851703644,2.2027499675750732
1780564801119034000,5.4780341796875,0.18796250224113464,0.3343999981880188,1.5589749813079834
1780564801138565400,5.4975654296875,0.3151499927043915,0.3326124846935272,1.0025124549865723
1780564801158093000,5.517093017578125,0.4059000015258789,0.26840001344680786,0.4713499844074249
1780564801177620200,5.5366201171875,0.4652999937534332,0.11838749796152115,-0.035750001668930054
1780564801197151700,5.55615185546875,0.49114999175071716,-0.09116250276565552,-0.48372501134872437
1780564801216680700,5.5756806640625,0.4879874885082245,-0.3078624904155731,-0.8599249720573425
1780564801236209200,5.595209228515625,0.47519999742507935,-0.49252501130104065,-1.2010624408721924
1780564801255740200,5.614740234375,0.4735499918460846,-0.6267250180244446,-1.5419249534606934
1780564801275269600,5.63426953125,0.4833124876022339,-0.7033125162124634,-1.8504749536514282
1780564801294799600,5.653799560546875,0.47753748297691345,-0.7302625179290771,-2.024275064468384
1780564801314327800,5.673327880859375,0.4235000014305115,-0.7122499942779541,-1.9552500247955322
1780564801333855500,5.69285546875,0.31693750619888306,-0.6371750235557556,-1.6314375400543213
1780564801372913200,5.7319130859375,0.12044999748468399,-0.30057498812675476,-0.6880499720573425
1780564801392439300,5.751439208984375,0.113987497985363,-0.06531249731779099,-0.28187498450279236
1780564801411967700,5.7709677734375,0.15427500009536743,0.20363749563694,0.07232499867677689
1780564801431496400,5.790496337890625,0.1722874939441681,0.4916999936103821,0.047575000673532486
1780564801451030300,5.8100302734375,0.15056249499320984,0.7577624917030334,0.050187498331069946
1780564801470562800,5.829562744140625,0.08813749998807907,0.9332125186920166,0.3777124881744385
1780564801490092500,5.849092529296875,-0.03396249935030937,0.9337624907493591,0.4750624895095825
1780564801509625000,5.868625,-0.17311249673366547,0.7158250212669373,0.19676250219345093
1780564801529160200,5.88816015625,-0.24860000610351562,0.3381125032901764,-0.5486249923706055
1780564801548693000,5.90769287109375,-0.11990000307559967,-0.025162499397993088,-1.9380625486373901
1780564801568225300,5.927225341796875,0.5583875179290771,-0.11769999563694,-4.810850143432617
1780564801587753200,5.946753173828125,0.5583875179290771,-0.11769999563694,-4.810850143432617
1780564801607283000,5.966282958984375,2.678225040435791,0.3863750100135803,-10.940324783325195
1780564801626818300,5.985818359375,6.8732123374938965,1.34089994430542,-20.90632438659668
1780564801646349800,6.005349853515625,6.120537281036377,1.0652124881744385,-18.114524841308594
1780564801665880300,6.02488037109375,4.922774791717529,0.7709624767303467,-14.38332462310791
1780564801685411300,6.044411376953125,3.787024974822998,0.5476624965667725,-10.986937522888184
1780564801704943900,6.06394384765625,3.787024974822998,0.5476624965667725,-10.986937522888184
1780564801724476700,6.0834765625,2.8206748962402344,0.4006749987602234,-8.156362533569336
1780564801744007400,6.10300732421875,2.0607125759124756,0.322299987077713,-6.170175075531006
1780564801763540500,6.12254052734375,1.4693249464035034,0.29081249237060547,-4.312137603759766
1780564801783073500,6.142073486328125,1.0201125144958496,0.27665001153945923,-2.9709625244140625
1780564801802602500,6.1616025390625,1.0201125144958496,0.27665001153945923,-2.9709625244140625
1780564801822130000,6.1811298828125,0.26785001158714294,0.21271249651908875,-0.9403625130653381
1780564801841663500,6.20066357421875,-0.1260875016450882,0.15138749778270721,0.035475000739097595
1780564801861201700,6.22020166015625,-0.5357000231742859,0.0873124971985817,1.0386749505996704
1780564801880740600,6.23974072265625,-0.9524624943733215,0.037675000727176666,2.084637403488159
1780564801900275700,6.259275634765625,-1.4672625064849854,-0.00013749999925494194,3.4502875804901123
1780564801919807000,6.278806884765625,-2.3454749584198,-0.07383749634027481,5.974512577056885
1780564801939336000,6.2983359375,-3.825937509536743,-0.26468750834465027,9.960637092590332
1780564801958868200,6.3178681640625,-5.418737411499023,-0.513700008392334,14.78702449798584
1780564801978401300,6.3374013671875,-5.941100120544434,-0.5885000228881836,16.94866180419922
1780564801997930800,6.3569306640625,-5.265974998474121,-0.4255625009536743,15.774687767028809
1780564802017460700,6.376460693359375,-4.140262603759766,-0.17118750512599945,13.15517520904541
1780564802036990500,6.395990478515625,-3.0465874671936035,0.05142499879002571,10.430337905883789
1780564802056522800,6.415522705078125,-2.159024953842163,0.19415000081062317,8.145637512207031
1780564802076052500,6.435052490234375,-1.5042500495910645,0.267300009727478,6.740937232971191
1780564802095577000,6.4545771484375,-1.0290499925613403,0.30277499556541443,5.323862552642822
1780564802115106000,6.47410595703125,-0.685575008392334,0.3199625015258789,4.282162666320801
1780564802134638000,6.49363818359375,-0.4218499958515167,0.3144625127315521,3.4315874576568604
1780564802154169600,6.513169677734375,-0.20652499794960022,0.27486249804496765,2.674649953842163
1780564802173704700,6.53270458984375,-0.028187500312924385,0.20350000262260437,1.980412483215332
1780564802193238800,6.55223876953125,0.1143999993801117,0.11756250262260437,1.3612500429153442
1780564802212768300,6.571768310546875,0.22302499413490295,0.043037500232458115,0.841362476348877
1780564802232296000,6.5912958984375,0.3059374988079071,0.008249999955296516,0.4255625009536743
1780564802251823600,6.61082373046875,0.3675374984741211,0.02736249938607216,0.12925000488758087
1780564802271348700,6.6303486328125,0.4123624861240387,0.08841250091791153,-0.027775000780820847
1780564802290869800,6.649869873046875,0.45058751106262207,0.16568750143051147,-0.07961250096559525
1780564802310396000,6.66939599609375,0.48537498712539673,0.24062499403953552,-0.10807500034570694
1780564802329926100,6.688926025390625,0.504212498664856,0.30346250534057617,-0.17599999904632568
1780564802349452800,6.708452880859375,0.48537498712539673,0.34375,-0.29081249237060547
1780564802368983000,6.727983154296875,0.41868749260902405,0.34718748927116394,-0.42858749628067017
1780564802388511500,6.747511474609375,0.3078624904155731,0.30277499556541443,-0.571862518787384
1780564802408038000,6.767037841796875,0.1597750037908554,0.20982499420642853,-0.7132124900817871
1780564802427564000,6.78656396484375,-0.018837500363588333,0.0835999995470047,-0.8487874865531921
1780564802447090400,6.80609033203125,-0.20982499420642853,-0.047849997878074646,-0.9757000207901001
1780564802466616800,6.825616943359375,-0.1676124930381775,-0.15702499449253082,-1.0975250005722046
1780564802486140200,6.84514013671875,-0.1676124930381775,-0.15702499449253082,-1.0975250005722046
1780564802505665300,6.864665283203125,-0.12058749794960022,-0.2391124963760376,-1.3076249361038208
1780564802525191700,6.884191650390625,-0.12058749794960022,-0.2391124963760376,-1.3076249361038208
1780564802544718000,6.903718017578125,-0.025712499395012856,-0.41868749260902405,-3.041224956512451
1780564802564247000,6.9232470703125,0.5358374714851379,-0.4474250078201294,-5.253187656402588
1780564802583774200,6.942774169921875,1.6312999725341797,-0.31913748383522034,-8.247387886047363
1780564802603300900,6.96230078125,1.6312999725341797,-0.31913748383522034,-8.247387886047363
1780564802622827300,6.9818271484375,4.238162517547607,0.12072499841451645,-14.10928726196289
1780564802642354400,7.0013544921875,4.6424126625061035,0.2209624946117401,-14.377824783325195
1780564802661881600,7.020881591796875,4.503812313079834,0.2700499892234802,-13.361425399780273
1780564802681407200,7.0404072265625,4.102587699890137,0.28654998540878296,-11.82541275024414
1780564802700932400,7.059932373046875,3.5718374252319336,0.27582499384880066,-10.0916748046875
1780564802720458500,7.07945849609375,2.991450071334839,0.2619374990463257,-8.3212251663208
1780564802739987700,7.09898779296875,2.4171125888824463,0.2689499855041504,-6.610724925994873
1780564802759515100,7.11851513671875,1.898324966430664,0.2975499927997589,-5.188562393188477
1780564802779041800,7.138041748046875,1.4442999362945557,0.3422375023365021,-3.714974880218506
1780564802798573000,7.157572998046875,1.0869375467300415,0.3961375057697296,-2.5564000606536865
1780564802818105900,7.17710595703125,0.7976375222206116,0.4409624934196472,-1.6416125297546387
1780564802837635800,7.1966357421875,0.5016000270843506,0.45196250081062317,-0.7789375185966492
1780564802857164500,7.21616455078125,0.11687500029802322,0.40700000524520874,0.2681249976158142
1780564802876698400,7.235698486328125,-0.42858749628067017,0.29163751006126404,1.745287537574768
1780564802896235000,7.255235107421875,-1.2406624555587769,0.09363749623298645,4.060787677764893
1780564802915768600,7.2747685546875,-2.4985125064849854,-0.2079000025987625,7.59660005569458
1780564802935302400,7.294302490234375,-4.074812412261963,-0.570900022983551,12.227462768554688
1780564802954839600,7.313839599609375,-5.1419501304626465,-0.8208749890327454,15.460087776184082
1780564802974373400,7.333373291015625,-5.218949794769287,-0.8475499749183655,15.87093734741211
1780564802993906000,7.352906005859375,-4.636499881744385,-0.7079874873161316,14.494012832641602
1780564803013442000,7.372442138671875,-3.7504498958587646,-0.4828999936580658,12.454475402832031
1780564803032977700,7.391977783203125,-2.788362503051758,-0.21216249465942383,10.376299858093262
1780564803052512000,7.411511962890625,-1.9241750240325928,0.002337499987334013,8.64641284942627
1780564803072043800,7.431043701171875,-1.2207249402999878,0.0835999995470047,7.326274871826172
1780564803091577600,7.45057763671875,-0.6484500169754028,-0.043037500232458115,6.514062404632568
1780564803111116500,7.470116455078125,-0.18658749759197235,0.09583749622106552,5.327712535858154
1780564803130653000,7.48965283203125,0.15166249871253967,0.5209875106811523,4.186874866485596
1780564803150184200,7.50918408203125,0.36629998683929443,0.6987749934196472,3.0945749282836914
1780564803169714200,7.528714111328125,0.4811125099658966,0.6560124754905701,2.037062406539917
1780564803189242600,7.54824267578125,0.5347374677658081,0.45980000495910645,1.008424997329712
1780564803208771300,7.567771240234375,0.5609999895095825,0.20074999332427979,0.050599999725818634
1780564803228302300,7.58730224609375,0.5750250220298767,-0.0317624993622303,-0.7785249948501587
1780564803247833900,7.606833740234375,0.5750250220298767,-0.0317624993622303,-0.7785249948501587
1780564803267363000,7.626363037109375,0.5751624703407288,-0.17586250603199005,-1.438249945640564
1780564803286890200,7.64589013671875,0.551925003528595,-0.22481249272823334,-1.8566625118255615
1780564803306417700,7.665417724609375,0.49252501130104065,-0.20253749191761017,-1.9344874620437622
1780564803325944000,7.684944091796875,0.2965874969959259,-0.05444999784231186,-1.3077625036239624
1780564803345467600,7.704467529296875,0.2965874969959259,-0.05444999784231186,-1.3077625036239624
1780564803364993300,7.7239931640625,0.2965874969959259,-0.05444999784231186,-1.3077625036239624
1780564803384518000,7.743517822265625,-0.00494999997317791,0.09913749992847443,-0.49912500381469727
1780564803404040400,7.76304052734375,-0.00494999997317791,0.09913749992847443,-0.49912500381469727
1780564803423564000,7.78256396484375,-0.14588749408721924,0.11384999752044678,-0.3969624936580658
1780564803443087600,7.802087646484375,-0.2685374915599823,0.12925000488758087,-0.46584999561309814
1780564803462612200,7.8216123046875,-0.3436124920845032,0.1251250058412552,-0.7594124674797058
1780564803482139600,7.8411396484375,-0.3422375023365021,0.10670000314712524,-1.3193124532699585
1780564803501667600,7.86066748046875,-0.2194499969482422,0.1358499974012375,-2.244962453842163
1780564803521195500,7.880195556640625,0.08346249908208847,0.29356250166893005,-3.714974880218506
1780564803540724200,7.89972412109375,0.6366249918937683,0.6360750198364258,-6.061824798583984
1780564803560250600,7.919250732421875,1.560075044631958,1.2149499654769897,-9.148287773132324
1780564803579772400,7.9387724609375,2.7911124229431152,1.9259624481201172,-13.290200233459473
1780564803599301000,7.958301025390625,3.7232248783111572,2.339287519454956,-16.04941177368164
1780564803618834700,7.977834716796875,3.873924970626831,2.2030251026153564,-15.941337585449219
1780564803638366500,7.997366455078125,3.4522125720977783,1.7290624380111694,-13.958037376403809
1780564803657895000,8.01689501953125,2.8171000480651855,1.1787874698638916,-11.429962158203125
1780564803677422600,8.036422607421875,2.164249897003174,0.6947875022888184,-8.998550415039062
1780564803696948700,8.05594873046875,1.5901875495910645,0.3480125069618225,-6.916937351226807
1780564803716473300,8.075473388671876,1.131350040435791,0.14863750338554382,-5.41557502746582
1780564803736000800,8.095000732421875,0.7767375111579895,0.06751249730587006,-3.98722505569458
1780564803755532500,8.114532470703125,0.4987125098705292,0.06407500058412552,-2.8525750637054443
1780564803775068700,8.134068603515624,0.2690874934196472,0.1106875017285347,-1.8836125135421753
1780564803794601200,8.153601318359375,0.07535000145435333,0.18713749945163727,-1.0298750400543213
1780564803814130200,8.173130126953126,-0.09817499667406082,0.26358750462532043,-0.26372501254081726
1780564803833660200,8.19266015625,-0.2854500114917755,0.30566251277923584,0.48179998993873596
1780564803853188000,8.21218798828125,-0.5654000043869019,0.2751374840736389,1.4232624769210815
1780564803872716300,8.23171630859375,-1.096287488937378,0.12196250259876251,3.0768375396728516
1780564803892246000,8.25124609375,-2.2097625732421875,-0.24639999866485596,6.447925090789795
1780564803911771600,8.270771728515625,-4.249575138092041,-0.9102500081062317,12.816100120544434
1780564803931299300,8.29029931640625,-6.110499858856201,-1.4994374513626099,18.76476287841797
1780564803950827300,8.3098271484375,-6.420562267303467,-1.5787750482559204,19.93241310119629
1780564803970356000,8.32935595703125,-5.612750053405762,-1.2780624628067017,17.66407585144043
1780564803989888000,8.348887939453125,-4.489924907684326,-0.8464499711990356,14.580224990844727
1780564804009420500,8.368420654296875,-3.3291499614715576,-0.3918749988079071,11.576537132263184
1780564804028951300,8.387951416015625,-2.2666873931884766,0.013749999925494194,8.946575164794922
1780564804048479200,8.407479248046876,-1.4085500240325928,0.3172124922275543,6.828112602233887
1780564804068007200,8.427007080078125,-0.7913125157356262,0.5011875033378601,5.387387275695801
1780564804087537000,8.446536865234375,-0.7913125157356262,0.5011875033378601,5.387387275695801
1780564804107065300,8.4660654296875,-0.11343749612569809,0.5889124870300293,3.110112428665161
1780564804126590200,8.485590087890625,-0.11343749612569809,0.5889124870300293,3.110112428665161
1780564804146116000,8.5051162109375,0.045237500220537186,0.5494499802589417,2.3742125034332275
1780564804165641500,8.524641357421874,0.13722500205039978,0.48551249504089355,1.778149962425232
1780564804185168000,8.54416796875,0.2488749921321869,0.2905375063419342,0.6741625070571899
1780564804204694000,8.563694091796876,0.2488749921321869,0.2905375063419342,0.6741625070571899
1780564804224214500,8.583214599609375,0.29260000586509705,0.11921250075101852,0.11728750169277191
1780564804243733000,8.60273291015625,0.3232625126838684,-0.08896250277757645,-0.39352500438690186
1780564804263258600,8.622258544921875,0.3386625051498413,-0.2774749994277954,-0.8269249796867371
1780564804282787300,8.641787353515625,0.3443000018596649,-0.3926999866962433,-1.1825000047683716
1780564804302314800,8.661314697265626,0.34581249952316284,-0.42294999957084656,-1.458050012588501
1780564804321839900,8.68083984375,0.3382500112056732,-0.3862375020980835,-1.6086125373840332
1780564804341362000,8.70036181640625,0.31363749504089355,-0.30607500672340393,-1.604349970817566
1780564804360889900,8.719889892578125,0.2798124849796295,-0.2055625021457672,-1.5107125043869019
1780564804380417800,8.739417724609375,0.25382500886917114,-0.10271249711513519,-1.4301375150680542
1780564804399946200,8.7589462890625,0.25382500886917114,-0.10271249711513519,-1.4301375150680542
1780564804419476700,8.778476806640626,0.2488749921321869,0.055412501096725464,-1.5046625137329102
1780564804439006000,8.798005859375,0.2527250051498413,0.10546249896287918,-1.6482124328613281
1780564804458534000,8.817533935546875,0.2550624907016754,0.148499995470047,-1.8383749723434448
1780564804478062800,8.837062744140624,0.260699987411499,0.19085000455379486,-2.0535624027252197
1780564804497592800,8.8565927734375,0.2913624942302704,0.23567499220371246,-2.3365375995635986
1780564804517124400,8.876124267578126,0.3801875114440918,0.2857249975204468,-2.781899929046631
1780564804536652000,8.895652099609375,0.5609999895095825,0.3536500036716461,-3.486999988555908
1780564804556175400,8.91517529296875,0.8959500193595886,0.48179998993873596,-4.66510009765625
1780564804575697700,8.93469775390625,1.5801500082015991,0.7803124785423279,-6.724024772644043
1780564804595217700,8.9542177734375,2.9385125637054443,1.3897124528884888,-10.957237243652344
1780564804614744600,8.97374462890625,4.485662460327148,2.0429749488830566,-15.647225379943848
1780564804634273800,8.993273681640625,5.058899879455566,2.1975250244140625,-17.15945053100586
1780564804653801700,9.0128017578125,4.568162441253662,1.8478624820709229,-15.353525161743164
1780564804673333000,9.0323330078125,3.6953125,1.3287999629974365,-12.45571231842041
1780564804692865000,9.051864990234375,2.790837526321411,0.8163374662399292,-9.576874732971191
1780564804712397800,9.071397705078125,1.9819250106811523,0.3863750100135803,-7.090462684631348
1780564804731927600,9.090927490234375,1.325087547302246,0.07218749821186066,-5.277937412261963
1780564804751455000,9.110455078125,0.8258249759674072,-0.11811249703168869,-3.6964125633239746
1780564804770981000,9.129981201171875,0.4676375091075897,-0.19923749566078186,-2.5785374641418457
1780564804790510000,9.149510009765624,0.21051250398159027,-0.19786250591278076,-1.7558749914169312
1780564804810039000,9.1690390625,0.02722499892115593,-0.1387374997138977,-1.132312536239624
1780564804829564700,9.188564697265624,-0.1013374999165535,-0.04592499881982803,-0.6514750123023987
1780564804849094700,9.2080947265625,-0.19648750126361847,0.05719999969005585,-0.2616625130176544
1780564804868626700,9.227626708984374,-0.29205000400543213,0.14877499639987946,0.11935000121593475
1780564804888159500,9.247159423828125,-0.43174999952316284,0.21147499978542328,0.6098124980926514
1780564804907688000,9.26668798828125,-0.43174999952316284,0.21147499978542328,0.6098124980926514
1780564804927215600,9.286215576171875,-0.6610999703407288,0.2358125001192093,1.3530000448226929
1780564804946747000,9.305746826171875,-1.1122374534606934,0.21312500536441803,2.776949882507324
1780564804966279400,9.325279541015625,-2.8725125789642334,-0.07809999585151672,8.0291748046875
1780564804985808400,9.344808349609375,-6.919687271118164,-0.9831249713897705,20.52655029296875
1780564805005338400,9.36433837890625,-6.684562683105469,-0.9370625019073486,21.3614501953125
1780564805024873200,9.383873291015625,-6.684562683105469,-0.9370625019073486,21.3614501953125
1780564805044404500,9.403404541015625,-4.7077250480651855,-0.4571875035762787,15.866950035095215
1780564805063936000,9.42293603515625,-3.2280874252319336,-0.12113749980926514,11.722562789916992
1780564805083469800,9.4424697265625,-2.1771750450134277,0.09487500041723251,8.79284954071045
1780564805102998000,9.461998046875,-1.4214749336242676,0.2428250014781952,6.693912506103516
1780564805122524000,9.48152392578125,-0.8608874678611755,0.36258751153945923,5.26817512512207
1780564805142054100,9.50105419921875,-0.44165000319480896,0.4636499881744385,3.9071998596191406
1780564805161586700,9.520586669921874,-0.13378749787807465,0.5358374714851379,2.8096749782562256
1780564805181120000,9.5401201171875,0.09253749996423721,0.5608624815940857,1.889799952507019
1780564805200650200,9.559650146484374,0.09253749996423721,0.5608624815940857,1.889799952507019
1780564805220178400,9.579178466796876,0.38403749465942383,0.36959999799728394,0.3517250120639801
1780564805278749700,9.637749755859375,0.5352874994277954,-0.21931250393390656,-1.16902494430542
1780564805298272800,9.657272705078125,0.5391374826431274,-0.2956250011920929,-1.264449954032898
1780564805317802000,9.676802001953124,0.5315750241279602,-0.2583625018596649,-1.1748000383377075
1780564805337333000,9.6963330078125,0.5197499990463257,-0.11604999750852585,-0.9717124700546265
1780564805356861700,9.71586181640625,0.5087500214576721,0.08112499862909317,-0.734250009059906
1780564805376392200,9.73539208984375,0.4937624931335449,0.27211248874664307,-0.5164499878883362
1780564805395924000,9.754924072265625,0.45787498354911804,0.420199990272522,-0.32243749499320984
1780564805415454700,9.774454833984375,0.37661248445510864,0.5134249925613403,-0.13667500019073486
1780564805434983000,9.79398291015625,0.22659999132156372,0.545324981212616,0.04496249929070473
1780564805454510800,9.8135107421875,0.0056374999694526196,0.49678748846054077,0.1742125004529953
1780564805474033700,9.83303369140625,-0.2513499855995178,0.3377000093460083,0.12072499841451645
1780564805493556000,9.852555908203126,-0.47808748483657837,0.0672374963760376,-0.2591874897480011
1780564805513080300,9.872080322265624,-0.6184750199317932,-0.25148749351501465,-1.0203875303268433
1780564805532605400,9.89160546875,-0.6148999929428101,-0.5053125023841858,-2.1920249462127686
1780564805552129500,9.911129638671875,-0.24268749356269836,-0.5440874695777893,-4.330287456512451
1780564805571655000,9.930655029296876,1.4045624732971191,-0.10243749618530273,-9.561474800109863
1780564805591181800,9.950181884765625,4.5528998374938965,0.6267250180244446,-18.121538162231445
1780564805610703000,9.969703125,6.3530497550964355,0.8295375108718872,-22.060636520385742
1780564805630222600,9.98922265625,5.73045015335083,0.5014625191688538,-19.283687591552734
1780564805649743400,10.008743408203125,4.5403876304626465,0.18672500550746918,-15.163225173950195
1780564805669261800,10.02826171875,3.4549624919891357,-0.011687500402331352,-11.498024940490723
1780564805688783000,10.047783203125,2.56107497215271,-0.10724999755620956,-8.514137268066406
1780564805708305200,10.06730517578125,1.8458000421524048,-0.12306249886751175,-6.418637275695801
1780564805727827200,10.0868271484375,1.8458000421524048,-0.12306249886751175,-6.418637275695801
1780564805747352000,10.10635205078125,1.2721500396728516,-0.08071249723434448,-4.383912563323975
1780564805786410200,10.14541015625,0.5103999972343445,0.07837499678134918,-1.8235249519348145
1780564805805943000,10.164943115234376,-0.06283749639987946,0.18205000460147858,-0.11275000125169754
1780564805825474800,10.184474853515624,-0.4081000089645386,0.18782499432563782,0.7811374664306641
1780564805845002000,10.204001953125,-0.4081000089645386,0.18782499432563782,0.7811374664306641
1780564805864526800,10.22352685546875,-0.8450750112533569,0.1699499934911728,1.8558374643325806
1780564805884055000,10.243054931640625,-1.4022250175476074,0.13832500576972961,3.219012498855591
1780564805903581700,10.262581787109376,-2.1698875427246094,0.10078749805688858,5.1602373123168945
1780564805923107000,10.282107177734375,-3.3661375045776367,0.05609999969601631,7.970187664031982
1780564805942632000,10.3016318359375,-5.322762489318848,-0.0030249999836087227,12.91936206817627
1780564805962159900,10.321159912109374,-7.177087306976318,-0.03189999982714653,17.86688804626465
1780564805981688600,10.3406884765625,-7.520150184631348,0.047987498342990875,19.23748779296875
1780564806001217800,10.3602177734375,-7.520150184631348,0.047987498342990875,19.23748779296875
1780564806020749800,10.379749755859375,-5.057662487030029,0.4963749945163727,14.18546199798584
1780564806040278000,10.399278076171875,-3.639899969100952,0.7631250023841858,11.172149658203125
1780564806059808300,10.418808349609375,-2.4369125366210938,0.9857375025749207,8.606812477111816
1780564806079337700,10.438337646484374,-1.5063124895095825,1.12681245803833,6.559162616729736
1780564806098861000,10.457861083984374,-0.8366875052452087,1.1892374753952026,5.140850067138672
1780564806118383000,10.477383056640624,-0.37757501006126404,1.1881375312805176,3.8735125064849854
1780564806137903900,10.49690380859375,-0.08442500233650208,1.1350624561309814,2.922562599182129
1780564806157426400,10.516426513671876,0.08401250094175339,1.0224499702453613,2.1337249279022217
1780564806176950300,10.5359501953125,0.16458749771118164,0.824037492275238,1.4019500017166138
1780564806196471600,10.555471435546876,0.18809999525547028,0.518512487411499,0.7002875208854675
1780564806215991000,10.574990966796875,0.17971250414848328,0.1313125044107437,0.062424998730421066
1780564806235515600,10.594515625,0.1592250019311905,-0.053075000643730164,-0.4628250002861023
1780564806255042000,10.6140419921875,0.13956250250339508,0.05128749832510948,-0.8394374847412109
1780564806274566000,10.63356591796875,0.12182500213384628,0.1190750002861023,-1.0315250158309937
1780564806294091800,10.653091796875,0.10353749990463257,0,-1.0338624715805054
1780564806313619000,10.672618896484375,0.09501250088214874,-0.12553749978542328,-0.9158874750137329
1780564806333143600,10.6921435546875,0.11371249705553055,-0.12264999747276306,-0.7811374664306641
1780564806352667100,10.711667236328125,0.16307500004768372,-0.050324998795986176,-0.685575008392334
1780564806372193000,10.731193115234374,0.22769999504089355,0.06132499873638153,-0.6190249919891357
1780564806391716000,10.750716064453124,0.2905375063419342,0.18342499434947968,-0.5673249959945679
1780564806411240200,10.770240234375,0.34072500467300415,0.28929999470710754,-0.5406500101089478
1780564806430767000,10.78976708984375,0.3619000017642975,0.36602500081062317,-0.5325375199317932
1780564806450294300,10.809294189453125,0.3433375060558319,0.40851250290870667,-0.5374875068664551
1780564806469817000,10.828817138671875,0.29823750257492065,0.39861249923706055,-0.6169624924659729
1780564806489337600,10.848337646484374,0.2503874897956848,0.3166624903678894,-0.8516749739646912
1780564806508860000,10.86785986328125,0.22261250019073486,0.16981250047683716,-1.281499981880188
1780564806528385000,10.887385009765625,0.23361249268054962,-0.00494999997317791,-1.8760499954223633
1780564806547907300,10.9069072265625,0.23361249268054962,-0.00494999997317791,-1.8760499954223633
1780564806567429600,10.9264296875,0.4973374903202057,-0.22948749363422394,-3.48122501373291
1780564806586953000,10.945952880859375,0.4973374903202057,-0.22948749363422394,-3.48122501373291
1780564806606478300,10.965478271484375,0.9631875157356262,-0.15482500195503235,-5.039512634277344
1780564806626006000,10.985006103515625,4.76506233215332,1.0576499700546265,-14.969212532043457
1780564806645528000,11.004528076171875,4.76506233215332,1.0576499700546265,-14.969212532043457
1780564806665051600,11.0240517578125,4.76506233215332,1.0576499700546265,-14.969212532043457
1780564806684582400,11.04358251953125,6.70161247253418,1.6135624647140503,-18.952999114990234
1780564806704112600,11.063112548828125,5.532450199127197,1.2523499727249146,-15.381162643432617
1780564806723638500,11.082638427734375,4.261399745941162,0.8845375180244446,-11.708675384521484
1780564806743164200,11.1021640625,3.1755623817443848,0.589187502861023,-8.657137870788574
1780564806762690800,11.12169091796875,2.33736252784729,0.3749625086784363,-6.629287242889404
1780564806782224400,11.141224365234375,1.6568750143051147,0.22288750112056732,-4.667574882507324
1780564806801762300,11.16076220703125,1.6568750143051147,0.22288750112056732,-4.667574882507324
1780564806821295400,11.18029541015625,0.5296499729156494,0.011412499472498894,-1.7591749429702759
1780564806840820700,11.19982080078125,0.10724999755620956,-0.045099999755620956,-0.4399999976158142
1780564806860346400,11.219346435546875,-0.1578499972820282,-0.07136250287294388,0.8481000065803528
1780564806879877600,11.238877685546875,-0.35667499899864197,-0.09212499856948853,2.104987382888794
1780564806899408400,11.258408447265625,-0.5028374791145325,-0.10766249895095825,3.493462562561035
1780564806918937000,11.27793701171875,-0.6173750162124634,-0.12072499841451645,5.633649826049805
1780564806938463700,11.297463623046875,-0.7258625030517578,-0.13474999368190765,9.482137680053711
1780564806957990700,11.31699072265625,-2.5544750690460205,-0.5039374828338623,15.485525131225586
1780564806977515500,11.336515625,-4.689437389373779,-0.8945749998092651,18.82539939880371
1780564806997035300,11.35603515625,-4.700850009918213,-0.7732999920845032,17.46139907836914
1780564807016557300,11.375557373046876,-3.8743374347686768,-0.4433000087738037,14.326262474060059
1780564807036081400,11.395081298828124,-2.970412492752075,-0.10078749805688858,11.264824867248535
1780564807055603000,11.41460302734375,-2.1859750747680664,0.1915374994277954,8.698387145996094
1780564807075125000,11.434125,-1.547700047492981,0.40328750014305115,6.624475002288818
1780564807094649900,11.45364990234375,-1.0498124361038208,0.5196124911308289,5.137549877166748
1780564807114180900,11.473180908203124,-0.6748499870300293,0.5530250072479248,3.796099901199341
1780564807133713400,11.49271337890625,-0.4057624936103821,0.5351499915122986,2.8232874870300293
1780564807153243100,11.5122431640625,-0.21546250581741333,0.4926624894142151,2.1077375411987305
1780564807172772900,11.53177294921875,-0.08181250095367432,0.4372499883174896,1.5701124668121338
1780564807192304400,11.551304443359374,0.011549999937415123,0.37152498960494995,1.1490875482559204
1780564807231356000,11.59035595703125,0.1424500048160553,0.2063875049352646,0.439175009727478
1780564807250878700,11.609878662109375,0.20528750121593475,0.10628750175237656,0.09968750178813934
1780564807270407400,11.629407470703125,0.26840001344680786,0.00494999997317791,-0.22165000438690186
1780564807289941000,11.64894091796875,0.329862505197525,-0.07961250096559525,-0.5252500176429749
1780564807309475300,11.668475341796874,0.38871249556541443,-0.12732499837875366,-0.8171625137329102
1780564807329007400,11.68800732421875,0.44013750553131104,-0.12911249697208405,-1.0784125328063965
1780564807348536300,11.707536376953126,0.47066250443458557,-0.089649997651577,-1.2636250257492065
1780564807368068400,11.727068359375,0.47341248393058777,-0.025437500327825546,-1.3562999963760376
1780564807387595300,11.74659521484375,0.45663750171661377,0.0471624992787838,-1.4040124416351318
1780564807407118800,11.766118896484375,0.43078750371932983,0.1143999993801117,-1.465612530708313
1780564807426646300,11.785646240234374,0.43078750371932983,0.1143999993801117,-1.465612530708313
1780564807446173400,11.80517333984375,0.33233749866485596,0.1667875051498413,-1.6154874563217163
1780564807465698800,11.82469873046875,0.33233749866485596,0.1667875051498413,-1.6154874563217163
1780564807485228800,11.844228759765626,0.05898749828338623,0.07851249724626541,-1.4814250469207764
1780564807504760000,11.863760009765626,0.05898749828338623,0.07851249724626541,-1.4814250469207764
1780564807524291000,11.883291015625,-0.11329999566078186,0.033137500286102295,-1.3470875024795532
1780564807543822000,11.902822021484376,-0.23966249823570251,-0.0057749999687075615,-1.3210999965667725
1780564807563355600,11.922355712890624,-0.26221248507499695,-0.06393750011920929,-1.5707999467849731
1780564807582889500,11.941889404296875,-0.11838749796152115,-0.12993749976158142,-2.2583000659942627
1780564807602421000,11.9614208984375,-0.11838749796152115,-0.12993749976158142,-2.2583000659942627
1780564807621953500,11.98095361328125,1.631850004196167,0.15070000290870667,-7.607462406158447
1780564807641487000,12.000487060546876,4.134212493896484,0.7458000183105469,-14.682937622070312
1780564807661021200,12.020021240234374,6.11792516708374,1.180299997329712,-19.876724243164062
1780564807680554200,12.03955419921875,6.1177873611450195,1.1217249631881714,-19.20008659362793
1780564807700091000,12.0590908203125,5.151162624359131,0.8515374660491943,-15.869424819946289
1780564807719627000,12.078626953125,4.084712505340576,0.5640249848365784,-12.40827465057373
1780564807739154000,12.09815380859375,3.138437509536743,0.2957625091075897,-9.425762176513672
1780564807758679000,12.117678955078125,2.3529000282287598,0.05431250110268593,-7.017724990844727
1780564807778210000,12.1372099609375,1.744462490081787,-0.13722500205039978,-5.356862545013428
1780564807797741000,12.156740966796875,1.2816375494003296,-0.2513499855995178,-3.9337375164031982
1780564807817272300,12.176272216796875,0.9168499708175659,-0.2839374840259552,-2.8924500942230225
1780564807836803800,12.195803955078125,0.5875374674797058,-0.25244998931884766,-2.0150625705718994
1780564807856334000,12.215333984375,0.2915000021457672,-0.17338749766349792,-1.2490500211715698
1780564807875865600,12.234865478515625,0.07562500238418579,-0.056512501090765,-0.6725124716758728
1780564807895397400,12.2543974609375,-0.035612501204013824,0.08346249908208847,-0.3291749954223633
1780564807914927600,12.273927734375,-0.07136250287294388,0.22618749737739563,-0.1531749963760376
1780564807934460400,12.29346044921875,-0.08524999767541885,0.3521375060081482,-0.018699999898672104
1780564807953995500,12.31299560546875,-0.1438249945640564,0.4465999901294708,0.24791249632835388
1780564807973524200,12.332524169921875,-0.3928374946117401,0.4889499843120575,1.0602624416351318
1780564807993054000,12.352053955078125,-3.184774875640869,0.02722499892115593,9.177437782287598
1780564808012588500,12.371588623046875,-8.844412803649902,-1.119249939918518,26.23101234436035
1780564808032116200,12.3911162109375,-10.380562782287598,-1.4434750080108643,31.449687957763672
1780564808051639600,12.4106396484375,-7.591237545013428,-0.782925009727478,23.547975540161133
1780564808071162600,12.43016259765625,-5.383537292480469,-0.24255000054836273,17.310699462890625
1780564808090688000,12.44968798828125,-3.723637580871582,0.16266250610351562,12.64834976196289
1780564808110211000,12.469211181640626,-2.4817373752593994,0.4386250078678131,9.162862777709961
1780564808129732600,12.488732666015625,-1.559249997138977,0.5997750163078308,6.554900169372559
1780564808149264000,12.508263916015625,-0.8874250054359436,0.6730625033378601,4.738249778747559
1780564808168795000,12.527794921875,-0.4068624973297119,0.6916249990463257,3.229875087738037
1780564808188323300,12.5473232421875,-0.06916250288486481,0.6848874688148499,2.152975082397461
1780564808207855900,12.56685595703125,-0.06916250288486481,0.6848874688148499,2.152975082397461
1780564808227385300,12.58638525390625,0.16403749585151672,0.6683874726295471,1.379675030708313
1780564808246907100,12.6059072265625,0.4375250041484833,0.5950999855995178,0.37716248631477356
1780564808266425600,12.625425537109376,0.527999997138977,0.5335000157356262,-0.00976249948143959
1780564808285949700,12.64494970703125,0.5985375046730042,0.46956250071525574,-0.36616250872612
1780564808305479200,12.664479248046876,0.6380000114440918,0.41222500801086426,-0.6796625256538391
1780564808325009000,12.6840087890625,0.6380000114440918,0.41222500801086426,-0.6796625256538391
1780564808344532200,12.7035322265625,0.6415749788284302,0.35694998502731323,-0.938712477684021
1780564808364054500,12.723054443359375,0.6164125204086304,0.295074999332428,-1.1633875370025635
1780564808383580700,12.74258056640625,0.5654000043869019,0.22632500529289246,-1.385587453842163
1780564808403107300,12.762107421875,0.5654000043869019,0.22632500529289246,-1.385587453842163
1780564808422636500,12.781636474609375,0.36739999055862427,0.07713750004768372,-1.7782875299453735
1780564808442164200,12.801164306640626,0.22013749182224274,-0.010724999941885471,-1.8638124465942383
1780564808461687300,12.820687255859376,0.06572499871253967,-0.09913749992847443,-1.8931000232696533
1780564808481213000,12.840212890625,-0.07617499679327011,-0.1691250056028366,-1.9106999635696411
1780564808500741000,12.8597412109375,-0.21188749372959137,-0.21175000071525574,-1.8929624557495117
1780564808520271000,12.87927099609375,-0.36684998869895935,-0.23471249639987946,-1.7473499774932861
1780564808539800600,12.898800537109375,-0.5355625152587891,-0.2517625093460083,-1.4299999475479126
1780564808559323600,12.91832373046875,-0.6626124978065491,-0.26840001344680786,-1.0737375020980835
1780564808578848300,12.93784814453125,-0.6707249879837036,-0.2681249976158142,-0.9662125110626221
1780564808598373400,12.957373291015625,-0.49816250801086426,-0.2213750034570694,-1.3870999813079834
1780564808617897200,12.976897216796875,-0.09831249713897705,-0.09583749622106552,-2.5662999153137207
1780564808637427700,12.996427734375,0.7165125012397766,0.18438750505447388,-5.320425033569336
1780564808656959000,13.015958984375,2.750962495803833,0.8849499821662903,-12.106325149536133
1780564808676485000,13.035485107421875,5.370887279510498,1.7429499626159668,-21.081361770629883
1780564808696011500,13.055011474609374,6.167562484741211,1.9281624555587769,-23.51140022277832
1780564808715536400,13.074536376953125,5.193512439727783,1.4668500423431396,-19.729324340820312
1780564808735060700,13.094060791015625,3.9593124389648438,0.8668000102043152,-15.183162689208984
1780564808754589000,13.1135888671875,2.848449945449829,0.29631251096725464,-11.244750022888184
1780564808774118400,13.133118408203124,1.916200041770935,-0.1742125004529953,-8.090087890625
1780564808793647400,13.1526474609375,1.16902494430542,-0.515625,-5.895724773406982
1780564808813176000,13.172176025390625,0.6092625260353088,-0.720912516117096,-3.988462448120117
1780564808832704800,13.191704833984375,0.24543750286102295,-0.7807250022888184,-2.7428500652313232
1780564808852230700,13.211230712890625,0.050599999725818634,-0.6983624696731567,-1.9522249698638916
1780564808871755300,13.23075537109375,-0.028324998915195465,-0.4988499879837036,-1.437150001525879
1780564808891277600,13.250277587890626,-0.045649997889995575,-0.2241249978542328,-1.067275047302246
1780564808910803000,13.269802978515624,-0.03904999792575836,0.06764999777078629,-0.765874981880188
1780564808930332000,13.289331787109376,-0.022824998944997787,0.32670000195503235,-0.5020124912261963
1780564808949858300,13.3088583984375,-0.00494999997317791,0.5262125134468079,-0.24763749539852142
1780564808969380000,13.328380126953125,0.0085249999538064,0.669487476348877,0.030524998903274536
1780564808988904200,13.347904296875,-0.010862499475479126,0.7749499678611755,0.431612491607666
1780564809008429600,13.3674296875,-6.66091251373291,0.018424998968839645,21.2591495513916
1780564809027951600,13.38695166015625,-6.66091251373291,0.018424998968839645,21.2591495513916
1780564809047474200,13.40647412109375,-11.588225364685059,-0.5508249998092651,36.9203987121582
1780564809066997800,13.425997802734376,-8.322600364685059,-0.09542500227689743,27.3356876373291
1780564809086520000,13.44552001953125,-5.633237361907959,0.28338751196861267,19.313800811767578
1780564809106043100,13.465043212890626,-2.430312395095825,0.6469374895095825,9.61097526550293
1780564809125568000,13.484568115234374,-1.56021249294281,0.6721000075340271,6.827149868011475
1780564809164611300,13.523611328125,-0.989175021648407,0.6413000226020813,5.030300140380859
1780564809184138000,13.543137939453125,-0.3363249897956848,0.647350013256073,2.746424913406372
1780564809203666700,13.562666748046874,-0.3363249897956848,0.647350013256073,2.746424913406372
1780564809223193000,13.582193115234375,-0.1326874941587448,0.7412624955177307,2.2345125675201416
1780564809242716700,13.601716552734375,0.028187500312924385,0.8194999694824219,1.8760499954223633
1780564809262242800,13.621242919921874,0.16279999911785126,0.7793499827384949,1.4664374589920044
1780564809281771300,13.640771240234375,0.2798124849796295,0.5860249996185303,0.9044749736785889
1780564809301294800,13.660294921875,0.38596248626708984,0.3003000020980835,0.2190375030040741
1780564809320813800,13.679813720703125,0.4772624969482422,0.014024999924004078,-0.47244998812675476
1780564809340335000,13.699335205078125,0.546287477016449,-0.1989624947309494,-1.0671374797821045
1780564809359860200,13.718860107421875,0.596750020980835,-0.2985124886035919,-1.5349124670028687
1780564809379384300,13.73838427734375,0.6342874765396118,-0.2747249901294708,-1.866974949836731
1780564809398907600,13.75790771484375,0.6569749712944031,-0.16362500190734863,-2.052187442779541
1780564809418431000,13.777430908203126,0.6527125239372253,-0.03478749841451645,-2.095912456512451
1780564809437953500,13.79695361328125,0.612012505531311,0.05816249921917915,-2.0613999366760254
1780564809457478700,13.816478759765625,0.5366625189781189,0.09844999760389328,-2.0369250774383545
1780564809477003000,13.8360029296875,0.4474250078201294,0.082225002348423,-2.135925054550171
1780564809496527400,13.85552734375,0.3895374834537506,0.02488750033080578,-2.5190000534057617
1780564809516049700,13.875049560546875,0.4404124915599823,-0.0032999999821186066,-3.373149871826172
1780564809535566600,13.894566650390624,0.7159624695777893,0.1036750003695488,-4.922087669372559
1780564809555085000,13.9140849609375,1.3784375190734863,0.4399999976158142,-7.16691255569458
1780564809574609200,13.933609130859375,2.5682249069213867,1.0268499851226807,-10.744524955749512
1780564809594135000,13.953135009765624,3.921912431716919,1.645187497138977,-14.414812088012695
1780564809613657600,13.97265771484375,4.636499881744385,1.9470000267028809,-15.9354248046875
1780564809633183500,13.99218359375,4.514400005340576,1.887737512588501,-14.931949615478516
1780564809652702500,14.011702392578124,3.9877750873565674,1.6627874374389648,-12.801112174987793
1780564809672212000,14.0312119140625,3.3767249584198,1.3934249877929688,-10.525349617004395
1780564809691724500,14.050724609375,2.7949624061584473,1.1149874925613403,-8.45363712310791
1780564809711246600,14.07024658203125,2.270812511444092,0.8364124894142151,-6.678237438201904
1780564809730771000,14.08977099609375,1.8156875371932983,0.5669124722480774,-5.3875250816345215
1780564809750289400,14.109289306640624,1.4161125421524048,0.3244999945163727,-4.143700122833252
1780564809769808400,14.128808349609375,1.0851500034332275,0.12870000302791595,-3.225337505340576
1780564809789328600,14.14832861328125,0.8054749965667725,-0.011412499472498894,-2.515424966812134
1780564809808848100,14.16784814453125,0.547249972820282,-0.09776250272989273,-1.88319993019104
1780564809828368100,14.1873681640625,0.2974124848842621,-0.13296249508857727,-1.2627999782562256
1780564809847891000,14.206890869140626,0.2974124848842621,-0.13296249508857727,-1.2627999782562256
1780564809867412700,14.226412841796876,0.06902500241994858,-0.1190750002861023,-0.6726499795913696
1780564809886934800,14.245934814453125,-0.28187498450279236,0.020899999886751175,0.2905375063419342
1780564809906457600,14.26545751953125,-0.42294999957084656,0.10683749616146088,0.682824969291687
1780564809925981400,14.2849814453125,-0.5715875029563904,0.1648624986410141,1.0960124731063843
1780564809945507000,14.304507080078125,-0.5715875029563904,0.1648624986410141,1.0960124731063843
1780564809965029400,14.324029296875,-0.5715875029563904,0.1648624986410141,1.0960124731063843
1780564809984548900,14.343548828125,-4.774549961090088,-1.3446124792099,14.475449562072754
1780564810004069600,14.363069580078125,-4.774549961090088,-1.3446124792099,14.475449562072754
1780564810023589000,14.382589111328125,-8.059562683105469,-2.7524750232696533,25.688987731933594
1780564810043104500,14.4021044921875,-7.459099769592285,-2.5966875553131104,24.896713256835938
1780564810062620400,14.421620361328126,-5.494637489318848,-1.7858500480651855,19.414724349975586
1780564810082140400,14.441140380859375,-3.893312454223633,-1.0998624563217163,14.853574752807617
1780564810101660700,14.46066064453125,-2.690462589263916,-0.5784624814987183,11.389949798583984
1780564810121184000,14.48018408203125,-1.788599967956543,-0.19222499430179596,8.711862564086914
1780564810140708400,14.499708251953125,-1.1174625158309937,0.08799999952316284,6.618012428283691
1780564810160233000,14.51923291015625,-0.6342874765396118,0.2857249975204468,5.188149929046631
1780564810179756300,14.53875634765625,-0.29782500863075256,0.41868749260902405,3.9366250038146973
1780564810199280000,14.558280029296874,-0.06916250288486481,0.5010499954223633,3.021287441253662
1780564810218804200,14.57780419921875,0.07878749817609787,0.5407875180244446,2.2846999168395996
1780564810238325000,14.597324951171874,0.16321249306201935,0.5230500102043152,1.6216750144958496
1780564810257846800,14.6168466796875,0.20473749935626984,0.4147000014781952,0.9631875157356262
1780564810277372400,14.636372314453125,0.2241249978542328,0.20776249468326569,0.2881999909877777
1780564810296898000,14.65589794921875,0.23539999127388,-0.05087500065565109,-0.3624500036239624
1780564810316423400,14.67542333984375,0.24447499215602875,-0.2857249975204468,-0.9150624871253967
1780564810335947800,14.69494775390625,0.2498375028371811,-0.4302375018596649,-1.3010250329971313
1780564810355472100,14.71447216796875,0.24736249446868896,-0.4511374831199646,-1.4953124523162842
1780564810374996200,14.733996337890625,0.23182499408721924,-0.3587374985218048,-1.5195125341415405
1780564810394520600,14.7535205078125,0.2050125002861023,-0.1999250054359436,-1.4236749410629272
1780564810414045700,14.773045654296874,0.1765500009059906,-0.03148749843239784,-1.2706375122070312
1780564810433572400,14.792572265625,0.15399999916553497,0.11701250076293945,-1.1053625345230103
1780564810453095700,14.812095703125,0.14313749969005585,0.23759999871253967,-0.9682750105857849
1780564810472615700,14.83161572265625,0.14657500386238098,0.32394999265670776,-0.9000750184059143
1780564810492139300,14.85113916015625,0.15716250240802765,0.3737249970436096,-0.9145125150680542
1780564810511660500,14.87066064453125,0.16142499446868896,0.3891249895095825,-1.006500005722046
1780564810531179800,14.8901796875,0.14657500386238098,0.3642374873161316,-1.199275016784668
1780564810550703000,14.909703125,0.11412499845027924,0.2815999984741211,-1.5856499671936035
1780564810570229500,14.9292294921875,0.11879999935626984,0.1508374959230423,-2.360187530517578
1780564810589752300,14.94875244140625,0.3139125108718872,0.057337500154972076,-3.8708999156951904
1780564810609270300,14.968270263671876,0.9648374915122986,0.16183750331401825,-6.6871747970581055
1780564810628785700,14.98778564453125,2.2885499000549316,0.5563250184059143,-10.142274856567383
1780564810648305200,15.00730517578125,3.910362482070923,1.012137532234192,-13.786437034606934
1780564810667826700,15.02682666015625,3.910362482070923,1.012137532234192,-13.786437034606934
1780564810687348500,15.046348388671875,4.934324741363525,1.1987249851226807,-15.342662811279297
1780564810706870500,15.06587060546875,4.544650077819824,1.0335874557495117,-12.57808780670166
1780564810726395600,15.085395751953126,3.889050006866455,0.9849125146865845,-10.357049942016602
1780564810745921000,15.104921142578124,3.236612558364868,0.956725001335144,-8.314350128173828
1780564810765446400,15.1244462890625,3.236612558364868,0.956725001335144,-8.314350128173828
1780564810784974300,15.143974365234374,2.1452748775482178,0.8170250058174133,-5.359749794006348
1780564810804498400,15.16349853515625,2.1452748775482178,0.8170250058174133,-5.359749794006348
1780564810824020500,15.1830205078125,1.7161375284194946,0.7231125235557556,-4.242974758148193
1780564810843546400,15.20254638671875,1.3429625034332275,0.6279624700546265,-3.414674997329712
1780564810863071700,15.22207177734375,1.0005874633789062,0.5278624892234802,-2.7552249431610107
1780564810882597400,15.241597412109375,0.6876375079154968,0.4236375093460083,-2.191200017929077
1780564810902122800,15.261122802734375,0.3997125029563904,0.32807499170303345,-1.6693874597549438
1780564810921645600,15.2806455078125,0.11824999749660492,0.2578125,-1.1175999641418457
1780564810941165800,15.300165771484375,-0.1621125042438507,0.22481249272823334,-0.5103999972343445
1780564810960689200,15.319689208984375,-0.42281249165534973,0.23361249268054962,0.10821250081062317
1780564810980212000,15.3392119140625,-0.6916249990463257,0.27211248874664307,0.8189499974250793
1780564810999733800,15.358733642578125,-1.227737545967102,0.2890250086784363,2.317425012588501
1780564811019263200,15.37826318359375,-3.933187484741211,-0.0789249986410141,9.777074813842773
1780564811038794500,15.39779443359375,-8.503137588500977,-0.8668000102043152,23.18456268310547
1780564811058320100,15.417320068359375,-9.598187446594238,-0.9542499780654907,27.45490074157715
1780564811077841700,15.436841552734375,-7.23511266708374,-0.26936250925064087,21.63974952697754
1780564811097368600,15.45636865234375,-5.05917501449585,0.3221625089645386,16.031124114990234
1780564811136427800,15.495427734375,-2.13881254196167,0.8665249943733215,8.184137344360352
1780564811155959300,15.514959228515625,-1.2661000490188599,0.8639125227928162,5.93257474899292
1780564811175494000,15.534493896484374,-0.6458374857902527,0.7654625177383423,3.934149980545044
1780564811195025200,15.554025146484374,-0.1993750035762787,0.6393749713897705,2.463587522506714
1780564811214553600,15.5735537109375,0.1303499937057495,0.5219500064849854,1.3466750383377075
1780564811234080300,15.593080322265624,0.3722124993801117,0.420199990272522,0.512737512588501
1780564811253606700,15.612606689453125,0.5396875143051147,0.32766249775886536,-0.08978749811649323
1780564811273137000,15.632136962890625,0.6447374820709229,0.23980000615119934,-0.5242875218391418
1780564811292666600,15.65166650390625,0.7016624808311462,0.1588124930858612,-0.8431500196456909
1780564811312195300,15.6711953125,0.7290250062942505,0.10381250083446503,-1.0843249559402466
1780564811331722200,15.69072216796875,0.7429124712944031,0.07644999772310257,-1.270912528038025
1780564811351252000,15.710251953125,0.7462124824523926,0.07782500237226486,-1.3950749635696411
1780564811370785000,15.729784912109375,0.7303999662399292,0.11646249890327454,-1.4291750192642212
1780564811390314800,15.749314697265625,0.6859874725341797,0.17476250231266022,-1.360837459564209
1780564811409843700,15.76884375,0.6104999780654907,0.233474999666214,-1.2248499393463135
1780564811429372200,15.7883720703125,0.5018749833106995,0.2723875045776367,-1.0736000537872314
1780564811448901000,15.807901123046875,0.35694998502731323,0.27018749713897705,-0.9421499967575073
1780564811468426200,15.82742626953125,0.18369999527931213,0.2157374918460846,-0.8640499711036682
1780564811487948000,15.846947998046875,0.18369999527931213,0.2157374918460846,-0.8640499711036682
1780564811507472100,15.86647216796875,0.008937500417232513,0.12457499653100967,-0.9003499746322632
1780564811526998800,15.885998779296875,-0.1451999992132187,0.02694999985396862,-1.0936750173568726
1780564811546525700,15.905525634765626,-0.3242250084877014,-0.05829999968409538,-1.884850025177002
1780564811566052600,15.925052490234375,-0.2633124887943268,0.006324999965727329,-2.4974124431610107
1780564811585579500,15.94457958984375,-0.00494999997317791,0.17627499997615814,-3.5087249279022217
1780564811605104600,15.964104736328125,-0.00494999997317791,0.17627499997615814,-3.5087249279022217
1780564811624629200,15.983629150390625,0.6171000003814697,0.5442249774932861,-5.68672513961792
1780564811644154400,16.003154296875,1.9973249435424805,1.3253624439239502,-10.030625343322754
1780564811663678700,16.0226787109375,3.9088499546051025,2.320037603378296,-16.225412368774414
1780564811683206000,16.042205810546875,4.938312530517578,2.71521258354187,-19.199674606323242
1780564811702732500,16.061732666015626,4.634437561035156,2.354687452316284,-17.638774871826172
1780564811722259500,16.081259521484377,3.8152124881744385,1.7605500221252441,-14.473112106323242
1780564811741785300,16.100785400390624,2.975912570953369,1.2046375274658203,-11.359837532043457
1780564811761308000,16.120307861328126,2.2763125896453857,0.7578999996185303,-8.789137840270996
1780564811780830200,16.139830322265624,1.7176499366760254,0.4236375093460083,-6.752762317657471
1780564811800351200,16.159351318359374,1.7176499366760254,0.4236375093460083,-6.752762317657471
1780564811819874300,16.178874267578124,0.8775249719619751,0.06668750196695328,-3.9008750915527344
1780564811839398100,16.198398193359374,0.5670499801635742,0.020075000822544098,-2.8557374477386475
1780564811858922800,16.2179228515625,0.3231250047683716,0.020349999889731407,-2.0743250846862793
1780564811878445600,16.237445556640626,0.1381874978542328,0.03946249932050705,-1.4896750450134277
1780564811897964500,16.256964599609375,0.006737499963492155,0.06641250103712082,-1.0616375207901
1780564811917487600,16.276487548828126,-0.089649997651577,0.10119999945163727,-0.7319124937057495
1780564811937011500,16.296011474609376,-0.18273749947547913,0.14464999735355377,-0.408237487077713
1780564811956535800,16.315535888671874,-0.2934249937534332,0.1979999989271164,-0.026537500321865082
1780564811976060000,16.335059814453125,-0.4197874963283539,0.26468750834465027,0.42391249537467957
1780564811995585800,16.354585693359375,-0.5692499876022339,0.3414124846458435,0.9875249862670898
1780564812015110700,16.374110595703126,-0.8493375182151794,0.40039998292922974,2.02839994430542
1780564812034635500,16.393635498046876,-6.643312454223633,-0.7038624882698059,21.177474975585938
1780564812054164000,16.4131640625,-11.09171199798584,-1.5501749515533447,36.21928787231445
1780564812073689600,16.432689697265626,-8.466975212097168,-0.9208375215530396,28.24442481994629
1780564812093218000,16.452218017578126,-5.831512451171875,-0.2708750069141388,20.20988655090332
1780564812112750600,16.47175048828125,-3.8068249225616455,0.2708750069141388,14.296150207519531
1780564812132279000,16.491279052734374,-2.332274913787842,0.690387487411499,10.186687469482422
1780564812151808800,16.510808837890625,-1.3044625520706177,0.9626374840736389,7.3823747634887695
1780564812171340800,16.5303408203125,-0.5950999855995178,1.0885875225067139,5.580574989318848
1780564812190867200,16.5498671875,-0.09776250272989273,1.0927125215530396,3.9448750019073486
1780564812210390300,16.569390380859375,0.24447499215602875,1.0144749879837036,2.7083375453948975
1780564812229913000,16.5889130859375,0.46997499465942383,0.8867374658584595,1.7591749429702759
1780564812249441500,16.608441650390624,0.6047250032424927,0.7306749820709229,1.032212495803833
1780564812268970200,16.62797021484375,0.6692125201225281,0.5581125020980835,0.4727250039577484
1780564812288497000,16.647496826171874,0.6821374893188477,0.38279998302459717,0.021175000816583633
1780564812308025300,16.667025390625,0.6630250215530396,0.2264624983072281,-0.37248748540878296
1780564812327553800,16.6865537109375,0.6630250215530396,0.2264624983072281,-0.37248748540878296
1780564812347079200,16.7060791015625,0.6254875063896179,0.04496249929070473,-1.019700050354004
1780564812366600000,16.725599853515625,0.6323624849319458,0.03863750025629997,-1.2379125356674194
1780564812386119000,16.745118896484374,0.6323624849319458,0.03863750025629997,-1.2379125356674194
1780564812405636000,16.764635986328123,0.6342874765396118,0.148499995470047,-1.4440250396728516
1780564812425154800,16.78415478515625,0.6342874765396118,0.148499995470047,-1.4440250396728516
1780564812444679400,16.803679443359375,0.5752999782562256,0.20446249842643738,-1.4317874908447266
1780564812464200400,16.823200439453124,0.4589749872684479,0.22068749368190765,-1.3561625480651855
1780564812483722500,16.842722412109374,0.28833749890327454,0.18150000274181366,-1.2666499614715576
1780564812503245300,16.862245361328124,0.08181250095367432,0.0966624990105629,-1.2542749643325806
1780564812522767400,16.881767333984374,-0.13420000672340393,-0.004812499973922968,-1.402500033378601
1780564812542289200,16.9012890625,-0.3255999982357025,-0.09391249716281891,-1.7223249673843384
1780564812561813800,16.920813720703126,-0.4641999900341034,-0.1578499972820282,-2.1377124786376953
1780564812581340700,16.940340576171874,-0.5240125060081482,-0.1825999915599823,-2.5827999114990234
1780564812600864300,16.9598642578125,-0.5240125060081482,-0.1825999915599823,-2.5827999114990234
1780564812620387000,16.979386962890626,-0.2316875010728836,0.007699999958276749,-3.8106749057769775
1780564812639910700,16.99891064453125,0.1545500010251999,0.2586374878883362,-4.764237403869629
1780564812659435800,17.018435791015627,0.5842375159263611,0.5842375159263611,-6.217337608337402
1780564812678959900,17.0379599609375,0.9337624907493591,0.8894875049591064,-8.357937812805176
1780564812698480400,17.05748046875,2.0017249584198,1.557462453842163,-12.58014965057373
1780564812717998000,17.076998046875,3.414262533187866,2.3439624309539795,-16.423686981201172
1780564812737516500,17.0965166015625,3.818650007247925,2.4472250938415527,-16.808412551879883
1780564812757037300,17.116037353515626,3.418799877166748,2.000762462615967,-14.494424819946289
1780564812776557800,17.135557861328124,2.7743375301361084,1.3914999961853027,-11.605137825012207
1780564812796081000,17.155080810546874,2.140049934387207,0.8214250206947327,-9.055337905883789
1780564812815602400,17.1746025390625,1.5819374322891235,0.3587374985218048,-7.00466251373291
1780564812835125800,17.194125732421874,1.1111375093460083,0.020624998956918716,-5.574249744415283
1780564812854649000,17.213649169921876,0.7251750230789185,-0.1929125040769577,-4.189212322235107
1780564812874169300,17.23316943359375,0.4324375092983246,-0.2915000021457672,-3.148200035095215
1780564812893693400,17.252693359375,0.22453749179840088,-0.29205000400543213,-2.370912551879883
1780564812913219800,17.2722197265625,0.06544999778270721,-0.22618749737739563,-1.7474875450134277
1780564812932744000,17.291743896484373,-0.08071249723434448,-0.12773749232292175,-1.1874500513076782
1780564812952266500,17.3112666015625,-0.2237125039100647,-0.022687500342726707,-0.6631624698638916
1780564812971791600,17.33079150390625,-0.3540624976158142,0.07232499867677689,-0.18796250224113464
1780564812991321900,17.35032177734375,-0.47712498903274536,0.14657500386238098,0.26826250553131104
1780564813010851300,17.369851318359373,-0.6386874914169312,0.19139999151229858,0.8449375033378601
1780564813030378000,17.3893779296875,-0.9492999911308289,0.1933249980211258,1.87728750705719
1780564813049905200,17.4089052734375,-2.000762462615967,0.04729999974370003,5.234212398529053
1780564813088956700,17.447956787109376,-9.24852466583252,-1.4156999588012695,27.842374801635742
1780564813108480000,17.46747998046875,-7.86403751373291,-1.0562750101089478,24.446674346923828
1780564813128001000,17.4870009765625,-5.769499778747559,-0.533637523651123,18.699724197387695
1780564813147528000,17.50652783203125,-4.034937381744385,-0.11055000126361847,13.94992446899414
1780564813167059500,17.5260595703125,-2.703937530517578,0.20432500541210175,10.348662376403809
1780564813186587400,17.54558740234375,-2.703937530517578,0.20432500541210175,10.348662376403809
1780564813206110200,17.565110107421877,-0.9648374915122986,0.6114624738693237,5.956500053405762
1780564813225633000,17.584633056640627,-0.41813749074935913,0.7485499978065491,4.357100009918213
1780564813245160400,17.604160400390626,-0.41813749074935913,0.7485499978065491,4.357100009918213
1780564813264687400,17.623687255859377,-0.02956249937415123,0.8487874865531921,3.1747374534606934
1780564813284214300,17.64321435546875,0.22384999692440033,0.8776624798774719,2.2290124893188477
1780564813303743500,17.662743408203124,0.36313748359680176,0.7965375185012817,1.4045624732971191
1780564813323272700,17.682272705078127,0.4151124954223633,0.6107749938964844,0.6643999814987183
1780564813342796500,17.701796630859373,0.4164874851703644,0.3764750063419342,0.018012499436736107
1780564813362322200,17.721322265625,0.39861249923706055,0.16183750331401825,-0.5031124949455261
1780564813381852700,17.740852783203124,0.3726249933242798,-0.0016499999910593033,-0.8864625096321106
1780564813401386200,17.76038623046875,0.3726249933242798,-0.0016499999910593033,-0.8864625096321106
1780564813420920800,17.7799208984375,0.2807750105857849,-0.18177500367164612,-1.292912483215332
1780564813440453000,17.799453125,0.19841249287128448,-0.2149125039577484,-1.3261874914169312
1780564813459986700,17.818986572265626,0.09721250087022781,-0.22398750483989716,-1.280537486076355
1780564813479517000,17.838516845703126,-0.0008249999955296516,-0.21463750302791595,-1.2047749757766724
1780564813499040800,17.858040771484376,-0.08236250281333923,-0.1891999989748001,-1.1253000497817993
1780564813518564900,17.87756494140625,-0.1625249981880188,-0.148499995470047,-0.9970124959945679
1780564813538088700,17.897088623046876,-0.2516250014305115,-0.09157499670982361,-0.7812749743461609
1780564813557611500,17.916611572265627,-0.33219999074935913,-0.020212499424815178,-0.5297874808311462
1780564813577134600,17.936134521484377,-0.3657499849796295,0.03451250120997429,-0.38885000348091125
1780564813596661000,17.955660888671876,-0.3162499964237213,0.035887498408555984,-0.5266249775886536
1780564813616186600,17.9751865234375,-0.1681624948978424,-0.0019249999895691872,-1.0510499477386475
1780564813635709200,17.994709228515624,0.1317249983549118,0.007562499959021807,-2.2174625396728516
1780564813655232800,18.014232666015626,0.9380249977111816,0.3199625015258789,-5.516637325286865
1780564813674757600,18.033757568359373,3.5132625102996826,1.5912874937057495,-14.706862449645996
1780564813694285800,18.053285888671876,6.053437232971191,2.7095749378204346,-23.322887420654297
1780564813713819000,18.07281884765625,6.0589375495910645,2.4349875450134277,-22.71046257019043
1780564813733349000,18.09234912109375,4.855949878692627,1.646975040435791,-18.17378807067871
1780564813752881000,18.111880859375,3.6693248748779297,0.964287519454956,-13.86192512512207
1780564813772414500,18.13141455078125,2.6855125427246094,0.4666749835014343,-10.336699485778809
1780564813791938800,18.150938720703124,1.9182624816894531,0.1494625061750412,-7.596875190734863
1780564813811461400,18.17046142578125,1.3514875173568726,-0.011274999938905239,-5.749837398529053
1780564813830986200,18.189986328125,0.9356874823570251,-0.053075000643730164,-4.101762294769287
1780564813850509800,18.209509765625,0.6313999891281128,-0.018149999901652336,-2.9111499786376953
1780564813870033000,18.229032958984376,0.405349999666214,0.057750001549720764,-2.0185000896453857
1780564813889557200,18.24855712890625,0.23759999871253967,0.14959999918937683,-1.3355374336242676
1780564813909085200,18.268085205078126,0.12333749979734421,0.2451625019311905,-0.8333874940872192
1780564813928617200,18.2876171875,0.062424998730421066,0.3564000129699707,-0.4870249927043915
1780564813948150800,18.30715087890625,0.04592499881982803,0.5207124948501587,-0.17215000092983246
1780564813967679200,18.32667919921875,0.04592499881982803,0.5207124948501587,-0.17215000092983246
1780564813987205000,18.346205078125,-0.6080250144004822,0.7414000034332275,3.5132625102996826
1780564814006733300,18.3657333984375,-4.764512538909912,-1.6589374542236328,21.200437545776367
1780564814026258200,18.385258056640627,-7.140100002288818,-3.2522873878479004,32.66408920288086
1780564814045787600,18.40478759765625,-7.140100002288818,-3.2522873878479004,32.66408920288086
1780564814065316400,18.42431640625,-7.140100002288818,-3.2522873878479004,32.66408920288086
1780564814084842200,18.44384228515625,-3.0439748764038086,-0.7614749670028687,18.16429901123047
1780564814104369400,18.463369384765624,-1.8467625379562378,-0.1788875013589859,12.679425239562988
1780564814123898400,18.4828984375,-1.1283249855041504,-0.0424874983727932,8.377050399780273
1780564814143428900,18.502428955078123,-0.7042750120162964,-0.12691250443458557,5.290587425231934
1780564814162959600,18.521959716796875,-0.4328500032424927,-0.23663750290870667,2.883512496948242
1780564814182489900,18.54148974609375,-0.2554749846458435,-0.3148750066757202,1.4075875282287598
1780564814202016000,18.56101611328125,-0.2554749846458435,-0.3148750066757202,1.4075875282287598
1780564814221540900,18.580540771484376,-0.09790000319480896,-0.39902499318122864,0.1494625061750412
1780564814241069800,18.60006982421875,-0.07466249912977219,-0.39352500438690186,0.11096250265836716
1780564814260601600,18.6196015625,-0.06187500059604645,-0.35846251249313354,0.2927374839782715
1780564814280128500,18.63912841796875,-0.037675000727176666,-0.30195000767707825,0.511775016784668
1780564814299652000,18.658652099609377,0.014574999921023846,-0.23553749918937683,0.6151750087738037
1780564814319177700,18.678177734375,0.09611249715089798,-0.17063750326633453,0.5554999709129333
1780564814338706200,18.6977060546875,0.19181250035762787,-0.11935000121593475,0.36959999799728394
1780564814358231600,18.7172314453125,0.279262512922287,-0.08415000140666962,0.1311749964952469
1780564814377756000,18.736755859375,0.3507624864578247,-0.050599999725818634,-0.10106249898672104
1780564814397282300,18.7562822265625,0.40851250290870667,-0.004124999977648258,-0.2839374840259552
1780564814416808700,18.77580859375,0.4538874924182892,0.05829999968409538,-0.3891249895095825
1780564814436334000,18.795333984375,0.48510000109672546,0.1381874978542328,-0.44302499294281006
1780564814455860000,18.81485986328125,0.4936249852180481,0.23732499778270721,-0.5110874772071838
1780564814475388700,18.834388671875,0.46818751096725464,0.34306249022483826,-0.6338750123977661
1780564814494915300,18.853915283203126,0.38788750767707825,0.42473748326301575,-0.7937874794006348
1780564814514439400,18.873439453125,0.22714999318122864,0.4534749984741211,-0.9466875195503235
1780564814533961700,18.892961669921874,-0.010449999943375587,0.4152500033378601,-1.119249939918518
1780564814553484000,18.912484130859376,-0.2755500078201294,0.3227125108242035,-1.3924624919891357
1780564814573013200,18.93201318359375,-0.4782249927520752,0.22618749737739563,-1.8225624561309814
1780564814592543000,18.95154296875,-0.5333625078201294,0.18754999339580536,-2.426462411880493
1780564814612069000,18.971069091796874,-0.3993000090122223,0.24461250007152557,-3.2491250038146973
1780564814631597000,18.99059716796875,-0.0424874983727932,0.42432498931884766,-4.5413498878479
1780564814651121000,19.010120849609375,0.6041749715805054,0.7732999920845032,-6.488349914550781
1780564814670641400,19.029641357421873,1.5778124332427979,1.2984124422073364,-9.547037124633789
1780564814690168800,19.0491689453125,2.6147000789642334,1.7957500219345093,-12.610400199890137
1780564814709699300,19.06869921875,3.2258875370025635,1.9639124870300293,-13.979074478149414
1780564814729228300,19.088228271484375,3.2489874362945557,1.7591749429702759,-13.274250030517578
1780564814748755500,19.10775537109375,2.8994624614715576,1.3629000186920166,-11.411262512207031
1780564814768282000,19.1272822265625,2.41367506980896,0.9385749697685242,-9.253887176513672
1780564814787811800,19.146811767578125,2.41367506980896,0.9385749697685242,-9.253887176513672
1780564814807339300,19.16633935546875,1.9347624778747559,0.5820375084877014,-7.273475170135498
1780564814826870300,19.185870361328124,1.21274995803833,0.21779999136924744,-4.517562389373779
1780564814846404400,19.205404296875,0.9596124887466431,0.18067499995231628,-3.5052874088287354
1780564814865933800,19.224933837890624,0.7469000220298767,0.18067499995231628,-2.7112250328063965
1780564814885463600,19.244463623046876,0.7469000220298767,0.18067499995231628,-2.7112250328063965
1780564814904993500,19.26399365234375,0.552887499332428,0.18782499432563782,-2.0491623878479004
1780564814924523300,19.283523193359375,0.35708749294281006,0.19112500548362732,-1.4502124786376953
1780564814944052000,19.303052001953127,0.13928750157356262,0.18878750503063202,-0.8531875014305115
1780564814963581000,19.322580810546874,-0.11866249889135361,0.17256249487400055,-0.18947499990463257
1780564814983114000,19.342114013671875,-0.43078750371932983,0.13103750348091125,0.6191624999046326
1780564815041701000,19.400701171875,-2.892587423324585,-0.6078875064849854,8.16777515411377
1780564815061229000,19.42022900390625,-6.424962520599365,-1.9201874732971191,20.066062927246094
1780564815080755000,19.4397548828125,-8.315725326538086,-2.5991625785827637,27.081724166870117
1780564815100286200,19.4592861328125,-6.782050132751465,-1.9172999858856201,22.901174545288086
1780564815119816400,19.47881640625,-4.859525203704834,-1.0738749504089355,17.369274139404297
1780564815139341600,19.498341552734374,-3.2803375720977783,-0.38830000162124634,12.825724601745605
1780564815158869000,19.517868896484377,-2.1135125160217285,0.09308750182390213,9.372824668884277
1780564815178393300,19.537393310546875,-1.2931874990463257,0.3862375020980835,6.792912483215332
1780564815197914000,19.5569140625,-0.7261375188827515,0.5282750129699707,5.001837253570557
1780564815217438000,19.57643798828125,-0.3335750102996826,0.5638874769210815,3.456475019454956
1780564815236966400,19.59596630859375,-0.058024998754262924,0.5402374863624573,2.3240249156951904
1780564815256498000,19.615497802734374,0.13942499458789825,0.49527499079704285,1.472487449645996
1780564815276025900,19.63502587890625,0.28036248683929443,0.4478375017642975,0.8130375146865845
1780564815295550500,19.654550537109376,0.37674999237060547,0.39916250109672546,0.2917749881744385
1780564815315078100,19.674078125,0.4404124915599823,0.34443750977516174,-0.12031249701976776
1780564815334606800,19.69360693359375,0.4894999861717224,0.28737500309944153,-0.4507249891757965
1780564815354132700,19.7131328125,0.5352874994277954,0.24117499589920044,-0.7189875245094299
1780564815373656000,19.732656005859376,0.5746124982833862,0.21601249277591705,-0.911899983882904
1780564815393184800,19.752184814453123,0.595787525177002,0.2147749960422516,-1.0109000205993652
1780564815412718300,19.77171826171875,0.589187502861023,0.23952500522136688,-1.0448625087738037
1780564815432249000,19.7912490234375,0.5511000156402588,0.28696250915527344,-1.0859750509262085
1780564815451777800,19.81077783203125,0.4769875109195709,0.33742499351501465,-1.1827750205993652
1780564815471304400,19.830304443359374,0.36629998683929443,0.35708749294281006,-1.3279750347137451
1780564815490831400,19.849831298828125,0.22756250202655792,0.31872498989105225,-1.4882999658584595
1780564815510362000,19.869362060546877,0.06778749823570251,0.21793749928474426,-1.6248375177383423
1780564815529891600,19.8888916015625,-0.10408750176429749,0.07823749631643295,-1.7147624492645264
1780564815549417000,19.9084169921875,-0.26963749527931213,-0.05719999969005585,-1.7663249969482422
1780564815568947000,19.927947021484375,-0.4020499885082245,-0.1541374921798706,-1.790524959564209
1780564815588476000,19.947475830078126,-0.47079998254776,-0.20061250030994415,-1.809499979019165
1780564815608004000,19.967004150390625,-0.4361499845981598,-0.18328750133514404,-1.9666625261306763
1780564815627534800,19.986534912109374,-0.4361499845981598,-0.18328750133514404,-1.9666625261306763
1780564815647067000,20.00606689453125,-0.17778749763965607,-0.005912499967962503,-2.873612403869629
1780564815666603800,20.025603759765627,5.415987491607666,4.220425128936768,-25.13761329650879
1780564815686141400,20.045141357421876,6.678237438201904,4.953712463378906,-29.559749603271484
1780564815705668400,20.06466845703125,6.678237438201904,4.953712463378906,-29.559749603271484
1780564815725193500,20.084193359375,6.678237438201904,4.953712463378906,-29.559749603271484
1780564815744721700,20.1037216796875,3.6239500045776367,2.35661244392395,-16.55486297607422
1780564815764246000,20.12324609375,2.4824249744415283,1.4118499755859375,-11.870237350463867
1780564815783770000,20.14277001953125,1.5960999727249146,0.6825500130653381,-8.35367488861084
1780564815803295500,20.16229541015625,1.5960999727249146,0.6825500130653381,-8.35367488861084
1780564815822821400,20.1818212890625,0.47203749418258667,-0.15207499265670776,-4.107675075531006
1780564815842347000,20.201346923828126,0.16926249861717224,-0.2788499891757965,-2.8509249687194824
1780564815861870300,20.220870361328124,-0.03451250120997429,-0.2862749993801117,-1.9815125465393066
1780564815881394200,20.240394287109375,-0.19470000267028809,-0.2330625057220459,-1.293874979019165
1780564815900920300,20.25992041015625,-0.3452624976634979,-0.1531749963760376,-0.6744375228881836
1780564815920449300,20.27944921875,-0.4877125024795532,-0.05376249924302101,-0.10284999758005142
1780564815939977500,20.2989775390625,-0.6069250106811523,0.06324999779462814,0.4020499885082245
1780564815959508700,20.3185087890625,-0.6841999888420105,0.19359999895095825,0.8162000179290771
1780564815979037400,20.338037353515624,-0.7138999700546265,0.33192500472068787,1.1576124429702759
1780564815998562000,20.35756201171875,-0.7462124824523926,0.4600749909877777,1.6039375066757202
1780564816018088000,20.377087890625,-1.0481624603271484,0.5031124949455261,3.0556623935699463
1780564816037616000,20.3966162109375,-4.843025207519531,-0.5215374827384949,16.76372528076172
1780564816057147600,20.416147705078124,-8.4365873336792,-1.623462438583374,30.393274307250977
1780564816076681000,20.435680908203125,-7.333974838256836,-1.3649624586105347,27.607799530029297
1780564816096215000,20.455215087890625,-5.1988749504089355,-0.716237485408783,20.628849029541016
1780564816115748600,20.47474853515625,-3.511199951171875,-0.19676250219345093,15.092411994934082
1780564816135284000,20.494283935546875,-2.251149892807007,0.17668749392032623,10.989412307739258
1780564816154818000,20.513818115234375,-1.3312749862670898,0.4188250005245209,7.978300094604492
1780564816174347000,20.533346923828127,-0.6788374781608582,0.5471125245094299,5.966400146484375
1780564816193875700,20.552875732421874,-0.23691250383853912,0.5766749978065491,4.1212873458862305
1780564816213405700,20.57240576171875,0.04097500070929527,0.5292375087738037,2.79372501373291
1780564816232934400,20.591934326171874,0.20143750309944153,0.44013750553131104,1.8519874811172485
1780564816252460300,20.611460205078124,0.28462499380111694,0.34759998321533203,1.2090375423431396
1780564816271985400,20.6309853515625,0.32010000944137573,0.2745875120162964,0.7878749966621399
1780564816291507700,20.6505078125,0.33219999074935913,0.22220000624656677,0.49623748660087585
1780564816311029800,20.67002978515625,0.33976250886917114,0.16843749582767487,0.2167000025510788
1780564816330557400,20.689557373046874,0.3526875078678131,0.08387500047683716,-0.1457500010728836
1780564816350083000,20.7090830078125,0.3716624975204468,-0.037675000727176666,-0.5948249697685242
1780564816369606400,20.7286064453125,0.3880249857902527,-0.17270000278949738,-1.0462374687194824
1780564816389133300,20.74813330078125,0.39201250672340393,-0.28654998540878296,-1.3964500427246094
1780564816408663000,20.7676630859375,0.37482500076293945,-0.3445749878883362,-1.5789124965667725
1780564816428188000,20.78718798828125,0.3363249897956848,-0.3255999982357025,-1.5789124965667725
1780564816447712000,20.8067119140625,0.3363249897956848,-0.3255999982357025,-1.5789124965667725
1780564816467239000,20.826239013671874,0.2839374840259552,-0.24392500519752502,-1.4326125383377075
1780564816486764500,20.8457646484375,0.13516250252723694,-0.06091250106692314,-0.9987999796867371
1780564816506288400,20.865288330078126,0.037675000727176666,0.002062499988824129,-0.83160001039505
1780564816525813500,20.8848134765625,-0.06476250290870667,0.0541750006377697,-0.7070249915122986
1780564816545339000,20.9043388671875,-0.06476250290870667,0.0541750006377697,-0.7070249915122986
1780564816564863000,20.923863037109374,-0.1802625060081482,0.0906125009059906,-0.5696625113487244
1780564816584390100,20.94339013671875,-0.3293125033378601,0.0849749967455864,-0.3877499997615814
1780564816603919000,20.962919189453125,-0.3293125033378601,0.0849749967455864,-0.3877499997615814
1780564816623446300,20.9824462890625,-0.5337749719619751,-0.08346249908208847,-0.49252501130104065
1780564816642972000,21.001971923828126,-0.35199999809265137,-0.08772499859333038,-1.4933874607086182
1780564816662496000,21.02149609375,0.6131125092506409,0.4302375018596649,-5.587862491607666
1780564816682019800,21.041019775390627,4.002487659454346,2.4292125701904297,-18.024324417114258
1780564816701544700,21.060544677734374,6.495912551879883,3.7662625312805176,-26.775100708007812
1780564816721068800,21.08006884765625,5.644237518310547,3.05896258354187,-23.045137405395508
1780564816740588500,21.099588623046873,4.208600044250488,2.0832624435424805,-17.417949676513672
1780564816760107300,21.119107177734374,2.9815499782562256,1.2696750164031982,-12.72768783569336
1780564816779631000,21.138631103515625,2.0391249656677246,0.6524375081062317,-9.184450149536133
1780564816799155700,21.15815576171875,1.3575375080108643,0.22357499599456787,-6.626399993896484
1780564816818679300,21.17767919921875,0.9002124667167664,-0.03162499889731407,-4.988912582397461
1780564816838209000,21.197208984375,0.6176499724388123,-0.1377750039100647,-3.710437536239624
1780564816857738200,21.21673828125,0.44852501153945923,-0.13296249508857727,-2.851749897003174
1780564816877264400,21.236264404296875,0.329862505197525,-0.06201250106096268,-2.2068750858306885
1780564816896793000,21.25579296875,0.22055000066757202,0.03684999793767929,-1.6550874710083008
1780564816916321800,21.27532177734375,0.10518749803304672,0.14190000295639038,-1.1424875259399414
1780564816935850200,21.294850341796874,-0.004399999976158142,0.2633124887943268,-0.6630250215530396
1780564816955382300,21.31438232421875,-0.08043749630451202,0.42528748512268066,-0.1868624985218048
1780564816974915800,21.333915771484374,-0.1284250020980835,0.6159999966621399,0.4423374831676483
1780564816994445800,21.35344580078125,-0.3073124885559082,0.7345250248908997,1.8290250301361084
1780564817013973200,21.37297314453125,-2.1708500385284424,-0.03478749841451645,9.8115873336792
1780564817033500000,21.3925,-5.495049953460693,-2.027024984359741,24.5911865234375
1780564817053023700,21.412023681640626,-6.1506500244140625,-2.796062469482422,29.088674545288086
1780564817072549400,21.43154931640625,-4.339912414550781,-1.9404000043869019,22.643774032592773
1780564817092076000,21.451075927734376,-2.872375011444092,-1.2028499841690063,17.099775314331055
1780564817111602400,21.4706025390625,-1.8089499473571777,-0.653124988079071,12.935725212097168
1780564817131127000,21.490126953125,-1.042799949645996,-0.24213749170303345,9.815987586975098
1780564817150652000,21.50965185546875,-0.494174987077713,0.05142499879002571,7.436137676239014
1780564817170178300,21.52917822265625,-0.11563749611377716,0.21353749930858612,5.770874977111816
1780564817189702100,21.5487021484375,0.12526249885559082,0.23801249265670776,4.0984625816345215
1780564817209226800,21.568226806640624,0.2560249865055084,0.16554999351501465,2.764162540435791
1780564817228754000,21.58775390625,0.3018124997615814,0.06421250104904175,1.7381374835968018
1780564817248283400,21.607283447265626,0.28806251287460327,-0.010724999941885471,1.0045750141143799
1780564817267814700,21.626814697265626,0.28806251287460327,-0.010724999941885471,1.0045750141143799
1780564817287344000,21.64634423828125,0.24584999680519104,-0.04179999977350235,0.5006374716758728
1780564817306867500,21.665867431640624,0.19359999895095825,-0.04331250116229057,-0.07906249910593033
1780564817326392300,21.685392333984375,0.19359999895095825,-0.04331250116229057,-0.07906249910593033
1780564817345919700,21.704919677734374,0.2564375102519989,-0.05816249921917915,-0.4104374945163727
1780564817365443600,21.724443603515624,0.305525004863739,-0.04743750020861626,-0.5739250183105469
1780564817384965000,21.743965087890626,0.34677499532699585,-0.013887500390410423,-0.7309499979019165
1780564817404491000,21.763490966796876,0.34677499532699585,-0.013887500390410423,-0.7309499979019165
1780564817424019500,21.78301953125,0.36973750591278076,0.03671250119805336,-0.8417750000953674
1780564817443547100,21.802547119140623,0.3642374873161316,0.09941250085830688,-0.8793125152587891
1780564817463078100,21.822078125,0.32243749499320984,0.17118750512599945,-0.8557999730110168
1780564817482611000,21.84161083984375,0.23952500522136688,0.23361249268054962,-0.7966749668121338
1780564817502139000,21.861138916015626,0.11453749984502792,0.26042500138282776,-0.7338374853134155
1780564817521664500,21.88066455078125,-0.04647500067949295,0.234437495470047,-0.7035874724388123
1780564817541191700,21.900191650390624,-0.23925000429153442,0.15166249871253967,-0.7261375188827515
1780564817560717800,21.9197177734375,-0.4563624858856201,0.01759999990463257,-0.7889750003814697
1780564817580240600,21.93924072265625,-0.6703125238418579,-0.15028749406337738,-0.8690000176429749
1780564817599767300,21.958767333984376,-0.8321499824523926,-0.30016249418258667,-1.0213500261306763
1780564817619298600,21.978298583984376,-0.8701000213623047,-0.3503499925136566,-1.4436124563217163
1780564817638824000,21.997823974609375,-0.6786999702453613,-0.20721249282360077,-2.5280749797821045
1780564817658347000,22.017346923828125,0.02681249938905239,0.3554374873638153,-5.607249736785889
1780564817677874000,22.0368740234375,2.0169875621795654,1.891450047492981,-13.226400375366211
1780564817697400600,22.056400634765627,4.219874858856201,3.4361250400543213,-21.31153678894043
1780564817716926500,22.075926513671874,4.6710124015808105,3.5461249351501465,-21.98501205444336
1780564817736455200,22.095455078125,3.917787551879883,2.806649923324585,-17.967124938964844
1780564817755985700,22.114985595703125,3.0648748874664307,2.0462749004364014,-13.73501205444336
1780564817775515400,22.134515380859376,2.356337547302246,1.4227124452590942,-10.246637344360352
1780564817795043800,22.1540439453125,1.797124981880188,0.9268875122070312,-7.517674922943115
1780564817814568400,22.173568359375,1.3421374559402466,0.5196124911308289,-5.543037414550781
1780564817834099500,22.193099365234374,0.9527375102043152,0.1825999915599823,-3.6954500675201416
1780564817853635000,22.212635009765624,0.6268625259399414,-0.08030000329017639,-2.3388750553131104
1780564817873165800,22.232165771484375,0.3562625050544739,-0.26785001158714294,-1.3800874948501587
1780564817892694500,22.251694580078127,0.12209999561309814,-0.39765000343322754,-0.7009750008583069
1780564817912218000,22.271218017578125,-0.09391249716281891,-0.490325003862381,-0.1915374994277954
1780564817931748400,22.290748291015625,-0.3097875118255615,-0.5612750053405762,0.2470874935388565
1780564817951284000,22.310283935546874,-0.5486249923706055,-0.6224625110626221,0.7123875021934509
1780564817970815000,22.32981494140625,-0.8276125192642212,-0.6781499981880188,1.2688499689102173
1780564817990344000,22.349343994140625,-1.1629749536514282,-0.7298499941825867,1.968999981880188
1780564818009870600,22.36887060546875,-1.5844124555587769,-0.7836124897003174,2.905787467956543
1780564818029396200,22.388396240234375,-2.177449941635132,-0.8625375032424927,4.342249870300293
1780564818048922600,22.407922607421874,-3.1527373790740967,-1.035925030708313,6.716050148010254
1780564818068448800,22.42744873046875,-4.876025199890137,-1.410062551498413,11.241862297058105
1780564818087974000,22.446973876953123,-4.876025199890137,-1.410062551498413,11.241862297058105
1780564818107503000,22.466503173828126,-6.679612636566162,-1.796299934387207,16.32908821105957
1780564818127033300,22.486033447265626,-7.188087463378906,-1.781037449836731,18.39859962463379
1780564818146563300,22.505563232421874,-5.081725120544434,-0.8260999917984009,14.477237701416016
1780564818166092800,22.5250927734375,-3.7998125553131104,-0.3414124846458435,11.677874565124512
1780564818185612500,22.544612548828123,-2.7079250812530518,0.030524998903274536,9.153924942016602
1780564818205132500,22.564132568359376,-2.7079250812530518,0.030524998903274536,9.153924942016602
1780564818224656000,22.58365576171875,-1.8599624633789062,0.28022500872612,7.099949836730957
1780564818244181000,22.603180908203125,-1.2297999858856201,0.443574994802475,5.739799976348877
1780564818263710700,22.622710693359377,-0.7534999847412109,0.5779125094413757,4.4405622482299805
1780564818283235800,22.64223583984375,-0.39531248807907104,0.7108749747276306,3.425262451171875
1780564818302756400,22.66175634765625,-0.13653749227523804,0.8082249760627747,2.559149980545044
1780564818322283500,22.681283447265624,0.030249999836087227,0.7793499827384949,1.7612375020980835
1780564818341812000,22.70081201171875,0.12072499841451645,0.5560500025749207,0.9711624979972839
1780564818361338000,22.720338134765626,0.16692499816417694,0.1742125004529953,0.1588124930858612
1780564818380863700,22.73986376953125,0.2055625021457672,0.11013749986886978,-0.6599999666213989
1780564818400391700,22.7593916015625,0.2055625021457672,0.11013749986886978,-0.6599999666213989
1780564818419918300,22.77891845703125,0.3511750102043152,0.42143750190734863,-2.0117623805999756
1780564818439439000,22.798439208984377,0.4320249855518341,0.3590124845504761,-2.303537368774414
1780564818458962400,22.81796240234375,0.48028749227523804,0.22288750112056732,-2.29363751411438
1780564818478487600,22.837487548828125,0.4930749833583832,0.19071249663829803,-2.0835375785827637
1780564818498010600,22.8570107421875,0.4987125098705292,0.19923749566078186,-1.8273749351501465
1780564818517537500,22.87653759765625,0.522362470626831,0.2410375028848648,-1.617687463760376
1780564818537065500,22.8960654296875,0.555774986743927,0.30951249599456787,-1.4554375410079956
1780564818556589300,22.91558935546875,0.5647125244140625,0.3716624975204468,-1.3422750234603882
1780564818576117000,22.935116943359375,0.5208500027656555,0.3955875039100647,-1.3283874988555908
1780564818595645000,22.95464501953125,0.4493499994277954,0.3848625123500824,-1.5321625471115112
1780564818615173400,22.97417333984375,0.4398624897003174,0.3792249858379364,-2.108562469482422
1780564818634703000,22.993703125,0.5897374749183655,0.430649995803833,-3.1704750061035156
1780564818654229500,23.0132294921875,1.038812518119812,0.6286500096321106,-5.075812339782715
1780564818673753600,23.032753662109375,2.1531124114990234,1.185112476348877,-8.487600326538086
1780564818693276200,23.052276123046877,4.103962421417236,2.124237537384033,-14.073675155639648
1780564818712799000,23.071799072265627,5.628012657165527,2.725250005722046,-18.0023250579834
1780564818732324400,23.091324462890626,5.695662498474121,2.5585999488830566,-17.665449142456055
1780564818751852800,23.110852783203125,4.913012504577637,2.051224946975708,-15.04208755493164
1780564818771378700,23.130378662109376,3.946662425994873,1.544124960899353,-12.01873779296875
1780564818790907000,23.149906982421875,3.0504374504089355,1.1338249444961548,-9.273137092590332
1780564818810437600,23.169437744140627,2.2999625205993652,0.8321499824523926,-6.998337268829346
1780564818829962200,23.188962158203125,1.7058249711990356,0.6228749752044678,-5.373087406158447
1780564818849485000,23.208485107421875,1.231587529182434,0.4830375015735626,-3.8930375576019287
1780564818869011200,23.22801123046875,0.8724374771118164,0.39682498574256897,-2.8415749073028564
1780564818888540200,23.2475400390625,0.607200026512146,0.35089999437332153,-2.1157124042510986
1780564818927589400,23.28658935546875,0.23718750476837158,0.34209999442100525,-1.1950124502182007
1780564818947109600,23.306109619140624,0.10862500220537186,0.4047999978065491,-0.8694124817848206
1780564818966631000,23.325630859375,0.020899999886751175,0.5181000232696533,-0.5823125243186951
1780564818986157800,23.34515771484375,0.020899999886751175,0.5181000232696533,-0.5823125243186951
1780564819005686300,23.364686279296876,-0.17077499628067017,0.7111499905586243,0.4904625117778778
1780564819025212200,23.384212158203123,-0.17077499628067017,0.7111499905586243,0.4904625117778778
1780564819044734500,23.403734375,-0.607200026512146,0.39943748712539673,3.8670499324798584
1780564819064256000,23.423256103515627,-1.3451625108718872,-0.30195000767707825,22.753637313842773
1780564819083776500,23.442776611328124,-1.7001874446868896,-0.6204000115394592,34.332923889160156
1780564819103295500,23.46229541015625,-1.4444375038146973,-0.40039998292922974,25.815074920654297
1780564819122819000,23.481819091796876,-1.0419750213623047,-0.11110000312328339,18.953550338745117
1780564819142340900,23.5013408203125,-0.7099124789237976,0.1297999918460846,13.95666217803955
1780564819161859600,23.520859619140627,-0.44385001063346863,0.3195500075817108,10.354162216186523
1780564819181378600,23.540378662109376,-0.219587504863739,0.4609000086784363,7.725574970245361
1780564819200896500,23.559896484375,-0.219587504863739,0.4609000086784363,7.725574970245361
1780564819220417500,23.57941748046875,0.18232500553131104,0.6150375008583069,4.3337249755859375
1780564819239941000,23.598941162109377,0.36038750410079956,0.6532624959945679,3.0874249935150146
1780564819259468300,23.61846826171875,0.4998124837875366,0.6796625256538391,2.1382625102996826
1780564819278995200,23.6379951171875,0.5810750126838684,0.6883249878883362,1.4141875505447388
1780564819298517500,23.657517578125,0.6032124757766724,0.6744375228881836,0.8446624875068665
1780564819318041000,23.677041015625,0.5774999856948853,0.6237000226974487,0.3543374836444855
1780564819337567700,23.696567626953126,0.5164499878883362,0.5153499841690063,-0.10243749618530273
1780564819357089800,23.71608984375,0.43353748321533203,0.3573625087738037,-0.5218124985694885
1780564819376610600,23.735610595703125,0.3465000092983246,0.18892499804496765,-0.8742250204086304
1780564819396136400,23.755136474609376,0.2741749882698059,0.04922499880194664,-1.1401499509811401
1780564819415665200,23.7746650390625,0.22673749923706055,-0.05087500065565109,-1.3311375379562378
1780564819435190000,23.79418994140625,0.2022625058889389,-0.11687500029802322,-1.467674970626831
1780564819454711300,23.813711181640624,0.19016249477863312,-0.15262499451637268,-1.56392502784729
1780564819474235400,23.8332353515625,0.17778749763965607,-0.16279999911785126,-1.639412522315979
1780564819493760500,23.852760498046877,0.15427500009536743,-0.15716250240802765,-1.703487515449524
1780564819513285400,23.872285400390624,0.1116499975323677,-0.14781250059604645,-1.7523000240325928
1780564819532809200,23.891809326171874,0.05596249923110008,-0.14038750529289246,-1.7868125438690186
1780564819552333000,23.9113330078125,0.006462499964982271,-0.12952500581741333,-1.8352124691009521
1780564819571861800,23.93086181640625,-0.021175000816583633,-0.09927500039339066,-1.9436999559402466
1780564819591394000,23.95039404296875,-0.026537500321865082,-0.037675000727176666,-2.1289124488830566
1780564819610925600,23.969925537109376,-0.01223750039935112,0.05692499876022339,-2.379162549972534
1780564819630455000,23.989455078125,0.05362499877810478,0.18851250410079956,-2.7534375190734863
1780564819649983500,24.0089833984375,0.24447499215602875,0.3806000053882599,-3.4512500762939453
1780564819669510100,24.02851025390625,0.6612374782562256,0.7037249803543091,-4.887437343597412
1780564819689040000,24.048039794921873,1.5274875164031982,1.3535499572753906,-7.7039875984191895
1780564819708572200,24.067572265625,3.042325019836426,2.496312379837036,-13.059337615966797
1780564819728099000,24.08709912109375,4.368374824523926,3.473249912261963,-17.715087890625
1780564819747620600,24.10662060546875,4.573387622833252,3.565924882888794,-18.22383689880371
1780564819767146800,24.126146728515625,4.0079874992370605,3.051262378692627,-15.949037551879883
1780564819786674700,24.1456748046875,3.2371625900268555,2.3610124588012695,-13.021525382995605
1780564819806199600,24.165199462890627,2.4644124507904053,1.660312533378601,-10.200300216674805
1780564819825725400,24.184725341796874,2.4644124507904053,1.660312533378601,-10.200300216674805
1780564819845252600,24.204252685546876,2.4644124507904053,1.660312533378601,-10.200300216674805
1780564819864775700,24.223775634765627,1.211787462234497,0.5561875104904175,-6.066500186920166
1780564819884299800,24.2432998046875,0.7863624691963196,0.255887508392334,-4.459674835205078
1780564819903820500,24.262820556640627,0.4819374978542328,0.11329999566078186,-3.3137500286102295
1780564819923335400,24.28233544921875,0.24255000054836273,0.06297499686479568,-2.4048750400543213
1780564819942857200,24.301857177734377,0.014024999924004078,0.04179999977350235,-1.5701124668121338
1780564819962384400,24.32138427734375,-0.20418749749660492,0.03423750028014183,-0.8080874681472778
1780564819981912800,24.340912841796875,-0.3806000053882599,0.05101250112056732,-0.20239999890327454
1780564820001443800,24.36044384765625,-0.3806000053882599,0.05101250112056732,-0.20239999890327454
1780564820020971300,24.37997119140625,-0.6246625185012817,0.15427500009536743,0.6606875061988831
1780564820040491300,24.3994912109375,-0.7401624917984009,0.2283875048160553,1.131350040435791
1780564820060007000,24.4190068359375,-0.91753751039505,0.28751251101493835,1.8921375274658203
1780564820079526000,24.43852587890625,-1.2603249549865723,0.21051250398159027,4.279962539672852
1780564820099047400,24.45804736328125,-1.668837547302246,-0.24832500517368317,18.068050384521484
1780564820118566700,24.477566650390624,-2.029362440109253,-0.7518500089645386,30.048011779785156
1780564820138089500,24.49708935546875,-2.031012535095215,-0.688462495803833,26.458436965942383
1780564820157616000,24.5166162109375,-1.5863374471664429,-0.2769249975681305,19.975173950195312
1780564820177140200,24.53614013671875,-1.0645250082015991,0.10298749804496765,14.725837707519531
1780564820196665000,24.5556650390625,-0.6039000153541565,0.40741249918937683,10.779725074768066
1780564820216193800,24.57519384765625,-0.23058749735355377,0.6237000226974487,7.8629374504089355
1780564820235721700,24.5947216796875,0.052799999713897705,0.7514374852180481,5.926525115966797
1780564820255245800,24.614245849609375,0.2517625093460083,0.7918624877929688,4.163225173950195
1780564820274774300,24.633774169921875,0.37812501192092896,0.7460749745368958,2.8862624168395996
1780564820294306000,24.65330615234375,0.4450874924659729,0.6246625185012817,1.9494749307632446
1780564820313832200,24.672832275390626,0.4641999900341034,0.4577375054359436,1.262524962425232
1780564820333355800,24.692355712890624,0.44728749990463257,0.28984999656677246,0.7583125233650208
1780564820352879900,24.7118798828125,0.4086500108242035,0.15826250612735748,0.38376250863075256
1780564820372405200,24.7314052734375,0.36492499709129333,0.07631249725818634,0.09748750180006027
1780564820391932200,24.75093212890625,0.33178749680519104,0.032862499356269836,-0.14272500574588776
1780564820411457000,24.77045703125,0.31459999084472656,0.0034374999813735485,-0.36973750591278076
1780564820430978300,24.789978271484376,0.304562509059906,-0.035750001668930054,-0.6012874841690063
1780564820450504200,24.809504150390627,0.284074991941452,-0.09735000133514404,-0.8412249684333801
1780564820470029000,24.829029052734374,0.24158750474452972,-0.17861250042915344,-1.0833624601364136
1780564820489554200,24.84855419921875,0.17874999344348907,-0.2681249976158142,-1.309000015258789
1780564820509083400,24.86808349609375,0.10381250083446503,-0.35186249017715454,-1.4867874383926392
1780564820528616700,24.88761669921875,0.025437500327825546,-0.41442498564720154,-1.5885374546051025
1780564820548147700,24.907147705078124,-0.050324998795986176,-0.44123750925064087,-1.5985749959945679
1780564820567673000,24.926673095703126,-0.11893749982118607,-0.4255625009536743,-1.5148375034332275
1780564820587198500,24.946198486328125,-0.18136249482631683,-0.3708375096321106,-1.3330625295639038
1780564820606725600,24.9657255859375,-0.24158750474452972,-0.2858625054359436,-1.0532499551773071
1780564820626256000,24.985255859375,-0.29493749141693115,-0.1812250018119812,-0.719124972820282
1780564820645790000,25.0047900390625,-0.29493749141693115,-0.1812250018119812,-0.719124972820282
1780564820665324800,25.02432470703125,-0.29493749141693115,-0.1812250018119812,-0.719124972820282
1780564820684856600,25.043856689453126,-0.3394874930381775,-0.03698749840259552,-0.2686749994754791
1780564820704381700,25.063381591796876,-0.30951249599456787,-0.08139999955892563,-0.4212999939918518
1780564820723907300,25.0829072265625,-0.1597750037908554,-0.14272500574588776,-1.1815375089645386
1780564820743436300,25.102436279296874,0.6560124754905701,0.1153625026345253,-4.688612461090088
