Time (s),Acc_X,Acc_Y,Acc_Z,Gyro_X,Gyro_Y,Gyro_Z,activity_label
4.859464083,-0.1176553345,9.786199493,-0.8039781189,-0.01436388679,-0.009176701307,0.001626594807,5
4.879508083,-0.107177124,9.765243073,-0.7451504517,-0.01180461794,-0.003684440395,-0.003019629978,5
4.899552083,-0.1022373962,9.738748169,-0.7448510742,-0.009236113168,0.005473955534,0.001175585669,5
4.919597083,-0.07619155884,9.749076691,-0.7095245361,-0.003940049559,0.003281291574,0.002249535872,5
4.939640583,-0.08277786255,9.773475952,-0.7134164429,-0.002389479196,0.004218836315,0.002034445759,5
4.959684583,-0.0860710144,9.794132996,-0.7200027466,-0.00431231223,0.007454114035,0.001112395199,5
4.979729583,-0.1050814819,9.778265991,-0.730480957,-0.004789357539,0.01218954101,0.004581860267,5
4.999773583,-0.1104702759,9.766141205,-0.6777905273,-0.006010354962,0.02707274444,0.0008042711997,5
5.019817583,-0.07828720093,9.769883423,-0.7158114624,-0.007121571805,0.02361448482,0.002136501018,5
5.039862583,-0.1119671631,9.752968597,-0.7298822021,-0.00601981394,0.007239631377,0.002542626113,5
5.059906583,-0.1097218323,9.76314743,-0.7432044983,-0.006884851027,0.007391422056,0.003213290591,5
5.079950583,-0.1113684082,9.756561127,-0.7551795959,-0.004238195252,0.01271605305,0.002694508294,5
5.099994583,-0.1065783691,9.748178558,-0.7442523193,-8.271960542e-05,0.01065144874,0.00287225144,5
5.120039583,-0.1122665405,9.767338715,-0.7680528259,0.001700835768,0.004487133119,0.001145919552,5
5.140083583,-0.117355957,9.756860504,-0.7491920471,0.001128598349,-0.001161006046,0.001110237325,5
5.160127583,-0.1068777466,9.75506424,-0.7322772217,0.003917541821,0.003332876833,-0.0008243753109,5
5.180172583,-0.1044827271,9.786498871,-0.7382647705,0.001305782818,-0.0006762926932,-0.0009356904775,5
5.200216583,-0.09550140381,9.765392761,-0.734223175,-0.0009336024523,-0.0001617365051,0.0002703570062,5
5.220260583,-0.07529342651,9.760153656,-0.730480957,-6.163027138e-06,0.003943819553,0.0009661156218,5
5.240305583,-0.07948471069,9.766440582,-0.749790802,0.0001188816968,-0.00459168572,0.001369358739,5
5.260349583,-0.1414558411,9.771679688,-0.7455995178,-0.001422362635,-0.008533636108,0.0008326664101,5
5.280393583,-0.1260379028,9.787846069,-0.75353302,0.002165372716,0.001784622553,-0.00139428582,5
5.300437583,-0.1282832336,9.769434357,-0.7667056274,0.001893466804,0.002406956395,-0.0009829252958,5
5.320482583,-0.09939331055,9.744136963,-0.7640112305,0.0005345647223,-0.003210673807,-0.0001210442279,5
5.340526583,-0.1010398865,9.752818909,-0.7879614258,0.004422359169,-0.004969429225,-0.002155721886,5
5.360570583,-0.1127156067,9.780211945,-0.8044271851,0.009442006238,-0.006795171648,-0.002961500082,5
5.380615583,-0.1091230774,9.790241089,-0.7596702576,0.006230917759,-0.004886965267,-0.0004236542154,5
5.400659583,-0.1025367737,9.785750427,-0.7414082336,0.002816324588,0.004201866221,-0.002377851633,5
5.420703583,-0.1091230774,9.791588287,-0.7458988953,0.002200066112,-0.006334350444,-0.002604704583,5
5.440748583,-0.07649093628,9.767787781,-0.7861651611,-0.001532662194,-0.01175442524,-0.0006313466001,5
5.460792583,-0.08397537231,9.783205719,-0.7729925537,-0.0003861233126,-0.006854560226,5.942513235e-05,5
5.480836583,-0.1002914429,9.760602722,-0.7391629028,0.003356144298,-0.004216073081,-0.0004350272939,5
5.500880583,-0.08337661743,9.780062256,-0.735869751,0.004806813784,-0.001380376751,0.0001207710011,5
5.520925583,-0.1046324158,9.804311829,-0.7831713867,-0.0003208478447,-0.0101989815,-0.002616231563,5
5.540969583,-0.08577163696,9.741292877,-0.7758366394,-0.006108575501,-0.01177411899,-0.001167773502,5
5.561013583,-0.08128097534,9.783654785,-0.765358429,-0.003759474028,0.002810210688,-0.001988576958,5
5.581058583,-0.07708969116,9.809251556,-0.7478448486,-0.003523257561,-0.00038841879,-0.0008300051559,5
5.601102583,-0.04400848389,9.77138031,-0.7611671448,-0.004243521485,-0.007308255881,-0.0008968850598,5
5.621146583,-0.05688171387,9.740394745,-0.7463479614,0.0004835864529,-0.002234886633,-0.0008635472041,5
5.641191583,-0.109871521,9.735455017,-0.7747888184,0.009244324639,0.002500167117,4.87313373e-05,5
5.661235583,-0.08861572266,9.765243073,-0.7918533325,0.002744943602,0.00118970545,-0.004683479667,5
5.681279583,-0.09086105347,9.796677704,-0.7044351196,0.003221125109,0.005339035764,-0.005750067998,5
5.701323583,-0.1028361511,9.763446808,-0.7093748474,0.004634356126,0.004436981399,-0.004888124764,5
5.721368583,-0.08397537231,9.762249298,-0.7197033691,9.011011571e-06,0.001872773166,-0.0009482235182,5
5.741412583,-0.1249900818,9.819131012,-0.7635621643,-0.003675469197,-0.01150939241,-0.001895741327,5
5.761456583,-0.1354682922,9.80760498,-0.7777825928,-0.00593470782,-0.00947005488,-0.0002848422155,5
5.781500583,-0.1116677856,9.765991516,-0.7571255493,-0.006077065133,0.001592038083,-0.0003211908042,5
5.801545583,-0.09430389404,9.745783539,-0.7364685059,-0.00127873919,0.00779990945,-0.001779219601,5
5.821589583,-0.1133143616,9.761351166,-0.7729925537,0.002921144245,-0.01527387276,0.0008704796201,5
5.841633583,-0.1306782532,9.760303345,-0.7821235657,-8.251680993e-05,-0.02579532191,0.002305443864,5
5.861678583,-0.1278341675,9.769733734,-0.7420069885,-0.00253115152,0.00317953038,-0.001241563819,5
5.881722583,-0.08816665649,9.757459259,-0.750838623,0.0006113515701,0.005112741608,-0.001756108133,5
5.901766583,-0.09669891357,9.774673462,-0.7511380005,0.003233684227,-0.01472547743,-0.001587896375,5
5.921811583,-0.1068777466,9.767189026,-0.7822732544,0.004292251542,-0.01305333432,-0.001271548681,5
5.941856042,-0.1139131165,9.768236847,-0.7634124756,0.001935012173,0.007997464389,-0.001413911581,5
5.961900042,-0.07933502197,9.772128754,-0.7164102173,0.00581226591,0.01503778808,-0.001897769282,5
5.981944042,-0.1287322998,9.782307587,-0.7454498291,0.007782593369,-0.002921384526,-0.0001027637627,5
6.001989042,-0.120050354,9.774523773,-0.7569758606,-0.0009106569923,-0.001367873279,-0.002111567417,5
6.022033042,-0.1199006653,9.780361633,-0.7667056274,-0.001016408205,0.008193649352,-0.0009709356818,5
6.042077042,-0.09385482788,9.760602722,-0.7571255493,0.003276715521,0.01503854897,-0.001105753938,5
6.062121042,-0.1342707825,9.762698364,-0.7694000244,0.007086906582,0.005579705816,0.0007589930901,5
6.082166042,-0.1552272034,9.778265991,-0.7598199463,0.005720738322,0.001454086276,0.0004775222624,5
6.102210042,-0.1294807434,9.766440582,-0.7490423584,0.006845427211,0.007369868923,-0.002206187695,5
6.122254042,-0.1196012878,9.747579803,-0.7430548096,0.005413027946,0.002064534463,0.0002158725401,5
6.142299042,-0.1269360352,9.781409454,-0.7411088562,0.006797838956,-0.001987881726,0.001301260549,5
6.162343042,-0.1212478638,9.7900914,-0.7593708801,0.004945715889,0.005656811874,-0.0006127394736,5
6.182387042,-0.1128652954,9.785900116,-0.7505392456,0.002829044824,0.007186390925,0.0007922322256,5
6.202431042,-0.1118174744,9.777367859,-0.7334747314,0.001004621619,0.006431959569,0.0001753320685,5
6.222476042,-0.09550140381,9.745334473,-0.758921814,0.001607331214,0.004362786189,0.0006102819461,5
6.242520042,-0.1011895752,9.737550659,-0.7882608032,0.001839404693,0.004118570127,0.00092558912,5
6.262564042,-0.1133143616,9.782457275,-0.7899073792,0.004134911578,0.005137789063,0.001719965599,5
6.282609042,-0.1258882141,9.768536224,-0.7942483521,0.004626136273,0.01538134459,0.001368014375,5
6.302653042,-0.1118174744,9.771230621,-0.7761360168,0.003902858123,0.01061865035,0.0005906169536,5
6.322697042,-0.1070274353,9.77138031,-0.8095166016,0.0002548238263,-0.005385452881,0.0006139385514,5
6.342741042,-0.1053808594,9.733359375,-0.8330177307,-0.0009453871753,-0.007776546292,0.002061302308,5
6.362786042,-0.1157093811,9.796977081,-0.8243357849,0.001918273512,0.003155627288,7.960421499e-05,5
6.382830042,-0.1179547119,9.818532257,-0.8322692871,-0.001075681997,-0.0007857817691,0.000496216584,5
6.402874042,-0.1016386414,9.770482178,-0.841999054,-0.005883835256,-0.009546848014,-0.001364100957,5
6.422919042,-0.1155596924,9.738149414,-0.7966433716,-0.002612789627,-0.01145894639,-0.001993175596,5
6.442963042,-0.1139131165,9.744885406,-0.8171507263,0.00436097756,-0.01111851539,-0.002021552995,5
6.463007042,-0.0549357605,9.751771088,-0.8431965637,0.001574988943,-0.01912779361,-0.003813897958,5
6.483051042,-0.06840774536,9.763297119,-0.7593708801,0.007800515741,-0.009814332239,-0.002932066098,5
6.503096042,-0.08397537231,9.763297119,-0.7568261719,0.01099155471,0.0003299708478,-0.00286448421,5
6.523140042,-0.08637039185,9.772877197,-0.7409591675,0.006504049525,-0.005002056248,-0.003185193753,5
6.543184042,-0.1101708984,9.815538483,-0.7520361328,0.001979453722,-0.01185069233,-0.002794842236,5
6.563229042,-0.1029858398,9.787397003,-0.7807763672,-0.001799874473,-0.008085085079,-0.001149802934,5
6.583273042,-0.08996292114,9.788744202,-0.7467970276,-0.003735311795,0.005476361141,-0.0006572445855,5
6.603317042,-0.09430389404,9.791438599,-0.7241940308,-0.003609538078,0.005523705389,-0.002089042682,5
6.623361042,-0.09610015869,9.774523773,-0.7432044983,-0.006106175948,-0.004421710968,-0.0004998063669,5
6.643406042,-0.1128652954,9.769733734,-0.7860154724,-0.005618278403,-0.01288399938,0.000833694241,5
6.663450042,-0.1008901978,9.778565369,-0.8178991699,-0.005852715112,-0.01031416096,0.001107687596,5
6.683494042,-0.0802331543,9.751322021,-0.7920030212,-0.003125855466,-0.004018533044,-0.0005702909548,5
6.703538042,-0.0817300415,9.741292877,-0.7650590515,0.000295615755,-0.00234629144,-0.0001215215307,5
6.723583042,-0.09056167603,9.783954163,-0.7646099854,-0.002780565526,-0.01012528222,-0.002360177226,5
6.743627042,-0.08637039185,9.784103851,-0.772842865,-0.003646161407,-0.01093620062,0.0009789707838,5
6.763671042,-0.06571334839,9.754914551,-0.7541317749,-0.003488041693,7.017143071e-05,-0.002274476225,5
6.783716042,-0.06511459351,9.775421906,-0.7679031372,-0.00124285277,0.0004570079036,-0.001788248308,5
6.803760042,-0.07828720093,9.769284668,-0.7831713867,-0.001614906127,0.003623913508,-0.001155674458,5
6.823804042,-0.08711883545,9.770781555,-0.7961943054,-0.001247218112,0.00646927068,-0.0003512466792,5
6.843848042,-0.1222956848,9.780062256,-0.7858657837,-0.003436498577,0.004912210163,-4.877196625e-05,5
6.863893042,-0.1103205872,9.777667236,-0.7749385071,-0.004951232113,0.002834351035,0.001331039122,5
6.883937042,-0.1077758789,9.760752411,-0.7548802185,-0.007357474416,0.003183066845,-0.001250841655,5
6.903981042,-0.1065783691,9.773176575,-0.7695497131,-0.006051689386,-0.001062442316,-0.003478397382,5
6.924025042,-0.1100212097,9.752818909,-0.7777825928,-0.003420410911,-0.0001490849536,-0.003127628006,5
6.944070208,-0.1019380188,9.760602722,-0.7670050049,-0.0007126207929,0.002660820959,-0.0005148034543,5
6.964114208,-0.1073268127,9.775421906,-0.7752378845,-0.001017473405,0.007966215722,-0.0001930049621,5
6.984158208,-0.1064286804,9.770332489,-0.762664032,-0.0004910028074,0.003511443269,-0.001329052728,5
7.004202208,-0.09924362183,9.767937469,-0.7638615417,-0.0004871990532,-0.001750271069,-0.001926150173,5
7.024247208,-0.1112187195,9.758806458,-0.7659571838,-0.002673420357,5.972920917e-05,-0.002011167351,5
7.044291208,-0.1414558411,9.786798248,-0.7607180786,-0.0001213196665,0.00247850595,-0.000290166121,5
7.064335208,-0.1209484863,9.764494629,-0.7397616577,0.0006661338266,7.446133532e-05,-0.0004777011927,5
7.084380208,-0.1130149841,9.76554245,-0.7708969116,-0.0016355142,-0.001504405634,-0.001601700904,5
7.104424208,-0.09550140381,9.766141205,-0.7794291687,0.0002001170069,-0.008399347775,0.0007352648536,5
7.124468208,-0.1032852173,9.735455017,-0.780327301,0.002135215793,-0.005176427774,-0.001527568791,5
7.144512208,-0.1127156067,9.776170349,-0.7545808411,0.00343187293,0.005396484397,-0.001207371941,5
7.164557208,-0.09340576172,9.818831635,-0.7512876892,0.002424251521,-0.005445076153,-0.00207701046,5
7.184601208,-0.09385482788,9.782606964,-0.776585083,-0.001170151867,-0.01333252713,-0.0003547836095,5
7.204645208,-0.1179547119,9.765093384,-0.7756869507,-0.004467484076,-0.002344796201,-0.003202404827,5
7.224689208,-0.1284329224,9.760153656,-0.729433136,-6.083329208e-05,0.005668856669,-0.001273323782,5
7.244734208,-0.08921447754,9.771829376,-0.7641609192,-0.001198647777,-0.005053823814,-0.002785006072,5
7.264778208,-0.05284011841,9.740095367,-0.7506889343,0.003018852556,-0.007367410697,-0.0007502436638,5
7.284822208,-0.1010398865,9.766290894,-0.759969635,0.004898021929,0.004998720251,0.0002762795193,5
7.304866208,-0.1092727661,9.789941711,-0.7607180786,-0.0004857126623,0.009983621538,0.001946814009,5
7.324911208,-0.1300794983,9.812095642,-0.7268884277,-0.004655197263,0.007886059582,0.002517706715,5
7.344955208,-0.1378633118,9.768685913,-0.7635621643,-0.003849018831,0.0006982437335,0.0003219717182,5
7.364999208,-0.1046324158,9.740694122,-0.7746391296,-0.00384973851,0.003421969945,-0.004174175672,5
7.385044208,-0.1046324158,9.781259766,-0.8117619324,0.001897892216,-0.004946433939,-0.002079097787,5
7.405088208,-0.1143621826,9.773326263,-0.8208929443,0.0002170922235,-0.006200628355,-0.0001573225018,5
7.425132208,-0.1246907043,9.775721283,-0.7490423584,0.002123083919,0.004090474918,0.0005072578788,5
7.445176208,-0.1281335449,9.774673462,-0.7670050049,-0.0003078170121,0.001522006001,0.00306330435,5
7.465221208,-0.09610015869,9.774823151,-0.7563771057,-0.004732882604,-0.01392937917,0.0001024692319,5
7.485265208,-0.1038839722,9.789492645,-0.7776329041,-0.005194821861,-0.0129089551,-0.001111055026,5
7.505309208,-0.08322692871,9.769733734,-0.7671546936,-0.003602446057,-0.001049958402,-0.003303010715,5
7.525353208,-0.06496490479,9.746981049,-0.742306366,-0.001798121957,0.001063942211,-0.002425205428,5
7.545398208,-0.08367599487,9.75266922,-0.7381150818,0.0001218658872,-0.005895215087,2.371473238e-05,5
7.565442208,-0.06167175293,9.759405212,-0.7426057434,-0.001674202038,-0.001746160211,0.001021942357,5
7.585486208,-0.08592132568,9.772278442,-0.7702981567,-0.001735310769,0.003311860608,-5.551846698e-06,5
7.605530208,-0.07170089722,9.779164124,-0.7735913086,-0.001085611293,0.004163810518,0.001064540353,5
7.625575208,-0.09879455566,9.775721283,-0.7491920471,-0.001119159861,0.004228697624,0.0003134976141,5
7.645619208,-0.1040336609,9.764045563,-0.7441026306,-0.001309579471,0.001997015439,-0.0008657108992,5
7.665663208,-0.07888595581,9.768386536,-0.7219487,-0.007238452323,0.0003105562646,-0.0005120977294,5
7.685707208,-0.09804611206,9.78305603,-0.7322772217,0.0003159348853,-0.003595468355,0.001471236348,5
7.705752208,-0.09370513916,9.761650543,-0.7511380005,-0.004245336168,-0.0002813232131,0.0007827247027,5
7.725796208,-0.06676116943,9.763297119,-0.7560777283,-0.004706171341,0.005289967172,-0.00113451574,5
7.745840208,-0.08382568359,9.760303345,-0.7476951599,-0.002188120037,0.009279266,-0.0008002086543,5
7.765884208,-0.08382568359,9.779463501,-0.7484436035,0.001067518489,0.005290224217,-0.0001733810641,5
7.785929208,-0.09894424438,9.764195251,-0.7714956665,0.0008584999014,0.001094203675,0.0004103129031,5
7.805973208,-0.09684860229,9.759255524,-0.7538323975,0.0001937032212,0.007785722613,-2.745632082e-05,5
7.826017208,-0.09250762939,9.789193268,-0.7640112305,0.001257031574,0.005963115953,-0.0007379830349,5
7.846061208,-0.1107696533,9.780211945,-0.7650590515,-0.003901280928,-0.001034443034,-0.0009051132947,5
7.866106208,-0.1181044006,9.773176575,-0.759969635,-0.00243943953,-0.0007219037507,-0.001455200603,5
7.886150208,-0.1152603149,9.763297119,-0.7539820862,-0.00117234746,0.004584921524,-1.991982572e-05,5
7.906194208,-0.09056167603,9.782756653,-0.7596702576,-0.001275026239,0.002968816087,-0.002866351744,5
7.926238208,-0.1016386414,9.777367859,-0.7713459778,-0.003270918503,-0.008756184019,-0.0009349791799,5
7.946283542,-0.08666976929,9.735455017,-0.7429051208,-0.004114675336,-0.005980624817,-0.002167900326,5
7.966327542,-0.1184037781,9.752968597,-0.7252418518,0.007749731652,0.003071171464,-0.0003220250364,5
7.986371542,-0.09699829102,9.772428131,-0.8003855896,0.0046832636,-0.01091717184,-0.002508522011,5
8.006415542,-0.0983454895,9.775122528,-0.7611671448,0.002846096409,-0.01916434988,-0.002689381596,5
8.026460542,-0.09894424438,9.751621399,-0.7140151978,0.005855882075,0.00088828546,-0.003494088305,5
8.046504542,-0.09654922485,9.766141205,-0.7231462097,0.00537792407,0.005458648317,-0.001488671638,5
8.066548542,-0.1002914429,9.80296463,-0.7065307617,0.003252721392,-0.01007983182,0.0002809107536,5
8.086592542,-0.132923584,9.811347198,-0.7457492065,-0.0009137543384,-0.01635418274,-0.0001567609143,5
8.106637542,-0.1182540894,9.774523773,-0.7583230591,-0.003898812458,-0.002266215393,-0.002029509516,5
8.126681542,-0.08921447754,9.761500854,-0.7283853149,-0.002246022457,0.009004432708,-0.003099068301,5
8.146725542,-0.08831634521,9.757608948,-0.7385641479,0.0005409831647,-0.0004171270411,-0.002577135572,5
8.166769542,-0.08696914673,9.759105835,-0.7601193237,-0.001059695613,-0.009571643546,6.239325739e-05,5
8.186814542,-0.09699829102,9.77961319,-0.7834707642,-0.0007584562991,-0.004401546903,0.0004741419107,5
8.206858542,-0.08577163696,9.767338715,-0.7530839539,-0.0006817930844,0.006978836842,-0.002377903555,5
8.226902542,-0.06346801758,9.767787781,-0.7375163269,0.002868348034,0.005865999497,-0.001226491295,5
8.246946542,-0.1002914429,9.80880249,-0.7686515808,0.0004737959243,-0.009342869744,0.0009580180049,5
8.266991542,-0.1001417542,9.807006226,-0.7378157043,-0.003215524368,-0.008407842368,0.000208659796,5
8.287035542,-0.09520202637,9.788444824,-0.7214996338,0.002748769009,-0.0006693506148,0.003669013269,5
8.307079542,-0.0722996521,9.763746185,-0.7557783508,-0.002326438203,-0.001795359654,0.00492618978,5
8.327123542,-0.0975970459,9.809401245,-0.7750881958,-0.01035613474,-0.01148899924,0.007012640592,5
8.347168542,-0.1128652954,9.793085175,-0.7723937988,-0.01151857711,-0.005850091577,0.009504796937,5
8.367212542,-0.07125183105,9.81583786,-0.8038284302,-0.008193084039,0.009898730554,0.01181344409,5
8.387256542,-0.09370513916,9.81,-0.866098938,-0.008475216106,0.01233037282,0.01449344307,5
8.407300542,-0.1392105103,9.798473969,-0.882714386,-0.01342090592,0.01015109476,0.01646184921,5
8.427345542,-0.1758842468,9.775721283,-0.8915460205,-0.02391695604,0.0150377294,0.01599313319,5
8.447389542,-0.1767823792,9.786798248,-0.8599617004,-0.02989057265,0.02730707824,0.0139353238,5
8.467433542,-0.1841171265,9.823621674,-0.8381071472,-0.0367613472,0.02051781863,0.009344959632,5
8.487477542,-0.2049238586,9.7502742,-0.8072712708,-0.04492195323,-0.001004834427,0.008273633197,5
8.507522542,-0.1233435059,9.636959839,-0.7231462097,-0.03936865181,0.01437742915,0.004426617175,5
8.527566542,-0.09714797974,9.716594238,-0.8056246948,-0.0258411672,0.005445977207,0.001014263369,5
8.547610542,-0.04550537109,9.762997742,-0.8282276917,-0.01338647492,-0.02422722615,0.000892180251,5
8.567654542,-0.08262817383,9.713750153,-0.7782316589,-0.006252093241,0.002268886194,-0.0001586095896,5
8.587698542,-0.1074765015,9.749974823,-0.6884184265,-0.001848249696,0.03745462745,-0.001261597266,5
8.607743542,-0.09909393311,9.797426147,-0.602946167,0.0001737689599,0.02031248994,0.0009930204833,5
8.627787542,-0.05912704468,9.824819183,-0.6210585022,-0.005397333298,-0.006619363092,0.002746836748,5
8.647831542,-0.07035369873,9.840237122,-0.7038363647,-0.01313834824,-0.01595396176,0.006565857679,5
8.667875542,-0.08322692871,9.781259766,-0.7312294006,-0.02461812086,-0.002654440003,0.008377604187,5
8.687920542,-0.126486969,9.800270233,-0.6420149231,-0.02655130997,0.01653283648,0.004386058543,5
8.707964542,-0.06122268677,9.761051788,-0.652792511,-0.02605489641,0.01490271557,-4.890351556e-05,5
8.728008542,-0.03263214111,9.737101593,-0.6339317322,-0.02463003807,-0.003170040669,0.001211901079,5
8.748052542,-0.02993774414,9.725276184,-0.6598278809,-0.01479079016,-0.007408714853,0.003319728887,5
8.768097542,-0.04550537109,9.724078674,-0.6556365967,-0.004554514773,0.01028031949,0.004431802779,5
8.788141542,-0.1166075134,9.771979065,-0.6509962463,0.001385205309,0.01215938479,0.00228504464,5
8.808185542,-0.1333726501,9.785600739,-0.6727011108,0.0001074247994,-0.001791631104,-0.001740637003,5
8.828229542,-0.05613327026,9.755363617,-0.6505471802,-0.002819926012,-0.01040557865,-0.006316699088,5
8.848274542,-0.02484832764,9.783205719,-0.6167175293,0.004376889206,-0.008890768513,-0.009662805125,5
8.868318542,-0.01945953369,9.768536224,-0.6427633667,0.007868560031,-0.007538415492,-0.00518123759,5
8.888362542,-0.008681945801,9.765841827,-0.6391708374,0.003522690386,-0.001565598184,-0.004777202848,5
8.908406542,-0.00853225708,9.785301361,-0.5834866333,0.00759444898,0.006559354253,-0.005189243238,5
8.928450542,-0.01481918335,9.774523773,-0.5769003296,0.009311957285,-0.002407406224,-0.002501706593,5
8.948495458,-0.008681945801,9.770631866,-0.5884263611,0.005614352878,-0.01579079404,-0.002248722594,5
8.968539458,0.01766326904,9.796677704,-0.5754034424,-0.001630454324,-0.004036539234,-0.003461850807,5
8.988583458,-0.01571731567,9.828860779,-0.6054908752,-0.001861303579,1.041451469e-06,-0.002017620951,5
9.008627458,-0.06167175293,9.809700623,-0.6586303711,-0.007519145962,-0.01575847156,0.002092215465,5
9.028672458,-0.03996688843,9.7609021,-0.6730004883,-0.01866493002,-0.01136303227,-0.0007251738571,5
9.048716458,-0.01975891113,9.787696381,-0.6613247681,-0.01443450525,-0.001896246569,-0.003990960773,5
9.068760458,-0.02784210205,9.798473969,-0.6692582703,-0.009766058996,-0.0006372628268,-0.00333952019,5
9.088804458,-0.02874023438,9.740095367,-0.6818321228,-0.005252985749,-0.008595474996,-0.001583776902,5
9.108849458,-0.04116439819,9.726773071,-0.6996450806,-0.001449859468,-0.00635413453,-0.001562600024,5
9.128893458,-0.05149291992,9.768087158,-0.6990463257,0.0003401448485,-0.004447391257,-0.001311429543,5
9.148937458,-0.06256988525,9.795180817,-0.6616241455,0.001221953542,-0.001187579473,-0.003446344286,5
9.168981458,-0.07619155884,9.778265991,-0.6468049622,0.003263478633,0.00687341392,-0.005634871311,5
9.189025458,-0.01945953369,9.74563385,-0.6089337158,0.007677082438,0.01628031768,-0.008521156386,5
9.209070458,-0.02784210205,9.766889648,-0.6394702148,0.01541261561,0.0152791841,-0.003745778929,5
9.229114458,-0.08577163696,9.840536499,-0.7162605286,0.01037468668,0.009226951748,-0.003431230318,5
9.249158458,-0.1110690308,9.805808716,-0.70907547,-0.002442015335,0.01056858432,-0.003581994679,5
9.269202458,-0.07050338745,9.755363617,-0.6282435608,-0.006134373136,0.02145926282,-0.005324438214,5
9.289247458,-0.08921447754,9.768087158,-0.613125,-0.0002798307687,0.02217054181,-0.005679109134,5
9.309291458,-0.09699829102,9.824370117,-0.7050338745,-0.00492629176,0.0033473121,-0.006191014778,5
9.329335458,-0.1013392639,9.80296463,-0.7261399841,-0.01314419322,-0.006586966105,-0.001136413775,5
9.349379458,-0.1137634277,9.731712799,-0.7065307617,-0.008976041339,0.00719814375,-0.002060703468,5
9.369423458,-0.1408570862,9.75386673,-0.7131170654,-0.0009810051415,0.006656400859,-0.00274443021,5
9.389468458,-0.193996582,9.798174591,-0.7804769897,-0.003690549172,-0.01615810953,-0.003749020863,5
9.409512458,-0.1426533508,9.735754395,-0.7134164429,-0.004972674418,-0.02551257424,-0.008353280835,5
9.429556458,-0.08187973022,9.690398712,-0.6240522766,0.005715958774,-0.0008460071404,-0.006682272069,5
9.449600458,-0.04026626587,9.746082916,-0.6418652344,0.02011084929,-0.001072306884,-0.005496869795,5
9.469645458,-0.06706054688,9.830657043,-0.6697073364,0.01562319975,-0.01410847157,-0.004078957252,5
9.489689458,-0.1323248291,9.862391052,-0.6378236389,0.00477013085,-0.009937168099,-0.004670601338,5
9.509733458,-0.1255888367,9.797875214,-0.6506968689,-0.00292142434,0.0007100389339,-0.004030564334,5
9.529777458,-0.06331832886,9.742340698,-0.6590794373,-0.006316342391,-0.01066074893,-0.001685464056,5
9.549821458,-0.09220825195,9.756561127,-0.7162605286,0.00142550678,-0.03149460256,0.000209735008,5
9.569866458,-0.1631607056,9.768087158,-0.7277865601,0.007724069525,-0.02379524708,0.0004249976482,5
9.589910458,-0.1242416382,9.750872955,-0.6836283875,0.01032004319,0.008025905117,-0.004186234437,5
9.609954458,-0.06316864014,9.806108093,-0.6322851562,0.008002679795,0.008782942779,-0.003408044111,5
9.629998458,-0.0809815979,9.831854553,-0.6414161682,0.003631327767,-0.02519159205,0.001145867398,5
9.650043458,-0.09160949707,9.795779572,-0.6469546509,-0.006509314291,-0.02338635363,0.0001821023179,5
9.670087458,-0.07110214233,9.755213928,-0.6550378418,-0.006070301868,0.007164750248,-0.0003207353875,5
9.690131458,-0.07274871826,9.741741943,-0.659229126,-0.003699254245,0.01780684665,-0.0008534924127,5
9.710175458,-0.1116677856,9.776469727,-0.7051835632,0.0007261607097,-0.004143404774,0.001860362245,5
9.730219458,-0.1176553345,9.792336731,-0.7153623962,0.002024495974,-0.005207595415,0.000167703256,5
9.750264458,-0.07364685059,9.776918793,-0.7143145752,0.001584644197,0.01401359402,-0.002173009794,5
9.770308458,-0.06780899048,9.766290894,-0.7276368713,0.0002522291616,0.01438260451,-0.0008775233291,5
9.790352458,-0.09310638428,9.824220428,-0.7270381165,-0.001239820383,0.0007798778825,0.00282694865,5
9.810396458,-0.1185534668,9.78664856,-0.7297325134,-0.007309292443,-0.004521482624,0.003384428797,5
9.830441458,-0.08397537231,9.768685913,-0.7417076111,-0.009753027,-0.0002093196381,0.003356665839,5
9.850485458,-0.09954299927,9.768386536,-0.75353302,-0.007701860741,0.001058344962,0.00230738055,5
9.870529458,-0.07185058594,9.758656769,-0.7322772217,-0.01019983459,0.005222137552,0.001294862945,5
9.890573458,-0.06451583862,9.779912567,-0.7005432129,-0.005302698351,0.00526256673,0.001433409634,5
9.910617458,-0.07873626709,9.745035095,-0.7149133301,-0.002736059483,0.00665119011,0.003338572569,5
9.930662458,-0.09565109253,9.773176575,-0.7180567932,-0.002515354427,0.01009338535,0.005001700483,5
9.950706292,-0.09310638428,9.816286926,-0.7214996338,-0.004564026371,0.003181023058,0.003943880089,5
9.970750292,-0.08083190918,9.819280701,-0.6997947693,-0.01046009641,-0.0002828228753,0.001167813782,5
9.990794292,-0.05867797852,9.763596497,-0.664019165,-0.01584037021,0.01035596896,-0.0003799051046,5
10.01083829,-0.09699829102,9.744136963,-0.6454577637,-0.009634591639,0.01677216776,0.001080227084,5
10.03088329,-0.1044827271,9.774823151,-0.6866221619,-0.005702706054,0.004979206249,0.003891507164,5
10.05092729,-0.1181044006,9.786199493,-0.7129673767,-0.005624218378,-0.01489266288,0.004559725989,5
10.07097129,-0.08412506104,9.751771088,-0.6327342224,-0.001198891783,0.00480092084,0.001248087035,5
10.09101529,-0.04011657715,9.757758636,-0.6198609924,0.003773771226,0.01980720647,-0.000442849705,5
10.11106029,-0.09190887451,9.821376343,-0.6295907593,0.001186665497,-8.180970326e-05,0.00126386038,5
10.13110429,-0.1112187195,9.848470001,-0.6390211487,-0.008696817793,-0.01271792036,0.003365720622,5
10.15114829,-0.09175918579,9.773326263,-0.6409671021,-0.01609880105,-0.006036097184,0.002250341466,5
10.17119229,-0.01526824951,9.705367584,-0.612077179,-0.01761753112,0.01356737129,-0.001160619082,5
10.19123629,-0.01511856079,9.773925018,-0.6277944946,-0.005151586607,0.008348899893,0.0003400259884,5
10.21128129,-0.06750961304,9.806108093,-0.6673123169,-0.002126923762,-0.002286172239,0.003589192871,5
10.23132529,-0.08277786255,9.763746185,-0.6620732117,-0.006028520875,0.01328480989,0.003319466487,5
10.25136929,-0.05718109131,9.776769104,-0.6547384644,-0.00859599933,0.02230829187,0.002838715678,5
10.27141329,-0.1011895752,9.796378326,-0.6557862854,-0.00941667892,0.00367632811,0.002619128674,5
10.29145729,-0.08577163696,9.7900914,-0.6756948853,-0.01070635859,-0.004885719158,0.002639408689,5
10.31150229,-0.08158035278,9.762698364,-0.6785389709,-0.0102042025,0.002368783345,0.002003576141,5
10.33154629,-0.0628692627,9.762249298,-0.6523434448,-0.006402175408,0.004109297879,-0.0009289241862,5
10.35159029,-0.04475692749,9.755363617,-0.642613678,-0.005121901166,-0.000675102463,-0.0009555893485,5
10.37163429,-0.05254074097,9.793234863,-0.593815155,-0.008684149943,0.0040786881,-0.001499713631,5
10.39167829,-0.05478607178,9.790390778,-0.60025177,-0.00344247208,-0.004530238919,0.0001807225635,5
10.41172329,-0.04984634399,9.772877197,-0.6099815369,-0.006791747641,-0.004454402253,0.0002899991814,5
10.43176729,-0.05104385376,9.767638092,-0.6134243774,-0.001898330403,0.002305086236,0.0003344186116,5
10.45181129,-0.05792953491,9.775421906,-0.6285429382,-0.00462568365,0.003784567583,-0.002644252265,5
10.47185529,-0.0687071228,9.791737976,-0.6246510315,-0.006007020362,-0.008478215896,-0.0007751998492,5
10.49190029,-0.07364685059,9.756860504,-0.5830375671,-0.004329655785,-0.003555585397,0.000208463287,5
10.51194429,-0.03697311401,9.777667236,-0.5915698242,-0.001474791206,0.00991121307,-0.002676052507,5
10.53198829,-0.06152206421,9.775721283,-0.6018983459,-6.758840755e-05,0.002987717278,-0.003150475211,5
10.55203229,-0.1080752563,9.798623657,-0.5914201355,-0.0002793646418,-0.002034117701,-0.001796208089,5
10.57207629,-0.09011260986,9.808952179,-0.623303833,-0.0009714846965,-0.004847642966,-0.002481564414,5
10.59212129,-0.05598358154,9.805209961,-0.6327342224,-0.01022007503,-0.006197763607,-0.0035565414,5
10.61216529,-0.05403762817,9.784103851,-0.6018983459,-0.009059499949,-0.0100323325,-0.001170538366,5
10.63220929,-0.03502716064,9.726773071,-0.5968089294,-0.005963238422,-0.0031233544,-0.003135401756,5
10.65225329,-0.04116439819,9.75850708,-0.5739065552,0.002365873195,0.005811444018,-0.003559674835,5
10.67229729,-0.01676513672,9.761201477,-0.6503974915,0.00710835075,-0.003880710108,-0.002076214878,5
10.69234229,-0.03547622681,9.779463501,-0.6280938721,0.003364824923,-0.001939952606,-0.0005132847,5
10.71238629,-0.06376739502,9.801467743,-0.5956114197,0.002794868778,0.0189088136,-0.001579175238,5
10.73243029,-0.05448669434,9.802665253,-0.6074368286,-0.001025813166,0.01975703426,-0.001332144253,5
10.75247429,-0.05433700562,9.790690155,-0.6566844177,-0.00366740278,0.005502732005,-0.00140191894,5
10.77251829,-0.06990463257,9.782157898,-0.6637197876,-0.006637098268,0.0006425108295,-0.001666323282,5
10.79256329,-0.03532653809,9.768536224,-0.650098114,-0.00168807013,0.0185356494,-0.003352401545,5
10.81260729,-0.02829116821,9.776170349,-0.6827302551,0.002344084904,0.02336589806,0.001534684794,5
10.83265129,-0.04385879517,9.812544708,-0.7542814636,-0.003503503045,0.009484904818,0.002396876458,5
10.85269529,-0.1040336609,9.819280701,-0.7212002563,-0.008395121433,0.0121807158,0.002772617387,5
10.87273929,-0.08158035278,9.766440582,-0.6715036011,-0.007360629737,0.03034577146,-0.002931326162,5
10.89278429,-0.06526428223,9.760453033,-0.6402186584,-0.006219319068,0.03094215319,-0.006314087659,5
10.91282829,-0.06451583862,9.761500854,-0.6381230164,-0.004469657317,0.005444146227,-0.00462365523,5
10.93287229,-0.06466552734,9.773026886,-0.6529421997,-0.005167622119,-0.007430680096,-0.00367716956,5
10.95291579,-0.07484436035,9.808054047,-0.6644682312,-0.008011590689,0.009451611899,-0.00386330625,5
10.97295979,-0.09415420532,9.798623657,-0.6348298645,-0.007907687686,0.01909577288,-0.001891141757,5
10.99300479,-0.1019380188,9.788145447,-0.6340814209,-0.0107273683,0.01553714834,-0.004843553063,5
11.01304879,-0.1101708984,9.76673996,-0.673150177,-0.007582385559,-0.01326848753,-0.003588721389,5
11.03309279,-0.1228944397,9.749076691,-0.6735992432,-0.0143584758,-0.0244281143,-0.003844491206,5
11.05313679,-0.1577719116,9.775122528,-0.6117778015,-0.01246508025,-0.01425030734,-0.004279762041,5
11.07318079,-0.1317260742,9.778116302,-0.5742059326,-0.008292740211,-0.01175502874,-0.007803531364,5
11.09322579,-0.09565109253,9.76673996,-0.6165678406,-0.008953315206,-0.04180000722,-0.005329831503,5
11.11326979,-0.07259902954,9.763596497,-0.6170169067,-0.0135080805,-0.05266964436,-0.005230934825,5
11.13331379,-0.05298980713,9.803563385,-0.5740562439,-0.01143411547,-0.02341193706,-0.005451070145,5
11.15335779,-0.06586303711,9.736951904,-0.535436554,-0.004574641585,-0.006170516834,-0.0009273472242,5
11.17340179,-0.07753875732,9.746681671,-0.5224136353,0.003044180339,-0.01642035879,-0.00175511674,5
11.19344679,-0.07649093628,9.810299377,-0.5528004456,0.008149917237,-0.03181199357,-0.001814473886,5
11.21349079,-0.08502319336,9.796977081,-0.5655239868,0.004711670335,-0.03054916486,-0.003145945724,5
11.23353479,-0.07319778442,9.789492645,-0.5685177612,0.001023574034,-0.008282790892,-0.004602099769,5
11.25357879,-0.06960525513,9.734706573,-0.5222639465,0.004538720474,0.01991348155,-0.003858185373,5
11.27362279,-0.1194515991,9.782307587,-0.583636322,0.01535400376,-0.001262222184,-0.001941429451,5
11.29366779,-0.1058299255,9.790989532,-0.662971344,0.0104696108,-0.02523387223,0.001649420592,5
11.31371179,-0.106129303,9.788295135,-0.5966592407,0.003867940744,0.005527825095,-0.001658930443,5
11.33375579,-0.1101708984,9.787846069,-0.5559439087,0.006230355706,0.04259220883,-0.003431499237,5
11.35379979,-0.07469467163,9.783205719,-0.5815406799,0.002962943632,0.01566186734,-0.0006702584215,5
11.37384379,-0.1297801208,9.789342957,-0.58737854,-0.0001244395971,-0.01069572289,-0.0002108451445,5
11.39388779,-0.135617981,9.791588287,-0.6313870239,0.00285731582,-0.005494724959,-0.001701495145,5
11.41393279,-0.0845741272,9.796078949,-0.6414161682,4.315888509e-05,0.006390915252,-0.00208317372,5
11.43397679,-0.05957611084,9.765991516,-0.5748046875,-0.0006093657576,0.0129308803,0.0003395057283,5
11.45402079,-0.07753875732,9.753717041,-0.5526507568,0.003735119943,0.007626336999,0.0006399265258,5
11.47406479,-0.120050354,9.782756653,-0.6053411865,0.006779398769,-0.0094282059,0.002321788343,5
11.49410879,-0.1097218323,9.75970459,-0.6123765564,0.006275177002,-0.01594662108,0.003521935549,5
11.51415379,-0.09580078125,9.769134979,-0.6279441833,0.009581717663,-0.001276921248,0.002289330587,5
11.53419779,-0.08831634521,9.788444824,-0.5839356995,0.008606135845,0.01013446879,-0.0006053233519,5
11.55424179,-0.06840774536,9.793384552,-0.5285508728,0.007022771053,0.01004104409,-0.0005388068967,5
11.57428579,-0.05298980713,9.795779572,-0.5715115356,0.007206409238,0.004235718399,-0.001075714827,5
11.59432979,-0.06301895142,9.837692413,-0.6697073364,-0.0001318457071,-0.004253842868,0.00254872092,5
11.61437479,-0.09265731812,9.844129028,-0.7438032532,-0.008031253703,0.004016906954,0.005611467641,5
11.63441879,-0.09250762939,9.77377533,-0.6956034851,-0.01343572233,0.02258877829,0.003953055013,5
11.65446279,-0.06376739502,9.700577545,-0.6331832886,-0.009096352383,0.03202527761,0.0008497968083,5
11.67450679,-0.01197509766,9.713600464,-0.6303392029,0.001403381,0.0189161282,-0.001539637335,5
11.69455079,0.004790039062,9.734556885,-0.6947053528,0.008059239015,0.002979035955,-0.001691297861,5
11.71459479,-0.02649490356,9.771829376,-0.7044351196,0.008892326616,0.01882870495,-0.0005445997231,5
11.73463979,-0.003592529297,9.816885681,-0.6394702148,0.01388009917,0.04808003083,4.704296589e-05,5
11.75468379,-0.06137237549,9.825417938,-0.5987548828,0.009317466989,0.03633571416,0.0002159954747,5
11.77472779,-0.0672102356,9.770931244,-0.6129753113,0.004790851381,0.01157491747,-0.0001830393448,5
11.79477179,-0.09026229858,9.79592926,-0.6734495544,-0.0005676646251,0.004383202642,-0.001362364506,5
11.81481579,-0.1086740112,9.802665253,-0.6914122009,-0.002682686551,0.009403122589,0.001278328593,5
11.83486079,-0.1380130005,9.818831635,-0.6786886597,-0.003172678407,0.01162967831,-0.001379316673,5
11.85490479,-0.144150238,9.798923035,-0.6511459351,-0.006995002739,-0.005698981695,-0.001516359393,5
11.87494879,-0.1784289551,9.763297119,-0.659229126,-0.008416763507,-0.02935521491,-0.002882355591,5
11.89499279,-0.1508862305,9.754016418,-0.6866221619,-0.01154965628,-0.04330809042,-0.001258627744,5
11.91503679,-0.09295669556,9.746681671,-0.6282435608,-0.006134837866,-0.03694568574,-0.00021501421,5
11.93508079,-0.1104702759,9.75970459,-0.5743556213,0.006637412123,-0.01915439218,0.0004612101475,5
11.95512546,-0.1263372803,9.787546692,-0.5661227417,0.00572938472,-0.01988969557,0.003646194935,5
11.97516946,-0.1267863464,9.788744202,-0.513432312,0.002094129566,-0.02631489187,0.002275372157,5
11.99521346,-0.1350192261,9.790241089,-0.5664221191,-0.001706602518,-0.02962539718,0.0007120157825,5
12.01525746,-0.1222956848,9.779313812,-0.6191125488,-0.004917702172,-0.039793998,-0.001087981509,5
12.03530146,-0.06541397095,9.775272217,-0.5849835205,-0.009421600029,-0.02867231518,-0.001738764811,5
12.05534646,-0.02185455322,9.825867004,-0.532742157,-0.007528981194,-0.002855646191,-0.003342346288,5
12.07539046,0.01107696533,9.799222412,-0.5397775269,-0.002499662107,-0.01421619672,-0.0004558574874,5
12.09543446,0.04685256958,9.755363617,-0.5935157776,-0.005630711094,-0.024047371,0.004281562753,5
12.11547846,0.01422042847,9.743388519,-0.5758525085,-0.001790241571,-0.008347662166,0.002397141187,5
12.13552246,-0.02514770508,9.73859848,-0.5674699402,0.004417893477,0.01725868694,0.003477945458,5
12.15556746,-0.05613327026,9.784852295,-0.5909710693,0.006186272483,0.01290713809,0.003484430723,5
12.17561146,-0.07140151978,9.805958405,-0.6403683472,0.006818959489,-0.004812049679,0.002226965036,5
12.19565546,-0.1004411316,9.790690155,-0.6743476868,0.003874804592,-0.0108107049,0.002218253445,5
12.21569946,-0.08292755127,9.80535965,-0.68332901,-0.0005884221755,0.0002700716723,-0.0003587624524,5
12.23574346,-0.04311035156,9.808353424,-0.6524931335,-0.005981298164,0.004625072703,-0.0009476167616,5
12.25578746,-0.04116439819,9.783355408,-0.6197113037,-0.007765073329,0.003835615469,0.001922109979,5
12.27583246,-0.03158432007,9.745184784,-0.6596781921,-0.00504006166,-0.003148268675,0.002476644702,5
12.29587646,-0.05194198608,9.744735718,-0.6607260132,-0.004033260979,0.001766446978,0.0002789710416,5
12.31592046,-0.04745132446,9.785151672,-0.643661499,0.0007266524481,0.006910615601,-0.002594267949,5
12.33596446,-0.06167175293,9.777667236,-0.652792511,0.002404654166,0.004709069617,-0.002686895663,5
12.35600846,-0.08038284302,9.796528015,-0.6393205261,0.0004417991731,-0.0005685610231,-0.002158949152,5
12.37605246,-0.0462538147,9.798773346,-0.6294410706,-0.004654622171,0.0007810702082,-0.003580528079,5
12.39609746,-0.03487747192,9.767039337,-0.6020480347,-0.003688035067,0.00473678112,-0.003576832591,5
12.41614146,-0.02649490356,9.776918793,-0.5978567505,0.001433143043,0.009372967295,-0.0008328987751,5
12.43618546,-0.05688171387,9.796977081,-0.6143225098,0.0008581263246,0.007855709642,0.0003505165223,5
12.45622946,-0.06930587769,9.773326263,-0.5981561279,-0.0009611893911,0.00725117512,0.0004774392582,5
12.47627346,-0.06556365967,9.768087158,-0.5857319641,0.001067908248,0.01204150636,-0.001335233217,5
12.49631846,-0.1287322998,9.752519531,-0.5749543762,0.006904406473,0.007745498791,-0.002145506442,5
12.51636246,-0.1017883301,9.758058014,-0.6228547668,0.007762040012,0.003500119317,-0.0043212655,5
12.53640646,-0.1041833496,9.777667236,-0.6068380737,0.005626943894,-0.003623092314,-0.004230278544,5
12.55645046,-0.09714797974,9.791887665,-0.5745053101,0.006125899032,0.003200825537,-0.002758097835,5
12.57649446,-0.09056167603,9.793384552,-0.5571414185,0.005014874041,0.0003304772545,-0.002270427532,5
12.59653846,-0.07858657837,9.797575836,-0.5978567505,-5.956389941e-05,-0.006893305108,-0.001045104582,5
12.61658346,-0.07963439941,9.785151672,-0.6078858948,-0.000233914936,-0.006042630412,0.0005196419079,5
12.63662746,-0.08861572266,9.771679688,-0.6315367126,0.00300418213,0.006258456036,0.002586960094,5
12.65667146,-0.07918533325,9.76314743,-0.579894104,0.004612731282,0.01979929768,-0.0033215289,5
12.67671546,-0.06556365967,9.763596497,-0.5930667114,0.008789945394,0.007835320197,-0.003160095541,5
12.69675946,-0.1001417542,9.766889648,-0.6216572571,0.005248583853,-0.01339140814,-0.002138929442,5
12.71680346,-0.08217910767,9.775421906,-0.6271957397,0.006301517133,-0.007933103479,-0.001258941833,5
12.73684846,-0.04655319214,9.784702606,-0.6478527832,0.008440579288,0.002213975182,-0.003252414055,5
12.75689246,-0.08128097534,9.787696381,-0.6240522766,0.009881500155,0.005273200572,-8.746050298e-06,5
12.77693646,-0.1145118713,9.81,-0.6182144165,0.01214256417,-0.002850451274,-0.001737044193,5
12.79698046,-0.08472381592,9.783355408,-0.6081852722,0.005926821381,-0.01056014374,-0.0002781955991,5
12.81702446,-0.04805007935,9.772428131,-0.6098318481,0.002610561904,-0.0126882894,-0.0008069246542,5
12.83706846,-0.03936813354,9.780361633,-0.6228547668,0.004800072871,-0.007516845129,-0.001336208079,5
12.85711346,-0.0730480957,9.784852295,-0.6273454285,0.00364402961,-0.002626111964,-0.0009191336576,5
12.87715746,-0.04490661621,9.776170349,-0.6189628601,0.006998628378,0.003695543855,-0.001637032256,5
12.89720146,-0.05194198608,9.74683136,-0.6497987366,0.01180947758,0.002159646712,-0.002762713935,5
12.91724546,-0.0592767334,9.789642334,-0.6547384644,0.007680403069,8.55801627e-05,-0.001654014224,5
12.93729029,-0.0722996521,9.799072723,-0.6587800598,0.008028941229,0.003769855015,-0.001758488128,5
12.95733429,-0.08053253174,9.79832428,-0.6625222778,0.005559439771,0.004726598971,-0.001388728851,5
12.97737929,-0.08158035278,9.793683929,-0.6451583862,0.00176254136,0.00168857933,0.000724898302,5
12.99742329,-0.0687071228,9.772128754,-0.65758255,-2.534361556e-05,0.006347999908,-0.0002233891282,5
13.01746729,-0.07200027466,9.783954163,-0.686023407,0.002968390938,-0.001069809543,-0.001413994934,5
13.03751129,-0.07933502197,9.773475952,-0.6716532898,0.002332051983,-0.00451567024,-0.000456946902,5
13.05755529,-0.0773890686,9.76554245,-0.6521937561,0.003598153358,0.004159680568,0.0003031975357,5
13.07759929,-0.0687071228,9.75147171,-0.6448590088,0.006434252951,0.01197428722,-0.001629619626,5
13.09764429,-0.07798782349,9.812993774,-0.6583309937,0.007314890623,-0.0024397464,-0.003038806841,5
13.11768829,-0.08202941895,9.804461517,-0.6917115784,-0.0004497116897,-0.0156431701,4.714122042e-06,5
13.13773229,-0.08726852417,9.784403229,-0.6595285034,-0.002414430724,-0.0006397643592,-0.001115159364,5
13.15777629,-0.1044827271,9.791737976,-0.6291416931,0.002393906703,0.009044021368,-0.002079143189,5
13.17782029,-0.08681945801,9.787846069,-0.6644682312,-0.004713119939,-0.008458753116,-0.003672474762,5
13.19786429,-0.06735992432,9.771979065,-0.6354286194,-0.002505811863,-0.01925403252,-0.002950951923,5
13.21790929,-0.05957611084,9.752818909,-0.6982978821,0.002741414588,-0.0119838696,-0.0005895670038,5
13.23795329,-0.08741821289,9.782756653,-0.6584806824,0.004690425936,-0.001554134535,-0.0006147548556,5
13.25799729,-0.0845741272,9.800868988,-0.62599823,0.00316104223,0.005619296804,-7.491162978e-05,5
13.27804129,-0.09295669556,9.804461517,-0.6327342224,-0.0006866871845,-0.005267486908,-0.002596911741,5
13.29808529,-0.09295669556,9.764195251,-0.659229126,-0.001322012395,-0.01621116884,-0.002252481412,5
13.31812929,-0.05403762817,9.761201477,-0.6518943787,-0.00300047663,-0.009024779312,-0.00240140548,5
13.33817429,-0.05388793945,9.789941711,-0.6682104492,-0.002736446913,-0.00846738182,-0.001874250127,5
13.35821829,-0.09340576172,9.790839844,-0.6514453125,-0.002294176724,-0.008610504679,-0.00224118121,5
13.37826229,-0.1052311707,9.788594513,-0.6514453125,-0.002121673664,-0.005706269294,-0.001886493061,5
13.39830629,-0.05284011841,9.749376068,-0.6373745728,-0.002915018005,-0.01220234949,-0.004891938064,5
13.41835029,-0.03921844482,9.761500854,-0.6231541443,0.00420040451,-0.01601190306,-0.003239112208,5
13.43839429,-0.02903961182,9.780511322,-0.632434845,0.008170470595,-0.007645570673,-0.002270001452,5
13.45843929,-0.06601272583,9.807155914,-0.6300398254,0.006150220055,-0.003969673999,-0.0002944495063,5
13.47848329,-0.06062393188,9.783654785,-0.5875282288,0.00156444218,0.005802951753,-0.001713000005,5
13.49852729,-0.06481521606,9.777816925,-0.5682183838,0.003093634965,0.01377267856,-0.001907338388,5
13.51857129,-0.06676116943,9.763895874,-0.6274951172,0.004933427554,-0.0007243941072,-0.002519912086,5
13.53861529,-0.05748046875,9.751621399,-0.6665638733,0.004461926408,-0.007096438669,-0.001290404936,5
13.55865929,-0.0845741272,9.765243073,-0.65758255,0.01248912234,0.008175678551,-0.002035784302,5
13.57870329,-0.09310638428,9.775571594,-0.6456074524,0.0138918329,0.01975317486,-0.002928308211,5
13.59874829,-0.1257385254,9.808652802,-0.63887146,0.01069493406,0.01045895275,-0.0009246692061,5
13.61879229,-0.1362167358,9.813891907,-0.6761439514,0.01103064232,-0.01387669519,-0.001364706084,5
13.63883629,-0.112565918,9.776769104,-0.6861730957,0.005030291155,-0.01632029191,-0.002143807011,5
13.65888029,-0.0802331543,9.764195251,-0.6911128235,0.007709854282,-0.008626681753,-0.003451478435,5
13.67892429,-0.09924362183,9.78545105,-0.6997947693,0.004641111474,-0.009536433965,-1.163757406e-05,5
13.69896829,-0.1004411316,9.793234863,-0.6715036011,0.003840547288,-0.0146539472,0.0001795298886,5
13.71901329,-0.06182144165,9.796528015,-0.6403683472,0.002952145645,-0.0006375785451,-0.002068100497,5
13.73905729,-0.04445755005,9.787397003,-0.6893165588,0.0002830044832,-0.004683619365,-0.002246606397,5
13.75910129,-0.06092330933,9.739945679,-0.715512085,-0.003684734227,-0.0174923148,0.0002992621157,5
13.77914529,-0.06556365967,9.750573578,-0.6780899048,-0.002589730546,0.001012470108,0.0005937017268,5
13.79918929,-0.08487350464,9.82526825,-0.7041357422,0.003080961993,0.009768879041,-0.00151890656,5
13.81923329,-0.06691085815,9.781110077,-0.6801855469,-0.00185082457,0.0006200210191,-0.001385958632,5
13.83927829,-0.07080276489,9.748178558,-0.6652166748,-0.002305611502,0.004838046152,-0.003778884653,5
13.85932229,-0.08637039185,9.752519531,-0.6915618896,0.0001615467481,0.0004429821856,-0.003007378895,5
13.87936629,-0.0715512085,9.760453033,-0.762664032,-0.004271215759,-0.007799560204,-0.001796353376,5
13.89941029,-0.0904119873,9.784702606,-0.68332901,0.001677452587,0.002381335013,-0.002291369019,5
13.91945429,-0.07918533325,9.785600739,-0.6947053528,0.003799019847,0.01161732059,-0.001593462424,5
13.93949858,-0.08217910767,9.806407471,-0.6839277649,-0.002238198882,-0.005346576683,-0.001123186201,5
13.95954258,-0.06646179199,9.800719299,-0.6728507996,-0.0116229523,-0.01630394161,-0.0009042143356,5
13.97958758,-0.07170089722,9.78545105,-0.6505471802,-0.008167888969,-0.007348962128,-0.001627666177,5
13.99963158,-0.07274871826,9.757459259,-0.6677613831,-0.003616632894,0.001539677149,-0.001777232625,5
14.01967558,-0.04430786133,9.739496613,-0.642613678,-0.00299758208,0.005016367417,-0.004889193922,5
14.03971958,-0.04326004028,9.767039337,-0.6450086975,-0.001536461757,-0.002551008249,7.945299149e-05,5
14.05976358,-0.09595046997,9.786049805,-0.6671626282,-0.003608082421,-0.003218971426,-0.001332419459,5
14.07980758,-0.08577163696,9.80176712,-0.6231541443,-0.003675859887,0.007034397684,-0.001002750825,5
14.09985158,-0.07963439941,9.783505096,-0.6167175293,-0.002569189062,0.01149717253,-0.002581592184,5
14.11989658,-0.08831634521,9.774523773,-0.6403683472,-0.001789184287,-0.003732217709,0.00047667732,5
14.13994058,-0.1103205872,9.782157898,-0.669407959,-0.007487474941,-0.006601613946,-0.0007517682388,5
14.15998458,-0.09385482788,9.788145447,-0.6502478027,-0.007780763786,0.004125971813,-0.001130093355,5
14.18002858,-0.09909393311,9.795779572,-0.6209088135,-0.005610171705,0.002714976901,7.644225843e-05,5
14.20007258,-0.093256073,9.761500854,-0.6194119263,-0.003621815238,-0.008454797789,-0.0008225406054,5
14.22011658,-0.08472381592,9.765841827,-0.6253994751,-0.00390707422,-0.006323041394,-0.002586791757,5
14.24016158,-0.09445358276,9.770332489,-0.6574328613,-0.001288868487,-0.0009982290212,-0.001221280312,5
14.26020558,-0.07918533325,9.782008209,-0.6280938721,-0.0004385041539,0.004443261772,-0.0002377191558,5
14.28024958,-0.09789642334,9.79712677,-0.6315367126,0.001189069822,0.00205328851,0.0003808928886,5
14.30029358,-0.1022373962,9.797276459,-0.6563850403,-0.003443689784,-0.01110017113,-0.0008757226169,5
14.32033758,-0.07469467163,9.771679688,-0.6483018494,-0.007992751896,-0.009241232648,0.0006844726158,5
14.34038158,-0.07783813477,9.770781555,-0.6451583862,-0.003422269132,0.006809268612,-0.00140209333,5
14.36042558,-0.08906478882,9.769134979,-0.6348298645,-0.0009462062735,0.004725509789,0.0003786500311,5
14.38047058,-0.08008346558,9.754764862,-0.6713539124,-0.0009987170342,-0.007990556769,0.002111675683,5
14.40051458,-0.08981323242,9.778265991,-0.6578819275,-0.002879661042,-0.0007416938897,-0.001349964179,5
14.42055858,-0.09265731812,9.781858521,-0.6658154297,0.002349704038,0.00740639586,-0.001990136923,5
14.44060258,-0.1017883301,9.782157898,-0.6788383484,0.001394584426,0.003465186572,0.000364992884,5
14.46064658,-0.09729766846,9.795330505,-0.6489006042,-0.001944712829,0.002055097837,0.0004661921412,5
14.48069058,-0.1052311707,9.76434494,-0.6524931335,0.0008652416291,0.005507842172,0.0005318331532,5
14.50073458,-0.1068777466,9.772428131,-0.6848258972,-0.002851390978,0.0006059207954,-0.002229025587,5
14.52077958,-0.0679586792,9.812844086,-0.6764433289,-0.00851476565,-0.004029264674,-0.0007779425941,5
14.54082358,-0.05149291992,9.801318054,-0.6644682312,-0.005147255026,-0.001980536385,-0.0002808461431,5
14.56086758,-0.06915618896,9.761650543,-0.65758255,-0.001965200296,0.004495470319,-0.001629241509,5
14.58091158,-0.1095721436,9.752220154,-0.6379733276,0.001050353399,0.004166078288,-0.0009916070849,5
14.60095558,-0.08337661743,9.751920776,-0.6881190491,-0.00159310014,-0.01414981112,-0.001565097831,5
14.62099958,-0.04056564331,9.769733734,-0.660276947,-0.001996644307,-0.01575665735,-0.0007789984811,5
14.64104358,-0.04520599365,9.79473175,-0.6345304871,0.002057150472,0.00720997015,-0.001006782753,5
14.66108858,-0.06182144165,9.818083191,-0.5962101746,-0.001989789307,0.01643915474,-0.001000208315,5
14.68113258,-0.06885681152,9.787696381,-0.5763015747,-0.002168938518,0.007679061964,0.001829408924,5
14.70117658,-0.1040336609,9.7900914,-0.6402186584,-0.006235782988,-0.005107363686,0.001527531771,5
14.72122058,-0.09654922485,9.775272217,-0.6553372192,-0.008599297144,-0.004955508746,0.0003380292328,5
14.74126458,-0.07753875732,9.774224396,-0.6221063232,-0.005800656974,0.01504973136,-0.001749570714,5
14.76130858,-0.07140151978,9.782457275,-0.6292913818,-0.002701392164,0.01618354209,-0.00115993619,5
14.78135258,-0.1101708984,9.78425354,-0.6309379578,-0.0024928723,0.0002570876386,0.0002875626087,5
14.80139758,-0.1269360352,9.767338715,-0.6596781921,-0.004891049117,-0.001689416589,0.0008537698304,5
14.82144158,-0.1128652954,9.779014435,-0.6756948853,-0.004576273263,-0.005006420426,0.001826297259,5
14.84148558,-0.1001417542,9.789193268,-0.652792511,-0.001724265749,-0.003134063212,-0.00027853949,4
14.86152958,-0.1115180969,9.796378326,-0.6282435608,-0.00183251244,-0.00510976091,-0.0004395116121,4
14.88157358,-0.07634124756,9.765392761,-0.6418652344,-0.005043867975,-0.005655656569,-0.001490566414,4
14.90161758,-0.06496490479,9.766440582,-0.6155200195,-0.003350943094,0.0003694731276,-0.001185762696,4
14.92166158,-0.06601272583,9.77377533,-0.6445596313,-0.002742856042,-0.00496610906,-3.495276906e-05,4
14.94170629,-0.05508544922,9.787995758,-0.6138734436,-0.003548283363,-0.00811083056,0.0003741619876,4
14.96175029,-0.06481521606,9.813442841,-0.6279441833,-0.002733459929,-0.0009680127259,0.0005890881876,4
14.98179429,-0.06122268677,9.762548676,-0.614172821,-0.004284171388,0.006516007707,-0.0008357651532,4
15.00183829,-0.08577163696,9.777667236,-0.6370751953,-0.004933433607,0.005885889754,-0.0009205075912,4
15.02188229,-0.08502319336,9.764494629,-0.6643185425,-0.003625699785,-0.008327501826,0.0009108949453,4
15.04192629,-0.08352630615,9.763596497,-0.6556365967,-0.001765852096,-0.007935265079,0.0001785340719,4
15.06197029,-0.0628692627,9.787097626,-0.6447093201,-0.002031403827,8.820230141e-05,-0.0009439692367,4
15.08201429,-0.06810836792,9.782906342,-0.612077179,-0.0006844988093,0.003211126663,-0.0005693624262,4
15.10205929,-0.06885681152,9.782457275,-0.6310876465,-0.002173431451,-0.005783379078,-0.001395724248,4
15.12210329,-0.04984634399,9.76314743,-0.6156697083,-0.006848350633,-0.008950892836,-4.516448826e-06,4
15.14214729,-0.05119354248,9.783654785,-0.6408174133,-0.003945533186,-0.003198885126,-0.000750195235,4
15.16219129,-0.05867797852,9.772877197,-0.6550378418,-0.001850928646,0.002746509388,-0.0001340799499,4
15.18223529,-0.07289840698,9.785001984,-0.6234535217,-0.001676109619,0.007417907938,-4.088506103e-05,4
15.20227929,-0.08547225952,9.803413696,-0.6289920044,-0.003883904545,0.004182063043,0.001380468952,4
15.22232329,-0.09280700684,9.795629883,-0.6572831726,-0.009288169444,0.0004909820855,0.0006177430041,4
15.24236829,-0.1041833496,9.817334747,-0.6917115784,-0.01381117199,-0.008842601441,-8.407980204e-06,4
15.26241229,-0.1216969299,9.872270508,-0.7140151978,-0.02455135994,-0.01372827776,0.0005229305243,4
15.28245629,-0.08517288208,9.850565643,-0.7584727478,-0.03410795704,-0.005589921027,0.0001241650898,4
15.30250029,-0.08696914673,9.873018951,-0.8146060181,-0.03959593922,-0.00546097476,-0.001601220574,4
15.32254429,-0.1402583313,9.87197113,-0.9398954773,-0.05502270535,-0.02345863357,0.003776397556,4
15.34258829,-0.1694476318,10.00190094,-1.115330658,-0.09825015813,-0.06900122762,0.005056333728,4
15.36263229,-0.2547702026,10.07135651,-1.224603424,-0.1564409435,-0.1145545095,0.007854720578,4
15.38267629,-0.2856060791,10.03318588,-1.141226807,-0.2270639092,-0.0845008269,0.006728152279,4
15.40272129,-0.3005749512,9.979148254,-1.151255951,-0.2839041054,-0.02980812825,0.00274068024,4
15.42276529,-0.330662384,9.924212494,-1.296903076,-0.3318071663,-0.04814457148,-0.004218207672,4
15.44280929,-0.3567082214,9.842183075,-1.39824234,-0.386918813,-0.1169682667,-0.005438547116,4
15.46285329,-0.3257226562,9.750423889,-1.424138489,-0.4517197609,-0.174576655,-0.02587410994,4
15.48289729,-0.2763253784,9.685458984,-1.331181793,-0.493335098,-0.1846465319,-0.07074081898,4
15.50294129,-0.28081604,9.69653595,-1.23208786,-0.5125889182,-0.1286372989,-0.1179951057,4
15.52298529,-0.3656895447,9.69653595,-1.197809143,-0.5239892006,0.002856343985,-0.1604115963,4
15.54303029,-0.2778222656,9.673184509,-1.185384979,-0.5520765781,0.1707672477,-0.2205937952,4
15.56307429,-0.2945874023,9.69294342,-1.255139923,-0.5686817169,0.313244313,-0.2845853269,4
15.58311829,-0.3429368591,9.791887665,-1.30932724,-0.5941357017,0.3970446587,-0.338809967,4
15.60316229,-0.4586462402,9.786049805,-1.371597748,-0.6549328566,0.4979941845,-0.3780949116,4
15.62320629,-0.4144880676,9.545649719,-1.453178101,-0.772441864,0.58351475,-0.4342023134,4
15.64325029,-0.5276527405,9.533375244,-1.301992493,-0.8857668042,0.6487833261,-0.5099368691,4
15.66329429,-0.7563771057,9.379046173,-1.23792572,-0.9577596188,0.8116130233,-0.5247302651,4
15.68333829,-0.9509724426,8.278834076,-1.113684082,-1.071867824,1.032293439,-0.45920825,4
15.70338229,-0.7003935242,6.914720764,-0.965791626,-1.165712118,1.297718883,-0.3030768633,4
15.72342729,0.1013392639,6.570137329,-1.453477478,-1.291801095,1.40400064,-0.3154605925,4
15.74347129,0.2550695801,8.163424072,-1.484612732,-2.011927128,1.78435123,-0.5293416977,4
15.76351529,-0.2140548706,9.309141541,-0.7644602966,-3.191287994,2.131785631,-0.905869782,4
15.78355929,-1.719923401,9.540260925,3.786226501,-3.520080328,1.756748915,-1.156898499,4
15.80360329,-3.074306946,9.361382904,7.936196594,-2.348869801,1.096750855,-1.108792067,4
15.82364729,-3.26920166,8.764124908,5.369633789,-1.473049283,-0.1251410842,-1.303613424,4
15.84369129,-3.858675842,8.744515686,3.140768738,-1.559714198,-0.5064275861,-1.414354205,4
15.86373629,-4.176764374,8.490942993,2.410587158,-2.031447411,0.2813655436,-1.230944157,4
15.88378029,-3.576362915,7.482490082,2.428849182,-2.27227211,0.8101288676,-0.908472836,4
15.90382429,-2.941083984,6.547234955,4.397255859,-2.248752356,0.7554656863,-0.9443001747,4
15.92386829,-2.627336426,5.76032135,6.324947205,-1.984404206,0.5667231083,-1.056549549,4
15.94391204,-1.158590698,5.773493958,6.108497314,-1.792528033,0.6840021014,-1.087904453,4
15.96395604,-0.8845106506,5.847440186,4.087699585,-1.864434123,0.3422272801,-1.092152715,4
15.98400004,-3.549418945,5.269641724,4.880600739,-2.050461531,-0.6039558649,-0.9422719479,4
16.00404404,-5.303321686,5.134921875,7.325466614,-1.917815089,-0.5960941315,-0.8204619288,4
16.02408904,-4.074826355,5.604196014,6.692732391,-1.904886603,-0.01420380548,-0.7470725775,4
16.04413304,-2.25356369,5.912105713,5.129832458,-1.849687099,-0.1406242847,-0.6623480916,4
16.06417704,-2.981200562,4.85006424,4.72597229,-1.933505893,-0.2115902305,-0.7437742352,4
16.08422104,-3.998634796,3.896696777,6.050118713,-2.023007393,-0.3110548556,-0.8306079507,4
16.10426504,-3.59806778,3.529061279,7.271728363,-1.990160584,-0.2681313455,-0.9091032147,4
16.12430904,-3.006647644,3.912114716,7.183561707,-1.966847658,-0.1423581094,-0.9516373873,4
16.14435304,-3.532354431,4.169429626,6.994205475,-1.920664907,-0.2387525439,-0.9583259225,4
16.16439704,-4.753365326,4.135001221,6.743327179,-1.993219972,-0.1559106559,-0.9255967736,4
16.18444204,-5.001100159,4.157903595,6.789880371,-2.138742208,-0.02937903069,-0.8467741609,4
16.20448604,-4.505630493,3.605851593,6.691385193,-2.173291206,-0.06179337949,-0.745380342,4
16.22453004,-3.722159729,2.216889954,6.86607193,-2.147562027,-0.07690559328,-0.7784948945,4
16.24457404,-3.687132568,1.584604797,6.753955078,-2.32140255,-0.280169487,-0.8750846386,4
16.26461804,-3.886517944,1.552122345,6.937024384,-2.298781157,-0.2255955338,-0.9331527352,4
16.28466204,-3.378773804,1.234782257,6.222709808,-2.359075069,-0.3755832016,-0.982055366,4
16.30470604,-2.988834686,0.4131408691,5.457950134,-2.435107231,-0.4931448102,-1.042004824,4
16.32475004,-2.659669189,-0.5011578369,4.823868713,-2.551928759,-0.5733938217,-1.156178594,4
16.34479404,-2.47944397,-2.498454437,4.641847229,-2.735576153,-0.7009549737,-1.343568444,4
16.36483904,-1.749412079,-2.836900635,5.780379639,-2.77785182,-0.9396052361,-1.406484723,4
16.38488304,-1.074465637,-4.885540466,10.34872971,-2.823312998,-0.4686440527,-1.250973701,4
16.40492704,-5.48414566,-6.34650238,15.46853302,-2.421673775,-0.1309448034,-1.222108006,4
16.42497104,-5.272785187,-4.078269196,14.68506226,-1.61469698,0.00431017112,-1.063733816,4
16.44501504,-6.569688263,-5.293292542,16.06983261,-1.265662313,-0.3791798353,-0.8238118887,4
16.46505904,-7.892786865,-8.144114227,20.06247986,-0.8119159341,0.04750216752,-0.748666048,4
16.48510304,-6.183042297,-7.965385895,16.24257339,-0.2561860383,0.2531453371,-0.4543358684,4
16.50514704,-4.384232941,-6.737938385,14.72443039,0.2677562833,-0.2394041717,-0.258915782,4
16.52519204,-3.440295868,-7.120692444,12.70527924,0.6084771156,-0.09384248406,0.02268048003,4
16.54523604,-2.586770782,-7.733817444,9.394913177,0.5336992741,0.206898272,0.2827179432,4
16.56528004,-2.23140976,-7.426057434,8.038583679,0.3185908496,-0.002361051971,0.4742786884,4
16.58532404,-1.436113586,-6.46116394,7.022197266,0.2936677039,-0.1913376153,0.6327669024,4
16.60536804,-1.509910126,-5.907465363,5.961952057,0.3489153981,-0.2989840806,0.6579292417,4
16.62541204,-1.687440948,-5.137765961,5.432353363,0.3312480152,-0.2286046743,0.5346939564,4
16.64545604,-2.013612671,-4.43692337,5.059927826,0.2295664698,-0.03605950996,0.184717834,4
16.66550004,-2.599194946,-3.448379059,5.649402008,0.1459527165,0.1670596302,-0.2005821466,4
16.68554404,-3.230282593,-2.404898987,6.365063782,0.09615814686,0.2590319514,-0.3845840096,4
16.70558904,-3.933220825,-1.949994965,8.050708466,-0.05967147648,0.1967910975,-0.477486968,4
16.72563304,-4.159400482,-2.035167847,9.287436676,-0.08819428086,0.07200591266,-0.4891267419,4
16.74567704,-4.08006546,-2.155816956,9.271120605,0.005758273415,-0.251360476,-0.3643093109,4
16.76572104,-4.043990479,-2.185305634,9.443262634,0.1203333288,-0.3645803034,-0.2573037744,4
16.78576504,-3.96420639,-1.969604187,8.676557007,0.0443289727,-0.4174836278,-0.2242753059,4
16.80580904,-3.954177246,-2.493963776,9.425150299,-0.01621804386,-0.1864030063,-0.1998421848,4
16.82585304,-3.230132904,-3.3230896,9.941726074,0.01332538668,-0.09752916545,-0.1620939374,4
16.84589704,-2.690505066,-3.47517334,10.21026764,0.04167798534,-0.08650585264,-0.08609263599,4
16.86594204,-2.465522919,-3.401676178,9.718540192,0.04079034179,-0.1358213574,0.01449532062,4
16.88598604,-2.408641205,-3.292253723,9.403146057,-0.01729773544,-0.07742698491,0.07917103171,4
16.90603004,-2.459685059,-3.304827576,9.220525818,-0.04199713469,0.008706628345,0.1438937038,4
16.92607404,-2.582579498,-3.476520538,8.812624054,-0.04219414666,0.006145726889,0.190655157,4
16.94611817,-2.708018646,-3.645369415,8.475824432,-0.03207177296,0.02528682537,0.2183516175,4
16.96616217,-2.862647095,-3.474275208,8.102201385,-0.06196718663,0.04334593937,0.2147705704,4
16.98620617,-3.035088501,-3.1744487,8.218958588,-0.07406680286,0.06139854714,0.2049486041,4
17.00625017,-3.289709015,-2.957699432,8.180488586,-0.07284658402,0.05054691061,0.1978453249,4
17.02629417,-3.387605438,-2.807861023,8.158184967,-0.1113929152,0.03118253499,0.1750542521,4
17.04633817,-3.362008667,-2.871029663,8.494385834,-0.1430670321,0.06090947986,0.1532870382,4
17.06638317,-3.341651001,-3.058439941,8.747060394,-0.132278353,0.06533208489,0.1420179904,4
17.08642717,-3.32069458,-3.118764496,8.838370514,-0.1134241372,0.06880543381,0.1272029877,4
17.10647117,-3.393892365,-3.061882782,8.863218842,-0.08758589625,0.05816887692,0.1033648551,4
17.12651517,-3.514541473,-3.112926636,8.995992737,-0.04889182374,0.06051459536,0.08329360187,4
17.14655917,-3.677851868,-3.184028778,8.960666199,-0.02307956107,0.1072906181,0.07201069593,4
17.16660317,-3.636986847,-3.157384186,8.757089539,-0.01767520793,0.161540553,0.06500978023,4
17.18664717,-3.445085907,-3.08313858,8.65395401,-0.01699591801,0.1599523872,0.05150577426,4
17.20669117,-3.329376526,-3.08313858,8.699459381,0.002067666966,0.1407259852,0.04842649028,4
17.22673517,-3.390299835,-3.067121887,8.460406494,0.02073750272,0.1211344227,0.04950669035,4
17.24678017,-3.418890381,-3.073109436,8.368796997,0.02798023634,0.121792227,0.04190789163,4
17.26682417,-3.391497345,-2.974015503,8.317902832,0.01295909937,0.1243821457,0.02187894844,4
17.28686817,-3.342549133,-2.891087952,8.380622406,-0.008144553751,0.1427953541,-0.005043870304,4
17.30691217,-3.433110809,-2.935844879,8.394393768,-0.007951371372,0.1429538429,-0.01276980806,4
17.32695617,-3.506009216,-2.935246124,8.380323029,-0.01610619575,0.1063548848,-0.008389347233,4
17.34700017,-3.579955444,-2.940934296,8.450527039,-0.03897559643,0.07822354138,-0.001428252086,4
17.36704417,-3.68339035,-2.909649353,8.500373383,-0.06116427481,0.03036372364,0.01671940088,4
17.38708817,-3.692970428,-2.993624725,8.520132294,-0.07849609107,-0.01279088389,0.03551581874,4
17.40713217,-3.606001282,-3.094963989,8.587791595,-0.08635143936,-0.0263970308,0.04352034256,4
17.42717717,-3.611839142,-3.1346315,8.60126358,-0.08010616899,-0.005303995684,0.04950142652,4
17.44722117,-3.64013031,-3.123404846,8.595575409,-0.06192788109,0.006975682918,0.05712491274,4
17.46726517,-3.656147003,-3.07969574,8.542884979,-0.04263095185,-0.003376411041,0.05851438269,4
17.48730917,-3.643872528,-3.010090485,8.521928558,-0.0335124135,-0.002937242156,0.05181320757,4
17.50735317,-3.748055878,-2.94512558,8.435707855,-0.02373815328,0.004243279807,0.04919561744,4
17.52739717,-3.721111908,-2.963088226,8.410260773,-0.02517579496,0.01033824589,0.04061596096,4
17.54744117,-3.714226227,-3.026855621,8.383316803,-0.02774974704,0.002872391138,0.03430618346,4
17.56748517,-3.731889496,-2.98718811,8.334368591,-0.0272183381,-0.0005399191286,0.02389093488,4
17.58752917,-3.714375916,-3.028502197,8.32748291,-0.02967057005,-0.01619056799,0.00969517231,4
17.60757317,-3.73368576,-3.057541809,8.393196259,-0.02791642025,-0.01866240799,-0.000176068861,4
17.62761817,-3.770658875,-3.056493988,8.44917984,-0.01664269343,-0.01491363719,-0.01753920503,4
17.64766217,-3.809727631,-3.123554535,8.489446106,-0.009241195396,-0.002218560083,-0.02301537059,4
17.66770617,-3.793112183,-3.11128006,8.435558167,-0.001184163848,0.03258308768,-0.02680087462,4
17.68775017,-3.69042572,-3.072211304,8.427624664,-0.00668360386,0.0279987324,-0.03242522851,4
17.70779417,-3.591331787,-3.07849823,8.531957703,-0.00562931411,0.003518470097,-0.03484470397,4
17.72783817,-3.524121552,-3.201841736,8.54752533,0.01050473005,-0.009424383752,-0.04347262904,4
17.74788217,-3.499273224,-3.208577728,8.54048996,0.01682680845,-0.00796577055,-0.04564550146,4
17.76792617,-3.478466492,-3.213218079,8.533304901,0.01290193759,-0.0005687421653,-0.04497604072,4
17.78797017,-3.476071472,-3.228785706,8.52522171,0.01432336215,-0.004681720398,-0.03817663342,4
17.80801417,-3.509152679,-3.204386444,8.522826691,0.02007092163,-0.008627618663,-0.03021880984,4
17.82805917,-3.520079956,-3.154689789,8.514294434,0.01818988845,-0.002791089239,-0.02292024717,4
17.84810317,-3.547922058,-3.116968231,8.50306778,0.01302632689,-0.0002314706799,-0.01894298941,4
17.86814717,-3.572620697,-3.118016052,8.516988831,0.004290667828,-0.005845626816,-0.01015046798,4
17.88819117,-3.588038635,-3.113375702,8.530610504,-0.003623372642,-0.004106422886,0.0008787160041,4
17.90823517,-3.575464783,-3.114124146,8.518785095,-0.008471683599,-0.007785470225,0.008286906406,4
17.92827917,-3.558400269,-3.160677338,8.515791321,-0.0110524036,-0.008292216808,0.01024533249,4
17.94832296,-3.553161163,-3.166515198,8.508456573,-0.00943808537,-0.0008609893266,0.01103642024,4
17.96836696,-3.552263031,-3.150199127,8.493787079,-0.003624821082,0.004660756327,0.007189279888,4
17.98841096,-3.531456299,-3.165167999,8.474177856,-0.002024650807,0.001317793271,0.001322322758,4
18.00845496,-3.51379303,-3.16157547,8.478967896,-0.0009686590638,-0.003004246624,-0.003070250619,4
18.02849996,-3.555556183,-3.164419556,8.485703888,0.001520987484,0.004977676086,-0.004578385036,4
18.04854396,-3.629352722,-3.177143097,8.506660309,0.00429740781,-0.003466782393,0.0009724104311,4
18.06858796,-3.673211517,-3.13822403,8.473878479,-0.004132603295,-0.01144646574,0.005420062691,4
18.08863196,-3.624712372,-3.139421539,8.425678711,-0.01354813483,-0.009299798869,0.00519206468,4
18.10867596,-3.564537506,-3.182531891,8.447682953,-0.01411548909,-0.006842283532,0.0004078021739,4
18.12871996,-3.567231903,-3.17564621,8.513096924,-0.0008310412522,-0.002553850645,-0.004401315935,4
18.14876396,-3.564986572,-3.126847687,8.515192566,0.00330256694,0.00035879598,-0.005882770754,4
18.16880796,-3.583547974,-3.142415314,8.503666534,0.00278460863,-0.006544227712,-0.00205481844,4
18.18885196,-3.617677002,-3.129392395,8.531808014,0.00453219004,-0.01074386854,-0.0002900392283,4
18.20889596,-3.643273773,-3.135379944,8.568930817,0.008551800624,0.003831661539,0.003163708141,4
18.22893996,-3.65539856,-3.142714691,8.55680603,0.0203174632,0.01950926706,0.00594929466,4
18.24898496,-3.591930542,-3.113076324,8.398734741,0.02251997776,0.01495297253,0.003283923026,4
18.26902896,-3.52786377,-3.08897644,8.40008194,0.008671909571,-0.002952741226,-0.002671810333,4
18.28907296,-3.535048828,-3.11711792,8.46325058,-9.912950918e-05,0.003502337262,-0.002558972221,4
18.30911696,-3.507206726,-3.145409088,8.468489685,-0.002895051148,0.005694761872,-0.003033850342,4
18.32916096,-3.469634857,-3.154989166,8.469537506,-0.01027238555,-0.01160503644,-0.004116682336,4
18.34920496,-3.516637115,-3.165167999,8.516539764,-0.01579364389,-0.01497478504,-0.002996072639,4
18.36924896,-3.558100891,-3.193010101,8.541537781,-0.01173713617,-0.007968747988,-0.000554459868,4
18.38929296,-3.604504395,-3.177741852,8.503516846,-0.008737366647,-0.007947340608,0.003082983196,4
18.40933696,-3.591631165,-3.172802124,8.484356689,-0.01030376926,-0.008397736587,0.005004205275,4
18.42938096,-3.59806778,-3.195255432,8.496930542,-0.00998963695,-0.002981124679,0.006415014621,4
18.44942496,-3.602259064,-3.180735626,8.517288208,-0.003167623887,-0.00113449269,0.006546108983,4
18.46946996,-3.598516846,-3.159629517,8.515192566,0.001392589416,-0.005081189796,0.005596878473,4
18.48951396,-3.601211243,-3.129691772,8.480614471,-0.001978379441,-0.006996273063,0.005010517314,4
18.50955796,-3.587589569,-3.140918427,8.483757935,-0.003767948831,-0.007499450818,0.006087202113,4
18.52960196,-3.578009491,-3.160228271,8.503516846,-0.001936827321,-0.003893741174,0.005388637073,4
18.54964596,-3.555406494,-3.134481812,8.52058136,-0.001619385788,-0.0007993637118,0.002833383158,4
18.56968996,-3.51963089,-3.143612823,8.487949219,-0.001425435767,-0.001301520737,-0.0006653147284,4
18.58973396,-3.522325287,-3.152294769,8.474626923,0.002439463045,-0.0005590396468,0.0001777096186,4
18.60977796,-3.566333771,-3.137625275,8.48196167,0.002106534084,0.001272843918,-0.0009372315835,4
18.62982196,-3.582949219,-3.148402863,8.487949219,-0.0006918329746,-0.0007800783496,-0.0002270461991,4
18.64986596,-3.571572876,-3.181035004,8.511001282,-0.0004815030843,-0.003202486085,0.001976918429,4
18.66991096,-3.589236145,-3.183280334,8.529712372,0.001198786194,0.001114281593,0.003542751074,4
18.68995496,-3.546275482,-3.147804108,8.506061554,0.001357353292,0.001611226471,0.002373734489,4
18.70999896,-3.53953949,-3.152743835,8.480913849,-0.001288140891,-0.001510474132,0.004201333039,4
18.73004296,-3.563339996,-3.18148407,8.511899414,-0.003190661781,-0.001788720721,0.005876820534,4
18.75008696,-3.603606262,-3.178041229,8.507109375,0.001648620819,0.001111508813,0.01013613027,4
18.77013096,-3.590433655,-3.159629517,8.483009491,0.002234189771,-0.001053903019,0.0112098502,4
18.79017496,-3.563339996,-3.163072357,8.460107117,-0.001066007186,-0.004851252772,0.009064456448,4
18.81021896,-3.542084198,-3.147804108,8.469687195,0.001455657533,-0.001587124774,0.002840462374,4
18.83026296,-3.553310852,-3.1346315,8.489595795,0.000718134921,0.003868525848,-0.0004165263381,4
18.85030696,-3.567082214,-3.135379944,8.478818207,0.0002493280917,0.003465000307,-0.0001942892559,4
18.87035096,-3.591631165,-3.129242706,8.477021942,-0.002527932404,0.0002064090222,0.001273582689,4
18.89039496,-3.598666534,-3.132086792,8.472680969,-0.005546557717,-0.001904201927,0.001333255204,4
18.91043996,-3.588038635,-3.162174225,8.491841125,-0.005721336696,0.0004536015913,0.001300263219,4
18.93048396,-3.571872253,-3.172502747,8.482111359,-0.004537553526,0.002401919104,-0.001002088422,4
18.95053121,-3.551813965,-3.158132629,8.483308868,-0.0008133486845,0.0002671831753,-0.003935733344,4
18.97057521,-3.562441864,-3.142115936,8.493188324,-0.0009119750466,0.002660774859,-0.004694605712,4
18.99061921,-3.582051086,-3.145558777,8.496631165,-0.00174914184,0.00333413342,-0.004584120121,4
19.01066321,-3.59567276,-3.165317688,8.469836884,-0.003282965161,0.001626515645,-0.002094175201,4
19.03070721,-3.556005249,-3.169508972,8.491242371,-0.00315071037,0.002210857812,-0.003247896675,4
19.05075121,-3.572920074,-3.188369751,8.483907623,0.0002294112928,0.003611158347,-0.001774614677,4
19.07079521,-3.576362915,-3.179987183,8.499175873,0.001567510306,0.003717359388,-0.0002243034542,4
19.09083921,-3.592828674,-3.164120178,8.505612488,0.001305912621,0.001446322305,0.002242880175,4
19.11088321,-3.603755951,-3.159479828,8.501720581,-0.00169116701,0.0004178639501,0.005588436499,4
19.13092721,-3.567531281,-3.144960022,8.495283966,-0.006467779167,0.0003191658761,0.005612546578,4
19.15097221,-3.547472992,-3.14166687,8.48315918,-0.004017705098,0.0004879052285,0.006148498971,4
19.17101621,-3.559747467,-3.156635742,8.494236145,-0.002640194027,0.001020965865,0.003361247946,4
19.19106021,-3.573967896,-3.132086792,8.500822449,-0.002226897283,0.004620071035,0.004181043711,4
19.21110421,-3.590433655,-3.144510956,8.504864044,-0.003288449021,0.004071828909,0.004811245948,4
19.23114821,-3.567231903,-3.158282318,8.483907623,-0.003196220845,0.003475389211,0.004125668202,4
19.25119221,-3.582649841,-3.149750061,8.46205307,-0.002500220668,0.005075363908,0.006173701026,4
19.27123621,-3.588936768,-3.15573761,8.472830658,-0.003516640281,0.004241260234,0.00605982868,4
19.29128021,-3.600462799,-3.160827026,8.49827774,0.0006798858522,-0.0004763712641,0.006390407216,4
19.31132421,-3.616928558,-3.147804108,8.494086456,0.001114712912,2.435804345e-05,0.005888916552,4
19.33136821,-3.609294434,-3.141217804,8.468938751,-0.0005528084002,0.002736574272,0.003733557649,4
19.35141221,-3.586841125,-3.139571228,8.448281708,-0.005455804057,-0.0007129653823,0.004216060508,4
19.37145621,-3.58519455,-3.161276093,8.482859802,0.001609910978,-0.002740056021,0.002795983106,4
19.39150121,-3.63548996,-3.143912201,8.490793304,0.005282417871,0.001928147627,0.003564255778,4
19.41154521,-3.597918091,-3.148851929,8.486452332,0.002793461084,0.005732845515,0.002068500035,4
19.43158921,-3.557502136,-3.16277298,8.484506378,0.002227622084,0.0006063678302,-0.0007465411909,4
19.45163321,-3.576512604,-3.154689789,8.474477234,0.006732891779,7.879547775e-05,-0.002042169217,4
19.47167721,-3.586691437,-3.15573761,8.475824432,1.362804323e-05,0.005311907735,-0.002876915038,4
19.49172121,-3.596121826,-3.138523407,8.475075989,-0.002922380576,0.002164526377,-0.0003918339498,4
19.51176521,-3.597918091,-3.160677338,8.46908844,-0.005062579177,-0.001351221232,0.002493248554,4
19.53180921,-3.607049103,-3.150947571,8.475974121,-0.005600646604,0.00213991804,0.002338673919,4
19.55185321,-3.593427429,-3.152594147,8.471333771,-0.005190027878,-0.0002660357859,0.002877604682,4
19.57189721,-3.58279953,-3.153192902,8.464897156,-0.005256250966,-0.003137665568,0.001599424751,4
19.59194121,-3.563339996,-3.158282318,8.467591553,-0.005729220808,-0.002406147076,-0.001638495829,4
19.61198521,-3.573518829,-3.167563019,8.474327545,-0.004378930666,-0.0009656983893,-0.004610032775,4
19.63203021,-3.604953461,-3.173101501,8.49363739,-0.001951975748,-0.001130918274,-0.002517419402,4
19.65207421,-3.607198792,-3.166515198,8.508456573,-0.0009687941056,5.929847248e-05,-7.209950127e-05,4
19.67211821,-3.572620697,-3.144211578,8.478219452,-0.002985073486,-0.000136976596,-0.001351215644,4
19.69216221,-3.567980347,-3.156036987,8.484805756,-0.004044029396,0.0004208476748,-0.001755403588,4
19.71220621,-3.582200775,-3.177442474,8.484955444,0.001399513567,-0.001223600237,-0.001008293824,4
19.73225021,-3.614533539,-3.178190918,8.48779953,0.001624325756,-0.0007787982468,0.00099662703,4
19.75229421,-3.604205017,-3.154839478,8.503666534,0.0004359895829,0.002322080778,0.0007504089735,4
19.77233821,-3.576662292,-3.155887299,8.472680969,-0.001817303011,0.001811501221,0.0002717896132,4
19.79238221,-3.571722565,-3.150797882,8.46908844,0.0004396280274,0.004271724261,-0.001823140774,4
19.81242621,-3.585942993,-3.144660645,8.471333771,0.002546270844,0.001012123423,0.0005413996987,4
19.83247021,-3.605851593,-3.138373718,8.485554199,-0.002212924417,0.00189315516,0.003539500758,4
19.85251421,-3.614234161,-3.150648193,8.470585327,-0.005956362002,0.00122096925,0.003438745625,4
19.87255821,-3.603755951,-3.156336365,8.471034393,-0.003788158763,0.001845642691,0.001701312605,4
19.89260221,-3.595523071,-3.162024536,8.483608246,-0.001049712999,0.001929424237,0.0008324031951,4
19.91264721,-3.594026184,-3.146905975,8.479416962,0.003261469537,0.002808217425,0.001172483317,4
19.93269121,-3.584446106,-3.149600372,8.488547974,0.002028575633,0.0005094292574,0.0002730719279,4
19.95273542,-3.604504395,-3.145558777,8.486003265,0.0002760165371,-0.001816896489,0.002836915199,4
19.97277942,-3.611390076,-3.162323914,8.473878479,-0.001889857464,-0.00152751687,0.001769489492,4
19.99282342,-3.611689453,-3.166066132,8.473429413,-0.000562579371,-0.0009169082623,0.001657543587,4
20.01286742,-3.606749725,-3.160527649,8.479416962,0.0034070611,-0.001670794794,0.0005176920677,4
20.03291142,-3.616180115,-3.141068115,8.471932526,0.003171163844,-0.002564869123,0.002615723992,4
20.05295542,-3.594175873,-3.14989975,8.449479218,-0.0006407003384,-0.003038971452,0.002377791796,4
20.07299942,-3.597918091,-3.146456909,8.471932526,-0.002384538297,-0.00403792318,0.0003705671988,4
20.09304342,-3.592678986,-3.183280334,8.494385834,0.001810454996,-0.002926795045,7.524830289e-05,4
20.11308742,-3.632196808,-3.144211578,8.500822449,0.009270677343,-0.0008887338918,0.0004261160502,4
20.13313142,-3.585044861,-3.176843719,8.488248596,0.005377792753,0.0007058624178,-0.001347803045,4
20.15317542,-3.564238129,-3.173849945,8.498876495,0.008209306747,0.0002212205436,-0.003490755334,4
20.17322042,-3.556005249,-3.140918427,8.508755951,0.006357903127,0.005650764797,-0.006124696694,4
20.19326442,-3.575464783,-3.140918427,8.468040619,0.0005859255325,0.004462996032,-0.002344450448,4
20.21330842,-3.601959686,-3.141068115,8.462202759,-0.002638663631,0.001956855878,0.002460282296,4
20.23335242,-3.625760193,-3.140768738,8.477471008,-0.006389459129,-0.00172656239,0.007402842864,4
20.25339642,-3.638334045,-3.133284302,8.451874237,-0.009921441786,-0.001336680958,0.00660380628,4
20.27344042,-3.612138519,-3.16861084,8.45157486,-0.01128735393,-0.003869234817,0.007020710502,4
20.29348442,-3.573668518,-3.175945587,8.477021942,-0.006706301123,-0.001141572604,0.003254672047,4
20.31352842,-3.558549957,-3.163820801,8.478369141,-0.003176414175,0.0007610989269,-0.001458361279,4
20.33357242,-3.572171631,-3.169508972,8.488547974,-0.001770431409,0.001229866873,-0.004104849417,4
20.35361642,-3.60270813,-3.149151306,8.503217468,0.002429234097,0.0004769316874,-0.005701862276,4
20.37366042,-3.634142761,-3.139271851,8.472830658,-0.0007896386087,0.002438939642,-0.0001682084985,4
20.39370442,-3.593876495,-3.156486053,8.475974121,-0.004660252482,-0.0001146548893,-5.064508878e-05,4
20.41374842,-3.594175873,-3.163371735,8.463699646,-0.001049963292,-0.002772224369,0.0002746386454,4
20.43379242,-3.615731049,-3.18732193,8.488398285,0.000758606242,2.118758857e-08,-0.001333744032,4
20.45383742,-3.604953461,-3.166814575,8.480015717,0.0006776212249,0.001469710609,-0.001456366852,4
20.47388142,-3.586242371,-3.164718933,8.484656067,0.0002433091868,-0.0003870432265,-0.001506656641,4
20.49392542,-3.561094666,-3.14286438,8.481213226,0.001939310343,0.001511042705,-0.002427683678,4
20.51396942,-3.582949219,-3.157533875,8.466094666,0.0002896322403,0.001086321427,-0.0007217244711,4
20.53401342,-3.603157196,-3.14286438,8.49019455,0.002881495282,0.0003919287119,-0.001332152169,4
20.55405742,-3.610342255,-3.147804108,8.48315918,-0.003822030034,0.002623549663,0.0004394630669,4
20.57410142,-3.597618713,-3.150648193,8.472980347,-0.002585500479,-0.001147642033,0.0003429086646,4
20.59414542,-3.606899414,-3.177741852,8.478967896,-0.002130133333,-0.00162685127,0.001671416801,4
20.61418942,-3.595972137,-3.175346832,8.473579102,-0.0009897428099,-0.001925499411,0.0005235202843,4
20.63423342,-3.597019958,-3.162323914,8.488847351,0.001560301171,0.002120852936,-0.000404040562,4
20.65427742,-3.598666534,-3.162174225,8.475525055,0.0007344045443,0.001241160324,-0.001340791583,4
20.67432142,-3.610192566,-3.149001617,8.478369141,-0.0003473882098,-0.001849865774,0.0009799860418,4
20.69436542,-3.614683228,-3.154240723,8.496481476,0.0002339798957,-0.002147607272,0.0001370955724,4
20.71440942,-3.595822449,-3.147355042,8.476722565,-0.0009885441978,-0.001865736442,0.001147728064,4
20.73445342,-3.595074005,-3.156186676,8.463549957,0.0007946918486,-0.0007827898953,0.00275611016,4
20.75449842,-3.594774628,-3.141816559,8.47956665,-0.0003585149534,-0.001750314841,0.0006026097108,4
20.77454242,-3.587290192,-3.164569244,8.462352448,0.0005416248459,-0.001496196492,0.001724915113,4
20.79458642,-3.592678986,-3.153941345,8.48540451,0.001570662251,0.0007190729957,-0.0005821315572,4
20.81463042,-3.597169647,-3.157384186,8.503666534,0.00264383317,0.0001786346547,0.000258975313,4
20.83467442,-3.597319336,-3.146456909,8.484656067,0.002181641059,0.002136542927,-0.000175956171,4
20.85471842,-3.592678986,-3.139870605,8.469387817,-0.0006010453217,0.002385044936,0.0003298958763,4
20.87476242,-3.594924316,-3.152294769,8.463699646,0.0004063870292,-0.0006426475011,0.0008504507132,4
20.89480642,-3.592828674,-3.16157547,8.480315094,0.0002928024624,-0.002296146937,0.002515688539,4
20.91485042,-3.618425446,-3.160677338,8.491541748,-0.0001429067925,-0.001482233638,0.002426460385,4
20.93489442,-3.590433655,-3.160078583,8.473279724,-0.0003444412723,-0.0007664749864,0.001807997935,4
20.95493492,-3.601660309,-3.147804108,8.468040619,-5.415640771e-06,-0.0002720302437,0.0003920063609,4
20.97497892,-3.612288208,-3.170107727,8.468639374,0.001732075005,-0.001682428177,-0.000255062012,4
20.99502292,-3.603456573,-3.141816559,8.466244354,-0.0006745713763,-0.001639265334,0.0004453987349,4
21.01506692,-3.583547974,-3.158432007,8.480614471,-0.0006815867964,-0.0009472717065,-0.0009561665356,4
21.03511092,-3.601809998,-3.152594147,8.48779953,0.0007821447216,-0.001522646286,-0.0001652871724,4
21.05515492,-3.614084473,-3.128344574,8.475075989,0.00108705624,-0.0003930733074,0.000397916534,4
21.07519992,-3.6097435,-3.139571228,8.474028168,-0.002052980242,-0.002225106349,0.0006073471159,4
21.09524392,-3.601061554,-3.154390411,8.489895172,-0.002023627749,-0.001872926019,-0.0007213379722,4
21.11528792,-3.60615097,-3.195105743,8.526868286,0.005387868732,0.00112751266,-0.002891826443,4
21.13533192,-3.607498169,-3.121608582,8.48540451,0.009510230273,0.0001399798784,0.0006095025456,4
21.15537592,-3.55944809,-3.174598389,8.478967896,0.007207935676,0.002100880723,-0.0007864150684,4
21.17541992,-3.573818207,-3.167113953,8.487350464,0.008358553983,0.002482839627,-0.001238110708,4
21.19546392,-3.595223694,-3.119512939,8.486901398,0.00463104574,0.002717847936,-0.002277266234,4
21.21550792,-3.622916107,-3.133883057,8.428223419,-0.006288548931,-0.002491791267,-0.0001154113561,4
21.23555192,-3.625011749,-3.146606598,8.434510345,-0.006402198691,-0.001958762063,0.003350013401,4
21.25559592,-3.64132782,-3.158432007,8.464597778,-0.007752571255,0.00130799925,0.003216704819,4
21.27563992,-3.584296417,-3.171155548,8.491841125,-0.01049368829,3.194995224e-05,0.001491601113,4
21.29568392,-3.538940735,-3.191363525,8.519982605,-0.003722500987,-0.0002187043428,-0.0016320867,4
21.31572792,-3.5208284,-3.145858154,8.511600037,0.005022396334,0.0006256795023,-0.002969648223,4
21.33577192,-3.554508362,-3.129093018,8.487500153,-0.0005720818881,0.00279939454,-0.004819988739,4
21.35581592,-3.62141922,-3.145708466,8.479866028,-0.004325624555,-0.0001435216982,-0.002613872755,4
21.37585992,-3.697910156,-3.166664886,8.465795288,-0.00425119698,-0.001211137045,0.001783817075,4
21.39590492,-3.720662842,-3.171754303,8.439749451,-0.009224276058,0.0003541198093,0.00489108637,4
21.41594892,-3.667822723,-3.16397049,8.426427155,-0.01014724467,-0.002216143999,0.006122717168,4
21.43599292,-3.593427429,-3.166515198,8.441845093,-0.005859172437,-0.006431269925,0.00360049936,4
21.45603692,-3.523822174,-3.165766754,8.505462799,-0.0001488307025,-0.0003228390124,-0.0003819419071,4
21.47608092,-3.514840851,-3.14870224,8.530311127,0.004139983095,0.00372408214,-0.004646202549,4
21.49612492,-3.508254547,-3.143762512,8.555159454,0.004998751916,0.002530422062,-0.005149626173,4
21.51616892,-3.553310852,-3.147654419,8.51938385,0.003548294306,0.002380966675,-0.00586990593,4
21.53621292,-3.6296521,-3.142415314,8.475525055,0.002511692466,0.007205813192,-0.002090434078,4
21.55625692,-3.658691711,-3.152294769,8.46085556,0.000179270748,0.009214477614,0.001779213315,4
21.57630092,-3.692671051,-3.163222046,8.438252563,-0.003077483736,0.003442766378,0.002639073413,4
21.59634492,-3.678450623,-3.182831268,8.441246338,-0.007820906118,-0.00149095105,0.005635909736,4
21.61638892,-3.622167664,-3.181783447,8.440348206,-0.003536504228,-0.003873470705,0.003906582948,4
21.63643292,-3.592828674,-3.175795898,8.474028168,-0.00173880416,-0.002405372914,-0.0003481386229,4
21.65647692,-3.577560425,-3.162922668,8.500223694,0.004249871243,-0.003000164405,-0.003846541047,4
21.67652092,-3.588038635,-3.12999115,8.49603241,0.006845129654,-0.0009522456676,-0.006544372998,4
21.69656492,-3.59327774,-3.140619049,8.481213226,0.004359618761,0.0001376797445,-0.005959643051,4
21.71660892,-3.605701904,-3.135529633,8.496631165,0.001468748786,0.0002791471779,-0.005602728575,4
21.73665292,-3.612737274,-3.15334259,8.471184082,-0.000947854016,-0.001636997797,-0.001221871935,4
21.75669692,-3.598217468,-3.167563019,8.464148712,-0.0002062050626,-0.002214158885,0.0003178748302,4
21.77674192,-3.591930542,-3.174299011,8.484057312,-0.001268980792,0.000332942931,0.0008596975822,4
21.79678592,-3.603456573,-3.172951813,8.478518829,0.0003419320565,0.001516611082,-3.713136539e-05,4
21.81682992,-3.568279724,-3.156186676,8.475974121,0.0008446200518,-5.033891648e-05,0.001212628093,4
21.83687392,-3.583847351,-3.151546326,8.486751709,0.001920379116,0.002039975487,-0.002775343368,4
21.85691792,-3.598666534,-3.151845703,8.484805756,0.004795402754,0.001293597044,-0.003435286926,4
21.87696192,-3.606899414,-3.160228271,8.502169647,0.006213337183,0.001284969738,-0.003440137487,4
21.89700592,-3.610342255,-3.152743835,8.472680969,0.001048293663,0.002094089752,-0.003527525347,4
21.91704992,-3.598965912,-3.171903992,8.463699646,-0.000768922735,-0.0007976759225,-0.002026289236,4
21.93709392,-3.606749725,-3.174149323,8.468639374,0.003319962416,-0.0003879750147,-0.001815404976,4
21.95713821,-3.628304901,-3.149450684,8.481512604,0.0010494421,0.001678477856,0.002164368052,4
21.97718221,-3.615731049,-3.133134613,8.446635132,-0.003940622322,-0.001301918179,0.0006214375608,4
21.99722621,-3.603157196,-3.13822403,8.449778595,-0.00288363779,-0.003660840448,0.0004028654657,4
22.01727021,-3.595373383,-3.19315979,8.499774628,0.0009646037361,0.001242731698,-0.00269530667,4
22.03731421,-3.608096924,-3.164569244,8.50890564,0.007807787508,0.00726291351,-0.001231868286,4
22.05735821,-3.591182098,-3.159479828,8.481662292,0.008589150384,0.006228860468,-0.006314194761,4
22.07740221,-3.573518829,-3.162323914,8.460107117,0.00684597902,0.005389806814,-0.005721945781,4
22.09744621,-3.618575134,-3.145708466,8.472531281,0.008181928657,0.006206597667,-0.008118946105,4
22.11749021,-3.62022171,-3.143762512,8.479416962,0.002529470483,0.003602558281,-0.005876212846,4
22.13753421,-3.616030426,-3.156036987,8.453670502,-0.003384770593,0.002773834392,-0.003336700844,4
22.15757921,-3.620670776,-3.15918045,8.457861786,-0.002539608162,0.005108682439,-0.003145040479,4
22.17762321,-3.592529297,-3.163671112,8.45741272,-0.005094919354,0.003226946574,-0.004252598621,4
22.19766721,-3.612737274,-3.164269867,8.467441864,-0.003453030717,0.002088711597,-0.002901534317,4
22.21771121,-3.600462799,-3.1545401,8.486152954,-0.004959515296,0.005813888274,-0.003446131712,4
22.23775521,-3.586990814,-3.128643951,8.471333771,-0.003624713747,0.00436235778,-0.006027608179,4
22.25779921,-3.57815918,-3.203488312,8.46789093,-0.0005631507374,-0.00465457188,-0.005269698799,4
22.27784321,-3.596121826,-3.110830994,8.500373383,-0.0001901846845,0.004999066703,-0.01238717418,4
22.29788721,-3.628304901,-3.153492279,8.491691437,0.001725086127,0.006044996902,-0.005783836357,4
22.31793121,-3.611539764,-3.156486053,8.44917984,-0.003294048598,0.003709831275,-0.008083996363,4
22.33797521,-3.601660309,-3.193309479,8.451125793,-0.002580187283,0.002545869909,-0.007909597829,4
22.35801921,-3.605402527,-3.195255432,8.483608246,0.0006590813864,0.007279319223,-0.01475843042,4
22.37806321,-3.629801788,-3.178490295,8.498427429,0.005425632,0.004240545444,-0.01487035584,4
22.39810721,-3.616479492,-3.151396637,8.482560425,0.002557141008,0.001752354205,-0.01276645903,4
22.41815121,-3.607947235,-3.149001617,8.45741272,0.001689117169,0.004801088013,-0.009100247175,4
22.43819521,-3.591182098,-3.160078583,8.458011475,-0.0006880948786,0.004976962693,-0.005695896223,4
22.45823921,-3.613036652,-3.170706482,8.461604004,-0.00129618682,0.006201697513,-0.008382363245,4
22.47828321,-3.625909882,-3.189417572,8.466394043,-0.002277786145,0.00330076972,-0.008854182437,4
22.49832721,-3.610042877,-3.192411346,8.453221436,-0.001419898588,0.001130133867,-0.01403650828,4
22.51837121,-3.609893188,-3.181184692,8.462651825,-0.001378711779,0.00251385849,-0.01595518552,4
22.53841521,-3.596271515,-3.130589905,8.46085556,-0.002129090251,0.006009042263,-0.01303833071,4
22.55845921,-3.618874512,-3.160228271,8.462801514,-0.002194920322,0.003552492009,-0.01263577864,4
22.57850421,-3.619622955,-3.14989975,8.454418945,-0.003515240736,0.001884713885,-0.008597391658,4
22.59854821,-3.631448364,-3.182232513,8.472531281,-0.002897046274,-0.0008629760705,-0.01013939269,4
22.61859221,-3.615281982,-3.17908905,8.483009491,-0.003244962543,0.005173877813,-0.009730976075,4
22.63863621,-3.607198792,-3.17205368,8.477171631,0.0001247506589,0.005321628414,-0.01123755053,4
22.65868021,-3.596271515,-3.184627533,8.466394043,0.0008220252348,0.004284807481,-0.01077576447,4
22.67872421,-3.605252838,-3.141517181,8.457263031,0.00388980424,0.003622053191,-0.01057451032,4
22.69876821,-3.622916107,-3.154091034,8.461154938,0.001809118083,0.00422477955,-0.008868397214,4
22.71881221,-3.620371399,-3.166365509,8.434510345,-0.003620285774,0.004001713824,-0.007472001947,4
22.73885621,-3.617976379,-3.192710724,8.456065521,-0.003889447544,0.004399430472,-0.01174698863,4
22.75890021,-3.60734848,-3.248694305,8.483757935,-0.0001238130499,0.0004705749452,-0.01511132997,4
22.77894421,-3.594325562,-3.225642242,8.494984589,0.003757011378,0.008771594614,-0.01981045678,4
22.79898821,-3.601360931,-3.162323914,8.459508362,0.005628065206,0.003586313454,-0.02153104544,4
22.81903221,-3.61438385,-3.13822403,8.451874237,0.007695718668,0.002853251528,-0.01323229633,4
22.83907621,-3.630101166,-3.17908905,8.454718323,0.0049120076,0.003866423387,-0.01013749093,4
22.85912021,-3.629951477,-3.159928894,8.465944977,0.0008874642663,0.005048442632,-0.009794891812,4
22.87916421,-3.630250854,-3.138673096,8.454119568,-0.004304493777,0.001576383016,-0.007674494758,4
22.89920821,-3.604953461,-3.176843719,8.449030151,-0.003738946281,0.002671879251,-0.006614934653,4
22.91925221,-3.593726807,-3.165467377,8.471782837,0.0003382454161,0.006860307883,-0.006462447345,4
22.93929621,-3.622317352,-3.164718933,8.459658051,-0.002996773226,-0.0002099573612,-0.006774234585,4
22.95933979,-3.615731049,-3.15109726,8.462651825,-0.001848625951,-0.004276464228,-0.004696443677,4
22.97938379,-3.628753967,-3.164718933,8.443791046,-0.003775889287,-0.002643201035,-0.002588532399,4
22.99942779,-3.647015991,-3.164718933,8.477471008,-0.004342610016,-0.001827741042,-0.001627397491,4
23.01947179,-3.66123642,-3.14166687,8.456664276,-0.004395565018,-0.009258973412,0.002898737323,4
23.03951579,-3.655697937,-3.139720917,8.433911591,-0.01317871269,-0.01724504679,0.008684362285,4
23.05956079,-3.654650116,-3.185974731,8.450527039,-0.01713431999,-0.02216997743,0.0133901909,4
23.07960479,-3.587888947,-3.24001236,8.511899414,-0.01587296277,-0.0210683886,0.01498401072,4
23.09964879,-3.550167389,-3.236270142,8.540340271,-0.0141659705,-0.01509257406,0.01343977638,4
23.11969279,-3.520678711,-3.239114227,8.514294434,-0.00394504983,-0.009591921233,0.01086171996,4
23.13973679,-3.506308594,-3.201991425,8.460107117,-0.00158712687,-0.008427693509,0.01214466151,4
23.15978079,-3.547772369,-3.166066132,8.420289917,-0.002808671212,-0.006409230642,0.01268593594,4
23.17982479,-3.567231903,-3.171305237,8.403225403,-0.00856340304,-0.003487423062,0.01298168115,4
23.19986879,-3.659589844,-3.178939362,8.393944702,-0.01405129489,-0.008259168826,0.01343939826,4
23.21991279,-3.703748016,-3.181933136,8.423283691,-0.01326612011,-0.008800962009,0.01359223202,4
23.23995679,-3.705394592,-3.194806366,8.426427155,-0.0165651124,-0.008678296581,0.01091020182,4
23.26000079,-3.646417236,-3.223396912,8.46444809,-0.01233747788,-0.007760679349,0.00601508189,4
23.28004479,-3.599864044,-3.222498779,8.488847351,-0.004351972602,-0.009943511337,0.001670568483,4
23.30008879,-3.577560425,-3.195405121,8.483458557,0.002919830382,-0.004457346629,-0.002002636902,4
23.32013279,-3.538641357,-3.213667145,8.500972137,0.006303517614,-0.006725720596,-0.006948672235,4
23.34017679,-3.577710114,-3.181334381,8.499924316,0.009451357648,-0.007031931076,-0.007880221121,4
23.36022079,-3.598666534,-3.172802124,8.495134277,0.007106202655,-0.000444708392,-0.004034690559,4
23.38026479,-3.571722565,-3.168461151,8.430169373,-0.0008340692148,-0.003451949917,0.0002329557901,4
23.40030879,-3.566932526,-3.191812592,8.424780579,-0.0027406679,-0.01175733749,0.002388425404,4
23.42035279,-3.604654083,-3.242407379,8.499175873,0.00184720126,-0.004077260382,-0.0003204490058,4
23.44039679,-3.626808014,-3.225043488,8.546178131,0.009774474427,0.003040836891,0.003176925704,4
23.46044079,-3.578009491,-3.177891541,8.473279724,0.008455695584,-0.005827863235,0.002988539636,4
23.48048479,-3.547622681,-3.182531891,8.446335754,0.003867565887,-0.01104611345,0.002327210968,4
23.50052879,-3.563190308,-3.196003876,8.476572876,0.00279667927,-0.00425468199,0.002887319308,4
23.52057279,-3.591182098,-3.178939362,8.461154938,-0.000835867133,-0.001013878733,0.002238335321,4
23.54061679,-3.607498169,-3.170556793,8.441545715,-0.004180905409,-0.008756221272,0.006250808015,4
23.56066079,-3.612886963,-3.189118195,8.438551941,-0.004557009321,-0.009652587585,0.008868675679,4
23.58070479,-3.616030426,-3.193010101,8.470435638,-0.006980569568,-0.00546593871,0.007858087309,4
23.60074979,-3.591631165,-3.192561035,8.46205307,-0.006685225759,-0.005194296129,0.004044174217,4
23.62079379,-3.580703888,-3.195704498,8.454718323,-0.00485239597,-0.007011317648,0.002166472143,4
23.64083779,-3.573069763,-3.18028656,8.452023926,-0.001658957452,-0.006870649755,-0.001788762165,4
23.66088179,-3.56872879,-3.212619324,8.482710114,-0.0001747687347,-0.004121522885,-0.006557468791,4
23.68092579,-3.585942993,-3.206482086,8.513695679,0.002223548014,-0.0003751469776,-0.008684014902,4
23.70096979,-3.57815918,-3.20483551,8.499774628,0.003542812774,0.002300050575,-0.003987016156,4
23.72101379,-3.554358673,-3.192111969,8.466992798,0.001151317381,-0.004131322261,-0.0003081986215,4
23.74105779,-3.568429413,-3.187920685,8.463549957,-0.00315285963,-0.007578890305,-0.001417744905,4
23.76110179,-3.597918091,-3.216960297,8.481811981,-0.003950607497,-0.001656180713,0.003763129935,4
23.78114579,-3.604354706,-3.208727417,8.502918091,-0.002498062793,0.001033345703,0.00412698742,4
23.80118979,-3.58040451,-3.190166016,8.474028168,-0.00256948336,-0.002772099338,0.005101583898,4
23.82123379,-3.569327545,-3.18148407,8.457562408,-0.004726634361,-0.001806491986,0.004195525311,4
23.84127779,-3.577111359,-3.197949829,8.458161163,-0.001833562274,-0.001735755708,0.003343045712,4
23.86132179,-3.585493927,-3.194806366,8.489296417,0.001298207208,-0.002583972178,0.001243297476,4
23.88136579,-3.599115601,-3.197949829,8.484057312,0.0006543482887,-0.001666461583,0.001360078226,4
23.90140979,-3.608995056,-3.189118195,8.487649841,0.0009208975825,0.002520719543,0.001488033216,4
23.92145379,-3.572770386,-3.198398895,8.458909607,0.000579578802,-0.0006563765928,0.002011507284,4
23.94149779,-3.573818207,-3.190315704,8.471184082,0.0007777179126,-0.001010310836,0.0002026881557,4
23.96154292,-3.591182098,-3.192261658,8.471184082,0.002697814954,0.001773704542,7.369881496e-05,4
23.98158692,-3.609593811,-3.177292786,8.467741241,0.001172748744,0.0008998140693,-0.0007438804023,4
24.00163092,-3.591780853,-3.183579712,8.464597778,-0.0005269737449,-0.00535094412,0.002048043068,4
24.02167492,-3.58160202,-3.199446716,8.470735016,0.00065271731,-0.004684195854,0.002008414827,4
24.04171892,-3.599265289,-3.193608856,8.481512604,0.003008297877,-0.001672745217,0.001880028052,4
24.06176292,-3.600013733,-3.201841736,8.472381592,0.004017528147,-0.001635461114,0.00224370393,4
24.08180692,-3.553759918,-3.211421814,8.471782837,0.005017648451,-0.004794506356,0.0008280508919,4
24.10185092,-3.559298401,-3.30437851,8.562045135,0.0205866266,0.003978321329,-0.001072391635,4
24.12189492,-3.610342255,-3.395688629,8.492140503,0.04348444566,0.0004977833014,0.001564844279,4
24.14193892,-3.320395203,-3.376079407,8.343948669,0.04217789695,0.02979388647,0.0003762756241,4
24.16198292,-3.183130646,-3.376528473,8.311466217,0.06599054486,0.05034875125,-0.006358275656,4
24.18202692,-3.407064972,-3.24465271,8.325387268,0.08871870488,0.006154655479,-0.008165300824,4
24.20207192,-3.711382141,-2.989283752,8.399183807,0.08023767918,-0.005237119738,-0.02173490822,4
24.22211592,-3.93501709,-2.847678223,8.388555908,0.0613944754,0.05170344561,-0.04237435758,5
24.24215992,-4.113745422,-2.837649078,8.452472992,0.06036652252,0.03658185899,-0.04939779639,5
24.26220392,-4.14443161,-2.752176819,8.520281982,0.05311149359,-0.003152828198,-0.05333220214,5
24.28224792,-4.088148651,-2.649789734,8.483009491,0.03324368969,-0.021978762,-0.07042367756,5
24.30229192,-3.972139893,-2.83390686,8.863667908,0.04205003753,-0.03563875332,-0.1022863016,5
24.32233592,-4.27900177,-3.167113953,9.683063965,0.2015504539,0.1338880658,-0.1207192987,5
24.34237992,-4.338278503,-3.141068115,9.346563721,0.2855184674,0.2488026768,-0.1361481696,5
24.36242392,-4.257296906,-3.234473877,8.586594086,0.5063439608,0.5695736408,-0.08456161618,5
24.38246792,-3.467688904,-2.243983612,6.647376709,0.157668978,0.3916788697,-0.1642753631,5
24.40251192,-2.99422348,-2.522105255,8.11103302,0.02247678116,0.1759303808,-0.2463222444,5
24.42255592,-2.808310089,-2.579136658,7.713759155,0.007263089996,0.02475316077,-0.2549019456,5
24.44259992,-3.064277802,-2.961142273,7.710765381,-0.07224304229,0.1452519745,-0.22004731,5
24.46264392,-3.196602631,-3.132535858,8.87743927,-0.2497607023,0.1378397197,-0.01803060248,5
24.48268792,-3.416495361,-3.198548584,9.261989594,-0.3736278415,0.03392375633,0.1010100469,5
24.50273192,-3.558400269,-3.634142761,8.826694794,-0.4373320043,0.1115665734,0.1471364647,5
24.52277592,-3.822451172,-3.578757935,8.393196259,-0.4251431227,0.1649863422,0.1604193151,5
24.54281992,-4.086951141,-3.67171463,8.262218628,-0.3571431935,0.1383434832,0.1470433921,5
24.56286392,-4.216880951,-3.748055878,8.401728516,-0.2690162063,0.08055794239,0.1075165197,5
24.58290792,-4.402944031,-3.68922821,8.603209534,-0.1260971874,0.04532597214,0.0650241673,5
24.60295192,-4.422104187,-3.506907349,8.220904541,-0.04156968743,0.09513752162,-0.01732965745,5
24.62299592,-4.088597717,-3.541784821,8.048163757,0.02473004721,0.108680658,-0.03681177646,5
24.64303992,-3.959266663,-3.623664551,7.817044373,0.07906107605,0.04149954394,-0.01749087125,5
24.66308392,-3.680845642,-3.874393158,7.620054016,0.09616269171,0.0439151898,-0.02049250901,5
24.68312792,-3.329526215,-3.864513702,7.276668091,0.04748880491,0.08469239622,-0.05865094811,5
24.70317192,-3.496878204,-3.801943817,8.165819092,0.08508247882,0.1195131689,-0.07150717825,5
24.72321592,-4.327351227,-3.0165271,7.636968842,0.02297291346,-0.00670729531,-0.08979253471,5
24.74325992,-4.909340973,-2.509531403,7.848778381,-0.09714845568,0.04049867392,-0.1372110844,5
24.76330392,-5.043312378,-2.854414215,8.54632782,-0.1346392334,0.01923104562,-0.1224486604,5
24.78334792,-4.375550995,-3.845652924,8.796158295,-0.05991781875,-0.1030228585,-0.1196921468,5
24.80339192,-3.484004974,-4.177961884,7.978408813,-0.009819490835,-0.1266549975,-0.2225450873,5
24.82343592,-3.191812592,-4.662504272,7.423213348,0.08297444135,-0.2817725241,-0.3094472289,5
24.84347992,-3.769611053,-5.172793121,7.798782349,0.3620241284,-0.3495481908,-0.3238220513,5
24.86352392,-5.422773285,-5.095404053,8.900042267,0.1433265805,-0.08386135846,-0.3497573137,5
24.88356792,-7.78575943,-5.918392639,10.42911255,-0.08616126329,0.3852760494,-0.7749246955,5
24.90361192,-6.974147186,-7.613467712,12.08002945,0.7609689832,-0.3401136398,-1.208704472,5
24.92365592,-2.314636688,-6.219117279,13.49339035,1.043892264,0.2278129607,-0.9444289207,5
24.94370092,-0.6033952332,-4.493206329,12.02539307,1.427654982,-0.1922591031,-0.1267099977,5
24.96374433,-0.5203179932,-3.666325836,12.8251799,1.218388557,0.2102115452,0.4533878267,5
24.98378833,-1.765129395,-2.643951874,13.22739349,0.9238752723,0.3533168733,1.215405583,5
25.00383233,-3.684887238,-2.260299683,11.71029831,0.7562975883,0.7296312451,1.853204966,5
25.02387633,-5.468428345,-2.777923279,10.81620758,0.767775774,1.035386443,2.16703248,5
25.04392033,-6.897805939,-2.045196991,9.954299927,1.006347895,1.11599946,2.185642242,5
25.06396433,-6.676266632,-1.204245758,9.558073883,1.402712703,0.8927716017,1.714030743,5
25.08400833,-6.192622375,-2.238295441,9.710606689,1.791943789,0.5474518538,1.303930283,5
25.10405233,-5.721851349,-0.9645941162,9.804012451,1.999556541,0.5130984187,1.234359741,5
25.12409633,-4.515509949,0.325872345,9.400301971,2.025610447,0.6134108305,1.388633609,5
25.14414033,-3.804189148,0.3391946411,8.675359497,1.993147731,0.5574471354,1.564415216,5
25.16418433,-3.989204407,0.2026785278,7.66990036,1.984270811,0.4251535237,1.595778108,5
25.18422833,-4.388274536,0.1959425354,6.800059204,2.02781558,0.1838343292,1.424194932,5
25.20427233,-4.214336243,0.2559677124,6.569388885,2.029622316,0.00641415501,1.27207768,5
25.22431633,-3.583697662,0.4327500916,6.479875031,1.964642763,-0.07204784453,1.187914491,5
25.24436033,-3.161276093,0.6765930176,6.211483154,1.931367278,-0.1697514355,1.027180314,5
25.26440433,-3.653302917,0.9873468018,5.789360962,1.920541286,-0.1570477486,0.7984892726,5
25.28444833,-4.299359436,1.370699615,5.644911346,1.87208569,-0.08380287886,0.5989176035,5
25.30449233,-4.637955322,1.851649475,5.736820221,1.736851931,-0.1128940284,0.4482086897,5
25.32453633,-4.5095224,2.417622528,6.395749969,1.643739581,-0.1383207142,0.3257362843,5
25.34458033,-4.619842987,3.110980682,6.684499512,1.645137668,-0.1608855724,0.3315474093,5
25.36462433,-4.503534851,3.660937042,6.728807373,1.657155275,-0.2255718857,0.4693182111,5
25.38466833,-3.590583344,4.142785034,6.819069672,1.56974268,-0.0803552568,0.5556231737,5
25.40471233,-3.215912476,4.787793732,6.866221619,1.554557323,0.1009897664,0.535987556,5
25.42475633,-3.249592438,5.572162628,6.586603088,1.610856295,0.1193817183,0.4540625215,5
25.44480033,-4.381089478,5.918991394,6.081403656,1.633752346,-0.01896300167,0.4082683027,5
25.46484433,-4.995861053,5.998625793,5.687273254,1.69647491,-0.008480318822,0.5052832961,5
25.48488833,-4.75411377,6.187083893,5.485792236,1.742053151,0.09879500419,0.6326434612,5
25.50493233,-4.518054657,6.723119202,5.380710754,1.716196537,0.1765127033,0.7156819701,5
25.52497633,-4.739743652,7.340435486,5.517675934,1.777560115,0.1217564046,0.897341609,5
25.54502033,-5.400469666,8.055049438,6.114335175,2.039393902,-0.2358257025,1.372935414,5
25.56506433,-3.838018799,7.502099304,5.410648499,2.122980118,-0.4763325155,1.689618468,5
25.58510833,-3.031196594,6.665638733,4.874463501,2.022037268,-0.345446229,1.730790019,5
25.60515233,-2.411634979,6.142776031,4.804109802,2.010687113,-0.1500250846,1.855220675,5
25.62519633,-1.81602356,6.622229004,4.387226715,2.082842588,0.06599188596,1.905037999,5
25.64524033,-1.225651245,7.345524902,3.197351074,2.025790691,-0.01406070683,1.696495771,5
25.66528433,-1.47787674,7.825127563,2.610271912,1.884245157,-0.06279565394,1.240499139,5
25.68532833,-2.310295715,7.974516907,2.341580658,1.740116596,0.1013729498,0.9409724474,5
25.70537233,-2.277214508,8.002957764,1.976938934,1.522822499,0.3054692745,0.7807571888,5
25.72541733,-2.290536804,8.402926025,1.76333313,1.355028629,0.2606784999,0.6703777909,5
25.74546133,-2.49935257,8.540340271,1.580413513,1.272296071,-0.2112139761,0.5775680542,5
25.76550533,-2.261347504,8.562943268,2.00433197,1.328389406,-0.5861763954,0.5107237697,5
25.78554933,-1.790127411,8.722661133,1.379830627,1.353093624,-0.7166389227,0.4895604253,5
25.80559333,-1.21577179,8.866811371,0.5789959717,1.299104691,-0.9816679955,0.4675631821,5
25.82563733,-0.6170169067,9.372759247,0.1185534668,1.157373786,-1.051288247,0.4259254336,5
25.84568133,-0.3709286499,9.446406097,-0.5044509888,0.984900713,-1.136352301,0.4075425863,5
25.86572533,-0.4158352661,9.078620911,-0.8038284302,0.8563358188,-1.299879074,0.4332225025,5
25.88576933,-0.7438032532,9.126371613,-0.6664141846,0.7215836048,-1.231737614,0.3649443984,5
25.90581333,-1.345402222,9.469757538,-0.2853067017,0.5639792085,-0.8108199239,0.2623305023,5
25.92585733,-1.393901367,10.14754807,-0.135617981,0.6109449863,-0.7878286839,0.2073605359,5
25.94590133,-1.303040314,10.30112869,-0.154329071,0.7359527946,-0.8100794554,0.172145322,5
25.96594554,-0.4429289246,9.826316071,-0.9189390564,0.6756222844,-0.6992092133,0.213757053,5
25.98598954,0.7137158203,9.634115753,-1.730700989,0.4991026819,-0.6507096291,0.1386718899,5
26.00603354,0.08158035278,8.6036586,-2.386487274,0.4289943278,-0.8778327107,0.07668435574,5
26.02607754,-0.2341131592,8.765921173,-1.666334839,0.4442086816,-0.4669498801,0.09827375412,5
26.04612154,-1.182540894,9.50223999,-1.623224487,0.501683414,0.3169849515,-0.04044673592,5
26.06616554,-0.8225395203,9.888137512,-1.344803467,0.457303673,0.3941639066,-0.07623516023,5
26.08620954,-0.8907975769,10.02270767,-0.8713380432,0.4676427543,0.2064835876,-0.05188505352,5
26.10625354,-0.9101074219,10.00429596,-0.7391629028,0.4253149629,0.09573561698,-0.02805026434,5
26.12629754,-0.6462062073,10.00609222,-0.5529501343,0.3205948174,0.07152210921,-0.04764247686,5
26.14634154,-0.6080355835,10.13542328,-0.4966671753,0.2152477503,0.0272707548,-0.02564971149,5
26.16638554,-1.689985657,9.96088623,-0.3382965088,0.1948793679,-0.04463171959,0.07158198208,5
26.18642954,-1.307980042,9.899962921,-0.3471281433,0.1930120885,0.1041131839,0.02734718286,5
26.20647354,-0.3487747192,9.906998291,-0.5897735596,0.1011085287,0.1051142663,-0.04465164617,5
26.22651754,0.1466949463,9.815388794,-0.3264710999,0.05986627191,-0.05155199766,-0.02276816033,5
26.24656154,-0.002993774414,9.816735992,-0.5547463989,0.1141977161,-0.1187788025,0.01572003588,5
26.26660554,-0.2291734314,9.868378601,-0.6632707214,0.08380191773,0.0711248666,0.007483658381,5
26.28664954,-0.4159849548,10.09710297,-0.5248086548,0.002652569674,0.1827814132,-0.009944998659,5
26.30669354,-0.6451583862,10.05174728,-0.6023474121,-0.05020205677,0.09632822126,-0.006960640661,5
26.32673754,-0.6542893982,9.851164398,-0.5240602112,-0.09861969948,-0.0116358446,-0.005355379544,5
26.34678154,-0.5782475281,9.618697815,-0.483943634,-0.05589494109,0.0003641445655,-0.01473425422,5
26.36682554,-0.2451901245,9.482032013,-0.6697073364,-0.02199234255,0.004807523917,-0.00507637253,5
26.38686954,-0.2302212524,9.509574738,-0.7993377686,0.01285598055,-0.0952629447,-0.01437507477,5
26.40691354,-0.3746708679,9.633516998,-0.4514611816,0.01420977246,-0.02434082888,-0.02190345153,5
26.42695754,-0.5544470215,9.801617432,-0.1692979431,0.01896381937,0.197456643,-0.06055827066,5
26.44700154,-0.5653742981,9.775721283,-0.03158432007,0.06918588281,0.2669597268,-0.05905725434,5
26.46704554,-0.3824546814,9.732910309,-0.01721420288,0.1150434613,0.2400707453,-0.04592737183,5
26.48708954,-0.3667373657,9.88020401,-0.1904040527,0.101035513,0.1540950686,-0.0290869195,5
26.50713354,-0.4102967834,10.0143251,-0.1652563477,0.04067215323,0.08525256068,-0.01494573988,5
26.52717754,-0.537532196,9.931846619,-0.005089416504,-0.00943223387,0.06625304371,-0.005208886229,5
26.54722154,-0.6661148071,9.668244781,0.01077758789,0.01654178649,-0.02656318247,0.004456187598,5
26.56726654,-0.7493417358,9.584269409,-0.03817062378,0.09227184951,-0.08848881721,0.01442859881,5
26.58731054,-0.7851173401,9.589358826,-0.1429527283,0.1557020098,-0.02894420736,0.01470858976,5
26.60735454,-0.6926097107,9.760153656,-0.4032614136,0.1474052668,0.05673809722,0.01483479328,5
26.62739854,-0.7499404907,9.899513855,-0.3977229309,0.1144522652,-0.001142247114,0.0242300462,5
26.64744254,-0.9791139221,9.908195801,-0.3553610229,0.1208847761,-0.0237049181,0.02840463258,5
26.66748654,-1.057101746,9.843829651,-0.4751119995,0.1132709906,-0.05666409433,0.02159389667,5
26.68753054,-0.9618997192,9.69414093,-0.1788780212,0.09678666294,-0.01002628356,0.01340026036,5
26.70757454,-0.7807763672,9.69294342,-0.2999761963,0.09494204074,0.0004895275924,0.007573468145,5
26.72761854,-0.5625302124,9.74443634,-0.5414241028,0.08334437758,-0.1240168735,0.03337093815,5
26.74766254,-0.518821106,9.723330231,-0.7972421265,0.06373009831,-0.2187684178,0.04572019726,5
26.76770654,-0.6771917725,9.719588013,-0.8409512329,0.07910314947,-0.2451201826,0.04799044877,5
26.78775054,-0.6912625122,9.66495163,-0.7502398682,0.1260383129,-0.09553032368,0.04323134199,5
26.80779454,-0.5700146484,9.674831085,-0.686023407,0.1307572424,0.03665179387,0.01401561312,5
26.82783854,-0.5267546082,9.729018402,-0.6289920044,0.1059745625,0.07188594341,0.008374659345,5
26.84788254,-0.4677772522,9.821376343,-0.6180647278,0.06199248508,0.05563251302,0.01234741136,5
26.86792654,-0.5616320801,9.944270782,-0.8693920898,0.01380428579,-0.01156111434,0.02084548213,5
26.88797054,-0.6367758179,9.949659576,-0.9940827942,-0.01150263101,-0.126874879,0.03969247267,5
26.90801454,-0.6069877625,9.827214203,-0.8213420105,-0.006287321448,-0.08609330654,0.03734605387,5
26.92805854,-0.5442681885,9.740245056,-0.8824150085,-0.007383539341,-0.004299048334,0.02800182812,5
26.94810254,-0.5519023132,9.798473969,-0.9217831421,-0.03606025502,0.005735795014,0.02044775337,5
26.96814579,-0.573457489,9.731712799,-1.013093262,-0.06203125045,-0.0331681408,0.02217504382,5
26.98818979,-0.5249583435,9.569300537,-1.340612183,-0.03956921399,-0.1711493284,0.03965599462,5
27.00823379,-0.5894741821,9.442963257,-1.512155457,0.04867297783,-0.3540573716,0.04521743208,5
27.02827779,-0.6815327454,9.579928436,-1.358724518,0.1212225854,-0.2075701505,0.01654510573,5
27.04832179,-0.5517526245,9.6613591,-1.216370544,0.1240149736,0.06195129082,0.003595238319,5
27.06836579,-0.4433779907,9.578880615,-0.9798623657,0.1165346503,0.03637444973,0.02028512582,5
27.08840979,-0.5144801331,9.692644043,-0.9886940002,0.1083394438,-0.09580472857,0.020609539,5
27.10845379,-0.5860313416,9.849966888,-1.105900269,0.09519681334,-0.1749278903,0.02950100414,5
27.12849779,-0.5903723145,9.88020401,-1.115330658,0.09728071094,-0.1868962944,0.01462412626,5
27.14854179,-0.5523513794,9.884095917,-1.014290771,0.08337224275,-0.1032282412,-0.006224757992,5
27.16858579,-0.5215155029,9.805060272,-0.808768158,0.03722820431,-0.01991321333,-0.01350325067,5
27.18862979,-0.460891571,9.761650543,-0.6427633667,0.01522432081,0.006579856388,-0.01157604158,5
27.20867379,-0.3924838257,9.798174591,-0.8235873413,0.01406233106,-0.02808571234,-0.003696588799,5
27.22871779,-0.3700305176,9.794582062,-1.068029022,0.01303234696,-0.04601794854,0.003046812257,5
27.24876179,-0.3914360046,9.75386673,-1.119671631,0.01647134311,-0.01844490692,0.005740669556,5
27.26880679,-0.4875361633,9.76314743,-1.044976959,0.0215049684,0.02802304365,0.00359391747,5
27.28885079,-0.5319937134,9.724827118,-0.9738748169,0.02053901181,0.04133182019,-0.003728291485,5
27.30889479,-0.556842041,9.675729218,-0.9720785522,0.0283965636,0.01948511042,-0.005928707775,5
27.32893879,-0.5183720398,9.699679413,-0.9984237671,0.03550615534,-0.006514640059,-0.002940742299,5
27.34898279,-0.5013075256,9.749974823,-1.035845947,0.03361806273,-0.007971813902,0.0005527397152,5
27.36902679,-0.4992118835,9.77961319,-0.963097229,0.02702052332,0.0079437159,0.002966493601,5
27.38907079,-0.5051994324,9.788594513,-0.9367520142,0.01842001826,0.01372719556,0.002938584425,5
27.40911479,-0.4900808716,9.774224396,-0.9509724426,0.01174323261,0.006669180468,0.004011765122,5
27.42915879,-0.5143304443,9.752818909,-0.9937834167,0.006603252143,0.003021286335,0.004675161093,5
27.44920279,-0.5266049194,9.739646301,-1.01803299,0.008000785485,0.00650278572,0.002010534285,5
27.46924679,-0.5060975647,9.727970581,-1.016685791,0.009314971045,0.009071031585,-0.002463228302,5
27.48929079,-0.5013075256,9.750723267,-1.001866608,0.01221479569,0.02030525729,-0.001939519774,5
27.50933479,-0.5050497437,9.763446808,-0.9984237671,0.005778536201,0.02136801742,0.002772885142,5
27.52937879,-0.537532196,9.776469727,-0.9892927551,-0.002874891041,0.02308027074,0.002684835345,5
27.54942279,-0.5721102905,9.781858521,-0.9946815491,-0.007653359324,0.01408097055,0.001776790246,5
27.56946679,-0.5730084229,9.745334473,-1.022823029,-0.01479029097,-0.007661981508,0.0008755453164,5
27.58951079,-0.5385800171,9.723180542,-1.025966492,-0.02336824685,-0.01102092024,0.0005529555492,5
27.60955479,-0.5379812622,9.721234589,-1.024319916,-0.02677856572,0.004430366214,0.0008866606513,5
27.62959879,-0.5152285767,9.724827118,-1.008003845,-0.01836591586,-0.00441526901,0.003701406298,5
27.64964279,-0.5191204834,9.707612915,-1.079704742,-0.01311901584,-0.03155655786,0.006929964293,5
27.66968679,-0.527353363,9.720186768,-1.064586182,-0.0138315605,-0.04294481501,0.007632834371,5
27.68973079,-0.5126838684,9.713151398,-1.004710693,-0.005772943608,-0.02650858648,0.007792778313,5
27.70977479,-0.5002597046,9.702972565,-0.9833052063,0.003664958291,-0.0205704309,0.008911869489,5
27.72981879,-0.4858895874,9.694589996,-0.9942324829,0.007879737765,-0.03455660492,0.007714237552,5
27.74986279,-0.5203179932,9.725425873,-1.045126648,0.01791306213,-0.03876823559,0.003777591977,5
27.76990679,-0.522563324,9.771230621,-1.052311707,0.01513214782,-0.03756320849,0.004189757165,5
27.78995079,-0.5536985779,9.771529999,-0.9725276184,0.00364616653,-0.02556550875,0.001833249349,5
27.80999479,-0.518821106,9.730814667,-0.9208850098,-0.001350651728,-0.00922472775,0.002129066503,5
27.83003879,-0.4872367859,9.739047546,-0.943787384,-0.004866253585,-0.01247633621,0.002783044241,5
27.85008279,-0.4740641785,9.736203461,-0.9918374634,0.0004754401743,-0.02477843687,0.00524916267,5
27.87012679,-0.4569996643,9.698032837,-0.9892927551,0.008658235893,-0.01963038743,0.009198221378,5
27.89017179,-0.4595443726,9.721683655,-0.9984237671,0.007290610112,0.001563794678,0.008736826479,5
27.91021579,-0.4731660461,9.738299103,-0.9638456726,0.004079631064,0.008269365877,0.007191366516,5
27.93025979,-0.4896318054,9.735305328,-0.9779164124,0.007393575739,0.01103500742,0.008570749313,5
27.95030379,-0.5275030518,9.765392761,-0.9862989807,0.008923696354,0.003342571203,0.006698774174,5
27.97034804,-0.5252577209,9.755513306,-1.003064117,0.007121699397,0.004898658022,0.007455826737,5
27.99039204,-0.5270539856,9.764494629,-0.9825567627,0.0006046366179,0.01225212589,0.002903060289,5
28.01043604,-0.5174739075,9.754914551,-0.9741741943,-0.005671093706,0.01548541617,-0.0003082298208,5
28.03048004,-0.5213658142,9.755513306,-0.9370513916,-0.006237206981,0.01421871036,-0.00094235898,5
28.05052404,-0.4736151123,9.710157623,-0.9886940002,-0.0007878050674,0.008372591808,-0.001923108939,5
28.07056804,-0.4155358887,9.69294342,-0.978664856,0.003292756388,0.009815173224,-0.0002311829012,5
28.09061204,-0.4397854614,9.725874939,-0.9354048157,0.00451707188,0.0230939053,0.001383749419,5
28.11065604,-0.4484674072,9.747879181,-0.9225315857,0.003809343558,0.02662909403,0.002836492611,5
28.13070004,-0.4782554626,9.762848053,-0.9313632202,0.0004473514855,0.02903350256,0.003210767172,5
28.15074404,-0.4932243347,9.780960388,-0.9162446594,-0.005747343879,0.03125468642,0.0009880121797,5
28.17078804,-0.4912783813,9.765692139,-0.9348060608,-0.01216715109,0.03308848292,-0.0009369708132,5
28.19083204,-0.4897814941,9.732161865,-0.9551637268,-0.01850876398,0.03584560379,-0.001574134221,5
28.21087604,-0.4887336731,9.747280426,-0.9466314697,-0.02255912125,0.03184185922,-0.001577237388,5
28.23092004,-0.4538562012,9.733359375,-0.9333091736,-0.02035624534,0.03162923083,-0.0005633181427,5
28.25096404,-0.4698728943,9.713600464,-0.9497749329,-0.01644041575,0.0348363705,0.0002990945941,5
28.27100804,-0.4800517273,9.710756378,-0.9614506531,-0.01223581843,0.03321450204,0.0003520915052,5
28.29105204,-0.506995697,9.745484161,-0.9771679688,-0.008333688602,0.02734271437,0.001001655823,5
28.31109604,-0.520916748,9.743987274,-0.9717791748,-0.009968211874,0.02243759669,-0.0008785245009,5
28.33114004,-0.5210664368,9.755513306,-0.9319619751,-0.01310171373,0.0271749869,-0.002917289967,5
28.35118404,-0.5204676819,9.750872955,-0.9364526367,-0.008927406743,0.01730573922,-0.00286807958,5
28.37122804,-0.5060975647,9.723180542,-0.9666897583,-0.01861168258,0.006803349592,-0.003234171774,5
28.39127204,-0.5066963196,9.743837585,-0.9659413147,-0.02363198437,0.001515804324,-0.003546899883,5
28.41131604,-0.4718188477,9.743238831,-0.9101074219,-0.01748107374,0.01250523143,4.088017158e-05,5
28.43136004,-0.5004093933,9.736652527,-0.9126521301,-0.008699239232,0.008888337761,0.00171892927,5
28.45140404,-0.5245092773,9.724677429,-0.9535171509,-0.009893352166,0.004531194922,0.0008681699401,5
28.47144904,-0.519868927,9.736652527,-0.9753717041,-0.01247342303,0.004700039513,-0.0007076223847,5
28.49149304,-0.5221142578,9.735455017,-0.9551637268,-0.01181650534,0.003588329768,-0.002593858633,5
28.51153704,-0.5270539856,9.746531982,-0.9421408081,-0.01032680832,8.47815536e-05,-0.0016611889,5
28.53158104,-0.53004776,9.742340698,-0.9532177734,-0.009920975193,-0.004234173335,-0.0002059137914,5
28.55162504,-0.4998106384,9.734556885,-0.9506730652,-0.01262616366,-0.004442699254,-0.0001169221941,5
28.57166904,-0.5013075256,9.720336456,-0.9366023254,-0.01428622007,-0.004807020538,-0.0006563242059,5
28.59171304,-0.5144801331,9.744136963,-0.9307644653,-0.01305750571,-0.008658111095,0.0007887649117,5
28.61175704,-0.5321434021,9.73515564,-0.8991801453,-0.01275877282,-0.009348827414,0.0009670173749,5
28.63180104,-0.5291496277,9.765841827,-0.9135502625,-0.007653717883,-0.01839180477,0.001727479277,5
28.65184504,-0.5276527405,9.745484161,-0.8737330627,-0.01097901631,-0.01168932021,-0.00168215367,5
28.67188904,-0.5053491211,9.720785522,-0.8449928284,-0.01578361541,-0.006428298075,-0.002681225771,5
28.69193304,-0.5063969421,9.736802216,-0.8315208435,-0.01749239303,-0.008920004591,-0.003160292516,5
28.71197704,-0.5246589661,9.766590271,-0.8282276917,-0.01668406464,-0.008630839176,-0.001432291465,5
28.73202104,-0.5104385376,9.780810699,-0.8425978088,-0.01725568622,-0.01005584467,-0.001118457643,5
28.75206504,-0.4596940613,9.716294861,-0.8246351624,-0.01513685938,-0.01183254458,-0.0004289106,5
28.77210904,-0.4602928162,9.729766846,-0.8500822449,-0.01575892419,-0.01587037928,-4.702666774e-05,5
28.79215304,-0.4637356567,9.737550659,-0.8381071472,-0.01338165347,-0.01793741435,-0.001256551594,5
28.81219704,-0.45984375,9.759405212,-0.8602610779,-0.01318894979,-0.007478649262,-0.001633923035,5
28.83224104,-0.4411326599,9.778715057,-0.8610095215,-0.01710411906,-0.008415549994,-0.0005055079237,5
28.85228504,-0.5071453857,9.734556885,-0.79215271,-0.01001581736,-0.008053252473,0.00176934083,5
28.87232904,-0.4766088867,9.713899841,-0.8246351624,-0.01224049553,-0.009744200855,-0.003680453869,5
28.89237304,-0.4135899353,9.714797974,-0.8637039185,-0.001343258424,-0.02054811455,-0.002919362392,5
28.91241704,-0.4328997803,9.697284393,-0.8289761353,0.002041053493,-0.005212405697,0.0005829191068,5
28.93246104,-0.4854405212,9.736353149,-0.803379364,0.001894130139,-0.003302813042,0.000203975942,5
28.95250604,-0.5084925842,9.762997742,-0.7979905701,0.00491534546,-0.005193497054,0.002309309086,5
28.97255004,-0.5014572144,9.7502742,-0.8530760193,0.002397892298,0.002104735468,0.0009747472359,5
28.99259404,-0.492026825,9.756860504,-0.8280780029,-0.003284269711,0.0005869471934,-0.001491371542,5
29.01263804,-0.4846920776,9.745035095,-0.8422984314,-0.002910295734,0.001640439965,-0.005155272782,5
29.03268204,-0.4819976807,9.723629608,-0.8702902222,-0.001397028565,-0.0006544589996,-0.00374879688,5
29.05272604,-0.4915777588,9.737700348,-0.8906478882,0.002030600794,-0.006858452689,-0.002613952383,5
29.07277004,-0.4849914551,9.729916534,-0.8749305725,0.004072820768,-0.007741556969,7.845042273e-05,5
29.09281404,-0.4719685364,9.725874939,-0.8449928284,0.007517562248,0.001612530206,-0.001613671193,5
29.11285804,-0.4610412598,9.735754395,-0.8810678101,0.007788962685,0.004514204338,-0.001654620748,5
29.13290204,-0.473764801,9.767787781,-0.9175918579,0.005941877607,0.001897222479,-0.003271352267,5
29.15294604,-0.4917274475,9.768087158,-0.93256073,0.004331164993,0.005968289915,-0.002541870112,5
29.17299004,-0.5191204834,9.76434494,-0.8729846191,0.004676218145,0.006195670459,-0.002144702245,5
29.19303404,-0.5288502502,9.74443634,-0.8756790161,0.0001729796641,0.0008618386928,-0.001471608412,5
29.21307804,-0.5117857361,9.740095367,-0.8792715454,-0.001836617244,-0.0008520125411,-0.0001323013566,5
29.23312204,-0.4951702881,9.725874939,-0.8869056702,-0.0004960398655,0.001867659157,0.001100580208,5
29.25316604,-0.496816864,9.734706573,-0.9023236084,-6.141117774e-05,0.00378162181,-0.002264769282,5
29.27321004,-0.4980143738,9.741292877,-0.9241781616,0.00252712192,0.000394400442,-0.002168459818,5
29.29325404,-0.5164260864,9.740544434,-0.9267228699,0.004870054312,-0.004107354209,-0.001674924977,5
