time,seconds_elapsed,z,y,x
1781033857358199000,-0.038801025390625,-0.5223770141601562,0.1457200050354004,-0.17367899417877197
1781033857834720300,0.43772021484375,-0.2707970142364502,-0.13247600197792053,-0.4578210115432739
1781033857844476700,0.4474765625,-0.4145199954509735,-0.3397290110588074,-0.40206199884414673
1781033857863985000,0.46698486328125,-0.4145199954509735,-0.3397290110588074,-0.40206199884414673
1781033857883492600,0.48649267578125,-0.6355869770050049,-0.8634430170059204,-0.197843998670578
1781033857903009500,0.506009521484375,-0.48881301283836365,-0.9394940137863159,-0.15343999862670898
1781033857922529500,0.525529541015625,-0.27439799904823303,-0.8766520023345947,-0.14598999917507172
1781033857942045200,0.545045166015625,-0.27439799904823303,-0.8766520023345947,-0.14598999917507172
1781033857961556000,0.564555908203125,-0.21604299545288086,-0.7026690244674683,-0.06792499870061874
1781033857981064000,0.58406396484375,-0.21604299545288086,-0.7026690244674683,-0.06792499870061874
1781033858000571600,0.603571533203125,-0.4134489893913269,-0.663595974445343,0.03119800053536892
1781033858020083700,0.623083740234375,-0.4134489893913269,-0.663595974445343,0.03119800053536892
1781033858039594800,0.6425947265625,-0.26457399129867554,-0.658195972442627,-0.02877099998295307
1781033858059102500,0.6621025390625,-0.26457399129867554,-0.658195972442627,-0.02877099998295307
1781033858078611200,0.681611083984375,-0.058152999728918076,-0.7017880082130432,-0.02494800090789795
1781033858098120400,0.701120361328125,-0.058152999728918076,-0.7017880082130432,-0.02494800090789795
1781033858117630500,0.72063037109375,-0.1770319938659668,-0.725875973701477,0.011096999980509281
1781033858137143300,0.740143310546875,-0.1770319938659668,-0.725875973701477,0.011096999980509281
1781033858156659000,0.759658935546875,-0.21727900207042694,-0.6941350102424622,-0.025836000218987465
1781033858176173000,0.779173095703125,-0.21727900207042694,-0.6941350102424622,-0.025836000218987465
1781033858195683000,0.79868310546875,-0.16228599846363068,-0.7196450233459473,0.05621999874711037
1781033858215192000,0.818192138671875,-0.16228599846363068,-0.7196450233459473,0.05621999874711037
1781033858234707000,0.83770703125,-0.13640600442886353,-0.5373330116271973,0.20521000027656555
1781033858254224600,0.857224609375,-0.13640600442886353,-0.5373330116271973,0.20521000027656555
1781033858273742800,0.876742919921875,-0.08479200303554535,-0.24600599706172943,0.19950400292873383
1781033858293259500,0.896259521484375,-0.08479200303554535,-0.24600599706172943,0.19950400292873383
1781033858312772400,0.9157724609375,-0.18101200461387634,0.05652499943971634,-0.03032599948346615
1781033858332287700,0.935287841796875,-0.18101200461387634,0.05652499943971634,-0.03032599948346615
1781033858351805400,0.954805419921875,-0.4227350056171417,0.1957470029592514,-0.19263799488544464
1781033858371323100,0.9743232421875,-0.4227350056171417,0.1957470029592514,-0.19263799488544464
1781033858390837500,0.99383740234375,-0.5887659788131714,0.12310200184583664,-0.3718329966068268
1781033858410349800,1.013349853515625,-0.5887659788131714,0.12310200184583664,-0.3718329966068268
1781033858429862100,1.032862060546875,-0.5278300046920776,0.06244499981403351,-0.4532319903373718
1781033858449373400,1.05237353515625,-0.5278300046920776,0.06244499981403351,-0.4532319903373718
1781033858468889900,1.071889892578125,-0.3061389923095703,0.09166400134563446,-0.473675012588501
1781033858488406800,1.09140673828125,-0.3061389923095703,0.09166400134563446,-0.473675012588501
1781033858507917000,1.1109169921875,-0.5617849826812744,0.3615019917488098,-0.7860339879989624
1781033858527422200,1.130422119140625,-0.5617849826812744,0.3615019917488098,-0.7860339879989624
1781033858546930700,1.1499306640625,-0.9384610056877136,0.8897910118103027,-1.3640389442443848
1781033858566444300,1.1694443359375,-0.9384610056877136,0.8897910118103027,-1.3640389442443848
1781033858585957600,1.18895751953125,-0.9384610056877136,0.8897910118103027,-1.3640389442443848
1781033858605463600,1.208463623046875,-0.7406389713287354,0.4544689953327179,-1.2435330152511597
1781033858624969500,1.227969482421875,-0.4612950086593628,-0.09495099633932114,-0.6345800161361694
1781033858644480800,1.247480712890625,-0.4612950086593628,-0.09495099633932114,-0.6345800161361694
1781033858663988500,1.266988525390625,-0.4612950086593628,-0.09495099633932114,-0.6345800161361694
1781033858683496700,1.28649658203125,-0.2804720103740692,-0.05119000002741814,-0.3346579968929291
1781033858703006700,1.3060068359375,-0.7242559790611267,0.49228501319885254,-0.7501699924468994
1781033858722517500,1.325517578125,-2.4651339054107666,0.9562900066375732,-0.9864680171012878
1781033858742029000,1.345029052734375,-2.4651339054107666,0.9562900066375732,-0.9864680171012878
1781033858761541400,1.364541259765625,-3.0207810401916504,0.4964900016784668,-0.20123399794101715
1781033858781051600,1.3840517578125,-3.0207810401916504,0.4964900016784668,-0.20123399794101715
1781033858800560400,1.403560302734375,-2.3780739307403564,-1.476654052734375,1.4538429975509644
1781033858820067600,1.423067626953125,-2.3780739307403564,-1.476654052734375,1.4538429975509644
1781033858839578000,1.442578125,-0.201447993516922,-1.8427009582519531,1.242445945739746
1781033858859093000,1.462093017578125,-0.201447993516922,-1.8427009582519531,1.242445945739746
1781033858878604000,1.48160400390625,-0.10834900289773941,-1.661331057548523,1.574381947517395
1781033858898118100,1.5011181640625,-0.10834900289773941,-1.661331057548523,1.574381947517395
1781033858917630200,1.520630126953125,-3.41281795501709,-1.246533989906311,2.5594139099121094
1781033858937138400,1.540138427734375,-3.41281795501709,-1.246533989906311,2.5594139099121094
1781033858956649200,1.559649169921875,-4.1683759689331055,-1.5600520372390747,3.1074039936065674
1781033858976160500,1.579160400390625,-4.1683759689331055,-1.5600520372390747,3.1074039936065674
1781033858995670000,1.598669921875,-3.8515360355377197,-3.5520501136779785,3.5813000202178955
1781033859015177200,1.61817724609375,-3.8515360355377197,-3.5520501136779785,3.5813000202178955
1781033859034679300,1.63767919921875,-2.8262720108032227,-3.4168779850006104,3.8953120708465576
1781033859054180000,1.65718017578125,-2.8262720108032227,-3.4168779850006104,3.8953120708465576
1781033859073690400,1.6766904296875,-2.7386629581451416,-3.188199996948242,4.130363941192627
1781033859093201400,1.696201416015625,-2.7386629581451416,-3.188199996948242,4.130363941192627
1781033859112707600,1.71570751953125,-3.17992901802063,-2.9724440574645996,4.528611183166504
1781033859132215300,1.73521533203125,-3.17992901802063,-2.9724440574645996,4.528611183166504
1781033859151726000,1.75472607421875,-3.2332561016082764,-3.0413780212402344,4.061460971832275
1781033859171239200,1.7742392578125,-3.2332561016082764,-3.0413780212402344,4.061460971832275
1781033859190748400,1.79374853515625,-1.5025579929351807,-3.5971720218658447,3.4550259113311768
1781033859210257000,1.8132568359375,-1.5025579929351807,-3.5971720218658447,3.4550259113311768
1781033859229770000,1.83277001953125,-0.9724069833755493,-3.5261731147766113,3.7356081008911133
1781033859249285600,1.85228564453125,-0.9724069833755493,-3.5261731147766113,3.7356081008911133
1781033859268798700,1.871798828125,-0.34751299023628235,-2.147963047027588,3.104609966278076
1781033859288315400,1.8913154296875,-0.34751299023628235,-2.147963047027588,3.104609966278076
1781033859307836200,1.910836181640625,-0.6173030138015747,-1.347898006439209,1.8161870241165161
1781033859327353000,1.93035302734375,-0.6173030138015747,-1.347898006439209,1.8161870241165161
1781033859346868700,1.94986865234375,-0.6173030138015747,-1.347898006439209,1.8161870241165161
1781033859366382000,1.969382080078125,-1.4877389669418335,-0.9690560102462769,1.8535690307617188
1781033859385893000,1.98889306640625,-0.9259750247001648,-0.39479300379753113,1.6591299772262573
1781033859405403000,2.00840283203125,-0.9259750247001648,-0.39479300379753113,1.6591299772262573
1781033859424914400,2.02791455078125,0.4410110116004944,0.09834499657154083,1.3306900262832642
1781033859444429000,2.047428955078125,0.4410110116004944,0.09834499657154083,1.3306900262832642
1781033859463945200,2.0669453125,1.3172520399093628,-0.5499320030212402,1.2081719636917114
1781033859483458000,2.0864580078125,1.6476399898529053,-0.6576679944992065,1.315148949623108
1781033859502967000,2.105967041015625,1.6476399898529053,-0.6576679944992065,1.315148949623108
1781033859522479600,2.125479736328125,1.3092809915542603,0.028849000111222267,1.5872670412063599
1781033859541992200,2.1449921875,1.3092809915542603,0.028849000111222267,1.5872670412063599
1781033859561504300,2.164504150390625,-0.6038500070571899,1.8982709646224976,1.5594969987869263
1781033859581012200,2.18401220703125,-0.6038500070571899,1.8982709646224976,1.5594969987869263
1781033859600522200,2.203522216796875,-0.659184992313385,2.2724499702453613,1.8430140018463135
1781033859620037400,2.223037353515625,-0.659184992313385,2.2724499702453613,1.8430140018463135
1781033859639551700,2.2425517578125,-0.37289100885391235,2.2622909545898438,1.7287529706954956
1781033859659065300,2.2620654296875,-0.37289100885391235,2.2622909545898438,1.7287529706954956
1781033859678576400,2.281576416015625,-0.011617000214755535,2.0986640453338623,1.3265470266342163
1781033859698085000,2.301085205078125,-0.011617000214755535,2.0986640453338623,1.3265470266342163
1781033859717597200,2.32059716796875,0.06989700347185135,1.9090659618377686,0.4388999938964844
1781033859737110500,2.340110595703125,0.06989700347185135,1.9090659618377686,0.4388999938964844
1781033859756625000,2.359625,-0.3586849868297577,1.6356229782104492,-0.7185239791870117
1781033859776140500,2.379140625,-0.3586849868297577,1.6356229782104492,-0.7185239791870117
1781033859795653600,2.398653564453125,-0.5792499780654907,1.1298880577087402,-1.2798320055007935
1781033859815161900,2.418161865234375,-0.5792499780654907,1.1298880577087402,-1.2798320055007935
1781033859834668000,2.43766796875,-0.2922390103340149,0.4713689982891083,-2.3334391117095947
1781033859854175700,2.45717578125,-0.2922390103340149,0.4713689982891083,-2.3334391117095947
1781033859873686300,2.476686279296875,0.030693000182509422,-0.40459200739860535,-4.188042163848877
1781033859893198600,2.496198486328125,0.030693000182509422,-0.40459200739860535,-4.188042163848877
1781033859912707600,2.51570751953125,0.3071739971637726,-0.6096469759941101,-6.407642841339111
1781033859932218400,2.53521826171875,0.3071739971637726,-0.6096469759941101,-6.407642841339111
1781033859951734500,2.554734619140625,0.6086429953575134,0.0824199989438057,-6.889248847961426
1781033859971254500,2.574254638671875,0.6086429953575134,0.0824199989438057,-6.889248847961426
1781033859990765000,2.59376513671875,0.4595470130443573,0.39759400486946106,-5.629843235015869
1781033860010274000,2.613274169921875,0.4595470130443573,0.39759400486946106,-5.629843235015869
1781033860029784800,2.632784912109375,-0.025256000459194183,0.6366980075836182,-7.312901020050049
1781033860049290800,2.652290771484375,-0.025256000459194183,0.6366980075836182,-7.312901020050049
1781033860068800300,2.67180029296875,-0.1982239931821823,1.108515977859497,-8.662040710449219
1781033860088312000,2.69131201171875,-0.1982239931821823,1.108515977859497,-8.662040710449219
1781033860107828200,2.710828125,-0.2526330053806305,1.3018039464950562,-5.505634784698486
1781033860127346200,2.73034619140625,-0.2526330053806305,1.3018039464950562,-5.505634784698486
1781033860146862800,2.74986279296875,-0.2526330053806305,1.3018039464950562,-5.505634784698486
1781033860166377000,2.769376953125,0.47915199398994446,1.0503360033035278,-0.6613289713859558
1781033860185888800,2.788888671875,0.48202601075172424,1.017930030822754,-0.33465099334716797
1781033860205401000,2.808401123046875,0.48202601075172424,1.017930030822754,-0.33465099334716797
1781033860224913200,2.8279130859375,-1.8221379518508911,1.0695120096206665,-0.17204099893569946
1781033860244429600,2.8474296875,-1.8221379518508911,1.0695120096206665,-0.17204099893569946
1781033860263945200,2.8669453125,-2.720026969909668,0.9715070128440857,1.9475510120391846
1781033860283455000,2.886455078125,-3.1409459114074707,0.7732380032539368,2.3268589973449707
1781033860302967800,2.9059677734375,-3.1409459114074707,0.7732380032539368,2.3268589973449707
1781033860322484000,2.92548388671875,-2.6960580348968506,0.666251003742218,2.557121992111206
1781033860341999900,2.944999755859375,-2.6960580348968506,0.666251003742218,2.557121992111206
1781033860361513500,2.964513427734375,-0.8074129819869995,0.3962169885635376,3.407496929168701
1781033860381024300,2.984024169921875,-0.8074129819869995,0.3962169885635376,3.407496929168701
1781033860400536000,3.0035361328125,-0.7462249994277954,-0.4010089933872223,5.440695762634277
1781033860420049400,3.02304931640625,-0.7462249994277954,-0.4010089933872223,5.440695762634277
1781033860439565800,3.04256591796875,-0.7456939816474915,-0.7559859752655029,5.130413055419922
1781033860459084500,3.06208447265625,-0.7456939816474915,-0.7559859752655029,5.130413055419922
1781033860478596400,3.081596435546875,-0.2857680022716522,-1.0852689743041992,3.980897903442383
1781033860498104000,3.10110400390625,-0.2857680022716522,-1.0852689743041992,3.980897903442383
1781033860517617400,3.120617431640625,-0.5175840258598328,-2.085231065750122,4.318772792816162
1781033860537130800,3.140130859375,-0.5175840258598328,-2.085231065750122,4.318772792816162
1781033860556638700,3.159638671875,-0.6671209931373596,-2.6389870643615723,4.246645927429199
1781033860576152800,3.17915283203125,-0.6671209931373596,-2.6389870643615723,4.246645927429199
1781033860595672000,3.198672119140625,0.04876900091767311,-2.369478940963745,3.089927911758423
1781033860615188700,3.218188720703125,0.04876900091767311,-2.369478940963745,3.089927911758423
1781033860634705700,3.23770556640625,0.6281790137290955,-2.4938390254974365,6.353099822998047
1781033860654222000,3.25722216796875,0.6281790137290955,-2.4938390254974365,6.353099822998047
1781033860673734100,3.276734130859375,-0.8546130061149597,-3.0191140174865723,7.692296981811523
1781033860693246000,3.296245849609375,-0.8546130061149597,-3.0191140174865723,7.692296981811523
1781033860712758800,3.3157587890625,-0.8400020003318787,-3.185408115386963,4.490569114685059
1781033860732268300,3.335268310546875,-0.8400020003318787,-3.185408115386963,4.490569114685059
1781033860751779800,3.35477978515625,0.36390000581741333,-1.2547149658203125,-0.11472299695014954
1781033860771296500,3.374296630859375,0.36390000581741333,-1.2547149658203125,-0.11472299695014954
1781033860790815500,3.3938154296875,-1.3704580068588257,2.7331109046936035,5.047780990600586
1781033860810334500,3.41333447265625,-1.3704580068588257,2.7331109046936035,5.047780990600586
1781033860829852200,3.43285205078125,-1.3429479598999023,2.3038411140441895,3.8146870136260986
1781033860849366000,3.452365966796875,-1.3429479598999023,2.3038411140441895,3.8146870136260986
1781033860868876800,3.471876708984375,-0.24238499999046326,2.002469062805176,-2.6290769577026367
1781033860888392000,3.491391845703125,-0.24238499999046326,2.002469062805176,-2.6290769577026367
1781033860907905300,3.5109052734375,-2.4319779872894287,2.4152469635009766,-0.1851239949464798
1781033860927415300,3.530415283203125,-2.4319779872894287,2.4152469635009766,-0.1851239949464798
1781033860946926300,3.54992626953125,-2.299362897872925,0.5777170062065125,0.05384499952197075
1781033860966434800,3.569434814453125,-2.299362897872925,0.5777170062065125,0.05384499952197075
1781033860985940200,3.588940185546875,0.3421199917793274,1.1907190084457397,-4.881631851196289
1781033861005451300,3.608451171875,0.3421199917793274,1.1907190084457397,-4.881631851196289
1781033861024966100,3.627966064453125,0.3421199917793274,1.1907190084457397,-4.881631851196289
1781033861044479200,3.647479248046875,-0.695468008518219,0.7430139780044556,-5.433028221130371
1781033861063990500,3.666990478515625,-0.5634980201721191,0.5594549775123596,-5.531637191772461
1781033861083504400,3.68650439453125,1.248839020729065,0.6182600259780884,-5.839828014373779
1781033861103020300,3.706020263671875,1.248839020729065,0.6182600259780884,-5.839828014373779
1781033861122536700,3.72553662109375,3.2654290199279785,0.8942919969558716,-9.254652976989746
1781033861142049800,3.7450498046875,3.2654290199279785,0.8942919969558716,-9.254652976989746
1781033861161565700,3.764565673828125,3.219994068145752,1.606645941734314,-11.428404808044434
1781033861181085700,3.784085693359375,3.219994068145752,1.606645941734314,-11.428404808044434
1781033861200605000,3.80360498046875,0.9197499752044678,2.342426061630249,-9.048384666442871
1781033861220122000,3.8231220703125,0.9197499752044678,2.342426061630249,-9.048384666442871
1781033861239638300,3.84263818359375,0.13587899506092072,2.1648340225219727,-6.097832202911377
1781033861259153200,3.862153076171875,0.13587899506092072,2.1648340225219727,-6.097832202911377
1781033861278670000,3.881670166015625,0.5002250075340271,1.5534329414367676,-5.182392120361328
1781033861298188300,3.901188232421875,0.5002250075340271,1.5534329414367676,-5.182392120361328
1781033861317700600,3.92070068359375,1.3173400163650513,1.0434130430221558,-4.032895088195801
1781033861337211400,3.94021142578125,1.3173400163650513,1.0434130430221558,-4.032895088195801
1781033861356724200,3.95972412109375,1.1104029417037964,0.591713011264801,0.03150299936532974
1781033861376238800,3.97923876953125,1.1104029417037964,0.591713011264801,0.03150299936532974
1781033861395751200,3.998751220703125,-1.261080026626587,0.3301739990711212,1.298699975013733
1781033861415266300,4.018266357421875,-1.261080026626587,0.3301739990711212,1.298699975013733
1781033861434782500,4.037782470703125,-2.1247549057006836,2.264456033706665,1.2150599956512451
1781033861454295600,4.057295654296875,-2.1247549057006836,2.264456033706665,1.2150599956512451
1781033861473805600,4.0768056640625,-3.2279860973358154,2.604710102081299,2.052359104156494
1781033861493314600,4.096314453125,-3.2279860973358154,2.604710102081299,2.052359104156494
1781033861512821200,4.1158212890625,-4.111554145812988,2.2822909355163574,4.598982810974121
1781033861532326100,4.135326171875,-4.111554145812988,2.2822909355163574,4.598982810974121
1781033861551830800,4.154830810546875,-4.20162296295166,1.221850037574768,5.732807159423828
1781033861571338000,4.174337890625,-4.20162296295166,1.221850037574768,5.732807159423828
1781033861590846200,4.19384619140625,-1.9218839406967163,-0.883741021156311,6.461421966552734
1781033861610352600,4.2133525390625,-1.9218839406967163,-0.883741021156311,6.461421966552734
1781033861629861000,4.232861083984375,-0.9997699856758118,-2.947511911392212,7.360051155090332
1781033861649373000,4.252373046875,-0.9997699856758118,-2.947511911392212,7.360051155090332
1781033861668885500,4.271885498046875,-0.2742590010166168,-2.9468109607696533,7.218358993530273
1781033861688394800,4.291394775390625,-0.2742590010166168,-2.9468109607696533,7.218358993530273
1781033861707907300,4.3109072265625,0.5874890089035034,-2.1907050609588623,5.480982780456543
1781033861727422700,4.330422607421875,0.5874890089035034,-2.1907050609588623,5.480982780456543
1781033861746936600,4.3499365234375,0.5874890089035034,-2.1907050609588623,5.480982780456543
1781033861766456300,4.369456298828125,-1.5849980115890503,-3.079284906387329,4.736734867095947
1781033861785973800,4.388973876953125,-1.411749005317688,-2.823223114013672,3.8781991004943848
1781033861805487000,4.408487060546875,-1.411749005317688,-2.823223114013672,3.8781991004943848
1781033861825001500,4.42800146484375,1.076104998588562,-1.7698450088500977,3.138943910598755
1781033861844520200,4.447520263671875,1.076104998588562,-1.7698450088500977,3.138943910598755
1781033861864036900,4.467036865234375,1.076104998588562,-1.7698450088500977,3.138943910598755
1781033861883545300,4.48654541015625,1.7587080001831055,-0.8790649771690369,5.0360918045043945
1781033861903050800,4.50605078125,1.7079459428787231,-0.3689579963684082,5.0656890869140625
1781033861922560000,4.52556005859375,1.4927539825439453,-0.08069899678230286,4.996387004852295
1781033861942073000,4.545072998046875,1.4927539825439453,-0.08069899678230286,4.996387004852295
1781033861961583400,4.564583251953125,0.8674299716949463,-0.7276020050048828,4.238658905029297
1781033861981090300,4.58409033203125,0.8674299716949463,-0.7276020050048828,4.238658905029297
1781033862000602000,4.60360205078125,0.024593999609351158,2.987462043762207,0.4386169910430908
1781033862020117500,4.623117431640625,0.024593999609351158,2.987462043762207,0.4386169910430908
1781033862039628300,4.642628173828125,-1.6832380294799805,3.570369005203247,0.3958339989185333
1781033862059140000,4.66214013671875,-1.6832380294799805,3.570369005203247,0.3958339989185333
1781033862078655000,4.681655029296875,-1.788530945777893,2.78780198097229,0.5111979842185974
1781033862098165800,4.701165771484375,-1.788530945777893,2.78780198097229,0.5111979842185974
1781033862117675300,4.72067529296875,-0.6353620290756226,2.6775588989257812,-0.30278900265693665
1781033862137186300,4.740186279296875,-0.6353620290756226,2.6775588989257812,-0.30278900265693665
1781033862156698600,4.75969873046875,-0.4074060022830963,2.092941999435425,-0.611985981464386
1781033862176210200,4.779210205078125,-0.4074060022830963,2.092941999435425,-0.611985981464386
1781033862195723000,4.798722900390625,-0.6391379833221436,1.3269070386886597,-1.2059539556503296
1781033862215235000,4.818235107421875,-0.6391379833221436,1.3269070386886597,-1.2059539556503296
1781033862234745000,4.8377451171875,-0.6031889915466309,0.3191640079021454,-3.412750005722046
1781033862254253300,4.85725341796875,-0.6031889915466309,0.3191640079021454,-3.412750005722046
1781033862273758700,4.8767587890625,-0.09825800359249115,-0.6041470170021057,-5.602392196655273
1781033862293267200,4.89626708984375,-0.09825800359249115,-0.6041470170021057,-5.602392196655273
1781033862312781300,4.91578125,0.6990020275115967,-1.0036250352859497,-9.04123592376709
1781033862332298500,4.935298583984375,0.6990020275115967,-1.0036250352859497,-9.04123592376709
1781033862351813000,4.954813232421875,1.3462790250778198,-0.6885150074958801,-9.433999061584473
1781033862371326700,4.97432666015625,1.3462790250778198,-0.6885150074958801,-9.433999061584473
1781033862390847000,4.993846923828125,1.3476359844207764,-0.2698889970779419,-8.298314094543457
1781033862410363600,5.01336376953125,1.3476359844207764,-0.2698889970779419,-8.298314094543457
1781033862429877500,5.03287744140625,0.8977360129356384,0.3249320089817047,-7.2554779052734375
1781033862449395500,5.0523955078125,0.8977360129356384,0.3249320089817047,-7.2554779052734375
1781033862468909600,5.07190966796875,0.8313159942626953,0.5967879891395569,-6.603274822235107
1781033862488421600,5.091421630859375,0.8313159942626953,0.5967879891395569,-6.603274822235107
1781033862507935200,5.110935302734375,1.4559520483016968,1.0259230136871338,-5.615857124328613
1781033862527447300,5.130447265625,1.4559520483016968,1.0259230136871338,-5.615857124328613
1781033862546957000,5.14995703125,-0.06595800071954727,1.061514973640442,-2.855592966079712
1781033862566465800,5.1694658203125,-0.06595800071954727,1.061514973640442,-2.855592966079712
1781033862585975600,5.1889755859375,-1.2368420362472534,0.6058710217475891,0.27908700704574585
1781033862605487900,5.20848779296875,-1.2368420362472534,0.6058710217475891,0.27908700704574585
1781033862624996900,5.227996826171875,-1.9157600402832031,1.1403310298919678,1.2642539739608765
1781033862644507400,5.24750732421875,-1.9157600402832031,1.1403310298919678,1.2642539739608765
1781033862664020700,5.267020751953125,-2.2950661182403564,1.6541860103607178,1.7728420495986938
1781033862683532500,5.286532470703125,-2.4467461109161377,1.6734910011291504,2.4082140922546387
1781033862703041300,5.306041259765625,-2.4467461109161377,1.6734910011291504,2.4082140922546387
1781033862722546700,5.325546630859375,-2.368377923965454,1.275521993637085,4.548910140991211
1781033862742054400,5.345054443359375,-2.368377923965454,1.275521993637085,4.548910140991211
1781033862761562600,5.364562744140625,-2.3873729705810547,0.7139350175857544,4.823610782623291
1781033862781069600,5.384069580078125,-2.3873729705810547,0.7139350175857544,4.823610782623291
1781033862800583400,5.40358349609375,-1.7105610370635986,0.1879359930753708,4.358582019805908
1781033862820098800,5.423098876953125,-1.7105610370635986,0.1879359930753708,4.358582019805908
1781033862839610600,5.442610595703125,-0.8864840269088745,-1.9760500192642212,4.09132194519043
1781033862859122000,5.462121826171875,-0.8864840269088745,-1.9760500192642212,4.09132194519043
1781033862878631700,5.481631591796875,-0.8219699859619141,-2.2490649223327637,4.32749080657959
1781033862898141700,5.5011416015625,-0.8219699859619141,-2.2490649223327637,4.32749080657959
1781033862917658000,5.520658203125,-0.9322360157966614,-1.9639630317687988,3.7066969871520996
1781033862937175600,5.540175537109375,-0.9322360157966614,-1.9639630317687988,3.7066969871520996
1781033862956689200,5.559689208984375,-0.9778119921684265,-2.595905065536499,2.5208139419555664
1781033862976204300,5.579204345703125,-0.9778119921684265,-2.595905065536499,2.5208139419555664
1781033862995717000,5.598717041015625,-0.7287350296974182,-3.5396409034729004,1.9502990245819092
1781033863015227400,5.618227294921875,-0.7287350296974182,-3.5396409034729004,1.9502990245819092
1781033863034739700,5.63773974609375,0.20518900454044342,-3.755091905593872,2.01059889793396
1781033863054250800,5.657250732421875,0.20518900454044342,-3.755091905593872,2.01059889793396
1781033863073762000,5.676761962890625,1.3447329998016357,-3.2672600746154785,3.651668071746826
1781033863093276200,5.696276123046875,1.3447329998016357,-3.2672600746154785,3.651668071746826
1781033863112792800,5.715792724609375,1.1891520023345947,-2.765575885772705,5.212483882904053
1781033863132306000,5.735305908203125,1.1891520023345947,-2.765575885772705,5.212483882904053
1781033863151815000,5.75481494140625,0.3077790141105652,-2.677633047103882,4.743810176849365
1781033863171325400,5.774325439453125,0.3077790141105652,-2.677633047103882,4.743810176849365
1781033863190840000,5.793840087890625,-0.16747699677944183,1.1410109996795654,3.3155219554901123
1781033863210354400,5.8133544921875,-0.16747699677944183,1.1410109996795654,3.3155219554901123
1781033863229863700,5.83286376953125,-0.8151860237121582,2.147067070007324,2.7659659385681152
1781033863249373000,5.852373046875,-0.8151860237121582,2.147067070007324,2.7659659385681152
1781033863268884000,5.871884033203125,-1.1953840255737305,2.5631520748138428,2.8164539337158203
1781033863288397800,5.891397705078125,-1.1953840255737305,2.5631520748138428,2.8164539337158203
1781033863307913700,5.910913818359375,-1.057392954826355,3.1658380031585693,1.7105369567871094
1781033863327429000,5.93042919921875,-1.057392954826355,3.1658380031585693,1.7105369567871094
1781033863346942000,5.94994189453125,-1.2770309448242188,3.5490269660949707,-0.15075799822807312
1781033863366455300,5.969455322265625,-1.2770309448242188,3.5490269660949707,-0.15075799822807312
1781033863385965000,5.988965087890625,-1.3511699438095093,3.317150115966797,-0.7359539866447449
1781033863405475600,6.0084755859375,-1.3511699438095093,3.317150115966797,-0.7359539866447449
1781033863424989400,6.027989501953125,-0.5285980105400085,2.7498509883880615,-1.7610679864883423
1781033863444502300,6.047502197265625,-0.5285980105400085,2.7498509883880615,-1.7610679864883423
1781033863464012800,6.0670126953125,-0.5285980105400085,2.7498509883880615,-1.7610679864883423
1781033863483523000,6.086523193359375,0.49090099334716797,0.22590899467468262,-5.819857120513916
1781033863503031800,6.10603173828125,0.5439770221710205,-0.044620998203754425,-7.359469890594482
1781033863522540500,6.12554052734375,0.6885740160942078,-0.2031629979610443,-8.8243408203125
1781033863542046700,6.145046630859375,0.6885740160942078,-0.2031629979610443,-8.8243408203125
1781033863561552600,6.164552734375,1.5851500034332275,0.04500399902462959,-9.184999465942383
1781033863581063000,6.18406298828125,1.5851500034332275,0.04500399902462959,-9.184999465942383
1781033863600573200,6.2035732421875,3.001918077468872,0.02356100082397461,-7.064935207366943
1781033863620082400,6.22308251953125,3.001918077468872,0.02356100082397461,-7.064935207366943
1781033863639592000,6.242592041015625,2.567884922027588,-0.9049969911575317,-5.7374677658081055
1781033863659105800,6.262105712890625,2.567884922027588,-0.9049969911575317,-5.7374677658081055
1781033863678617600,6.28161767578125,2.0927109718322754,-1.3455480337142944,-5.004790782928467
1781033863698125300,6.301125244140625,2.0927109718322754,-1.3455480337142944,-5.004790782928467
1781033863717630200,6.320630126953125,1.9629379510879517,-0.9348689913749695,-4.145925998687744
1781033863737139000,6.340138916015625,1.9629379510879517,-0.9348689913749695,-4.145925998687744
1781033863756651500,6.359651611328125,-0.2525930106639862,-0.21419699490070343,-2.8483850955963135
1781033863776161000,6.3791611328125,-0.2525930106639862,-0.21419699490070343,-2.8483850955963135
1781033863795672600,6.398672607421875,-2.506716012954712,1.9580119848251343,-1.9049550294876099
1781033863815189000,6.41818896484375,-2.506716012954712,1.9580119848251343,-1.9049550294876099
1781033863834700500,6.437700439453125,-2.842384099960327,2.7543060779571533,0.7920389771461487
1781033863854209000,6.457208984375,-2.842384099960327,2.7543060779571533,0.7920389771461487
1781033863873719600,6.476719482421875,-2.8335390090942383,3.380434036254883,2.2062768936157227
1781033863893234700,6.496234619140625,-2.8335390090942383,3.380434036254883,2.2062768936157227
1781033863912750800,6.515750732421875,-2.8737149238586426,3.4594790935516357,2.6569230556488037
1781033863932262700,6.5352626953125,-2.8737149238586426,3.4594790935516357,2.6569230556488037
1781033863951778000,6.554778076171875,-3.0064051151275635,2.9305639266967773,3.693470001220703
1781033863971292000,6.5742919921875,-3.0064051151275635,2.9305639266967773,3.693470001220703
1781033863990798000,6.593798095703125,-3.145380973815918,0.5679330229759216,7.363877773284912
1781033864010304000,6.613303955078125,-3.145380973815918,0.5679330229759216,7.363877773284912
1781033864029817900,6.63281787109375,-2.888991117477417,-2.5439510345458984,7.630873203277588
1781033864049333500,6.65233349609375,-2.888991117477417,-2.5439510345458984,7.630873203277588
1781033864068845600,6.671845458984375,-0.45631301403045654,-3.2551779747009277,5.440864086151123
1781033864088356600,6.691356689453125,-0.45631301403045654,-3.2551779747009277,5.440864086151123
1781033864107867400,6.710867431640625,1.8463209867477417,-3.1371450424194336,4.254932880401611
1781033864127381800,6.7303818359375,1.8463209867477417,-3.1371450424194336,4.254932880401611
1781033864146895600,6.7498955078125,1.8463209867477417,-3.1371450424194336,4.254932880401611
1781033864166410200,6.76941015625,0.5624369978904724,-3.126250982284546,3.4440560340881348
1781033864185924600,6.788924560546875,0.5078380107879639,-3.1757700443267822,2.601064920425415
1781033864205438500,6.8084384765625,0.5078380107879639,-3.1757700443267822,2.601064920425415
1781033864224956700,6.827956787109375,0.6557629704475403,-2.850835084915161,1.582152009010315
1781033864244474000,6.84747412109375,0.6557629704475403,-2.850835084915161,1.582152009010315
1781033864263986700,6.866986572265625,0.6557629704475403,-2.850835084915161,1.582152009010315
1781033864283502000,6.886502197265625,1.1734460592269897,-3.5122361183166504,1.8605430126190186
1781033864303019800,6.906019775390625,1.4169989824295044,-3.829026937484741,2.0782599449157715
1781033864322538000,6.9255380859375,1.8627849817276,-3.8253800868988037,2.3959999084472656
1781033864342056200,6.94505615234375,1.8627849817276,-3.8253800868988037,2.3959999084472656
1781033864361570300,6.9645703125,2.5109729766845703,-0.501380980014801,3.0282630920410156
1781033864381083100,6.984083251953125,2.5109729766845703,-0.501380980014801,3.0282630920410156
1781033864400593000,7.003593017578125,1.6280449628829956,1.5695409774780273,2.977315902709961
1781033864420102100,7.02310205078125,1.6280449628829956,1.5695409774780273,2.977315902709961
1781033864439613400,7.042613525390625,0.4475809931755066,2.4081320762634277,0.7815369963645935
1781033864459121200,7.06212109375,0.4475809931755066,2.4081320762634277,0.7815369963645935
1781033864478631200,7.081631103515625,-1.7178339958190918,3.8540101051330566,-0.3956030011177063
1781033864498147000,7.10114697265625,-1.7178339958190918,3.8540101051330566,-0.3956030011177063
1781033864517664000,7.1206640625,-1.440335988998413,3.234647035598755,-0.14868099987506866
1781033864537176600,7.140176513671875,-1.440335988998413,3.234647035598755,-0.14868099987506866
1781033864556693500,7.159693603515625,-0.463032990694046,2.6099319458007812,-0.16837500035762787
1781033864576207600,7.17920751953125,-0.463032990694046,2.6099319458007812,-0.16837500035762787
1781033864595716600,7.198716552734375,0.009682999923825264,2.687314987182617,-2.300544023513794
1781033864615229400,7.2182294921875,0.009682999923825264,2.687314987182617,-2.300544023513794
1781033864634737700,7.237737548828125,0.43157199025154114,2.5882630348205566,-4.285233020782471
1781033864654245400,7.257245361328125,0.43157199025154114,2.5882630348205566,-4.285233020782471
1781033864673754600,7.276754638671875,0.23873700201511383,1.6625030040740967,-7.43564510345459
1781033864693262600,7.2962626953125,0.23873700201511383,1.6625030040740967,-7.43564510345459
1781033864712769800,7.315769775390625,1.9213030338287354,0.8062959909439087,-10.675225257873535
1781033864732280800,7.33528076171875,1.9213030338287354,0.8062959909439087,-10.675225257873535
1781033864751797500,7.354797607421875,3.5276360511779785,0.5768740177154541,-10.995198249816895
1781033864771315500,7.3743154296875,3.5276360511779785,0.5768740177154541,-10.995198249816895
1781033864790833000,7.3938330078125,3.9257240295410156,2.4134700298309326,-10.699872016906738
1781033864810350000,7.41335009765625,3.9257240295410156,2.4134700298309326,-10.699872016906738
1781033864829861600,7.432861572265625,1.8089200258255005,4.49193811416626,-10.604978561401367
1781033864849369900,7.452369873046875,1.8089200258255005,4.49193811416626,-10.604978561401367
1781033864868881000,7.471880859375,-0.6492050290107727,4.74903678894043,-8.153701782226562
1781033864888393200,7.491393310546875,-0.6492050290107727,4.74903678894043,-8.153701782226562
1781033864907905800,7.51090576171875,-1.8808859586715698,2.321307897567749,-1.4025590419769287
1781033864927419400,7.53041943359375,-1.8808859586715698,2.321307897567749,-1.4025590419769287
1781033864946934300,7.549934326171875,-0.47975099086761475,-0.5708810091018677,0.2382259964942932
1781033864966447900,7.56944775390625,-0.47975099086761475,-0.5708810091018677,0.2382259964942932
1781033864985955800,7.588955810546875,0.36348000168800354,-0.886139988899231,-0.8595399856567383
1781033865005463800,7.6084638671875,0.36348000168800354,-0.886139988899231,-0.8595399856567383
1781033865024972500,7.62797265625,-2.666393995285034,1.0702860355377197,2.914724111557007
1781033865044481800,7.647481689453125,-2.666393995285034,1.0702860355377197,2.914724111557007
1781033865063990800,7.66699072265625,-2.666393995285034,1.0702860355377197,2.914724111557007
1781033865083500300,7.686500244140625,-5.946824073791504,1.9148709774017334,5.860403060913086
1781033865103011300,7.70601123046875,-6.171469211578369,2.1098029613494873,5.839984893798828
1781033865122522600,7.725522705078125,-5.945094108581543,2.0185139179229736,5.808085918426514
1781033865142031600,7.745031494140625,-5.945094108581543,2.0185139179229736,5.808085918426514
1781033865161538300,7.764538330078125,-4.9305338859558105,-1.488453984260559,7.944427967071533
1781033865181048000,7.784048095703125,-4.9305338859558105,-1.488453984260559,7.944427967071533
1781033865200558300,7.803558349609375,-4.485212802886963,-4.8512701988220215,9.90856647491455
1781033865220069600,7.823069580078125,-4.485212802886963,-4.8512701988220215,9.90856647491455
1781033865239582200,7.842582275390625,-2.2019410133361816,-5.1095428466796875,9.220476150512695
1781033865259096800,7.862096923828125,-2.2019410133361816,-5.1095428466796875,9.220476150512695
1781033865278610200,7.881610107421875,0.19440500438213348,-4.7140631675720215,7.513001918792725
1781033865298122200,7.901122314453125,0.19440500438213348,-4.7140631675720215,7.513001918792725
1781033865317638000,7.920637939453125,0.5966830253601074,-4.487037181854248,6.103775978088379
1781033865337153300,7.9401533203125,0.5966830253601074,-4.487037181854248,6.103775978088379
1781033865356670000,7.959669921875,-1.4225549697875977,-3.9610719680786133,4.695271968841553
1781033865376189200,7.979189208984375,-1.4225549697875977,-3.9610719680786133,4.695271968841553
1781033865395709400,7.99870947265625,-1.9545350074768066,-3.2925589084625244,3.2587790489196777
1781033865415226000,8.01822607421875,-1.9545350074768066,-3.2925589084625244,3.2587790489196777
1781033865434742000,8.037741943359375,-1.2724579572677612,-3.5947539806365967,2.5007801055908203
1781033865454263000,8.057262939453125,-1.2724579572677612,-3.5947539806365967,2.5007801055908203
1781033865473783800,8.07678369140625,-0.08046399801969528,-4.037416934967041,3.806509017944336
1781033865493301800,8.0963017578125,-0.08046399801969528,-4.037416934967041,3.806509017944336
1781033865512818700,8.115818603515624,1.1742960214614868,-3.360450029373169,4.4212517738342285
1781033865532333600,8.13533349609375,1.1742960214614868,-3.360450029373169,4.4212517738342285
1781033865551847200,8.15484716796875,1.7555500268936157,0.4233570098876953,4.57746696472168
1781033865571363300,8.17436328125,1.7555500268936157,0.4233570098876953,4.57746696472168
1781033865590884000,8.193884033203124,1.1308519840240479,0.3707219958305359,4.095181941986084
1781033865610402300,8.21340234375,1.1308519840240479,0.3707219958305359,4.095181941986084
1781033865629918500,8.23291845703125,-0.8917909860610962,1.1020740270614624,1.2695610523223877
1781033865649436200,8.252436279296875,-0.8917909860610962,1.1020740270614624,1.2695610523223877
1781033865668953300,8.271953369140626,-1.0667140483856201,3.0757529735565186,-0.1383409947156906
1781033865688471600,8.291471435546875,-1.0667140483856201,3.0757529735565186,-0.1383409947156906
1781033865707983600,8.310983642578124,0.8282780051231384,3.2449591159820557,-0.7751010060310364
1781033865727493600,8.33049365234375,0.8282780051231384,3.2449591159820557,-0.7751010060310364
1781033865747007700,8.3500078125,0.8282780051231384,3.2449591159820557,-0.7751010060310364
1781033865766524200,8.369524169921876,1.40945303440094,3.3648509979248047,-1.4136879444122314
1781033865786036500,8.389036376953126,1.23397696018219,3.179374933242798,-1.9182989597320557
1781033865805547000,8.408547119140625,1.23397696018219,3.179374933242798,-1.9182989597320557
1781033865825058800,8.428058837890624,0.7555260062217712,2.4787371158599854,-5.269553184509277
1781033865844572700,8.44757275390625,0.7555260062217712,2.4787371158599854,-5.269553184509277
1781033865864084200,8.467084228515626,0.7555260062217712,2.4787371158599854,-5.269553184509277
1781033865883595300,8.48659521484375,0.9025850296020508,1.1211270093917847,-8.754076957702637
1781033865903107600,8.506107666015625,2.4535789489746094,1.0502909421920776,-8.86027717590332
1781033865922617600,8.52561767578125,2.7884349822998047,1.2538779973983765,-8.722000122070312
1781033865942128400,8.54512841796875,2.7884349822998047,1.2538779973983765,-8.722000122070312
1781033865961638700,8.564638671875,3.4256908893585205,3.250006914138794,-8.80795669555664
1781033865981153500,8.584153564453125,3.4256908893585205,3.250006914138794,-8.80795669555664
1781033866000673300,8.60367333984375,2.6717729568481445,4.146280765533447,-10.152978897094727
1781033866020191500,8.62319140625,2.6717729568481445,4.146280765533447,-10.152978897094727
1781033866039708400,8.64270849609375,2.1124041080474854,3.8762500286102295,-7.971296787261963
1781033866059227100,8.66222705078125,2.1124041080474854,3.8762500286102295,-7.971296787261963
1781033866078747100,8.6817470703125,2.170377016067505,1.6178539991378784,-5.0118088722229
1781033866098266000,8.70126611328125,2.170377016067505,1.6178539991378784,-5.0118088722229
1781033866117786400,8.720786376953125,1.887004017829895,-0.585241973400116,-3.2647080421447754
1781033866137304300,8.74030419921875,1.887004017829895,-0.585241973400116,-3.2647080421447754
1781033866156816000,8.75981591796875,1.3265279531478882,-0.6684439778327942,-2.301619052886963
1781033866176327000,8.779326904296875,1.3265279531478882,-0.6684439778327942,-2.301619052886963
1781033866195841000,8.798841064453125,-1.0050410032272339,1.1441019773483276,0.23003000020980835
1781033866215356200,8.818356201171875,-1.0050410032272339,1.1441019773483276,0.23003000020980835
1781033866234873300,8.837873291015624,-3.3695991039276123,3.0279300212860107,2.8516108989715576
1781033866254388000,8.857387939453124,-3.3695991039276123,3.0279300212860107,2.8516108989715576
1781033866273903400,8.8769033203125,-4.394204139709473,2.9669840335845947,4.06813907623291
1781033866293419500,8.89641943359375,-4.394204139709473,2.9669840335845947,4.06813907623291
1781033866312934400,8.915934326171875,-4.624693870544434,2.2434399127960205,4.947836875915527
1781033866332452000,8.9354521484375,-4.624693870544434,2.2434399127960205,4.947836875915527
1781033866351966500,8.954966552734374,-3.8853960037231445,1.3391070365905762,5.3620171546936035
1781033866371479600,8.9744794921875,-3.8853960037231445,1.3391070365905762,5.3620171546936035
1781033866390994200,8.993994140625,-3.243074893951416,-0.7747939825057983,6.20663595199585
1781033866410506000,9.013506103515626,-3.243074893951416,-0.7747939825057983,6.20663595199585
1781033866430012400,9.033012451171874,-3.229024887084961,-2.844111919403076,7.0248260498046875
1781033866449522000,9.05252197265625,-3.229024887084961,-2.844111919403076,7.0248260498046875
1781033866469036500,9.07203662109375,-2.44291090965271,-3.729012966156006,6.929286003112793
1781033866488547800,9.0915478515625,-2.44291090965271,-3.729012966156006,6.929286003112793
1781033866508058600,9.11105859375,0.03309699892997742,-3.431135892868042,5.470746040344238
1781033866527569200,9.130569091796875,0.03309699892997742,-3.431135892868042,5.470746040344238
1781033866547075000,9.150074951171876,0.5567399859428406,-3.182935953140259,3.771496057510376
1781033866566587600,9.169587646484375,0.5567399859428406,-3.182935953140259,3.771496057510376
1781033866586104600,9.1891044921875,-1.0260649919509888,-3.486025094985962,2.6525990962982178
1781033866605619000,9.208618896484374,-1.0260649919509888,-3.486025094985962,2.6525990962982178
1781033866625132300,9.22813232421875,-1.044132947921753,-3.3919448852539062,1.741521954536438
1781033866644648700,9.247648681640625,-1.044132947921753,-3.3919448852539062,1.741521954536438
1781033866664164400,9.267164306640625,-1.044132947921753,-3.3919448852539062,1.741521954536438
1781033866683682300,9.286682373046874,0.23699499666690826,-2.7351040840148926,3.590325117111206
1781033866703201000,9.306200927734375,0.4569700062274933,-2.404125928878784,5.0872697830200195
1781033866722717400,9.325717529296876,0.4569700062274933,-2.404125928878784,5.0872697830200195
1781033866742233600,9.345233642578124,0.6149669885635376,-1.5024549961090088,5.332164764404297
1781033866761747700,9.364747802734374,0.6149669885635376,-1.5024549961090088,5.332164764404297
1781033866781262300,9.384262451171875,1.2056900262832642,-0.5730869770050049,4.387203216552734
1781033866800778200,9.4037783203125,1.2056900262832642,-0.5730869770050049,4.387203216552734
1781033866820297700,9.423297607421874,1.2620129585266113,-0.6745709776878357,0.5331529974937439
1781033866839818000,9.44281787109375,1.2620129585266113,-0.6745709776878357,0.5331529974937439
1781033866859330800,9.462330810546876,-0.5906969904899597,2.650895118713379,0.21954500675201416
1781033866878835000,9.4818349609375,-0.5906969904899597,2.650895118713379,0.21954500675201416
1781033866898340600,9.501340576171875,-1.1122809648513794,3.254211902618408,0.6001870036125183
1781033866917850400,9.520850341796875,-1.1122809648513794,3.254211902618408,0.6001870036125183
1781033866937357300,9.540357421875,-0.7296749949455261,3.2869648933410645,0.318013995885849
1781033866956867600,9.55986767578125,-0.7296749949455261,3.2869648933410645,0.318013995885849
1781033866976379400,9.57937939453125,-0.6095250248908997,3.027448892593384,-0.5997840166091919
1781033866995890700,9.598890625,-0.6095250248908997,3.027448892593384,-0.5997840166091919
1781033867015407600,9.61840771484375,-0.4945549964904785,2.4006218910217285,-3.175446033477783
1781033867034923000,9.637923095703124,-0.4945549964904785,2.4006218910217285,-3.175446033477783
1781033867054431700,9.657431640625,-0.7054460048675537,1.5882660150527954,-5.015973091125488
1781033867073940200,9.676940185546876,-0.7054460048675537,1.5882660150527954,-5.015973091125488
1781033867093452500,9.69645263671875,-0.6254870295524597,0.39192700386047363,-5.163809776306152
1781033867112963800,9.7159638671875,-0.6254870295524597,0.39192700386047363,-5.163809776306152
1781033867132472600,9.73547265625,1.4618669748306274,0.012138999998569489,-7.240900993347168
1781033867151981800,9.75498193359375,1.4618669748306274,0.012138999998569489,-7.240900993347168
1781033867171489500,9.774489501953125,1.7684259414672852,0.0014420000370591879,-10.316869735717773
1781033867190995200,9.7939951171875,1.7684259414672852,0.0014420000370591879,-10.316869735717773
1781033867210500900,9.8135009765625,1.3328380584716797,0.10476800054311752,-9.694657325744629
1781033867230007300,9.83300732421875,1.3328380584716797,0.10476800054311752,-9.694657325744629
1781033867249516800,9.852516845703125,1.4651240110397339,0.04909899830818176,-8.088491439819336
1781033867269024300,9.872024169921875,1.4651240110397339,0.04909899830818176,-8.088491439819336
1781033867288530700,9.89153076171875,1.6608270406723022,-0.1238820031285286,-7.449151992797852
1781033867308039400,9.911039306640625,1.6608270406723022,-0.1238820031285286,-7.449151992797852
1781033867327548200,9.930548095703125,1.211555004119873,-0.156483992934227,-6.439487934112549
1781033867347056600,9.950056640625,1.211555004119873,-0.156483992934227,-6.439487934112549
1781033867366565400,9.9695654296875,0.6575639843940735,0.2855739891529083,-2.185987949371338
1781033867386078500,9.989078369140625,0.6575639843940735,0.2855739891529083,-2.185987949371338
1781033867405592300,10.00859228515625,-0.33264800906181335,0.7006409764289856,0.45357099175453186
1781033867425103400,10.028103271484374,-0.33264800906181335,0.7006409764289856,0.45357099175453186
1781033867444616200,10.0476162109375,-1.4079370498657227,1.2243139743804932,1.2958929538726807
1781033867464129500,10.067129638671876,-1.4079370498657227,1.2243139743804932,1.2958929538726807
1781033867483642000,10.08664208984375,-2.2606420516967773,2.270287036895752,1.9528440237045288
1781033867503153200,10.106153076171875,-2.679831027984619,2.6735239028930664,3.9019389152526855
1781033867522667300,10.125667236328125,-3.1271190643310547,2.9104490280151367,4.166647911071777
1781033867542179600,10.1451796875,-3.1271190643310547,2.9104490280151367,4.166647911071777
1781033867561693200,10.164693115234375,-3.5432209968566895,2.807063102722168,4.7517781257629395
1781033867581208600,10.18420849609375,-3.5070109367370605,2.559684991836548,5.116038799285889
1781033867600723000,10.203722900390625,-3.3330819606781006,2.1587018966674805,5.596768856048584
1781033867620238800,10.22323876953125,-2.9906280040740967,1.7116039991378784,6.044511795043945
1781033867639752400,10.24275244140625,-2.9906280040740967,1.7116039991378784,6.044511795043945
1781033867659266800,10.262266845703126,-2.200108051300049,0.5467960238456726,6.560949802398682
1781033867678783700,10.28178369140625,-2.200108051300049,0.5467960238456726,6.560949802398682
1781033867698302500,10.301302490234375,-1.1573549509048462,-1.244739055633545,6.793320178985596
1781033867717814500,10.320814453125,-1.1573549509048462,-1.244739055633545,6.793320178985596
1781033867737319400,10.3403193359375,0.018389999866485596,-1.4065320491790771,6.2577409744262695
1781033867756826600,10.35982666015625,0.018389999866485596,-1.4065320491790771,6.2577409744262695
1781033867776340000,10.379340087890625,0.5440279841423035,-1.863669991493225,5.339313983917236
1781033867795857200,10.398857177734374,0.5440279841423035,-1.863669991493225,5.339313983917236
1781033867815374600,10.41837451171875,0.0047149998135864735,-2.579087018966675,4.4846110343933105
1781033867834898200,10.437898193359375,0.0047149998135864735,-2.579087018966675,4.4846110343933105
1781033867854416600,10.457416748046874,0.10329800099134445,-3.1124889850616455,3.6639890670776367
1781033867873928400,10.476928466796876,0.10329800099134445,-3.1124889850616455,3.6639890670776367
1781033867893446400,10.4964462890625,0.575855016708374,-3.621640920639038,2.6748950481414795
1781033867912964900,10.51596484375,0.575855016708374,-3.621640920639038,2.6748950481414795
1781033867932481000,10.53548095703125,0.5614320039749146,-3.7546279430389404,2.285022020339966
1781033867951992000,10.554991943359376,0.5614320039749146,-3.7546279430389404,2.285022020339966
1781033867971502600,10.574502685546875,0.8970620036125183,-3.2388789653778076,4.097171783447266
1781033867991012600,10.5940126953125,0.8970620036125183,-3.2388789653778076,4.097171783447266
1781033868010521000,10.61352099609375,1.106997013092041,-1.141495943069458,4.54095983505249
1781033868030032100,10.6330322265625,1.106997013092041,-1.141495943069458,4.54095983505249
1781033868049543200,10.652543212890626,0.8615959882736206,-0.198730006814003,3.7314579486846924
1781033868069051100,10.672051025390624,0.8615959882736206,-0.198730006814003,3.7314579486846924
1781033868088555300,10.69155517578125,0.5136309862136841,1.7565369606018066,1.4145539999008179
1781033868108059600,10.7110595703125,0.5136309862136841,1.7565369606018066,1.4145539999008179
1781033868127568400,10.730568359375,-0.32613199949264526,3.5158278942108154,0.4286710023880005
1781033868147076400,10.750076416015625,-0.32613199949264526,3.5158278942108154,0.4286710023880005
1781033868166585300,10.76958544921875,-1.1719679832458496,3.701430082321167,0.1263670027256012
1781033868186093600,10.789093505859375,-1.1719679832458496,3.701430082321167,0.1263670027256012
1781033868205600000,10.80860009765625,-1.1719679832458496,3.701430082321167,0.1263670027256012
1781033868225110500,10.828110595703125,-0.9782590270042419,3.2060511112213135,-1.0999280214309692
1781033868244622600,10.84762255859375,-0.9782590270042419,3.2060511112213135,-1.0999280214309692
1781033868264132900,10.8671328125,-0.9409080147743225,2.3615920543670654,-1.388713002204895
1781033868283641600,10.8866416015625,-0.6875380277633667,1.9790630340576172,-1.6466100215911865
1781033868303148500,10.9061484375,-0.30826300382614136,1.7669320106506348,-3.4128339290618896
1781033868322656800,10.92565673828125,0.003160000080242753,1.5834150314331055,-3.892040967941284
1781033868342163500,10.94516357421875,0.003160000080242753,1.5834150314331055,-3.892040967941284
1781033868361670700,10.964670654296874,-0.5472859740257263,-0.37901899218559265,-7.514015197753906
1781033868381181400,10.984181396484376,-0.5472859740257263,-0.37901899218559265,-7.514015197753906
1781033868400693800,11.00369384765625,-0.4430469870567322,-1.1381510496139526,-10.871981620788574
1781033868420205300,11.023205322265625,-0.4430469870567322,-1.1381510496139526,-10.871981620788574
1781033868439718100,11.04271826171875,3.1436309814453125,-0.6929370164871216,-11.083767890930176
1781033868459233500,11.062233642578125,3.1436309814453125,-0.6929370164871216,-11.083767890930176
1781033868478745900,11.081745849609375,2.614630937576294,-0.27390798926353455,-7.944180011749268
1781033868498252000,11.101251953125,2.614630937576294,-0.27390798926353455,-7.944180011749268
1781033868517755400,11.12075537109375,1.3141679763793945,-0.2761020064353943,-6.58667516708374
1781033868537259800,11.140259765625,1.3141679763793945,-0.2761020064353943,-6.58667516708374
1781033868556765400,11.159765380859374,0.19235600531101227,-0.21410399675369263,-6.906108856201172
1781033868576269600,11.17926953125,0.19235600531101227,-0.21410399675369263,-6.906108856201172
1781033868595771400,11.198771484375,-0.4385940134525299,-0.2941589951515198,-6.179603099822998
1781033868615274200,11.218274169921875,-0.4385940134525299,-0.2941589951515198,-6.179603099822998
1781033868634776300,11.2377763671875,-0.35237398743629456,-0.24885700643062592,-1.939411997795105
1781033868654282500,11.257282470703124,-0.35237398743629456,-0.24885700643062592,-1.939411997795105
1781033868673794600,11.276794677734374,-0.6461349725723267,0.3604860007762909,-0.7698379755020142
1781033868693304600,11.2963046875,-0.6461349725723267,0.3604860007762909,-0.7698379755020142
1781033868712818200,11.315818115234375,-1.6513170003890991,1.5835540294647217,0.38461199402809143
1781033868732334300,11.335334228515626,-1.6513170003890991,1.5835540294647217,0.38461199402809143
1781033868751845400,11.354845458984375,-2.6523869037628174,2.4673469066619873,3.072834014892578
1781033868771356200,11.374356201171874,-2.6523869037628174,2.4673469066619873,3.072834014892578
1781033868790868000,11.393867919921876,-2.821460008621216,3.011483907699585,3.956850051879883
1781033868810377700,11.413377685546875,-2.821460008621216,3.011483907699585,3.956850051879883
1781033868829883400,11.43288330078125,-2.297455072402954,3.0642900466918945,4.558084011077881
1781033868849391600,11.4523916015625,-2.297455072402954,3.0642900466918945,4.558084011077881
1781033868868903000,11.47190283203125,-2.2495529651641846,2.2099270820617676,6.885861873626709
1781033868888413200,11.4914130859375,-2.2495529651641846,2.2099270820617676,6.885861873626709
1781033868907921200,11.510921142578125,-2.5015668869018555,-0.07426100224256516,7.728268146514893
1781033868927432200,11.53043212890625,-2.5015668869018555,-0.07426100224256516,7.728268146514893
1781033868946949600,11.54994970703125,-1.875939965248108,-2.1570510864257812,7.330997943878174
1781033868966466800,11.569466796875,-1.875939965248108,-2.1570510864257812,7.330997943878174
1781033868985980200,11.588980224609376,1.7950299978256226,-2.5997281074523926,6.296238899230957
1781033869005489400,11.608489501953125,1.7950299978256226,-2.5997281074523926,6.296238899230957
1781033869024998100,11.627998046875,2.189694881439209,-2.4144060611724854,5.072062015533447
1781033869044508200,11.647508056640625,2.189694881439209,-2.4144060611724854,5.072062015533447
1781033869064015000,11.66701513671875,2.189694881439209,-2.4144060611724854,5.072062015533447
1781033869083522600,11.6865224609375,1.8162809610366821,-2.163796901702881,3.4758620262145996
1781033869103030000,11.706030029296874,1.8036580085754395,-2.1420440673828125,2.7342751026153564
1781033869122536000,11.725535888671875,1.7730460166931152,-2.1299400329589844,2.197421073913574
1781033869142037000,11.745037109375,1.7730460166931152,-2.1299400329589844,2.197421073913574
1781033869161538800,11.764538818359375,1.6165690422058105,-2.536578893661499,2.112492084503174
1781033869181048800,11.784048828125,1.6165690422058105,-2.536578893661499,2.112492084503174
1781033869200557000,11.80355712890625,2.1059908866882324,-2.8817529678344727,2.6183359622955322
1781033869220060000,11.823059814453124,2.1059908866882324,-2.8817529678344727,2.6183359622955322
1781033869239566800,11.84256689453125,2.6359260082244873,-2.234199047088623,3.1356699466705322
1781033869259079200,11.8620791015625,2.6359260082244873,-2.234199047088623,3.1356699466705322
1781033869278589200,11.881589111328125,0.8566979765892029,-1.102620005607605,3.8961679935455322
1781033869298096000,11.90109619140625,0.8566979765892029,-1.102620005607605,3.8961679935455322
1781033869317607700,11.920607666015625,0.10411400347948074,-0.17893600463867188,2.160792112350464
1781033869337115100,11.940115234375,0.10411400347948074,-0.17893600463867188,2.160792112350464
1781033869356619300,11.959619384765626,-0.43127700686454773,3.0579419136047363,-0.3079879879951477
1781033869376125400,11.97912548828125,-0.43127700686454773,3.0579419136047363,-0.3079879879951477
1781033869395638800,11.998638671875,-1.072909951210022,3.529423952102661,-0.5207729935646057
1781033869415150800,12.01815087890625,-1.072909951210022,3.529423952102661,-0.5207729935646057
1781033869434657800,12.03765771484375,-1.2467609643936157,3.371886968612671,0.32958799600601196
1781033869454164500,12.05716455078125,-1.2467609643936157,3.371886968612671,0.32958799600601196
1781033869473670400,12.07667041015625,-1.055222988128662,3.1979238986968994,0.15046200156211853
1781033869493180000,12.096179931640625,-1.055222988128662,3.1979238986968994,0.15046200156211853
1781033869512691700,12.115691650390625,-1.1088299751281738,2.7716751098632812,-0.8481289744377136
1781033869532205300,12.135205322265625,-1.1088299751281738,2.7716751098632812,-0.8481289744377136
1781033869551720000,12.154719970703125,-1.279716968536377,1.7637319564819336,-2.6660640239715576
1781033869571228700,12.174228759765626,-1.279716968536377,1.7637319564819336,-2.6660640239715576
1781033869590734000,12.193734130859376,-1.3091009855270386,-0.5626389980316162,-4.520449161529541
1781033869610245600,12.21324560546875,-1.3091009855270386,-0.5626389980316162,-4.520449161529541
1781033869629760300,12.23276025390625,-0.6413469910621643,-1.0411139726638794,-6.404757022857666
1781033869649275400,12.252275390625,-0.6413469910621643,-1.0411139726638794,-6.404757022857666
1781033869668786000,12.271785888671875,0.21823599934577942,-1.325273036956787,-8.639289855957031
1781033869688294400,12.29129443359375,0.21823599934577942,-1.325273036956787,-8.639289855957031
1781033869707799800,12.3107998046875,2.228729009628296,-0.6837900280952454,-8.875899314880371
1781033869727304400,12.330304443359376,2.228729009628296,-0.6837900280952454,-8.875899314880371
1781033869746811400,12.349811279296874,2.2142679691314697,0.002013999968767166,-7.941860198974609
1781033869766318000,12.369318115234375,2.2142679691314697,0.002013999968767166,-7.941860198974609
1781033869785827300,12.388827392578126,0.9978060126304626,0.2168949991464615,-7.68887186050415
1781033869805341200,12.408341064453126,0.9978060126304626,0.2168949991464615,-7.68887186050415
1781033869824852000,12.42785205078125,0.28696000576019287,0.5587080121040344,-6.5666680335998535
1781033869844364800,12.44736474609375,0.28696000576019287,0.5587080121040344,-6.5666680335998535
1781033869863882500,12.466882568359376,0.4519990086555481,0.8655419945716858,-2.6519899368286133
1781033869883399200,12.486399169921874,0.11603300273418427,0.7870429754257202,-0.5423719882965088
1781033869902913300,12.505913330078124,-0.5145260095596313,0.6060360074043274,0.41855499148368835
1781033869922421800,12.525421875,-0.5145260095596313,0.6060360074043274,0.41855499148368835
1781033869941923600,12.544923583984374,-1.4792029857635498,0.8279299736022949,1.7782570123672485
1781033869961427500,12.564427490234374,-1.4792029857635498,0.8279299736022949,1.7782570123672485
1781033869980936000,12.58393603515625,-1.6788409948349,2.7656610012054443,2.226317882537842
1781033870000439800,12.603439697265625,-1.6788409948349,2.7656610012054443,2.226317882537842
1781033870019941400,12.62294140625,-3.663954019546509,3.424576997756958,3.24001407623291
1781033870039447600,12.642447509765624,-3.663954019546509,3.424576997756958,3.24001407623291
1781033870058959000,12.661958984375,-4.762633800506592,2.7798120975494385,4.453227996826172
1781033870078466800,12.681466796875,-4.762633800506592,2.7798120975494385,4.453227996826172
1781033870097970000,12.700969970703126,-3.1116440296173096,2.0604050159454346,5.570038795471191
1781033870117475600,12.7204755859375,-3.1116440296173096,2.0604050159454346,5.570038795471191
1781033870136983800,12.73998388671875,-0.9088180065155029,1.8742690086364746,7.766132831573486
1781033870156491800,12.75949169921875,-0.9088180065155029,1.8742690086364746,7.766132831573486
1781033870175998200,12.778998291015625,-0.08505100011825562,0.815621018409729,9.365878105163574
1781033870195501800,12.798501708984375,-0.08505100011825562,0.815621018409729,9.365878105163574
1781033870215007500,12.818007568359375,0.5298830270767212,-0.053380999714136124,7.217871189117432
1781033870234512100,12.83751220703125,0.5298830270767212,-0.053380999714136124,7.217871189117432
1781033870254014200,12.85701416015625,1.0612709522247314,-1.091567039489746,4.190652847290039
1781033870273516800,12.876516845703126,1.0612709522247314,-1.091567039489746,4.190652847290039
1781033870293019000,12.896018798828125,1.8195240497589111,-2.948472023010254,3.2673420906066895
1781033870312524500,12.915524658203125,1.8195240497589111,-2.948472023010254,3.2673420906066895
1781033870332032300,12.9350322265625,1.9375849962234497,-2.463963031768799,2.5135879516601562
1781033870351535000,12.95453515625,1.9375849962234497,-2.463963031768799,2.5135879516601562
1781033870371031800,12.97403173828125,1.5013070106506348,-2.108086109161377,1.5555330514907837
1781033870390532000,12.993531982421874,1.5013070106506348,-2.108086109161377,1.5555330514907837
1781033870410043000,13.01304296875,1.7854399681091309,-2.3918590545654297,2.002068042755127
1781033870429555200,13.03255517578125,1.7854399681091309,-2.3918590545654297,2.002068042755127
1781033870449060600,13.052060546875,2.334223985671997,-1.8501629829406738,2.5895209312438965
1781033870468562000,13.07156201171875,2.334223985671997,-1.8501629829406738,2.5895209312438965
1781033870488066000,13.091066162109374,2.4658169746398926,-1.0180280208587646,3.1486148834228516
1781033870507571500,13.110571533203125,2.4658169746398926,-1.0180280208587646,3.1486148834228516
1781033870527072300,13.130072265625,2.2332699298858643,-0.3571130037307739,3.2462809085845947
1781033870546574600,13.14957470703125,2.2332699298858643,-0.3571130037307739,3.2462809085845947
1781033870566081300,13.169081298828125,0.26765498518943787,1.9625259637832642,0.811972975730896
1781033870585584400,13.18858447265625,0.26765498518943787,1.9625259637832642,0.811972975730896
1781033870605090300,13.20809033203125,0.26765498518943787,1.9625259637832642,0.811972975730896
1781033870624598000,13.227597900390625,-2.2182059288024902,3.1666970252990723,0.355771005153656
1781033870644103200,13.247103271484375,-2.2182059288024902,3.1666970252990723,0.355771005153656
1781033870663611000,13.26661083984375,-2.665764093399048,3.140666961669922,0.6196110248565674
1781033870683124000,13.2861240234375,-2.5674610137939453,3.1368401050567627,0.2735329866409302
1781033870702635800,13.3056357421875,-2.2474920749664307,3.1681759357452393,-0.10487999767065048
1781033870722144000,13.32514404296875,-2.2474920749664307,3.1681759357452393,-0.10487999767065048
1781033870741653500,13.344653564453125,-1.4356969594955444,2.893213987350464,-0.34791600704193115
1781033870761162200,13.364162353515624,-1.4356969594955444,2.893213987350464,-0.34791600704193115
1781033870780666600,13.38366650390625,-1.7320330142974854,0.808381974697113,-2.539156913757324
1781033870800174600,13.403174560546875,-1.7320330142974854,0.808381974697113,-2.539156913757324
1781033870819687400,13.4226875,-1.7143919467926025,-1.3674739599227905,-4.464773178100586
1781033870839194600,13.442194580078125,-1.7143919467926025,-1.3674739599227905,-4.464773178100586
1781033870858698500,13.461698486328125,0.4003250002861023,-1.5993980169296265,-7.854458808898926
1781033870878202600,13.48120263671875,0.4003250002861023,-1.5993980169296265,-7.854458808898926
1781033870897706500,13.50070654296875,0.6577069759368896,-1.5977239608764648,-9.692422866821289
1781033870917209900,13.5202099609375,0.6577069759368896,-1.5977239608764648,-9.692422866821289
1781033870936716000,13.539716064453126,0.2519569993019104,-0.9036020040512085,-9.53281021118164
1781033870956225300,13.559225341796875,0.2519569993019104,-0.9036020040512085,-9.53281021118164
1781033870975733800,13.578733642578126,0.14453600347042084,0.18338599801063538,-9.349814414978027
1781033870995244000,13.598244140625,0.14453600347042084,0.18338599801063538,-9.349814414978027
1781033871014751500,13.61775146484375,0.15094999969005585,0.619799017906189,-8.954948425292969
1781033871034261000,13.637260986328124,0.15094999969005585,0.619799017906189,-8.954948425292969
1781033871053774300,13.6567744140625,0.2645280063152313,0.1960339993238449,-6.20843505859375
1781033871073284900,13.676284912109375,0.2645280063152313,0.1960339993238449,-6.20843505859375
1781033871092791800,13.695791748046876,0.5224490165710449,-0.7660089731216431,-1.5572030544281006
1781033871112294100,13.715294189453125,0.5224490165710449,-0.7660089731216431,-1.5572030544281006
1781033871131798300,13.73479833984375,0.6267790198326111,-1.3679620027542114,-0.37572500109672546
1781033871151305000,13.754304931640625,0.6267790198326111,-1.3679620027542114,-0.37572500109672546
1781033871170813400,13.7738134765625,-1.3791769742965698,0.9633880257606506,-0.37702998518943787
1781033871190322700,13.79332275390625,-1.3791769742965698,0.9633880257606506,-0.37702998518943787
1781033871209830700,13.81283056640625,-2.361643075942993,2.9627089500427246,2.6788198947906494
1781033871229336600,13.832336669921874,-2.361643075942993,2.9627089500427246,2.6788198947906494
1781033871248845800,13.851845703125,-4.145954132080078,3.491835117340088,4.177215099334717
1781033871268355600,13.87135546875,-4.145954132080078,3.491835117340088,4.177215099334717
1781033871287859200,13.890859130859376,-4.515370845794678,3.675374984741211,4.6343770027160645
1781033871307362800,13.91036279296875,-4.515370845794678,3.675374984741211,4.6343770027160645
1781033871326873300,13.929873291015625,-4.021137237548828,3.3491458892822266,5.132993221282959
1781033871346386000,13.949385986328124,-4.021137237548828,3.3491458892822266,5.132993221282959
1781033871365896000,13.96889599609375,-4.021137237548828,3.3491458892822266,5.132993221282959
1781033871385400000,13.988400146484375,-2.5262179374694824,-0.6392080187797546,7.464615821838379
1781033871404898300,14.007898193359376,-2.5262179374694824,-0.6392080187797546,7.464615821838379
1781033871424403200,14.0274033203125,-0.2426930069923401,-2.6205809116363525,7.716926097869873
1781033871443915500,14.04691552734375,0.37414899468421936,-2.873610019683838,7.265192031860352
1781033871482932000,14.085931884765625,1.6521899700164795,-3.145944118499756,4.552830219268799
1781033871502439700,14.105439697265625,2.0260090827941895,-3.1288459300994873,3.9837090969085693
1781033871521948200,14.1249482421875,2.120919942855835,-2.889535903930664,3.7529280185699463
1781033871541459000,14.144458984375,2.120919942855835,-2.889535903930664,3.7529280185699463
1781033871560967200,14.16396728515625,0.17031200230121613,-2.3896279335021973,4.010880947113037
1781033871580473900,14.183473876953125,0.17031200230121613,-2.3896279335021973,4.010880947113037
1781033871599984400,14.202984375,-0.0017229999648407102,-1.8407429456710815,4.218936920166016
1781033871619495000,14.222494873046875,-0.0017229999648407102,-1.8407429456710815,4.218936920166016
1781033871639002400,14.24200244140625,0.9955319762229919,-2.132966995239258,2.832503080368042
1781033871658510800,14.2615107421875,0.9955319762229919,-2.132966995239258,2.832503080368042
1781033871678022000,14.28102197265625,1.3633519411087036,-3.006308078765869,4.370672225952148
1781033871697536000,14.300535888671876,1.3633519411087036,-3.006308078765869,4.370672225952148
1781033871717048000,14.320048095703125,1.647094964981079,-2.6731679439544678,4.773508071899414
1781033871736555300,14.33955517578125,1.647094964981079,-2.6731679439544678,4.773508071899414
1781033871756064300,14.359064208984375,1.6681129932403564,-1.5636650323867798,4.6508588790893555
1781033871775570700,14.37857080078125,1.6681129932403564,-1.5636650323867798,4.6508588790893555
1781033871795077600,14.39807763671875,0.903560996055603,1.4851210117340088,2.1954119205474854
1781033871814587600,14.417587646484375,0.903560996055603,1.4851210117340088,2.1954119205474854
1781033871834098000,14.437097900390626,-1.3609189987182617,3.4864280223846436,-0.41976699233055115
1781033871853609000,14.45660888671875,-1.3609189987182617,3.4864280223846436,-0.41976699233055115
1781033871873124000,14.4761240234375,-2.1636428833007812,4.088160991668701,-0.737492024898529
1781033871892641500,14.4956416015625,-2.1636428833007812,4.088160991668701,-0.737492024898529
1781033871912158200,14.515158203125,-2.5420820713043213,4.02516508102417,-0.37270599603652954
1781033871931670300,14.534670166015625,-2.5420820713043213,4.02516508102417,-0.37270599603652954
1781033871951173000,14.554173095703124,-1.6396019458770752,3.7617950439453125,-0.5061519742012024
1781033871970683600,14.57368359375,-1.6396019458770752,3.7617950439453125,-0.5061519742012024
1781033871990198800,14.59319873046875,-0.7779139876365662,2.800102949142456,-1.2739050388336182
1781033872009708000,14.6127080078125,-0.7779139876365662,2.800102949142456,-1.2739050388336182
1781033872029216000,14.632216064453125,-0.6002860069274902,0.6387209892272949,-3.3601338863372803
1781033872048727300,14.651727294921875,-0.6002860069274902,0.6387209892272949,-3.3601338863372803
1781033872068237000,14.671237060546876,-0.14519700407981873,-0.6504849791526794,-5.394248008728027
1781033872087752000,14.690751953125,-0.14519700407981873,-0.6504849791526794,-5.394248008728027
1781033872107272700,14.710272705078125,0.8326330184936523,-1.2337919473648071,-8.868293762207031
1781033872126790700,14.729790771484375,0.8326330184936523,-1.2337919473648071,-8.868293762207031
1781033872146302700,14.749302734375,1.0506000518798828,-1.1021250486373901,-9.224913597106934
1781033872165816600,14.768816650390624,1.0506000518798828,-1.1021250486373901,-9.224913597106934
1781033872185335600,14.78833544921875,0.9690510034561157,-0.2372329980134964,-9.355151176452637
1781033872204851500,14.8078515625,0.9690510034561157,-0.2372329980134964,-9.355151176452637
1781033872224364500,14.827364501953125,0.9690510034561157,-0.2372329980134964,-9.355151176452637
1781033872243878000,14.8468779296875,0.957023024559021,0.4584589898586273,-11.407576560974121
1781033872263390200,14.86639013671875,1.017416000366211,0.3618749976158142,-10.650626182556152
1781033872282903300,14.8859033203125,1.1644179821014404,0.24616500735282898,-7.906661033630371
1781033872302419700,14.905419677734375,1.1644179821014404,0.24616500735282898,-7.906661033630371
1781033872321941000,14.92494091796875,1.5204089879989624,-0.2121569961309433,-2.9354190826416016
1781033872341460200,14.944460205078125,1.5204089879989624,-0.2121569961309433,-2.9354190826416016
1781033872360973800,14.963973876953125,0.8274289965629578,-0.26546499133110046,-2.307676076889038
1781033872380482600,14.983482666015625,0.8274289965629578,-0.26546499133110046,-2.307676076889038
1781033872399994400,15.002994384765625,-1.5010700225830078,0.5884389877319336,-1.9279619455337524
1781033872419507200,15.022507080078125,-1.5010700225830078,0.5884389877319336,-1.9279619455337524
1781033872439022800,15.04202294921875,-2.0538599491119385,2.796849012374878,2.1310060024261475
1781033872458540000,15.0615400390625,-2.0538599491119385,2.796849012374878,2.1310060024261475
1781033872478049500,15.081049560546875,-2.672179937362671,3.423340082168579,3.4485950469970703
1781033872497558300,15.100558349609376,-2.672179937362671,3.423340082168579,3.4485950469970703
1781033872517072000,15.12007177734375,-3.762507915496826,2.942034959793091,3.6378591060638428
1781033872536586500,15.13958642578125,-3.762507915496826,2.942034959793091,3.6378591060638428
1781033872556099800,15.159099853515626,-3.6304290294647217,2.5962910652160645,3.947859048843384
1781033872575610000,15.178610107421875,-3.6304290294647217,2.5962910652160645,3.947859048843384
1781033872595115800,15.19811572265625,-1.6332319974899292,0.5906820297241211,7.340693950653076
1781033872614630000,15.2176298828125,-1.6332319974899292,0.5906820297241211,7.340693950653076
1781033872634148000,15.237148193359374,-0.39095500111579895,-0.31364500522613525,7.433235168457031
1781033872653665500,15.25666552734375,-0.39095500111579895,-0.31364500522613525,7.433235168457031
1781033872673183200,15.276183349609376,0.41861000657081604,-2.3498120307922363,6.0770368576049805
1781033872692696600,15.295696533203126,0.41861000657081604,-2.3498120307922363,6.0770368576049805
1781033872712206600,15.31520654296875,1.4264650344848633,-2.8279309272766113,4.736880779266357
1781033872731716900,15.334716796875,1.4264650344848633,-2.8279309272766113,4.736880779266357
1781033872751231700,15.354231689453124,3.3657619953155518,-0.7095379829406738,3.43764591217041
1781033872770748400,15.37374853515625,3.3657619953155518,-0.7095379829406738,3.43764591217041
1781033872790260500,15.393260498046875,1.1981799602508545,-1.2563940286636353,2.6715950965881348
1781033872809770500,15.4127705078125,1.1981799602508545,-1.2563940286636353,2.6715950965881348
1781033872829278000,15.43227783203125,0.686693012714386,-2.4483799934387207,1.8576760292053223
1781033872848784000,15.451783935546874,0.686693012714386,-2.4483799934387207,1.8576760292053223
1781033872868292000,15.4712919921875,1.0645300149917603,-2.666105031967163,-0.8827160000801086
1781033872887803400,15.490803466796875,1.0645300149917603,-2.666105031967163,-0.8827160000801086
1781033872907317200,15.510317138671875,1.3809319734573364,-3.114833116531372,-1.199139952659607
1781033872926836000,15.5298359375,1.3809319734573364,-3.114833116531372,-1.199139952659607
1781033872946350800,15.549350830078126,1.3809319734573364,-3.114833116531372,-1.199139952659607
1781033872965859600,15.568859619140625,2.1544389724731445,-2.9094529151916504,2.380064010620117
1781033872985363500,15.588363525390625,2.3920979499816895,-2.326138973236084,3.80928897857666
1781033873004865800,15.60786572265625,2.3920979499816895,-2.326138973236084,3.80928897857666
1781033873024375000,15.627375,2.3920979499816895,-2.326138973236084,3.80928897857666
1781033873043882000,15.646882080078125,0.2838580012321472,0.056595999747514725,4.71292781829834
1781033873063386600,15.66638671875,0.08373299986124039,-0.03967000171542168,4.533230781555176
1781033873082895000,15.68589501953125,0.08373299986124039,-0.03967000171542168,4.533230781555176
1781033873102400800,15.70540087890625,-0.6033380031585693,1.9225540161132812,0.6857579946517944
1781033873121906700,15.72490673828125,-0.6033380031585693,1.9225540161132812,0.6857579946517944
1781033873141413400,15.744413330078125,-2.5403809547424316,3.9709649085998535,0.10178100317716599
1781033873160924200,15.763924072265626,-2.5403809547424316,3.9709649085998535,0.10178100317716599
1781033873180437000,15.78343701171875,-2.7946970462799072,3.6704180240631104,0.485370010137558
1781033873199947500,15.802947509765625,-2.7946970462799072,3.6704180240631104,0.485370010137558
1781033873219459800,15.8224599609375,-2.2407989501953125,3.0718541145324707,0.5311970114707947
1781033873238971000,15.841970947265626,-2.2407989501953125,3.0718541145324707,0.5311970114707947
1781033873258478000,15.86147802734375,-1.3223340511322021,2.7235970497131348,-0.3813360035419464
1781033873277985300,15.8809853515625,-1.3223340511322021,2.7235970497131348,-0.3813360035419464
1781033873297496000,15.90049609375,-0.8214210271835327,1.972264051437378,-3.883683919906616
1781033873317007000,15.920007080078125,-0.8214210271835327,1.972264051437378,-3.883683919906616
1781033873336519400,15.93951953125,-0.5710700154304504,-0.06690599769353867,-4.823896884918213
1781033873356037600,15.95903759765625,-0.5710700154304504,-0.06690599769353867,-4.823896884918213
1781033873375553300,15.97855322265625,0.14147399365901947,-0.5836570262908936,-7.960544109344482
1781033873395065300,15.9980654296875,0.14147399365901947,-0.5836570262908936,-7.960544109344482
1781033873414579200,16.0175791015625,2.22762393951416,0.004871000070124865,-8.48689079284668
1781033873453608700,16.056608642578126,2.306102991104126,1.2377749681472778,-9.001496315002441
1781033873473114400,16.0761142578125,2.306102991104126,1.2377749681472778,-9.001496315002441
1781033873492622600,16.09562255859375,1.424815058708191,2.0419559478759766,-8.965360641479492
1781033873512136400,16.115136474609375,1.424815058708191,2.0419559478759766,-8.965360641479492
1781033873531652400,16.13465234375,0.7820889949798584,2.254362106323242,-6.574879169464111
1781033873551167000,16.1541669921875,0.7820889949798584,2.254362106323242,-6.574879169464111
1781033873570678000,16.173677978515624,0.9879689812660217,2.0307600498199463,-4.149803161621094
1781033873590188300,16.193188232421875,0.9879689812660217,2.0307600498199463,-4.149803161621094
1781033873609701400,16.212701416015626,0.9144629836082458,1.012598991394043,-2.4498629570007324
1781033873629217300,16.23221728515625,0.9144629836082458,1.012598991394043,-2.4498629570007324
1781033873648732000,16.25173193359375,0.19634300470352173,0.2068679928779602,-1.7151809930801392
1781033873668240400,16.271240478515626,0.19634300470352173,0.2068679928779602,-1.7151809930801392
1781033873687746800,16.290746826171876,-0.8911299705505371,0.8887559771537781,0.5509830117225647
1781033873707255800,16.310255859375,-0.8911299705505371,0.8887559771537781,0.5509830117225647
1781033873726766000,16.32976611328125,-3.0959808826446533,1.868278980255127,3.229688882827759
1781033873746277000,16.349277099609374,-3.0959808826446533,1.868278980255127,3.229688882827759
1781033873765788200,16.3687880859375,-3.678370952606201,1.9665429592132568,3.8731179237365723
1781033873785297400,16.38829736328125,-3.678370952606201,1.9665429592132568,3.8731179237365723
1781033873804804600,16.4078046875,-3.678370952606201,1.9665429592132568,3.8731179237365723
1781033873824312600,16.4273125,-2.8956921100616455,1.156216025352478,4.662041187286377
1781033873843826000,16.446825927734373,-2.8956921100616455,1.156216025352478,4.662041187286377
1781033873863336700,16.466336669921876,-1.806270956993103,0.5764470100402832,5.825370788574219
1781033873882846700,16.4858466796875,-1.4042619466781616,0.2884030044078827,6.18759822845459
1781033873902360800,16.50536083984375,-1.1408720016479492,-0.08637099713087082,6.334074974060059
1781033873921872600,16.52487255859375,-1.1408720016479492,-0.08637099713087082,6.334074974060059
1781033873941384200,16.54438427734375,-0.17059999704360962,-2.1005070209503174,5.983194828033447
1781033873960899300,16.5638994140625,-0.17059999704360962,-2.1005070209503174,5.983194828033447
1781033873980414700,16.583414794921875,1.8822740316390991,-2.64791202545166,3.539414882659912
1781033873999930000,16.60293017578125,1.8822740316390991,-2.64791202545166,3.539414882659912
1781033874019443000,16.62244287109375,2.7232398986816406,-2.100835084915161,1.1676559448242188
1781033874038951200,16.641951171875,2.7232398986816406,-2.100835084915161,1.1676559448242188
1781033874058460200,16.661460205078125,2.4714999198913574,-2.2836270332336426,1.1415469646453857
1781033874077978000,16.68097802734375,2.4714999198913574,-2.2836270332336426,1.1415469646453857
1781033874097500200,16.700500244140624,0.4703330099582672,-2.5157968997955322,1.948531985282898
1781033874117012200,16.72001220703125,0.4703330099582672,-2.5157968997955322,1.948531985282898
1781033874136518100,16.73951806640625,0.8819720149040222,-2.225717067718506,0.8701019883155823
1781033874156028200,16.759028076171877,0.8819720149040222,-2.225717067718506,0.8701019883155823
1781033874175536600,16.77853662109375,1.8784860372543335,-2.3778769969940186,0.34030601382255554
1781033874195041300,16.798041259765625,1.8784860372543335,-2.3778769969940186,0.34030601382255554
1781033874214548700,16.817548828125,2.922421932220459,-3.128355026245117,2.47701096534729
1781033874234058000,16.83705810546875,2.922421932220459,-3.128355026245117,2.47701096534729
1781033874253569300,16.8565693359375,3.0874130725860596,-2.5709500312805176,4.140635013580322
1781033874273078300,16.876078369140625,3.0874130725860596,-2.5709500312805176,4.140635013580322
1781033874292584700,16.895584716796876,0.6523360013961792,1.2815699577331543,4.718739032745361
1781033874312093400,16.915093505859375,0.6523360013961792,1.2815699577331543,4.718739032745361
1781033874331602200,16.934602294921874,-1.2058199644088745,1.5462340116500854,4.851093769073486
1781033874351110700,16.954110595703124,-1.2058199644088745,1.5462340116500854,4.851093769073486
1781033874370620000,16.973619873046875,-2.0624148845672607,2.0273890495300293,1.2967380285263062
1781033874390126000,16.9931259765625,-2.0624148845672607,2.0273890495300293,1.2967380285263062
1781033874409631500,17.012631591796875,-2.962430953979492,2.9130349159240723,0.771776020526886
1781033874429138400,17.032138427734374,-2.962430953979492,2.9130349159240723,0.771776020526886
1781033874448647200,17.051647216796876,-3.077030897140503,2.8922789096832275,1.5674079656600952
1781033874468160300,17.07116015625,-3.077030897140503,2.8922789096832275,1.5674079656600952
1781033874487673000,17.090673095703124,-2.84014892578125,2.4726240634918213,1.1213020086288452
1781033874507179300,17.11017919921875,-2.84014892578125,2.4726240634918213,1.1213020086288452
1781033874526683100,17.12968310546875,-2.4574310779571533,1.9074889421463013,-2.245574951171875
1781033874546187800,17.149187744140626,-2.4574310779571533,1.9074889421463013,-2.245574951171875
1781033874565696300,17.1686962890625,-1.7761479616165161,-0.07207400351762772,-4.396191120147705
1781033874585212200,17.188212158203125,-1.7761479616165161,-0.07207400351762772,-4.396191120147705
1781033874604729600,17.2077294921875,0.29714399576187134,-0.5841180086135864,-5.56633186340332
1781033874624244500,17.227244384765626,0.29714399576187134,-0.5841180086135864,-5.56633186340332
1781033874643756300,17.24675634765625,0.8699480295181274,-0.31675100326538086,-6.545930862426758
1781033874663266300,17.266266357421873,0.8790720105171204,0.16678500175476074,-8.10161018371582
1781033874682773200,17.285773193359375,0.7382100224494934,0.6088500022888184,-9.642677307128906
1781033874702278100,17.305278076171874,0.7382100224494934,0.6088500022888184,-9.642677307128906
1781033874721787600,17.32478759765625,0.7748720049858093,0.6743389964103699,-9.730401992797852
1781033874741297200,17.344297119140624,0.7748720049858093,0.6743389964103699,-9.730401992797852
1781033874760798000,17.3637978515625,2.6855180263519287,0.19576199352741241,-7.199891090393066
1781033874780298000,17.383298095703125,2.6855180263519287,0.19576199352741241,-7.199891090393066
1781033874799798000,17.402798095703126,3.022783041000366,-0.2083369940519333,-4.462029933929443
1781033874819300000,17.422300048828124,3.022783041000366,-0.2083369940519333,-4.462029933929443
1781033874838808300,17.441808349609374,0.6452170014381409,-0.5235440135002136,-3.2928760051727295
1781033874858317300,17.4613173828125,0.6452170014381409,-0.5235440135002136,-3.2928760051727295
1781033874877826000,17.480825927734376,-1.4594190120697021,0.21658000349998474,-2.663412094116211
1781033874897334300,17.500334228515626,-1.4594190120697021,0.21658000349998474,-2.663412094116211
1781033874916846000,17.51984619140625,-2.605686902999878,1.5181620121002197,-1.345221996307373
1781033874936359400,17.539359375,-2.605686902999878,1.5181620121002197,-1.345221996307373
1781033874955866600,17.55886669921875,-3.0610640048980713,2.2760798931121826,2.6230969429016113
1781033874975375400,17.578375244140624,-3.0610640048980713,2.2760798931121826,2.6230969429016113
1781033874994889500,17.597889404296875,-3.1531829833984375,2.2117550373077393,3.719341993331909
1781033875014398500,17.6173984375,-3.1531829833984375,2.2117550373077393,3.719341993331909
1781033875033901000,17.636901123046876,-3.9551780223846436,1.757066011428833,4.561291217803955
1781033875053407500,17.656407470703126,-3.9551780223846436,1.757066011428833,4.561291217803955
1781033875072917000,17.6759169921875,-3.9705989360809326,0.8347669839859009,4.800817966461182
1781033875092423200,17.695423095703124,-3.9705989360809326,0.8347669839859009,4.800817966461182
1781033875111931400,17.714931396484374,-2.758246898651123,-2.306173086166382,5.454452991485596
1781033875131441200,17.734441162109373,-2.758246898651123,-2.306173086166382,5.454452991485596
1781033875150949400,17.753949462890624,-2.244741916656494,-4.297736167907715,6.176778793334961
1781033875170458000,17.7734580078125,-2.244741916656494,-4.297736167907715,6.176778793334961
1781033875189969000,17.792968994140626,-1.3256620168685913,-4.36969518661499,6.135776996612549
1781033875209478100,17.81247802734375,-1.3256620168685913,-4.36969518661499,6.135776996612549
1781033875228981800,17.831981689453126,0.7288299798965454,-3.1604650020599365,3.6240150928497314
1781033875248487200,17.851487060546877,0.7288299798965454,-3.1604650020599365,3.6240150928497314
1781033875267999500,17.87099951171875,1.0213710069656372,-2.4127368927001953,1.2997889518737793
1781033875287513900,17.890513916015625,1.0213710069656372,-2.4127368927001953,1.2997889518737793
1781033875307025700,17.910025634765624,1.0213710069656372,-2.4127368927001953,1.2997889518737793
1781033875326537700,17.929537841796876,-0.6573730111122131,-2.5955278873443604,1.7872600555419922
1781033875346055000,17.949054931640624,-0.6573730111122131,-2.5955278873443604,1.7872600555419922
1781033875375330800,17.978330810546876,-0.1294109970331192,-2.7310400009155273,1.5566179752349854
1781033875404595500,18.007595458984376,0.668507993221283,-2.918342113494873,1.1224089860916138
1781033875424109000,18.027109130859376,0.668507993221283,-2.918342113494873,1.1224089860916138
1781033875443625700,18.046625732421877,1.6763520240783691,-3.514202117919922,3.3776159286499023
1781033875463141600,18.0661416015625,1.7058229446411133,-3.3890221118927,4.82858419418335
1781033875482658300,18.085658203125,1.6950349807739258,-3.051729917526245,4.949610233306885
1781033875502166800,18.105166748046877,1.6950349807739258,-3.051729917526245,4.949610233306885
1781033875521672400,18.12467236328125,1.365725040435791,-0.8990830183029175,4.185166835784912
1781033875541181000,18.144180908203126,1.365725040435791,-0.8990830183029175,4.185166835784912
1781033875560691200,18.163691162109377,0.5140380263328552,1.551231026649475,1.880687952041626
1781033875580204000,18.1832041015625,0.5140380263328552,1.551231026649475,1.880687952041626
1781033875599720700,18.202720703125,-1.6740460395812988,3.8077011108398438,1.9795730113983154
1781033875619234600,18.222234619140625,-1.6740460395812988,3.8077011108398438,1.9795730113983154
1781033875638743000,18.241742919921876,-2.030107021331787,4.35122013092041,3.54524302482605
1781033875658253600,18.261253662109375,-2.030107021331787,4.35122013092041,3.54524302482605
1781033875677760500,18.280760498046874,-1.9359370470046997,4.386696815490723,-0.19343799352645874
1781033875697267500,18.300267333984376,-1.9359370470046997,4.386696815490723,-0.19343799352645874
1781033875716777500,18.319777587890623,-1.0761549472808838,4.04495096206665,-2.594132900238037
1781033875736285200,18.33928515625,-1.0761549472808838,4.04495096206665,-2.594132900238037
1781033875755789000,18.3587890625,-0.38283899426460266,3.1569480895996094,-3.5849180221557617
1781033875775296800,18.378296875,-0.38283899426460266,3.1569480895996094,-3.5849180221557617
1781033875794804700,18.3978046875,-0.1417209953069687,0.9086790084838867,-4.3693389892578125
1781033875814311200,18.417311279296875,-0.1417209953069687,0.9086790084838867,-4.3693389892578125
1781033875833816800,18.43681689453125,1.6779190301895142,0.316893994808197,-7.473077774047852
1781033875853319700,18.456319580078127,1.6779190301895142,0.316893994808197,-7.473077774047852
1781033875872827100,18.4758271484375,2.455069065093994,0.9242879748344421,-10.862882614135742
1781033875892338400,18.49533837890625,2.455069065093994,0.9242879748344421,-10.862882614135742
1781033875911847200,18.51484716796875,2.843940019607544,3.102617025375366,-11.084213256835938
1781033875931354400,18.534354248046874,2.843940019607544,3.102617025375366,-11.084213256835938
1781033875950866400,18.553866455078126,2.4491989612579346,4.843016147613525,-10.227794647216797
1781033875970380000,18.573380126953126,2.4491989612579346,4.843016147613525,-10.227794647216797
1781033875989892400,18.592892333984373,1.3257900476455688,4.668175220489502,-8.829475402832031
1781033876009403400,18.6124033203125,1.3257900476455688,4.668175220489502,-8.829475402832031
1781033876028908800,18.63190869140625,0.3468320071697235,2.083195924758911,-5.706202030181885
1781033876048410000,18.65141015625,0.3468320071697235,2.083195924758911,-5.706202030181885
1781033876067914800,18.670914794921874,0.61455899477005,-0.19882099330425262,-2.7410380840301514
1781033876087421700,18.690421630859376,0.61455899477005,-0.19882099330425262,-2.7410380840301514
1781033876106929400,18.709929443359375,0.61455899477005,-0.19882099330425262,-2.7410380840301514
1781033876126440200,18.729440185546874,-1.001615047454834,0.07461600005626678,-1.584825038909912
1781033876145946600,18.748946533203124,-1.001615047454834,0.07461600005626678,-1.584825038909912
1781033876165451300,18.768451171875,-3.5145130157470703,1.1879229545593262,0.74863201379776
1781033876184960300,18.787960205078125,-5.099654197692871,1.6744309663772583,2.8797481060028076
1781033876204473000,18.80747314453125,-5.099654197692871,1.6744309663772583,2.8797481060028076
1781033876223981000,18.82698095703125,-5.512966156005859,1.7337919473648071,5.181110858917236
1781033876243488500,18.846488525390626,-5.33409309387207,1.5403029918670654,5.648386001586914
1781033876263001000,18.8660009765625,-5.33409309387207,1.5403029918670654,5.648386001586914
1781033876282518300,18.885518310546875,-4.559755802154541,0.7118409872055054,6.595791816711426
1781033876302037200,18.905037353515624,-4.559755802154541,0.7118409872055054,6.595791816711426
1781033876321550600,18.924550537109376,-4.490944862365723,-1.400738000869751,9.165060997009277
1781033876341060900,18.944060791015627,-4.490944862365723,-1.400738000869751,9.165060997009277
1781033876360573700,18.96357373046875,-4.117942810058594,-2.159090042114258,10.080982208251953
1781033876380088300,18.98308837890625,-4.117942810058594,-2.159090042114258,10.080982208251953
1781033876399595500,19.002595458984374,-2.0938820838928223,-2.765803098678589,9.685133934020996
1781033876419102200,19.022102294921876,-2.0938820838928223,-2.765803098678589,9.685133934020996
1781033876438613800,19.04161376953125,-1.9657319784164429,-4.064763069152832,8.027826309204102
1781033876458126000,19.0611259765625,-1.9657319784164429,-4.064763069152832,8.027826309204102
1781033876477642500,19.080642578125,-2.2105278968811035,-4.39107608795166,6.710361003875732
1781033876497159400,19.100159423828124,-2.2105278968811035,-4.39107608795166,6.710361003875732
1781033876516671200,19.119671142578124,-1.7605730295181274,-4.399697780609131,5.054418087005615
1781033876536179000,19.139178955078126,-1.7605730295181274,-4.399697780609131,5.054418087005615
1781033876555684400,19.158684326171876,-0.8555300235748291,-3.7310330867767334,2.032850980758667
1781033876575195600,19.178195556640624,-0.8555300235748291,-3.7310330867767334,2.032850980758667
1781033876594709000,19.197708984375,0.19393500685691833,-3.551790952682495,1.3837640285491943
1781033876614220800,19.217220703125,0.19393500685691833,-3.551790952682495,1.3837640285491943
1781033876633737000,19.236737060546876,1.3307989835739136,-3.7565200328826904,4.5551252365112305
1781033876653246500,19.25624658203125,1.3307989835739136,-3.7565200328826904,4.5551252365112305
1781033876672749300,19.275749267578124,2.1900548934936523,-3.110322952270508,4.223072052001953
1781033876692253400,19.29525341796875,2.1900548934936523,-3.110322952270508,4.223072052001953
1781033876711761700,19.31476171875,3.10782790184021,-2.1419060230255127,1.6007330417633057
1781033876731271700,19.334271728515624,3.10782790184021,-2.1419060230255127,1.6007330417633057
1781033876750780000,19.35377978515625,1.61189603805542,-0.08367399871349335,1.63257896900177
1781033876770290700,19.373290771484374,1.61189603805542,-0.08367399871349335,1.63257896900177
1781033876789801000,19.392801025390625,-0.737030029296875,2.0981369018554688,1.8078789710998535
1781033876809311000,19.41231103515625,-0.737030029296875,2.0981369018554688,1.8078789710998535
1781033876828821800,19.43182177734375,-0.7734869718551636,3.968163013458252,1.9276130199432373
1781033876848332800,19.451332763671875,-0.7734869718551636,3.968163013458252,1.9276130199432373
1781033876867844900,19.470844970703126,-0.02532999962568283,4.830163955688477,1.6839770078659058
1781033876887359000,19.49035888671875,-0.02532999962568283,4.830163955688477,1.6839770078659058
1781033876906873600,19.50987353515625,-0.02532999962568283,4.830163955688477,1.6839770078659058
1781033876926386400,19.529386474609375,0.08108499646186829,4.542506217956543,-3.966567039489746
1781033876945893600,19.5488935546875,-0.003969000186771154,4.139076232910156,-4.443883895874023
1781033876965398800,19.568398681640623,-0.003969000186771154,4.139076232910156,-4.443883895874023
1781033876984908800,19.58790869140625,-0.005179999861866236,3.060713052749634,-6.472032070159912
1781033877004422700,19.607422607421874,-0.005179999861866236,3.060713052749634,-6.472032070159912
1781033877023937500,19.6269375,0.5382559895515442,2.0433859825134277,-7.265676975250244
1781033877043451100,19.646451171875,2.2342491149902344,1.5994479656219482,-8.908514976501465
1781033877062962700,19.665962646484374,2.2342491149902344,1.5994479656219482,-8.908514976501465
1781033877082478300,19.685478271484374,4.453042984008789,1.5449639558792114,-11.002633094787598
1781033877101998000,19.704998046875,4.453042984008789,1.5449639558792114,-11.002633094787598
1781033877121513700,19.724513671875,4.898716926574707,3.485826015472412,-12.68374252319336
1781033877141026000,19.744026123046876,4.898716926574707,3.485826015472412,-12.68374252319336
1781033877160545800,19.7635458984375,4.107382774353027,4.331206798553467,-12.965290069580078
1781033877180065800,19.783065673828126,4.107382774353027,4.331206798553467,-12.965290069580078
1781033877199581200,19.802581298828127,1.4396350383758545,3.888051986694336,-10.393993377685547
1781033877219100400,19.822100341796876,1.4396350383758545,3.888051986694336,-10.393993377685547
1781033877238613800,19.84161376953125,-0.9134330153465271,-0.43343600630760193,-1.3083679676055908
1781033877258120000,19.861119873046874,-0.9134330153465271,-0.43343600630760193,-1.3083679676055908
1781033877277624800,19.880624755859376,-1.0293920040130615,-1.6010329723358154,0.20321300625801086
1781033877297132800,19.9001328125,-1.0293920040130615,-1.6010329723358154,0.20321300625801086
1781033877316645400,19.919645263671875,-0.4003489911556244,0.08995400369167328,-1.7097159624099731
1781033877336157200,19.9391572265625,-0.4003489911556244,0.08995400369167328,-1.7097159624099731
1781033877355668200,19.958668212890625,-1.5406099557876587,2.1724679470062256,0.8510339856147766
1781033877375178800,19.9781787109375,-1.5406099557876587,2.1724679470062256,0.8510339856147766
1781033877394687500,19.9976875,-3.836695909500122,2.5983450412750244,3.737238883972168
1781033877414196200,20.0171962890625,-3.836695909500122,2.5983450412750244,3.737238883972168
1781033877433711900,20.0367119140625,-4.755850791931152,2.147636890411377,4.65400505065918
1781033877453224400,20.056224365234375,-4.755850791931152,2.147636890411377,4.65400505065918
1781033877472729900,20.075729736328125,-4.7668938636779785,1.2069460153579712,4.489723205566406
1781033877492240000,20.095239990234376,-4.7668938636779785,1.2069460153579712,4.489723205566406
1781033877511753000,20.1147529296875,-4.6142258644104,-0.7358909845352173,8.518022537231445
1781033877531268000,20.13426806640625,-4.6142258644104,-0.7358909845352173,8.518022537231445
1781033877550787300,20.153787353515625,-3.995919942855835,-2.452030897140503,10.1806001663208
1781033877570305300,20.17330517578125,-3.995919942855835,-2.452030897140503,10.1806001663208
1781033877589818400,20.192818359375,-1.6458899974822998,-2.9803121089935303,9.603104591369629
1781033877609326800,20.212326904296877,-1.6458899974822998,-2.9803121089935303,9.603104591369629
1781033877628837400,20.23183740234375,-0.5086519718170166,-3.1099870204925537,7.78338623046875
1781033877648349400,20.251349365234375,-0.5086519718170166,-3.1099870204925537,7.78338623046875
1781033877667856600,20.270856689453126,-0.7035520076751709,-5.029590129852295,4.6639227867126465
1781033877687360000,20.290360107421876,-0.7035520076751709,-5.029590129852295,4.6639227867126465
1781033877706864000,20.309864013671874,-0.2323089987039566,-4.609479904174805,1.5226240158081055
1781033877726373600,20.32937353515625,-0.2323089987039566,-4.609479904174805,1.5226240158081055
1781033877745881000,20.348881103515627,0.5904729962348938,-3.3669469356536865,0.3558480143547058
1781033877765389000,20.36838916015625,0.5904729962348938,-3.3669469356536865,0.3558480143547058
1781033877784897800,20.387897705078124,0.25441399216651917,-3.4973089694976807,1.5654809474945068
1781033877804406300,20.40740625,0.25441399216651917,-3.4973089694976807,1.5654809474945068
1781033877823914200,20.426914306640626,0.599120020866394,-3.5126070976257324,1.1969410181045532
1781033877843422000,20.446421875,1.0297939777374268,-3.405832052230835,0.730666995048523
1781033877862930700,20.4659306640625,1.0297939777374268,-3.405832052230835,0.730666995048523
1781033877882439200,20.485439208984374,1.6065469980239868,-3.3201239109039307,0.9717209935188293
1781033877901949400,20.504949462890625,1.6065469980239868,-3.3201239109039307,0.9717209935188293
1781033877921462800,20.524462890625,1.8806719779968262,-0.8476160168647766,1.8132619857788086
1781033877940977000,20.543976806640625,1.8806719779968262,-0.8476160168647766,1.8132619857788086
1781033877960486400,20.563486328125,-0.6910439729690552,1.68196702003479,3.846872091293335
1781033877979992300,20.582992431640626,-0.6910439729690552,1.68196702003479,3.846872091293335
1781033877999501600,20.60250146484375,-1.19365394115448,0.12745699286460876,5.461688995361328
1781033878019012600,20.6220126953125,-1.19365394115448,0.12745699286460876,5.461688995361328
1781033878038522400,20.6415224609375,-1.1832629442214966,2.3022499084472656,0.9149619936943054
1781033878058034200,20.6610341796875,-1.1832629442214966,2.3022499084472656,0.9149619936943054
1781033878077543700,20.680543701171874,-0.9763789772987366,5.154360771179199,-0.7682729959487915
1781033878097051600,20.7000517578125,-0.9763789772987366,5.154360771179199,-0.7682729959487915
1781033878116567000,20.719567138671874,-1.159242033958435,3.376521110534668,1.345963954925537
1781033878136083500,20.73908349609375,-1.159242033958435,3.376521110534668,1.345963954925537
1781033878155594000,20.758593994140625,-0.8816930055618286,3.21476411819458,-1.0914679765701294
1781033878175104300,20.778104248046876,-0.8816930055618286,3.21476411819458,-1.0914679765701294
1781033878194613200,20.79761328125,-0.20812299847602844,2.7934110164642334,-3.023144006729126
1781033878214120400,20.817120361328126,-0.20812299847602844,2.7934110164642334,-3.023144006729126
1781033878233626600,20.836626708984376,-0.23511600494384766,0.5654720067977905,-6.116951942443848
1781033878253133300,20.85613330078125,-0.23511600494384766,0.5654720067977905,-6.116951942443848
1781033878272637400,20.875637451171876,-0.20226499438285828,-0.06861799955368042,-8.107209205627441
1781033878292144000,20.89514404296875,-0.20226499438285828,-0.06861799955368042,-8.107209205627441
1781033878311659500,20.914659423828127,1.738968014717102,-0.44742000102996826,-8.053524017333984
1781033878331174700,20.934174560546875,1.738968014717102,-0.44742000102996826,-8.053524017333984
1781033878350685000,20.953684814453126,2.4771389961242676,-0.08789800107479095,-7.213622093200684
1781033878370188800,20.973188720703124,2.4771389961242676,-0.08789800107479095,-7.213622093200684
1781033878389694000,20.99269384765625,2.2610080242156982,0.12946000695228577,-6.619071960449219
1781033878409204500,21.01220458984375,2.2610080242156982,0.12946000695228577,-6.619071960449219
1781033878428713200,21.031713134765624,1.917976975440979,0.468843013048172,-6.910314083099365
1781033878448220400,21.051220458984375,1.917976975440979,0.468843013048172,-6.910314083099365
1781033878467731500,21.0707314453125,1.461361050605774,0.7335019707679749,-6.6363091468811035
1781033878487242000,21.090241943359374,1.461361050605774,0.7335019707679749,-6.6363091468811035
1781033878506753800,21.10975390625,1.461361050605774,0.7335019707679749,-6.6363091468811035
1781033878526266400,21.129266357421876,0.5827909708023071,0.39647799730300903,-3.059221029281616
1781033878545780000,21.148780029296876,0.5827909708023071,0.39647799730300903,-3.059221029281616
1781033878565294800,21.168294921875,-0.38471901416778564,0.8627110123634338,-2.894547939300537
1781033878584804000,21.18780419921875,-0.7690070271492004,2.5583689212799072,-2.031290054321289
1781033878604310800,21.207310791015626,-0.7690070271492004,2.5583689212799072,-2.031290054321289
1781033878623816400,21.22681640625,-0.7690070271492004,2.5583689212799072,-2.031290054321289
1781033878643330300,21.246330322265624,-1.9739019870758057,3.0712239742279053,3.5278799533843994
1781033878662849800,21.265849853515626,-2.6815199851989746,2.9745399951934814,3.788970947265625
1781033878682367700,21.28536767578125,-3.3019070625305176,2.8534600734710693,3.618648052215576
1781033878701882400,21.30488232421875,-3.3019070625305176,2.8534600734710693,3.618648052215576
1781033878721395000,21.32439501953125,-4.00593376159668,2.4731719493865967,3.939253091812134
1781033878740907500,21.343907470703126,-4.00593376159668,2.4731719493865967,3.939253091812134
1781033878760418300,21.363418212890625,-4.061404228210449,0.5264000296592712,7.67160177230835
1781033878779921200,21.382921142578127,-4.061404228210449,0.5264000296592712,7.67160177230835
1781033878799425000,21.402425048828125,-3.3082780838012695,-2.6758759021759033,8.630141258239746
1781033878818934800,21.421934814453124,-3.3082780838012695,-2.6758759021759033,8.630141258239746
1781033878838442800,21.44144287109375,0.39782801270484924,-2.922853946685791,8.153351783752441
1781033878857947600,21.46094775390625,0.39782801270484924,-2.922853946685791,8.153351783752441
1781033878877453600,21.48045361328125,1.3562259674072266,-2.863675117492676,6.790664196014404
1781033878896963800,21.4999638671875,1.3562259674072266,-2.863675117492676,6.790664196014404
1781033878916475100,21.51947509765625,0.6051340103149414,-2.416377067565918,5.632544994354248
1781033878935984600,21.538984619140624,0.6051340103149414,-2.416377067565918,5.632544994354248
1781033878955496000,21.558495849609375,-0.35912400484085083,-2.067789077758789,2.7382450103759766
1781033878975013000,21.57801318359375,-0.35912400484085083,-2.067789077758789,2.7382450103759766
1781033878994527200,21.59752734375,0.0739239975810051,-2.4240870475769043,1.458001971244812
1781033879014035200,21.61703515625,0.0739239975810051,-2.4240870475769043,1.458001971244812
1781033879033542100,21.636542236328125,1.1658790111541748,-3.1415939331054688,1.2110650539398193
1781033879053048600,21.656048583984376,1.1658790111541748,-3.1415939331054688,1.2110650539398193
1781033879072560600,21.675560546875,1.8843950033187866,-3.1094350814819336,1.892704963684082
1781033879092073200,21.6950732421875,1.8843950033187866,-3.1094350814819336,1.892704963684082
1781033879111581000,21.714580810546874,2.8186988830566406,-2.89326810836792,3.6654438972473145
1781033879131086800,21.7340869140625,2.8186988830566406,-2.89326810836792,3.6654438972473145
1781033879150594300,21.75359423828125,3.3260879516601562,-2.757664918899536,4.235101222991943
1781033879170103000,21.77310302734375,3.3260879516601562,-2.757664918899536,4.235101222991943
1781033879189609700,21.792609619140624,1.4035910367965698,-1.9221869707107544,2.452965021133423
1781033879209121500,21.81212158203125,1.4035910367965698,-1.9221869707107544,2.452965021133423
1781033879228629200,21.831629150390626,-0.25291499495506287,1.8444069623947144,-1.5933159589767456
1781033879248133400,21.85113330078125,-0.25291499495506287,1.8444069623947144,-1.5933159589767456
1781033879267642400,21.870642333984375,-0.6853259801864624,3.7854650020599365,-1.3668349981307983
1781033879306665000,21.9096650390625,-0.8151929974555969,3.867029905319214,-0.8183940052986145
1781033879326167800,21.929167724609375,-0.4659309983253479,3.3494749069213867,0.7254539728164673
1781033879345672000,21.948671875,-0.4659309983253479,3.3494749069213867,0.7254539728164673
1781033879365183500,21.96818359375,0.001344999996945262,3.292746067047119,-1.4587639570236206
1781033879384695800,21.98769580078125,0.001344999996945262,3.292746067047119,-1.4587639570236206
1781033879404209700,22.007209716796876,0.001344999996945262,3.292746067047119,-1.4587639570236206
1781033879423722000,22.026721923828124,-1.286942958831787,0.8815100193023682,-3.3634018898010254
1781033879443231700,22.046231689453126,-1.3387689590454102,0.7742210030555725,-3.4343299865722656
1781033879462740700,22.06574072265625,0.6346499919891357,1.1631369590759277,-3.6870241165161133
1781033879482250500,22.08525048828125,0.6346499919891357,1.1631369590759277,-3.6870241165161133
1781033879501761300,22.10476123046875,1.1643730401992798,3.0204169750213623,-5.857922077178955
1781033879521269800,22.124269775390626,1.1643730401992798,3.0204169750213623,-5.857922077178955
1781033879540777500,22.143777587890625,0.5282319784164429,0.7863280177116394,-9.175092697143555
1781033879560286000,22.163285888671876,0.5282319784164429,0.7863280177116394,-9.175092697143555
1781033879579796700,22.182796630859375,0.9810349941253662,0.1635269969701767,-10.613548278808594
1781033879599306800,22.202306640625,0.9810349941253662,0.1635269969701767,-10.613548278808594
1781033879618811000,22.221810791015624,1.6514790058135986,0.325435996055603,-7.817526817321777
1781033879638316300,22.24131640625,1.6514790058135986,0.325435996055603,-7.817526817321777
1781033879657824300,22.26082421875,1.6099770069122314,0.5788310170173645,-5.7364702224731445
1781033879677334500,22.28033447265625,1.6099770069122314,0.5788310170173645,-5.7364702224731445
1781033879696845800,22.299845703125,1.326591968536377,0.9508780241012573,-5.853422164916992
1781033879716353800,22.319353759765626,1.326591968536377,0.9508780241012573,-5.853422164916992
1781033879735862500,22.338862548828125,0.8879629969596863,0.9392070174217224,-2.969202995300293
1781033879755375000,22.358375,0.8879629969596863,0.9392070174217224,-2.969202995300293
1781033879774888400,22.377888427734376,0.710470974445343,0.8782950043678284,-0.06384699791669846
1781033879794398200,22.397398193359376,0.710470974445343,0.8782950043678284,-0.06384699791669846
1781033879813906200,22.41690625,-0.2768000066280365,0.6189730167388916,1.189234972000122
1781033879833415400,22.43641552734375,-0.2768000066280365,0.6189730167388916,1.189234972000122
1781033879852927700,22.455927734375,-2.421941041946411,0.9993289709091187,1.6161190271377563
1781033879872440000,22.475440185546876,-2.421941041946411,0.9993289709091187,1.6161190271377563
1781033879891951600,22.49495166015625,-3.5576670169830322,1.6394890546798706,3.7207159996032715
1781033879911460900,22.5144609375,-3.5576670169830322,1.6394890546798706,3.7207159996032715
1781033879930971400,22.533971435546874,-3.878343105316162,2.014698028564453,4.286724090576172
1781033879950482400,22.553482421875,-3.878343105316162,2.014698028564453,4.286724090576172
1781033879969991000,22.572990966796876,-3.725245952606201,1.8202379941940308,4.6542792320251465
1781033879989494500,22.59249462890625,-3.725245952606201,1.8202379941940308,4.6542792320251465
1781033880008996400,22.611996337890623,-3.3571560382843018,-0.3635619878768921,5.585384845733643
1781033880028503000,22.6315029296875,-3.3571560382843018,-0.3635619878768921,5.585384845733643
1781033880048010000,22.651010009765624,-1.3126089572906494,-1.4750839471817017,6.4260149002075195
1781033880067519200,22.670519287109375,-1.3126089572906494,-1.4750839471817017,6.4260149002075195
1781033880087029200,22.690029296875,-1.3126089572906494,-1.4750839471817017,6.4260149002075195
1781033880106535200,22.70953515625,0.636909008026123,-2.9400858879089355,6.059071063995361
1781033880126043000,22.72904296875,-1.0785579681396484,-2.9734249114990234,5.2262139320373535
1781033880145555000,22.748554931640626,-1.0785579681396484,-2.9734249114990234,5.2262139320373535
1781033880165067300,22.7680673828125,-0.8092439770698547,-3.1934399604797363,4.186275959014893
1781033880184578300,22.787578369140626,-0.8092439770698547,-3.1934399604797363,4.186275959014893
1781033880204088000,22.807088134765625,-0.8092439770698547,-3.1934399604797363,4.186275959014893
1781033880223597600,22.82659765625,-0.02180599980056286,-3.833587884902954,2.7342629432678223
1781033880243108000,22.846108154296875,0.021258000284433365,-3.887018918991089,0.7875099778175354
1781033880262619600,22.86561962890625,0.33558499813079834,-3.752603054046631,0.5335000157356262
1781033880282132200,22.88513232421875,0.33558499813079834,-3.752603054046631,0.5335000157356262
1781033880301643000,22.90464306640625,0.6887000203132629,-3.6259350776672363,1.9009970426559448
1781033880321155800,22.92415576171875,0.6887000203132629,-3.6259350776672363,1.9009970426559448
1781033880340664800,22.943664794921876,0.4784260094165802,-3.3159849643707275,3.5354108810424805
1781033880360172500,22.963172607421875,0.4784260094165802,-3.3159849643707275,3.5354108810424805
1781033880379682300,22.982682373046874,0.5162060260772705,-2.415678024291992,5.272544860839844
1781033880399189500,23.002189453125,0.5162060260772705,-2.415678024291992,5.272544860839844
1781033880418698200,23.0216982421875,0.3736549913883209,-1.641746997833252,5.641146183013916
1781033880438208300,23.041208251953126,0.3736549913883209,-1.641746997833252,5.641146183013916
1781033880457716200,23.06071630859375,-0.13475799560546875,-1.266564965248108,4.918663024902344
1781033880477225700,23.080225830078124,-0.13475799560546875,-1.266564965248108,4.918663024902344
1781033880496733700,23.099733642578126,-0.4762209951877594,2.188770055770874,0.9722570180892944
1781033880516237300,23.1192373046875,-0.4762209951877594,2.188770055770874,0.9722570180892944
1781033880535740400,23.138740478515626,-1.322551965713501,3.8895769119262695,0.5003979802131653
1781033880555247400,23.158247314453124,-1.322551965713501,3.8895769119262695,0.5003979802131653
1781033880574754600,23.177754638671875,-1.9243659973144531,3.785953998565674,0.8333590030670166
1781033880594262800,23.1972626953125,-1.9243659973144531,3.785953998565674,0.8333590030670166
1781033880613773800,23.21677392578125,-1.6259900331497192,4.187314987182617,0.4445909857749939
1781033880633282600,23.236282470703124,-1.6259900331497192,4.187314987182617,0.4445909857749939
1781033880652791300,23.255791259765626,-1.1380729675292969,3.7802090644836426,-1.6680799722671509
1781033880672296000,23.2752958984375,-1.1380729675292969,3.7802090644836426,-1.6680799722671509
1781033880691799600,23.294799560546874,-0.5649999976158142,2.7571070194244385,-3.7709109783172607
1781033880711305700,23.3143056640625,-0.5649999976158142,2.7571070194244385,-3.7709109783172607
1781033880730813000,23.33381298828125,0.1068739965558052,0.4417800009250641,-4.584986209869385
1781033880750323700,23.35332373046875,0.1068739965558052,0.4417800009250641,-4.584986209869385
1781033880769837800,23.372837890625,1.0914649963378906,-0.06264500319957733,-6.606381893157959
1781033880789350100,23.39235009765625,1.0914649963378906,-0.06264500319957733,-6.606381893157959
1781033880808860400,23.4118603515625,2.6439850330352783,-0.055045999586582184,-10.094611167907715
1781033880828368000,23.431367919921875,2.6439850330352783,-0.055045999586582184,-10.094611167907715
1781033880847880200,23.450880126953123,2.7339138984680176,0.8568649888038635,-11.367047309875488
1781033880867396400,23.470396240234376,2.7339138984680176,0.8568649888038635,-11.367047309875488
1781033880886905600,23.489905517578126,2.4607150554656982,1.52873694896698,-8.726813316345215
1781033880906414600,23.50941455078125,2.4607150554656982,1.52873694896698,-8.726813316345215
1781033880925925600,23.528925537109377,2.487591028213501,1.5397629737854004,-7.27390193939209
1781033880945436000,23.548435791015624,2.487591028213501,1.5397629737854004,-7.27390193939209
1781033880964946000,23.56794580078125,2.37780499458313,1.164739966392517,-5.808948993682861
1781033880984455400,23.587455322265626,2.37780499458313,1.164739966392517,-5.808948993682861
1781033881003959600,23.60695947265625,1.3226820230484009,0.5585299730300903,-2.934386968612671
1781033881023463400,23.62646337890625,-0.42325401306152344,0.3048039972782135,-1.082077980041504
1781033881042979800,23.645979736328126,-0.42325401306152344,0.3048039972782135,-1.082077980041504
1781033881062498300,23.665498291015624,-1.3974390029907227,0.7207509875297546,-0.09940800070762634
1781033881082012000,23.685011962890623,-1.3974390029907227,0.7207509875297546,-0.09940800070762634
1781033881101525000,23.70452490234375,-2.6967999935150146,2.5625081062316895,1.061221957206726
1781033881121041000,23.724041015625,-2.6967999935150146,2.5625081062316895,1.061221957206726
1781033881140550100,23.743550048828126,-4.589033126831055,3.3055601119995117,3.773591995239258
1781033881160056300,23.763056396484377,-4.589033126831055,3.3055601119995117,3.773591995239258
1781033881179567400,23.7825673828125,-5.008982181549072,3.1098039150238037,5.085782051086426
1781033881199078700,23.80207861328125,-5.008982181549072,3.1098039150238037,5.085782051086426
1781033881218590200,23.821590087890623,-4.86761999130249,2.044981002807617,6.141307830810547
1781033881257611000,23.860611083984374,-4.477367877960205,-1.0288360118865967,7.301861763000488
1781033881277120300,23.880120361328125,-4.477367877960205,-1.0288360118865967,7.301861763000488
1781033881296633600,23.899633544921876,-3.860690116882324,-2.9689369201660156,9.150766372680664
1781033881316149200,23.919149169921877,-3.860690116882324,-2.9689369201660156,9.150766372680664
1781033881335663000,23.9386630859375,-3.2944788932800293,-2.858889102935791,8.808176040649414
1781033881355172400,23.95817236328125,-3.2944788932800293,-2.858889102935791,8.808176040649414
1781033881374681900,23.977681884765627,-1.732282042503357,-2.9063808917999268,7.465299129486084
1781033881394193200,23.997193115234374,-1.732282042503357,-2.9063808917999268,7.465299129486084
1781033881413706800,24.016706787109374,-1.4163919687271118,-3.823873996734619,5.761494159698486
1781033881433216800,24.036216796875,-1.4163919687271118,-3.823873996734619,5.761494159698486
1781033881452728600,24.055728515625,-1.0523079633712769,-3.234428882598877,2.613996982574463
1781033881472241000,24.075240966796876,-1.0523079633712769,-3.234428882598877,2.613996982574463
1781033881491752000,24.094751953125,-0.3396899998188019,-2.8661789894104004,1.9905580282211304
1781033881511266800,24.114266845703124,-0.3396899998188019,-2.8661789894104004,1.9905580282211304
1781033881530778000,24.133778076171875,-0.38855499029159546,-3.3066999912261963,3.2302770614624023
1781033881550285600,24.15328564453125,-0.38855499029159546,-3.3066999912261963,3.2302770614624023
1781033881569792000,24.1727919921875,-0.03528299927711487,-3.609998941421509,3.64017391204834
1781033881589303000,24.192302978515624,-0.03528299927711487,-3.609998941421509,3.64017391204834
1781033881608818000,24.21181787109375,0.7174339890480042,-2.862191915512085,4.729344844818115
1781033881628327200,24.2313271484375,0.7174339890480042,-2.862191915512085,4.729344844818115
1781033881647839200,24.250839111328126,1.572761058807373,-1.8496390581130981,4.298377990722656
1781033881667351800,24.270351806640626,1.572761058807373,-1.8496390581130981,4.298377990722656
1781033881686864600,24.28986474609375,1.572761058807373,-1.8496390581130981,4.298377990722656
1781033881706381600,24.309381591796875,-0.5144050121307373,0.7896819710731506,1.507464051246643
1781033881725894700,24.328894775390626,-0.8304550051689148,2.327241897583008,-0.3978619873523712
1781033881745401600,24.348401611328125,-0.8304550051689148,2.327241897583008,-0.3978619873523712
1781033881764904700,24.36790478515625,-1.0776549577713013,3.083069086074829,-0.8664420247077942
1781033881784405000,24.387405029296875,-1.0776549577713013,3.083069086074829,-0.8664420247077942
1781033881803906800,24.40690673828125,-0.37247300148010254,3.197715997695923,-1.3149340152740479
1781033881823409400,24.426409423828126,0.09766300022602081,3.2100698947906494,-1.52292001247406
1781033881842914300,24.445914306640624,0.09766300022602081,3.2100698947906494,-1.52292001247406
1781033881862424300,24.46542431640625,0.8693060278892517,3.1602890491485596,-1.576185941696167
1781033881881938400,24.4849384765625,0.8693060278892517,3.1602890491485596,-1.576185941696167
1781033881901454000,24.5044541015625,1.0038249492645264,2.8105790615081787,-3.541098117828369
1781033881920969200,24.52396923828125,1.0038249492645264,2.8105790615081787,-3.541098117828369
1781033881940479700,24.543479736328123,0.8259180188179016,2.1031219959259033,-4.47676420211792
1781033881959987200,24.5629873046875,0.8259180188179016,2.1031219959259033,-4.47676420211792
1781033881979489500,24.582489501953123,1.096964955329895,1.271685004234314,-7.40798807144165
1781033881998992100,24.6019921875,1.096964955329895,1.271685004234314,-7.40798807144165
1781033882018499000,24.6214990234375,3.0954580307006836,0.9313229918479919,-9.166860580444336
1781033882038008300,24.64100830078125,3.0954580307006836,0.9313229918479919,-9.166860580444336
1781033882057517600,24.660517578125,3.126326084136963,0.9303579926490784,-9.293390274047852
1781033882077020000,24.68002001953125,3.126326084136963,0.9303579926490784,-9.293390274047852
1781033882096521000,24.69952099609375,2.799360990524292,0.8488460183143616,-9.032203674316406
1781033882116029400,24.719029541015626,2.799360990524292,0.8488460183143616,-9.032203674316406
1781033882135543600,24.73854345703125,2.621825933456421,1.4268460273742676,-10.520763397216797
1781033882155055600,24.7580556640625,2.621825933456421,1.4268460273742676,-10.520763397216797
1781033882174566400,24.77756640625,2.0718541145324707,1.9826140403747559,-9.374472618103027
1781033882194077000,24.797076904296876,2.0718541145324707,1.9826140403747559,-9.374472618103027
1781033882213585000,24.8165849609375,1.1307179927825928,1.3968249559402466,-4.1283040046691895
1781033882233090800,24.8360908203125,1.1307179927825928,1.3968249559402466,-4.1283040046691895
1781033882252598000,24.855597900390624,0.8139399886131287,0.3055959939956665,-1.2313799858093262
1781033882272110600,24.875110595703124,0.8139399886131287,0.3055959939956665,-1.2313799858093262
1781033882291625200,24.894625244140624,0.15656200051307678,-0.08037000149488449,-0.549718976020813
1781033882311138300,24.91413818359375,0.15656200051307678,-0.08037000149488449,-0.549718976020813
1781033882330650600,24.933650634765623,-1.0197529792785645,2.10575008392334,2.045440912246704
1781033882350157600,24.953157470703125,-1.0197529792785645,2.10575008392334,2.045440912246704
1781033882369666800,24.972666748046876,-3.123518943786621,3.7884159088134766,4.938671112060547
1781033882389180000,24.992179931640624,-3.123518943786621,3.7884159088134766,4.938671112060547
1781033882408693200,25.011693359375,-5.2551140785217285,3.767102003097534,5.627590179443359
1781033882428201500,25.031201416015627,-5.2551140785217285,3.767102003097534,5.627590179443359
1781033882447707600,25.050707763671873,-5.754121780395508,3.0972390174865723,5.76425313949585
1781033882467221200,25.07022119140625,-5.754121780395508,3.0972390174865723,5.76425313949585
