time,seconds_elapsed,z,y,x
1781033857834720300,0.43772021484375,9.234000205993652,-1.9669500589370728,-0.9480000734329224
1781033857844476700,0.4474765625,9.11400032043457,-2.1439499855041504,-0.922950029373169
1781033857863985000,0.46698486328125,8.995050430297852,-2.4190502166748047,-0.8299500346183777
1781033857883492600,0.48649267578125,9.061050415039062,-2.593950033187866,-0.76500004529953
1781033857903009500,0.506009521484375,9.244950294494629,-2.6130001544952393,-0.7690500617027283
1781033857922529500,0.525529541015625,9.433950424194336,-2.5380001068115234,-0.7570500373840332
1781033857942045200,0.545045166015625,9.45300006866455,-2.491950035095215,-0.7270500063896179
1781033857961556000,0.564555908203125,9.354000091552734,-2.442000150680542,-0.7189500331878662
1781033857981064000,0.58406396484375,9.223050117492676,-2.464050054550171,-0.6700500249862671
1781033858000571600,0.603571533203125,9.187050819396973,-2.5189502239227295,-0.6379500031471252
1781033858020083700,0.623083740234375,9.244050025939941,-2.533050060272217,-0.6919500231742859
1781033858039594800,0.6425947265625,9.403050422668457,-2.5789501667022705,-0.7180500626564026
1781033858059102500,0.6621025390625,9.511950492858887,-2.6419501304626465,-0.7210500240325928
1781033858078611200,0.681611083984375,9.498000144958496,-2.69100022315979,-0.7000500559806824
1781033858098120400,0.701120361328125,9.421950340270996,-2.7520501613616943,-0.6760500073432922
1781033858117630500,0.72063037109375,9.354000091552734,-2.7690000534057617,-0.7159500122070312
1781033858137143300,0.740143310546875,9.328950881958008,-2.7880501747131348,-0.7440000176429749
1781033858156659000,0.759658935546875,9.324000358581543,-2.8500001430511475,-0.7440000176429749
1781033858176173000,0.779173095703125,9.361950874328613,-2.908050060272217,-0.7140000462532043
1781033858195683000,0.79868310546875,9.355050086975098,-2.92995023727417,-0.6330000162124634
1781033858215192000,0.818192138671875,9.343950271606445,-2.8750500679016113,-0.5610000491142273
1781033858234707000,0.83770703125,9.382950782775879,-2.7769501209259033,-0.5110500454902649
1781033858254224600,0.857224609375,9.40095043182373,-2.6710500717163086,-0.5029500126838684
1781033858273742800,0.876742919921875,9.388050079345703,-2.5489501953125,-0.5820000171661377
1781033858293259500,0.896259521484375,9.334050178527832,-2.433000087738037,-0.6930000185966492
1781033858312772400,0.9157724609375,9.222000122070312,-2.31600022315979,-0.8400000333786011
1781033858332287700,0.935287841796875,9.088050842285156,-2.275050163269043,-0.9180000424385071
1781033858351805400,0.954805419921875,8.953950881958008,-2.319000005722046,-0.9660000205039978
1781033858371323100,0.9743232421875,8.872950553894043,-2.3800501823425293,-1.0690500736236572
1781033858390837500,0.99383740234375,8.857950210571289,-2.4430501461029053,-1.1700000762939453
1781033858410349800,1.013349853515625,8.878950119018555,-2.4979500770568848,-1.2019500732421875
1781033858429862100,1.032862060546875,8.950050354003906,-2.533950090408325,-1.231950044631958
1781033858449373400,1.05237353515625,9.09000015258789,-2.5489501953125,-1.2529500722885132
1781033858468889900,1.071889892578125,9.098999977111816,-2.470050096511841,-1.2850500345230103
1781033858488406800,1.09140673828125,8.958000183105469,-2.3400001525878906,-1.489050030708313
1781033858507917000,1.1109169921875,8.76300048828125,-2.1529500484466553,-1.7359501123428345
1781033858527422200,1.130422119140625,8.55405044555664,-1.8709501028060913,-2.0590500831604004
1781033858546930700,1.1499306640625,8.407050132751465,-1.6390501260757446,-2.4250500202178955
1781033858566444300,1.1694443359375,8.445000648498535,-1.6849501132965088,-2.574000120162964
1781033858585957600,1.18895751953125,8.599050521850586,-1.951050043106079,-2.395050048828125
1781033858605463600,1.208463623046875,8.782950401306152,-2.3910000324249268,-1.968000054359436
1781033858624969500,1.227969482421875,9.064949989318848,-2.92995023727417,-1.4149500131607056
1781033858644480800,1.247480712890625,9.237000465393066,-3.0709500312805176,-1.1539500951766968
1781033858663988500,1.266988525390625,9.223050117492676,-2.826000213623047,-1.308000087738037
1781033858683496700,1.28649658203125,8.907000541687012,-2.373000144958496,-1.6879501342773438
1781033858703006700,1.3060068359375,8.355000495910645,-1.821000099182129,-2.1190500259399414
1781033858722517500,1.325517578125,6.783000469207764,-1.5079500675201416,-2.1859500408172607
1781033858742029000,1.345029052734375,6.441000461578369,-1.758000135421753,-1.8300000429153442
1781033858761541400,1.364541259765625,6.369000434875488,-3.5749502182006836,-0.06495000422000885
1781033858781051600,1.3840517578125,6.679050445556641,-3.864000082015991,0.07395000010728836
1781033858800560400,1.403560302734375,8.57805061340332,-4.270050048828125,0.09300000220537186
1781033858820067600,1.423067626953125,8.926950454711914,-4.495050430297852,-0.012000000104308128
1781033858839578000,1.442578125,9.271050453186035,-4.465950012207031,-0.19395001232624054
1781033858859093000,1.462093017578125,9.313050270080566,-4.426050186157227,-0.009000000543892384
1781033858878604000,1.48160400390625,8.947050094604492,-4.384050369262695,0.5119500160217285
1781033858898118100,1.5011181640625,7.231050491333008,-4.204050064086914,1.0429500341415405
1781033858917630200,1.520630126953125,5.706000328063965,-4.171950340270996,1.4610000848770142
1781033858937138400,1.540138427734375,5.254050254821777,-4.426050186157227,1.7890501022338867
1781033858956649200,1.559649169921875,4.948950290679932,-4.900050163269043,2.056950092315674
1781033858976160500,1.579160400390625,5.079000473022461,-5.530050277709961,2.3899500370025635
1781033858995670000,1.598669921875,5.57895040512085,-6.939000129699707,2.748000144958496
1781033859015177200,1.61817724609375,6.070050239562988,-7.063050270080566,3.031050205230713
1781033859034679300,1.63767919921875,6.32295036315918,-7.090050220489502,3.223950147628784
1781033859054180000,1.65718017578125,6.2989501953125,-7.141050338745117,3.4740002155303955
1781033859073690400,1.6766904296875,6.043950080871582,-7.3309502601623535,3.942000150680542
1781033859093201400,1.696201416015625,5.818950176239014,-7.3969502449035645,4.369950294494629
1781033859112707600,1.71570751953125,5.296950340270996,-7.488000392913818,4.491000175476074
1781033859132215300,1.73521533203125,5.238000392913818,-7.779000282287598,4.489050388336182
1781033859151726000,1.75472607421875,5.257050037384033,-8.038949966430664,4.33305025100708
1781033859171239200,1.7742392578125,5.368950366973877,-8.574000358581543,4.207950115203857
1781033859190748400,1.79374853515625,6.834000110626221,-9.063000679016113,4.474050045013428
1781033859210257000,1.8132568359375,6.850950241088867,-9.237000465393066,4.876049995422363
1781033859229770000,1.83277001953125,7.018050193786621,-9.016050338745117,5.181000232696533
1781033859249285600,1.85228564453125,7.171050548553467,-8.427000045776367,5.0809502601623535
1781033859268798700,1.871798828125,7.177950382232666,-7.897950172424316,4.6810503005981445
1781033859288315400,1.8913154296875,6.844950199127197,-7.621950149536133,4.210050106048584
1781033859307836200,1.910836181640625,6.355950355529785,-7.6050004959106445,3.9340500831604004
1781033859327353000,1.93035302734375,5.748000144958496,-7.636950492858887,4.029000282287598
1781033859346868700,1.94986865234375,5.38800048828125,-7.563000202178955,4.296000003814697
1781033859366382000,1.969382080078125,5.53095006942749,-7.228950500488281,4.510950088500977
1781033859385893000,1.98889306640625,5.929050445556641,-6.817050457000732,4.549950122833252
1781033859405403000,2.00840283203125,6.5460004806518555,-6.5970001220703125,4.522950172424316
1781033859424914400,2.02791455078125,7.039950370788574,-6.736950397491455,4.444050312042236
1781033859444429000,2.047428955078125,7.422000408172607,-7.134000301361084,4.420950412750244
1781033859463945200,2.0669453125,7.746000289916992,-7.426050186157227,4.611000061035156
1781033859483458000,2.0864580078125,7.82895040512085,-7.3999505043029785,4.8480000495910645
1781033859502967000,2.105967041015625,7.570050239562988,-7.0819501876831055,5.104050159454346
1781033859522479600,2.125479736328125,7.008000373840332,-6.50700044631958,5.283000469207764
1781033859541992200,2.1449921875,5.341950416564941,-5.0560503005981445,5.320050239562988
1781033859561504300,2.164504150390625,5.194950103759766,-4.840050220489502,5.469000339508057
1781033859581012200,2.18401220703125,5.125950336456299,-4.61400032043457,5.7330002784729
1781033859600522200,2.203522216796875,5.218050479888916,-4.44795036315918,5.878950119018555
1781033859620037400,2.223037353515625,5.329950332641602,-4.420950412750244,5.913000106811523
1781033859639551700,2.2425517578125,5.563050270080566,-4.453050136566162,5.875950336456299
1781033859659065300,2.2620654296875,5.75100040435791,-4.459050178527832,5.75700044631958
1781033859678576400,2.281576416015625,5.860950469970703,-4.504950046539307,5.6010003089904785
1781033859698085000,2.301085205078125,5.943000316619873,-4.522950172424316,5.233050346374512
1781033859717597200,2.32059716796875,5.779050350189209,-4.593000411987305,4.663050174713135
1781033859737110500,2.340110595703125,5.5909504890441895,-4.6810503005981445,4.125
1781033859756625000,2.359625,5.4280500411987305,-4.735050201416016,3.7290000915527344
1781033859776140500,2.379140625,5.329950332641602,-4.960050106048584,3.510000228881836
1781033859795653600,2.398653564453125,5.460000038146973,-5.221050262451172,3.223950147628784
1781033859815161900,2.418161865234375,5.64900016784668,-5.485950469970703,2.6860501766204834
1781033859834668000,2.43766796875,5.854950428009033,-5.854050159454346,1.0069500207901
1781033859854175700,2.45717578125,6.072000503540039,-6.277950286865234,0.7380000352859497
1781033859873686300,2.476686279296875,6.190950393676758,-6.630000114440918,0.16095000505447388
1781033859893198600,2.496198486328125,6.385050296783447,-6.733050346374512,-1.6260000467300415
1781033859912707600,2.51570751953125,6.633000373840332,-6.573000431060791,-2.1780002117156982
1781033859932218400,2.53521826171875,6.880950450897217,-6.2059502601623535,-2.616000175476074
1781033859951734500,2.554734619140625,7.038000106811523,-5.926950454711914,-2.512050151824951
1781033859971254500,2.574254638671875,7.045950412750244,-5.817000389099121,-1.966050148010254
1781033859990765000,2.59376513671875,6.960000514984131,-5.737950325012207,-1.6320000886917114
1781033860010274000,2.613274169921875,6.799950122833252,-5.658000469207764,-1.9800001382827759
1781033860029784800,2.632784912109375,6.702000141143799,-5.454000473022461,-4.1170501708984375
1781033860049290800,2.652290771484375,6.753000259399414,-5.224950313568115,-5.695050239562988
1781033860068800300,2.67180029296875,6.7510504722595215,-5.076000213623047,-5.635950088500977
1781033860088312000,2.69131201171875,6.810000419616699,-5.011050224304199,-3.4729502201080322
1781033860107828200,2.710828125,6.946950435638428,-5.0400004386901855,-0.9670500755310059
1781033860127346200,2.73034619140625,7.182000160217285,-5.133000373840332,0.8730000257492065
1781033860146862800,2.74986279296875,7.594050407409668,-5.245950222015381,1.0489500761032104
1781033860166377000,2.769376953125,7.840050220489502,-5.293950080871582,1.0410000085830688
1781033860185888800,2.788888671875,7.807950496673584,-5.259000301361084,0.7660500407218933
1781033860205401000,2.808401123046875,7.3060503005981445,-5.215950012207031,0.5850000381469727
1781033860224913200,2.8279130859375,5.509050369262695,-5.209050178527832,0.8790000677108765
1781033860244429600,2.8474296875,5.0530500411987305,-5.247000217437744,2.5219500064849854
1781033860263945200,2.8669453125,4.51200008392334,-5.424000263214111,2.7280502319335938
1781033860283455000,2.886455078125,4.269000053405762,-5.607000350952148,2.845050096511841
1781033860302967800,2.9059677734375,4.509000301361084,-5.689050197601318,2.7840001583099365
1781033860322484000,2.92548388671875,5.041950225830078,-5.725950241088867,2.800950050354004
1781033860341999900,2.944999755859375,6.535050392150879,-5.880000114440918,3.1270501613616943
1781033860361513500,2.964513427734375,6.634950160980225,-6.238950252532959,4.9519500732421875
1781033860381024300,2.984024169921875,6.648000240325928,-6.6660003662109375,5.254950046539307
1781033860400536000,3.0035361328125,6.529950141906738,-7.104000568389893,5.523000240325928
1781033860420049400,3.02304931640625,6.481950283050537,-7.291050434112549,5.425950050354004
1781033860439565800,3.04256591796875,6.6910505294799805,-7.26900053024292,4.876049995422363
1781033860459084500,3.06208447265625,6.937950134277344,-7.458000183105469,4.336050033569336
1781033860478596400,3.081596435546875,6.9970502853393555,-7.852050304412842,4.240950107574463
1781033860498104000,3.10110400390625,6.847050189971924,-8.397000312805176,4.600050449371338
1781033860517617400,3.120617431640625,6.598950386047363,-8.91195011138916,5.104050159454346
1781033860537130800,3.140130859375,6.445050239562988,-9.2160005569458,5.296050071716309
1781033860556638700,3.159638671875,6.600000381469727,-9.247050285339355,5.005050182342529
1781033860576152800,3.17915283203125,6.8959503173828125,-9.108000755310059,4.567950248718262
1781033860595672000,3.198672119140625,7.182000160217285,-9.04995059967041,4.624050140380859
1781033860615188700,3.218188720703125,7.288050174713135,-9.15000057220459,6.288000106811523
1781033860634705700,3.23770556640625,7.558950424194336,-9.381000518798828,8.550000190734863
1781033860654222000,3.25722216796875,7.140000343322754,-9.790050506591797,10.209000587463379
1781033860673734100,3.276734130859375,5.671950340270996,-9.592050552368164,10.243950843811035
1781033860693246000,3.296245849609375,5.467050075531006,-9.661050796508789,8.092050552368164
1781033860712758800,3.3157587890625,5.53695011138916,-10.032000541687012,5.604000091552734
1781033860732268300,3.335268310546875,6.0769500732421875,-8.151000022888184,3.652050256729126
1781033860751779800,3.35477978515625,6.5620503425598145,-7.746000289916992,5.16195011138916
1781033860771296500,3.374296630859375,6.56505012512207,-4.206000328063965,7.194000244140625
1781033860790815500,3.3938154296875,4.122000217437744,-3.8650500774383545,9.508050918579102
1781033860810334500,3.41333447265625,4.051949977874756,-4.1010003089904785,9.813000679016113
1781033860829852200,3.43285205078125,4.336950302124023,-4.642050266265869,6.219000339508057
1781033860849366000,3.452365966796875,4.809000015258789,-4.771050453186035,2.385000228881836
1781033860868876800,3.471876708984375,5.353950023651123,-4.375050067901611,2.233950138092041
1781033860888392000,3.491391845703125,3.0990002155303955,-4.044000148773193,4.644000053405762
1781033860907905300,3.5109052734375,2.694000244140625,-4.3660502433776855,5.16795015335083
1781033860927415300,3.530415283203125,2.7109501361846924,-5.920950412750244,5.490000247955322
1781033860946926300,3.54992626953125,3.2290501594543457,-5.797050476074219,2.614950180053711
1781033860966434800,3.569434814453125,5.25600004196167,-5.467050075531006,0.6670500040054321
1781033860985940200,3.588940185546875,5.548050403594971,-5.122950077056885,0.046950001269578934
1781033861005451300,3.608451171875,5.1570000648498535,-5.0530500411987305,-0.3270000219345093
1781033861024966100,3.627966064453125,4.582950115203857,-5.5489501953125,-0.28395000100135803
1781033861044479200,3.647479248046875,4.420950412750244,-5.9730000495910645,-0.27900001406669617
1781033861063990500,3.666990478515625,4.82295036315918,-6.0420002937316895,-0.5820000171661377
1781033861083504400,3.68650439453125,6.573000431060791,-5.995950222015381,-1.0600500106811523
1781033861103020300,3.706020263671875,7.180050373077393,-5.914950370788574,-2.7810001373291016
1781033861122536700,3.72553662109375,8.61405086517334,-5.725950241088867,-4.73205041885376
1781033861142049800,3.7450498046875,8.782050132751465,-5.410050392150879,-6.766050338745117
1781033861161565700,3.764565673828125,8.499000549316406,-4.9710001945495605,-7.15500020980835
1781033861181085700,3.784085693359375,6.834000110626221,-4.590000152587891,-6.900000095367432
1781033861200605000,3.80360498046875,6.5460004806518555,-4.495950222015381,-4.864050388336182
1781033861220122000,3.8231220703125,6.2749505043029785,-4.606950283050537,-2.994000196456909
1781033861239638300,3.84263818359375,6.346050262451172,-4.869000434875488,-2.578050136566162
1781033861259153200,3.862153076171875,6.693000316619873,-5.184000015258789,-2.4810001850128174
1781033861278670000,3.881670166015625,7.243050575256348,-5.503950119018555,-2.593950033187866
1781033861298188300,3.901188232421875,7.839000225067139,-5.734950065612793,-2.4280500411987305
1781033861317700600,3.92070068359375,8.271000862121582,-5.842050075531006,-0.7519500255584717
1781033861337211400,3.94021142578125,8.314050674438477,-6.004050254821777,0.9679500460624695
1781033861356724200,3.95972412109375,7.939050197601318,-6.172950267791748,1.4269500970840454
1781033861376238800,3.97923876953125,6.106050491333008,-6.243000507354736,1.801050066947937
1781033861395751200,3.998751220703125,5.818050384521484,-6.124050140380859,1.7940000295639038
1781033861415266300,4.018266357421875,5.436000347137451,-5.589000225067139,1.4599500894546509
1781033861434782500,4.037782470703125,4.954950332641602,-4.1610002517700195,1.1650500297546387
1781033861454295600,4.057295654296875,4.396049976348877,-3.9469501972198486,1.390950083732605
1781033861473805600,4.0768056640625,3.8560502529144287,-3.856950283050537,3.265050172805786
1781033861493314600,4.096314453125,3.3930001258850098,-4.026000022888184,3.6720001697540283
1781033861512821200,4.1158212890625,3.1519501209259033,-4.354050159454346,4.256999969482422
1781033861532326100,4.135326171875,3.094050168991089,-4.888950347900391,4.771050453186035
1781033861551830800,4.154830810546875,3.301950216293335,-6.639000415802002,5.17995023727417
1781033861571338000,4.174337890625,3.838050127029419,-7.000950336456299,5.565000057220459
1781033861590846200,4.19384619140625,5.5849504470825195,-8.862000465393066,6.067050457000732
1781033861610352600,4.2133525390625,6.079050064086914,-9.211950302124023,6.69195032119751
1781033861629861000,4.232861083984375,6.559950351715088,-9.595050811767578,7.228050231933594
1781033861649373000,4.252373046875,6.8520002365112305,-9.633000373840332,7.425000190734863
1781033861668885500,4.271885498046875,7.224000453948975,-9.343950271606445,7.129950523376465
1781033861688394800,4.291394775390625,7.618950366973877,-8.940000534057617,6.511950492858887
1781033861707907300,4.3109072265625,7.780950546264648,-8.87700080871582,6.034050464630127
1781033861727422700,4.330422607421875,7.509000301361084,-9.280050277709961,6.01200008392334
1781033861746936600,4.3499365234375,5.437950134277344,-9.73905086517334,6.1870503425598145
1781033861766456300,4.369456298828125,5.26200008392334,-9.81705093383789,6.207000255584717
1781033861785973800,4.388973876953125,5.2819504737854,-9.493050575256348,6.100050449371338
1781033861805487000,4.408487060546875,7.2210001945495605,-8.961000442504883,6.039000511169434
1781033861825001500,4.42800146484375,7.489950180053711,-8.45895004272461,6.336000442504883
1781033861844520200,4.447520263671875,7.720950603485107,-8.21505069732666,7.864050388336182
1781033861864036900,4.467036865234375,7.8100504875183105,-7.98900032043457,8.40195083618164
1781033861883545300,4.48654541015625,7.660050392150879,-7.498050212860107,8.761950492858887
1781033861903050800,4.50605078125,7.443000316619873,-6.985050201416016,8.994000434875488
1781033861922560000,4.52556005859375,7.014000415802002,-6.940950393676758,9.16200065612793
1781033861942073000,4.545072998046875,6.579000473022461,-7.359000205993652,9.046050071716309
1781033861961583400,4.564583251953125,6.210000514984131,-7.228950500488281,7.363950252532959
1781033861981090300,4.58409033203125,5.679000377655029,-5.338050365447998,6.826950550079346
1781033862000602000,4.60360205078125,4.0410003662109375,-3.3730502128601074,5.37000036239624
1781033862020117500,4.623117431640625,3.744000196456909,-2.9220001697540283,5.518950462341309
1781033862039628300,4.642628173828125,3.3259501457214355,-2.92995023727417,5.731950283050537
1781033862059140000,4.66214013671875,3.175950050354004,-3.3259501457214355,5.94795036315918
1781033862078655000,4.681655029296875,3.6060001850128174,-3.6030001640319824,5.8999505043029785
1781033862098165800,4.701165771484375,4.195050239562988,-3.5400002002716064,5.508000373840332
1781033862117675300,4.72067529296875,4.578000068664551,-3.5839502811431885,5.265000343322754
1781033862137186300,4.740186279296875,4.668000221252441,-3.8530502319335938,5.182950019836426
1781033862156698600,4.75969873046875,4.587000370025635,-4.228050231933594,5.059950351715088
1781033862176210200,4.779210205078125,4.480950355529785,-4.558950424194336,4.78095006942749
1781033862195723000,4.798722900390625,4.427999973297119,-4.947000026702881,4.333950042724609
1781033862215235000,4.818235107421875,4.489050388336182,-5.448000431060791,2.5189502239227295
1781033862234745000,4.8377451171875,4.611000061035156,-5.925000190734863,2.092050075531006
1781033862254253300,4.85725341796875,4.894050121307373,-6.379050254821777,0.4330500066280365
1781033862273758700,4.8767587890625,5.368950366973877,-6.820050239562988,-1.6350001096725464
1781033862293267200,4.89626708984375,5.82705020904541,-7.053000450134277,-3.3000001907348633
1781033862312781300,4.91578125,6.22005033493042,-7.075050354003906,-3.7609500885009766
1781033862332298500,4.935298583984375,6.6820502281188965,-6.996000289916992,-4.156050205230713
1781033862351813000,4.954813232421875,6.949950218200684,-6.760950088500977,-4.14900016784668
1781033862371326700,4.97432666015625,7.056000232696533,-6.610050201416016,-3.7639501094818115
1781033862390847000,4.993846923828125,7.195950508117676,-6.478050231933594,-3.271050214767456
1781033862410363600,5.01336376953125,7.110000133514404,-6.166050434112549,-3.01200008392334
1781033862429877500,5.03287744140625,6.9150004386901855,-5.947050094604492,-2.947050094604492
1781033862449395500,5.0523955078125,7.032000541687012,-5.889000415802002,-2.9290502071380615
1781033862468909600,5.07190966796875,7.45395040512085,-5.752050399780273,-2.8600502014160156
1781033862488421600,5.091421630859375,7.9069504737854,-5.551050186157227,-2.7330000400543213
1781033862507935200,5.110935302734375,8.313000679016113,-5.449950218200684,-2.401050090789795
1781033862527447300,5.130447265625,8.230950355529785,-5.442000389099121,-0.7920000553131104
1781033862546957000,5.14995703125,6.645000457763672,-5.680050373077393,-0.29295000433921814
1781033862566465800,5.1694658203125,6.078000068664551,-6.003000259399414,1.6380001306533813
1781033862585975600,5.1889755859375,5.586000442504883,-5.965050220489502,1.9609501361846924
1781033862605487900,5.20848779296875,5.2819504737854,-5.691000461578369,2.193000078201294
1781033862624996900,5.227996826171875,5.068950176239014,-5.383950233459473,2.322000026702881
1781033862644507400,5.24750732421875,4.882950305938721,-5.119950294494629,2.4460501670837402
1781033862664020700,5.267020751953125,4.711050033569336,-5.029950141906738,2.805000066757202
1781033862683532500,5.286532470703125,4.572000026702881,-5.145000457763672,3.412050247192383
1781033862703041300,5.306041259765625,4.630950450897217,-5.395050048828125,4.903050422668457
1781033862722546700,5.325546630859375,4.672950267791748,-5.6509504318237305,5.079000473022461
1781033862742054400,5.345054443359375,4.618950366973877,-5.974050521850586,5.164950370788574
1781033862761562600,5.364562744140625,4.703999996185303,-6.276000499725342,5.092950344085693
1781033862781069600,5.384069580078125,5.0620503425598145,-6.532050132751465,4.819050312042236
1781033862800583400,5.40358349609375,5.446950435638428,-6.98805046081543,4.5360002517700195
1781033862820098800,5.423098876953125,5.82105016708374,-8.860950469970703,4.39995002746582
1781033862839610600,5.442610595703125,6.052950382232666,-9.096000671386719,4.52400016784668
1781033862859122000,5.462121826171875,5.998950481414795,-9.304950714111328,4.743000030517578
1781033862878631700,5.481631591796875,5.929050445556641,-9.202950477600098,4.813950061798096
1781033862898141700,5.5011416015625,5.832000255584717,-9.063000679016113,4.648050308227539
1781033862917658000,5.520658203125,5.749950408935547,-9.09000015258789,4.288949966430664
1781033862937175600,5.540175537109375,5.659050464630127,-9.445050239562988,3.8809502124786377
1781033862956689200,5.559689208984375,5.619000434875488,-10.044000625610352,3.6880502700805664
1781033862976204300,5.579204345703125,5.634000301361084,-10.545000076293945,3.6730501651763916
1781033862995717000,5.598717041015625,5.7900004386901855,-10.905000686645508,3.742950201034546
1781033863015227400,5.618227294921875,6.151950359344482,-11.031000137329102,4.005000114440918
1781033863034739700,5.63773974609375,6.637950420379639,-11.004000663757324,4.513950347900391
1781033863054250800,5.657250732421875,7.134000301361084,-10.782000541687012,6.063000202178955
1781033863073762000,5.676761962890625,7.293000221252441,-10.420050621032715,6.642000198364258
1781033863093276200,5.696276123046875,7.068000316619873,-10.159950256347656,8.19795036315918
1781033863112792800,5.715792724609375,6.553950309753418,-10.174050331115723,8.467950820922852
1781033863132306000,5.735305908203125,5.94195032119751,-10.18695068359375,8.473950386047363
1781033863151815000,5.75481494140625,5.485050201416016,-9.73905086517334,8.125950813293457
1781033863171325400,5.774325439453125,5.1409502029418945,-7.812000274658203,7.588950157165527
1781033863190840000,5.793840087890625,4.785000324249268,-5.971050262451172,7.108950138092041
1781033863210354400,5.8133544921875,4.360050201416016,-5.3710503578186035,7.009050369262695
1781033863229863700,5.83286376953125,3.9559502601623535,-4.942950248718262,7.201950550079346
1781033863249373000,5.852373046875,3.696000099182129,-4.73205041885376,7.386000156402588
1781033863268884000,5.871884033203125,3.6409502029418945,-4.5,7.285050392150879
1781033863288397800,5.891397705078125,3.6910502910614014,-4.138050079345703,6.814050197601318
1781033863307913700,5.910913818359375,3.6760501861572266,-3.7759501934051514,5.10705041885376
1781033863327429000,5.93042919921875,3.535950183868408,-3.555000066757202,4.902000427246094
1781033863346942000,5.94994189453125,3.3439502716064453,-3.478950262069702,4.657950401306152
1781033863366455300,5.969455322265625,3.2860500812530518,-3.580050230026245,4.420950412750244
1781033863385965000,5.988965087890625,3.463050127029419,-3.784050226211548,4.090050220489502
1781033863405475600,6.0084755859375,3.889050245285034,-4.024050235748291,3.6180002689361572
1781033863424989400,6.027989501953125,4.414050102233887,-4.399050235748291,2.994000196456909
1781033863444502300,6.047502197265625,4.867950439453125,-4.935000419616699,1.3840500116348267
1781033863464012800,6.0670126953125,5.128050327301025,-6.600000381469727,0.8670000433921814
1781033863483523000,6.086523193359375,5.239050388336182,-6.814050197601318,-0.9139500260353088
1781033863503031800,6.10603173828125,5.359950065612793,-7.07895040512085,-2.482950210571289
1781033863522540500,6.12554052734375,5.656050205230713,-7.123950481414795,-3.95205020904541
1781033863542046700,6.145046630859375,6.20205020904541,-7.023000240325928,-4.320000171661377
1781033863561552600,6.164552734375,7.872000217437744,-6.900000095367432,-4.431000232696533
1781033863581063000,6.18406298828125,8.062050819396973,-6.9150004386901855,-4.102950096130371
1781033863600573200,6.2035732421875,8.206049919128418,-7.216950416564941,-2.4589500427246094
1781033863620082400,6.22308251953125,8.08905029296875,-7.717050552368164,-1.902000069618225
1781033863639592000,6.242592041015625,7.897950172424316,-8.178000450134277,-1.4640001058578491
1781033863659105800,6.262105712890625,7.788000583648682,-8.401050567626953,-1.2919501066207886
1781033863678617600,6.28161767578125,7.801050186157227,-8.33595085144043,-1.2540000677108765
1781033863698125300,6.301125244140625,7.8949503898620605,-8.104050636291504,-1.0420500040054321
1781033863717630200,6.320630126953125,7.828050136566162,-7.882950305938721,-0.6070500016212463
1781033863737139000,6.340138916015625,7.3660502433776855,-7.531050205230713,-0.1980000138282776
1781033863756651500,6.359651611328125,5.779050350189209,-7.0410003662109375,0.028050001710653305
1781033863776161000,6.3791611328125,5.239950180053711,-5.281050205230713,0.17400000989437103
1781033863795672600,6.398672607421875,3.7900502681732178,-5.002950191497803,0.5610000491142273
1781033863815189000,6.41818896484375,3.68595027923584,-4.609050273895264,2.215050220489502
1781033863834700500,6.437700439453125,3.5940001010894775,-4.216050148010254,2.794950246810913
1781033863854209000,6.457208984375,3.633000135421753,-3.9250502586364746,3.324000120162964
1781033863873719600,6.476719482421875,3.736950159072876,-3.703050136566162,3.579000234603882
1781033863893234700,6.496234619140625,3.6949501037597656,-3.6670501232147217,3.586050271987915
1781033863912750800,6.515750732421875,3.6880502700805664,-3.850950241088867,3.7159502506256104
1781033863932262700,6.5352626953125,3.637050151824951,-4.113000392913818,4.107000350952148
1781033863951778000,6.554778076171875,3.553950071334839,-4.525050163269043,6.160950183868408
1781033863971292000,6.5742919921875,3.469050168991089,-6.487950325012207,7.921050548553467
1781033863990798000,6.593798095703125,3.388050079345703,-8.056050300598145,8.244000434875488
1781033864010304000,6.613303955078125,3.4489500522613525,-9.706950187683105,8.50200080871582
1781033864029817900,6.63281787109375,3.741000175476074,-10.11405086517334,8.371050834655762
1781033864049333500,6.65233349609375,5.611950397491455,-10.552050590515137,6.793050289154053
1781033864068845600,6.671845458984375,7.218000411987305,-10.759950637817383,6.457950115203857
1781033864088356600,6.691356689453125,7.651950359344482,-10.717050552368164,6.069000244140625
1781033864107867400,6.710867431640625,8.158950805664062,-10.572000503540039,5.81505012512207
1781033864127381800,6.7303818359375,8.287050247192383,-10.599000930786133,5.722050189971924
1781033864146895600,6.7498955078125,7.8760504722595215,-10.620000839233398,5.728050231933594
1781033864166410200,6.76941015625,6.373950481414795,-10.624950408935547,5.511000156402588
1781033864185924600,6.788924560546875,6.150000095367432,-10.59795093536377,5.2009501457214355
1781033864205438500,6.8084384765625,6.1180500984191895,-10.386000633239746,4.909050464630127
1781033864224956700,6.827956787109375,6.211050510406494,-10.282950401306152,4.79295015335083
1781033864244474000,6.84747412109375,6.312000274658203,-10.438950538635254,5.029050350189209
1781033864263986700,6.866986572265625,6.382950305938721,-10.765050888061523,5.329050064086914
1781033864283502000,6.886502197265625,6.4710001945495605,-11.130000114440918,5.6670002937316895
1781033864303019800,6.906019775390625,6.6739501953125,-11.31705093383789,6.115050315856934
1781033864322538000,6.9255380859375,7.114950180053711,-11.053950309753418,6.625950336456299
1781033864342056200,6.94505615234375,7.404000282287598,-9.363000869750977,7.119000434875488
1781033864361570300,6.9645703125,7.14300012588501,-7.695000171661377,7.471050262451172
1781033864381083100,6.984083251953125,6.6160502433776855,-7.135950565338135,7.624950408935547
1781033864400593000,7.003593017578125,6.061950206756592,-5.538000106811523,7.414050579071045
1781033864420102100,7.02310205078125,5.427000045776367,-5.025000095367432,5.75700044631958
1781033864439613400,7.042613525390625,4.894050121307373,-3.267000198364258,5.374950408935547
1781033864459121200,7.06212109375,3.0420000553131104,-3.1440000534057617,4.801950454711914
1781033864478631200,7.081631103515625,2.9580001831054688,-3.1939501762390137,4.5360002517700195
1781033864498147000,7.10114697265625,3.085050106048584,-3.475950241088867,4.753950119018555
1781033864517664000,7.1206640625,3.4650001525878906,-3.949050188064575,5.133000373840332
1781033864537176600,7.140176513671875,4.012950420379639,-4.263000011444092,5.16795015335083
1781033864556693500,7.159693603515625,4.342050075531006,-4.2709503173828125,4.7059502601623535
1781033864576207600,7.17920751953125,4.587000370025635,-4.218000411987305,3.0900001525878906
1781033864595716600,7.198716552734375,4.852050304412842,-4.188000202178955,2.5350000858306885
1781033864615229400,7.2182294921875,5.16195011138916,-4.204050064086914,1.0249500274658203
1781033864634737700,7.237737548828125,5.3020501136779785,-4.443000316619873,-0.6949500441551208
1781033864654245400,7.257245361328125,5.275050163269043,-4.933950424194336,-2.3830502033233643
1781033864673754600,7.276754638671875,5.398050308227539,-5.464950084686279,-4.315950393676758
1781033864693262600,7.2962626953125,5.859000205993652,-5.9160003662109375,-6.02400016784668
1781033864712769800,7.315769775390625,7.405050277709961,-6.240000247955322,-6.444000244140625
1781033864732280800,7.33528076171875,9.0600004196167,-6.39300012588501,-6.862950325012207
1781033864751797500,7.354797607421875,9.3589506149292,-6.250950336456299,-7.098000526428223
1781033864771315500,7.3743154296875,9.778950691223145,-4.684950351715088,-7.26300048828125
1781033864790833000,7.3938330078125,10.083000183105469,-4.249050140380859,-7.494000434875488
1781033864810350000,7.41335009765625,9.838050842285156,-2.571000099182129,-7.873050212860107
1781033864829861600,7.432861572265625,8.12505054473877,-2.149049997329712,-8.107049942016602
1781033864849369900,7.452369873046875,6.580050468444824,-1.9099501371383667,-7.858950138092041
1781033864868881000,7.471880859375,6.139950275421143,-1.9420500993728638,-6.141000270843506
1781033864888393200,7.491393310546875,5.716950416564941,-3.730950117111206,-2.0970001220703125
1781033864907905800,7.51090576171875,5.518050193786621,-5.797050476074219,-0.19995000958442688
1781033864927419400,7.53041943359375,5.881950378417969,-6.304050445556641,0.364950031042099
1781033864946934300,7.549934326171875,7.384950160980225,-6.841950416564941,0.4129500091075897
1781033864966447900,7.56944775390625,7.935000419616699,-6.927000522613525,-1.1560500860214233
1781033864985955800,7.588955810546875,8.317049980163574,-6.433050155639648,-1.366050124168396
1781033865005463800,7.6084638671875,6.547950267791748,-4.797000408172607,0.4510500133037567
1781033865024972500,7.62797265625,4.869000434875488,-4.6120500564575195,2.215050220489502
1781033865044481800,7.647481689453125,2.6770501136779785,-4.339950084686279,4.170000076293945
1781033865063990800,7.66699072265625,2.1190500259399414,-3.9910502433776855,4.426949977874756
1781033865083500300,7.686500244140625,1.6879501342773438,-3.724950075149536,4.408950328826904
1781033865103011300,7.70601123046875,1.6470000743865967,-3.655050277709961,4.237950325012207
1781033865122522600,7.725522705078125,2.0560500621795654,-3.9760501384735107,4.3279500007629395
1781033865142031600,7.745031494140625,2.545950174331665,-5.646000385284424,6.139050483703613
1781033865161538300,7.764538330078125,2.9040000438690186,-7.617000579833984,6.66195011138916
1781033865181048000,7.784048095703125,3.0349502563476562,-9.574050903320312,8.325000762939453
1781033865200558300,7.803558349609375,3.0799500942230225,-11.094000816345215,8.493000030517578
1781033865220069600,7.823069580078125,3.513000249862671,-11.440950393676758,8.317950248718262
1781033865239582200,7.842582275390625,5.316000461578369,-11.563950538635254,7.8510003089904785
1781033865259096800,7.862096923828125,6.984000205993652,-11.497050285339355,7.264050483703613
1781033865278610200,7.881610107421875,7.52400016784668,-11.469000816345215,6.757950305938721
1781033865298122200,7.901122314453125,7.609950542449951,-11.50200080871582,6.445950508117676
1781033865317638000,7.920637939453125,7.15500020980835,-11.461950302124023,6.163950443267822
1781033865337153300,7.9401533203125,5.460000038146973,-11.28600025177002,5.865000247955322
1781033865356670000,7.959669921875,4.8480000495910645,-10.990050315856934,5.590050220489502
1781033865376189200,7.979189208984375,4.363950252532959,-10.690950393676758,5.296950340270996
1781033865395709400,7.99870947265625,4.198950290679932,-10.687950134277344,5.062950134277344
1781033865415226000,8.01822607421875,4.303950309753418,-10.948050498962402,5.10105037689209
1781033865434742000,8.037741943359375,4.483050346374512,-11.287050247192383,5.407950401306152
1781033865454263000,8.057262939453125,4.810050010681152,-11.59695053100586,7.080000400543213
1781033865473783800,8.07678369140625,5.238000392913818,-11.644050598144531,7.507950305938721
1781033865493301800,8.0963017578125,5.607000350952148,-11.338050842285156,8.116950035095215
1781033865512818700,8.115818603515624,6.010950088500977,-9.280950546264648,8.616000175476074
1781033865532333600,8.13533349609375,6.160050392150879,-8.74905014038086,8.884950637817383
1781033865551847200,8.15484716796875,5.93595027923584,-7.14300012588501,9.003000259399414
1781033865571363300,8.17436328125,5.526000499725342,-7.141050338745117,8.965950012207031
1781033865590884000,8.193884033203124,4.921950340270996,-7.074000358581543,8.623050689697266
1781033865610402300,8.21340234375,3.1410000324249268,-6.642000198364258,6.544050216674805
1781033865629918500,8.23291845703125,2.860950231552124,-4.783050060272217,6.060000419616699
1781033865649436200,8.252436279296875,2.683950185775757,-4.4599504470825195,5.437950134277344
1781033865668953300,8.271953369140626,2.7679500579833984,-4.129950046539307,4.938000202178955
1781033865688471600,8.291471435546875,3.1590001583099365,-4.04295015335083,4.666950225830078
1781033865707983600,8.310983642578124,4.663050174713135,-4.059000015258789,4.5610504150390625
1781033865727493600,8.33049365234375,4.975950241088867,-3.9820501804351807,4.408950328826904
1781033865747007700,8.3500078125,5.158050060272217,-3.901050090789795,4.14900016784668
1781033865766524200,8.369524169921876,5.206050395965576,-3.936000108718872,3.7200002670288086
1781033865786036500,8.389036376953126,5.161050319671631,-4.132950305938721,2.0220000743865967
1781033865805547000,8.408547119140625,5.005950450897217,-4.446000099182129,1.579050064086914
1781033865825058800,8.428058837890624,4.879050254821777,-4.879050254821777,-0.18105000257492065
1781033865844572700,8.44757275390625,4.858950138092041,-5.3580002784729,-1.7359501123428345
1781033865864084200,8.467084228515626,5.094000339508057,-5.832000255584717,-3.5719501972198486
1781033865883595300,8.48659521484375,5.581050395965576,-6.075000286102295,-3.784050226211548
1781033865903107600,8.506107666015625,7.138950347900391,-6.034050464630127,-3.9250502586364746
1781033865922617600,8.52561767578125,7.735950469970703,-5.698950290679932,-3.8560502529144287
1781033865942128400,8.54512841796875,8.217000007629395,-4.2019500732421875,-4.057950019836426
1781033865961638700,8.564638671875,8.356950759887695,-3.676950216293335,-5.775000095367432
1781033865981153500,8.584153564453125,8.157000541687012,-3.1960501670837402,-6.028950214385986
1781033866000673300,8.60367333984375,7.879950523376465,-2.9410500526428223,-6.195000171661377
1781033866020191500,8.62319140625,7.875000476837158,-3.0079500675201416,-5.908050060272217
1781033866039708400,8.64270849609375,8.134050369262695,-3.3949501514434814,-4.326000213623047
1781033866059227100,8.66222705078125,8.476950645446777,-5.052000045776367,-2.3269500732421875
1781033866078747100,8.6817470703125,8.692950248718262,-5.491950035095215,-1.9120501279830933
1781033866098266000,8.70126611328125,8.800950050354004,-7.036050319671631,-1.3090500831604004
1781033866117786400,8.720786376953125,8.848950386047363,-7.231950283050537,-0.934950053691864
1781033866137304300,8.74030419921875,8.779050827026367,-7.185000419616699,-0.8490000367164612
1781033866156816000,8.75981591796875,8.442000389099121,-6.748950481414795,-0.8230500221252441
1781033866176327000,8.779326904296875,6.883050441741943,-5.266050338745117,-0.4819500148296356
1781033866195841000,8.798841064453125,4.999050140380859,-4.755000114440918,1.1179500818252563
1781033866215356200,8.818356201171875,4.633050441741943,-3.058950185775757,2.8249502182006836
1781033866234873300,8.837873291015624,4.0759501457214355,-2.9290502071380615,3.109950065612793
1781033866254388000,8.857387939453124,3.61995005607605,-2.8540501594543457,3.5380501747131348
1781033866273903400,8.8769033203125,3.3259501457214355,-2.974950075149536,3.9529502391815186
1781033866293419500,8.89641943359375,3.2370002269744873,-3.2760002613067627,4.309950351715088
1781033866312934400,8.915934326171875,3.4200000762939453,-3.721050262451172,4.531949996948242
1781033866332452000,8.9354521484375,3.8200502395629883,-4.153050422668457,4.693050384521484
1781033866351966500,8.954966552734374,4.296000003814697,-4.609950065612793,4.945950031280518
1781033866371479600,8.9744794921875,4.609050273895264,-5.17995023727417,5.406000137329102
1781033866390994200,8.993994140625,4.656000137329102,-6.7009501457214355,6.003000259399414
1781033866410506000,9.013506103515626,4.593000411987305,-8.575950622558594,6.523050308227539
1781033866430012400,9.033012451171874,4.62000036239624,-9.043050765991211,6.9150004386901855
1781033866449522000,9.05252197265625,4.954050064086914,-9.634050369262695,7.125000476837158
1781033866469036500,9.07203662109375,5.56095027923584,-9.882000923156738,7.017000198364258
1781033866488547800,9.0915478515625,7.3060503005981445,-9.78600025177002,6.592050075531006
1781033866508058600,9.11105859375,7.723050594329834,-9.570000648498535,6.097950458526611
1781033866527569200,9.130569091796875,7.855950355529785,-9.507000923156738,5.607000350952148
1781033866547075000,9.150074951171876,7.70205020904541,-9.694950103759766,5.230050086975098
1781033866566587600,9.169587646484375,6.070050239562988,-9.934950828552246,5.074950218200684
1781033866586104600,9.1891044921875,5.713050365447998,-10.07295036315918,4.839000225067139
1781033866605619000,9.208618896484374,5.47605037689209,-10.105050086975098,4.660950183868408
1781033866625132300,9.22813232421875,5.574000358581543,-10.039950370788574,4.759050369262695
1781033866644648700,9.247648681640625,5.8720502853393555,-9.897000312805176,5.146050453186035
1781033866664164400,9.267164306640625,6.210000514984131,-9.68595027923584,6.751950263977051
1781033866683682300,9.286682373046874,6.39900016784668,-9.418950080871582,8.689949989318848
1781033866703201000,9.306200927734375,6.271050453186035,-9.11205005645752,9.027000427246094
1781033866722717400,9.325717529296876,6.141000270843506,-8.688000679016113,9.439050674438477
1781033866742233600,9.345233642578124,6.22005033493042,-7.006050109863281,9.586950302124023
1781033866761747700,9.364747802734374,6.342000484466553,-7.105950355529785,9.355950355529785
1781033866781262300,9.384262451171875,6.511050224304199,-7.63800048828125,7.770000457763672
1781033866800778200,9.4037783203125,6.442050457000732,-7.633050441741943,7.260000228881836
1781033866820297700,9.423297607421874,5.988000392913818,-6.0259504318237305,5.547000408172607
1781033866839818000,9.44281787109375,4.513950347900391,-4.248000144958496,5.469000339508057
1781033866859330800,9.462330810546876,4.039950370788574,-3.7039501667022705,5.614950180053711
1781033866878835000,9.4818349609375,3.727950096130371,-3.3949501514434814,5.8660502433776855
1781033866898340600,9.501340576171875,3.7260000705718994,-3.4080002307891846,6.040050506591797
1781033866917850400,9.520850341796875,3.936000108718872,-3.384000062942505,5.905050277709961
1781033866937357300,9.540357421875,4.132050037384033,-3.2700002193450928,5.572050094604492
1781033866956867600,9.55986767578125,4.185000419616699,-3.3859500885009766,5.155050277709961
1781033866976379400,9.57937939453125,4.168050289154053,-3.700050115585327,4.5520501136779785
1781033866995890700,9.598890625,4.256999969482422,-4.006950378417969,2.6520001888275146
1781033867015407600,9.61840771484375,4.3660502433776855,-4.258950233459473,0.7399500608444214
1781033867034923000,9.637923095703124,4.294950008392334,-4.6459503173828125,0.5400000214576721
1781033867054431700,9.657431640625,4.146000385284424,-5.212950229644775,0.33105000853538513
1781033867073940200,9.676940185546876,4.223999977111816,-5.839950084686279,0.21300001442432404
1781033867093452500,9.69645263671875,4.738950252532959,-6.2989501953125,0.07095000147819519
1781033867112963800,9.7159638671875,6.4770002365112305,-6.474000453948975,-0.40605002641677856
1781033867132472600,9.73547265625,6.813000202178955,-6.582000255584717,-2.3340001106262207
1781033867151981800,9.75498193359375,7.074000358581543,-6.630000114440918,-4.150050163269043
1781033867171489500,9.774489501953125,7.113000392913818,-6.60705041885376,-5.551050186157227
1781033867190995200,9.7939951171875,6.958950519561768,-6.594000339508057,-5.505000114440918
1781033867210500900,9.8135009765625,6.993000507354736,-6.631950378417969,-4.9770002365112305
1781033867230007300,9.83300732421875,7.2300004959106445,-6.687000274658203,-4.39995002746582
1781033867249516800,9.852516845703125,7.554000377655029,-6.796950340270996,-4.099950313568115
1781033867269024300,9.872024169921875,7.845000267028809,-6.910950183868408,-4.114950180053711
1781033867288530700,9.89153076171875,7.942950248718262,-6.961950302124023,-4.311000347137451
1781033867308039400,9.911039306640625,7.8600006103515625,-7.005000114440918,-4.228050231933594
1781033867327548200,9.930548095703125,7.7410502433776855,-6.925950527191162,-3.7170002460479736
1781033867347056600,9.950056640625,7.603950500488281,-6.696000099182129,-2.0239500999450684
1781033867366565400,9.9695654296875,7.371000289916992,-6.427950382232666,-0.46095001697540283
1781033867386078500,9.989078369140625,6.95205020904541,-6.213000297546387,1.0150500535964966
1781033867405592300,10.00859228515625,6.370050430297852,-6.025050163269043,1.2889500856399536
1781033867425103400,10.028103271484374,5.859000205993652,-5.748000144958496,1.423050045967102
1781033867444616200,10.0476162109375,5.484000205993652,-5.301000118255615,1.4620500802993774
1781033867464129500,10.067129638671876,5.050950050354004,-4.753050327301025,1.6500000953674316
1781033867483642000,10.08664208984375,4.6369500160217285,-4.264950275421143,2.2240500450134277
1781033867503153200,10.106153076171875,4.204050064086914,-3.9300003051757812,3.745950222015381
1781033867522667300,10.125667236328125,3.772050142288208,-3.7960500717163086,3.892050266265869
1781033867542179600,10.1451796875,3.5680501461029053,-3.8520002365112305,4.077000141143799
1781033867561693200,10.164693115234375,3.5239500999450684,-4.052999973297119,4.315950393676758
1781033867581208600,10.18420849609375,3.6100502014160156,-4.39995002746582,4.687950134277344
1781033867600723000,10.203722900390625,3.865950107574463,-4.846950054168701,5.167050361633301
1781033867620238800,10.22323876953125,4.2270002365112305,-5.3620500564575195,5.57895040512085
1781033867639752400,10.24275244140625,4.593000411987305,-5.974950313568115,5.913000106811523
1781033867659266800,10.262266845703126,5.029050350189209,-6.6220502853393555,6.219000339508057
1781033867678783700,10.28178369140625,5.530050277709961,-8.053950309753418,6.523950099945068
1781033867698302500,10.301302490234375,6.0769500732421875,-8.206049919128418,6.723000526428223
1781033867717814500,10.320814453125,6.660000324249268,-8.296050071716309,6.690000534057617
1781033867737319400,10.3403193359375,7.176000118255615,-8.406000137329102,6.514950275421143
1781033867756826600,10.35982666015625,7.426050186157227,-8.647050857543945,6.361050128936768
1781033867776340000,10.379340087890625,7.231950283050537,-8.986950874328613,6.319050312042236
1781033867795857200,10.398857177734374,6.8550004959106445,-9.337950706481934,6.252000331878662
1781033867815374600,10.41837451171875,6.579000473022461,-9.709050178527832,6.214950084686279
1781033867834898200,10.437898193359375,6.514050483703613,-9.952950477600098,6.199950218200684
1781033867854416600,10.457416748046874,6.697050094604492,-10.12695026397705,6.03795051574707
1781033867873928400,10.476928466796876,6.811950206756592,-10.384950637817383,5.8690505027771
1781033867893446400,10.4964462890625,6.7069501876831055,-10.612950325012207,5.75700044631958
1781033867912964900,10.51596484375,6.535950183868408,-10.666050910949707,5.808000087738037
1781033867932481000,10.53548095703125,6.445950508117676,-10.581000328063965,6.283950328826904
1781033867951992000,10.554991943359376,6.4860005378723145,-10.312050819396973,8.032950401306152
1781033867971502600,10.574502685546875,6.538050174713135,-9.816000938415527,8.574000358581543
1781033867991012600,10.5940126953125,6.529050350189209,-8.056050300598145,9.046050071716309
1781033868010521000,10.61352099609375,6.364050388336182,-7.741950511932373,9.135000228881836
1781033868030032100,10.6330322265625,6.1210503578186035,-7.237050533294678,8.895000457763672
1781033868049543200,10.652543212890626,5.917050361633301,-5.488950252532959,8.401050567626953
1781033868069051100,10.672051025390624,5.6860504150390625,-5.143950462341309,6.8520002365112305
1781033868088555300,10.69155517578125,5.3710503578186035,-3.4590001106262207,6.348000526428223
1781033868108059600,10.7110595703125,4.918950080871582,-3.163950204849243,5.911050319671631
1781033868127568400,10.730568359375,4.348950386047363,-2.8590002059936523,5.73900032043457
1781033868147076400,10.750076416015625,3.892050266265869,-2.7180001735687256,5.662950038909912
1781033868166585300,10.76958544921875,3.7069501876831055,-2.788950204849243,5.5489501953125
1781033868186093600,10.789093505859375,3.787950277328491,-2.920950174331665,5.202000141143799
1781033868205600000,10.80860009765625,3.9439501762390137,-3.046950101852417,4.6650004386901855
1781033868225110500,10.828110595703125,3.999000072479248,-3.334050178527832,4.294050216674805
1781033868244622600,10.84762255859375,4.009050369262695,-3.7320001125335693,4.2109503746032715
1781033868264132900,10.8671328125,4.1770501136779785,-4.164000034332275,4.108050346374512
1781033868283641600,10.8866416015625,4.5420002937316895,-4.438950061798096,3.6559500694274902
1781033868303148500,10.9061484375,4.962000370025635,-4.5769500732421875,1.984950065612793
1781033868322656800,10.92565673828125,5.086050033569336,-4.858050346374512,-0.0070500001311302185
1781033868342163500,10.94516357421875,4.82295036315918,-6.523050308227539,-0.4510500133037567
1781033868361670700,10.964670654296874,4.440000057220459,-6.903000354766846,-2.2740001678466797
1781033868381181400,10.984181396484376,4.5259504318237305,-7.389000415802002,-4.1010003089904785
1781033868400693800,11.00369384765625,6.604050159454346,-7.61400032043457,-5.833950042724609
1781033868420205300,11.023205322265625,7.123950481414795,-7.431000232696533,-6.249000072479248
1781033868439718100,11.04271826171875,8.628000259399414,-7.195050239562988,-6.13800048828125
1781033868459233500,11.062233642578125,8.47800064086914,-7.0570502281188965,-3.8970000743865967
1781033868478745900,11.081745849609375,8.089950561523438,-7.038000106811523,-3.4170000553131104
1781033868498252000,11.101251953125,7.573050498962402,-7.093950271606445,-2.959050178527832
1781033868517755400,11.12075537109375,7.1010003089904785,-7.074000358581543,-3.0550501346588135
1781033868537259800,11.140259765625,6.709050178527832,-7.039050102233887,-3.5659501552581787
1781033868556765400,11.159765380859374,6.358950138092041,-7.063950538635254,-4.077000141143799
1781033868576269600,11.17926953125,6.166950225830078,-7.114050388336182,-4.096950054168701
1781033868595771400,11.198771484375,6.192000389099121,-7.1700005531311035,-2.0970001220703125
1781033868615274200,11.218274169921875,6.361050128936768,-7.171050548553467,-0.505050003528595
1781033868634776300,11.2377763671875,6.4930500984191895,-7.0660505294799805,-0.24195000529289246
1781033868654282500,11.257282470703124,6.385950088500977,-6.787050247192383,-0.06195000186562538
1781033868673794600,11.276794677734374,6.088950157165527,-6.2910003662109375,-0.004950000438839197
1781033868693304600,11.2963046875,5.595000267028809,-5.674050331115723,0.19905000925064087
1781033868712818200,11.315818115234375,4.933050155639648,-5.10105037689209,1.9450501203536987
1781033868732334300,11.335334228515626,4.427999973297119,-4.677000045776367,2.3899500370025635
1781033868751845400,11.354845458984375,4.074000358581543,-4.35105037689209,2.889000177383423
1781033868771356200,11.374356201171874,3.9559502601623535,-4.0980000495910645,3.169950246810913
1781033868790868000,11.393867919921876,4.071000099182129,-3.9090001583099365,3.2700002193450928
1781033868810377700,11.413377685546875,4.333950042724609,-3.886050224304199,3.453000068664551
1781033868829883400,11.43288330078125,4.528950214385986,-4.123950004577637,3.982950210571289
1781033868849391600,11.4523916015625,4.513950347900391,-4.576050281524658,5.716950416564941
1781033868868903000,11.47190283203125,4.447050094604492,-5.142000198364258,6.2440505027771
1781033868888413200,11.4914130859375,4.275000095367432,-5.770050048828125,6.747000217437744
1781033868907921200,11.510921142578125,4.198950290679932,-7.302000522613525,6.997950553894043
1781033868927432200,11.53043212890625,4.474050045013428,-7.8670501708984375,6.9559502601623535
1781033868946949600,11.54994970703125,6.318000316619873,-9.442950248718262,6.783000469207764
1781033868966466800,11.569466796875,6.807000160217285,-9.742950439453125,6.56505012512207
1781033868985980200,11.588980224609376,8.497950553894043,-9.898950576782227,6.330000400543213
1781033869005489400,11.608489501953125,8.719050407409668,-9.772050857543945,6.097050189971924
1781033869024998100,11.627998046875,8.65095043182373,-9.582000732421875,5.886000156402588
1781033869044508200,11.647508056640625,8.485950469970703,-9.478050231933594,5.653950214385986
1781033869064015000,11.66701513671875,8.322000503540039,-9.403050422668457,5.361000061035156
1781033869083522600,11.6865224609375,8.179950714111328,-9.351000785827637,4.969050407409668
1781033869103030000,11.706030029296874,8.113950729370117,-9.300000190734863,4.621950149536133
1781033869122536000,11.725535888671875,7.935000419616699,-9.316950798034668,4.525050163269043
1781033869142037000,11.745037109375,7.740000247955322,-9.5110502243042,4.755000114440918
1781033869161538800,11.764538818359375,7.768950462341309,-9.766950607299805,5.224950313568115
1781033869181048800,11.784048828125,7.957050323486328,-9.909000396728516,5.719950199127197
1781033869200557000,11.80355712890625,8.203949928283691,-9.817950248718262,6.174000263214111
1781033869220060000,11.823059814453124,8.437050819396973,-9.42300033569336,6.628950119018555
1781033869239566800,11.84256689453125,8.455950736999512,-8.848950386047363,7.1770501136779785
1781033869259079200,11.8620791015625,8.089950561523438,-8.206950187683105,7.788000583648682
1781033869278589200,11.881589111328125,6.420000076293945,-7.615950584411621,8.131050109863281
1781033869298096000,11.90109619140625,5.94795036315918,-7.153050422668457,7.935000419616699
1781033869317607700,11.920607666015625,5.524050235748291,-5.3359503746032715,6.370950222015381
1781033869337115100,11.940115234375,5.194950103759766,-4.891050338745117,4.5769500732421875
1781033869356619300,11.959619384765626,5.008050441741943,-3.451050281524658,4.219050407409668
1781033869376125400,11.97912548828125,4.633050441741943,-3.117000102996826,4.174950122833252
1781033869395638800,11.998638671875,4.285950183868408,-2.9239501953125,4.522050380706787
1781033869415150800,12.01815087890625,4.216050148010254,-3.013050079345703,5.0590500831604
1781033869434657800,12.03765771484375,4.339950084686279,-3.1110000610351562,5.325000286102295
1781033869454164500,12.05716455078125,4.447050094604492,-3.14805006980896,5.235000133514404
1781033869473670400,12.07667041015625,4.477050304412842,-3.2820000648498535,4.933050155639648
1781033869493180000,12.096179931640625,4.468050003051758,-3.453000068664551,4.446000099182129
1781033869512691700,12.115691650390625,4.443000316619873,-3.7330501079559326,2.7709500789642334
1781033869532205300,12.135205322265625,4.4070000648498535,-4.23105001449585,2.515050172805786
1781033869551720000,12.154719970703125,4.384950160980225,-4.82295036315918,1.987950086593628
1781033869571228700,12.174228759765626,4.404000282287598,-5.469000339508057,0.5239500403404236
1781033869590734000,12.193734130859376,4.615050315856934,-6.895050525665283,0.06705000251531601
1781033869610245600,12.21324560546875,5.029050350189209,-7.153950214385986,-1.4239500761032104
1781033869629760300,12.23276025390625,5.449050426483154,-7.477050304412842,-3.3990001678466797
1781033869649275400,12.252275390625,5.922000408172607,-7.705050468444824,-3.886050224304199
1781033869668786000,12.271785888671875,6.460050106048584,-7.684050559997559,-4.504050254821777
1781033869688294400,12.29129443359375,8.2339506149292,-7.4239501953125,-4.8420000076293945
1781033869707799800,12.3107998046875,8.40000057220459,-7.050000190734863,-4.741950035095215
1781033869727304400,12.330304443359376,8.521050453186035,-6.753000259399414,-4.477950096130371
1781033869746811400,12.349811279296874,8.315999984741211,-6.582000255584717,-4.425000190734863
1781033869766318000,12.369318115234375,7.773000240325928,-6.508050441741943,-4.624950408935547
1781033869785827300,12.388827392578126,7.252050399780273,-6.457950115203857,-4.788000106811523
1781033869805341200,12.408341064453126,7.003050327301025,-6.292050361633301,-4.578000068664551
1781033869824852000,12.42785205078125,7.105050563812256,-6.072000503540039,-2.6710500717163086
1781033869844364800,12.44736474609375,7.291050434112549,-5.91795015335083,-0.9450000524520874
1781033869863882500,12.466882568359376,7.216050148010254,-5.8999505043029785,0.8130000233650208
1781033869883399200,12.486399169921874,6.790050506591797,-6.054000377655029,1.327950119972229
1781033869902913300,12.505913330078124,6.202950477600098,-6.172950267791748,1.9330500364303589
1781033869922421800,12.525421875,5.743950366973877,-6.055950164794922,2.335050106048584
1781033869941923600,12.544923583984374,5.581050395965576,-5.619000434875488,2.4780001640319824
1781033869961427500,12.564427490234374,5.539050102233887,-4.144050121307373,2.4850502014160156
1781033869980936000,12.58393603515625,5.328000068664551,-3.6979501247406006,2.6830501556396484
1781033870000439800,12.603439697265625,3.658050060272217,-3.3580501079559326,3.1300501823425293
1781033870019941400,12.62294140625,3.180000066757202,-3.3409502506256104,3.6259500980377197
1781033870039447600,12.642447509765624,2.55495023727417,-3.7330501079559326,4.190999984741211
1781033870058959000,12.661958984375,2.205000162124634,-4.242000102996826,4.73205041885376
1781033870078466800,12.681466796875,2.4310500621795654,-4.633050441741943,5.244000434875488
1781033870097970000,12.700969970703126,4.102950096130371,-4.857000350952148,5.821950435638428
1781033870117475600,12.7204755859375,5.934000492095947,-4.929000377655029,6.4069504737854
1781033870136983800,12.73998388671875,6.223950386047363,-5.203050136566162,7.951050281524658
1781033870156491800,12.75949169921875,6.654000282287598,-5.776050090789795,9.624000549316406
1781033870175998200,12.778998291015625,7.039950370788574,-6.4009504318237305,9.790050506591797
1781033870195501800,12.798501708984375,7.374000549316406,-6.778050422668457,9.592950820922852
1781033870215007500,12.818007568359375,7.618050575256348,-7.012950420379639,7.800000190734863
1781033870234512100,12.83751220703125,7.873950481414795,-7.455000400543213,5.844000339508057
1781033870254014200,12.85701416015625,8.269950866699219,-9.22800064086914,5.502000331878662
1781033870273516800,12.876516845703126,8.650050163269043,-9.427950859069824,5.356950283050537
1781033870293019000,12.896018798828125,8.9170503616333,-9.459000587463379,5.4150004386901855
1781033870312524500,12.915524658203125,8.926050186157227,-9.130949974060059,5.38200044631958
1781033870332032300,12.9350322265625,8.668950080871582,-8.650050163269043,5.0560503005981445
1781033870351535000,12.95453515625,8.315999984741211,-8.404050827026367,4.82895040512085
1781033870371031800,12.97403173828125,8.176950454711914,-8.529000282287598,5.032950401306152
1781033870390532000,12.993531982421874,8.244000434875488,-8.665950775146484,5.57295036315918
1781033870410043000,13.01304296875,8.338950157165527,-8.544000625610352,6.133050441741943
1781033870429555200,13.03255517578125,8.536050796508789,-8.220000267028809,6.676050186157227
1781033870449060600,13.052060546875,8.668050765991211,-7.696950435638428,7.165950298309326
1781033870468562000,13.07156201171875,8.634000778198242,-7.210050106048584,7.639950275421143
1781033870488066000,13.091066162109374,8.559000015258789,-6.814950466156006,8.121000289916992
1781033870507571500,13.110571533203125,8.414999961853027,-6.403050422668457,8.338950157165527
1781033870527072300,13.130072265625,8.071050643920898,-5.997000217437744,8.134950637817383
1781033870546574600,13.14957470703125,7.603050231933594,-3.9409501552581787,6.253050327301025
1781033870566081300,13.169081298828125,6.049950122833252,-3.5460002422332764,5.758950233459473
1781033870585584400,13.18858447265625,4.252050399780273,-3.037950038909912,5.434950351715088
1781033870605090300,13.20809033203125,3.9589502811431885,-2.593950033187866,5.586000442504883
1781033870624598000,13.227597900390625,3.498000144958496,-2.4030001163482666,5.902050495147705
1781033870644103200,13.247103271484375,3.2700002193450928,-2.395050048828125,6.129000186920166
1781033870663611000,13.26661083984375,3.28695011138916,-2.3910000324249268,5.989950180053711
1781033870683124000,13.2861240234375,3.501000165939331,-2.3110501766204834,5.626950263977051
1781033870702635800,13.3056357421875,3.9370501041412354,-2.2579500675201416,5.389950275421143
1781033870722144000,13.32514404296875,4.392000198364258,-2.341050148010254,5.3359503746032715
1781033870741653500,13.344653564453125,4.6020002365112305,-2.6620500087738037,5.1409502029418945
1781033870761162200,13.364162353515624,4.44195032119751,-4.380000114440918,4.605000019073486
1781033870780666600,13.38366650390625,4.1509504318237305,-4.795950412750244,2.908950090408325
1781033870800174600,13.403174560546875,4.165050029754639,-5.436000347137451,1.1970000267028809
1781033870819687400,13.4226875,4.644000053405762,-6.865050315856934,-0.42795002460479736
1781033870839194600,13.442194580078125,6.295950412750244,-7.0660505294799805,-2.3650500774383545
1781033870858698500,13.461698486328125,6.76800012588501,-7.225950241088867,-4.2019500732421875
1781033870878202600,13.48120263671875,6.954000473022461,-7.318050384521484,-4.564050197601318
1781033870897706500,13.50070654296875,6.825000286102295,-7.254000186920166,-4.876950263977051
1781033870917209900,13.5202099609375,6.712950229644775,-6.993000507354736,-4.978950023651123
1781033870936716000,13.539716064453126,6.612000465393066,-6.514950275421143,-5.026050090789795
1781033870956225300,13.559225341796875,6.663000106811523,-6.027000427246094,-5.184000015258789
1781033870975733800,13.578733642578126,6.808950424194336,-5.680950164794922,-5.419050216674805
1781033870995244000,13.598244140625,6.892050266265869,-5.509950160980225,-5.545050144195557
1781033871014751500,13.61775146484375,7.030050277709961,-5.584050178527832,-5.320050239562988
1781033871034261000,13.637260986328124,7.189050197601318,-5.851950168609619,-3.6100502014160156
1781033871053774300,13.6567744140625,7.377000331878662,-6.252000331878662,-1.7890501022338867
1781033871073284900,13.676284912109375,7.597050189971924,-6.781050205230713,0.3769500255584717
1781033871092791800,13.695791748046876,7.7910003662109375,-7.377000331878662,0.7720500230789185
1781033871112294100,13.715294189453125,7.897950172424316,-7.755000591278076,1.0669500827789307
1781033871131798300,13.73479833984375,7.828050136566162,-7.707000255584717,0.9430500268936157
1781033871151305000,13.754304931640625,7.434000492095947,-7.182000160217285,0.5530500411987305
1781033871170813400,13.7738134765625,5.707050323486328,-5.403000354766846,0.5940000414848328
1781033871190322700,13.79332275390625,5.182950019836426,-3.748950242996216,2.863950252532959
1781033871209830700,13.81283056640625,3.3510000705718994,-3.5179500579833984,3.364950180053711
1781033871229336600,13.832336669921874,3.136050224304199,-3.2790000438690186,4.009050369262695
1781033871248845800,13.851845703125,2.9290502071380615,-3.097050189971924,4.387950420379639
1781033871268355600,13.87135546875,2.686950206756592,-3.0109500885009766,4.477950096130371
1781033871287859200,13.890859130859376,2.63700008392334,-3.0960001945495605,4.590000152587891
1781033871307362800,13.91036279296875,2.8690500259399414,-3.2809500694274902,4.795050144195557
1781033871326873300,13.929873291015625,3.28695011138916,-3.646050214767456,5.0560503005981445
1781033871346386000,13.949385986328124,3.730950117111206,-5.548050403594971,5.55495023727417
1781033871365896000,13.96889599609375,4.198950290679932,-6.007950305938721,7.099050521850586
1781033871385400000,13.988400146484375,4.780050277709961,-7.647000312805176,7.4569501876831055
1781033871404898300,14.007898193359376,6.418950080871582,-8.188050270080566,7.729950428009033
1781033871424403200,14.0274033203125,6.949050426483154,-9.688950538635254,7.684050559997559
1781033871443915500,14.04691552734375,7.579050540924072,-10.020000457763672,7.260000228881836
1781033871463424000,14.066424072265624,8.19795036315918,-10.155000686645508,5.4720001220703125
1781033871482932000,14.085931884765625,8.641950607299805,-10.17300033569336,5.197050094604492
1781033871502439700,14.105439697265625,8.854050636291504,-10.03695011138916,5.11305046081543
1781033871521948200,14.1249482421875,8.623050689697266,-9.711000442504883,5.347050189971924
1781033871541459000,14.144458984375,6.874050140380859,-9.466950416564941,5.802000045776367
1781033871560967200,14.16396728515625,6.532050132751465,-9.2160005569458,7.483050346374512
1781033871580473900,14.183473876953125,6.312000274658203,-8.88900089263916,7.279950141906738
1781033871599984400,14.202984375,6.505950450897217,-8.676000595092773,6.748950481414795
1781033871619495000,14.222494873046875,6.913050174713135,-8.782950401306152,6.355050086975098
1781033871639002400,14.24200244140625,7.234950542449951,-9.183000564575195,6.352050304412842
1781033871658510800,14.2615107421875,7.260000228881836,-9.607950210571289,6.831000328063965
1781033871678022000,14.28102197265625,7.16295051574707,-9.82395076751709,8.575950622558594
1781033871697536000,14.300535888671876,7.206000328063965,-9.60105037689209,9.070050239562988
1781033871717048000,14.320048095703125,7.225050449371338,-9.055950164794922,9.44895076751709
1781033871736555300,14.33955517578125,7.129950523376465,-8.458050727844238,9.600000381469727
1781033871756064300,14.359064208984375,6.8710503578186035,-6.715050220489502,9.379050254821777
1781033871775570700,14.37857080078125,6.370050430297852,-6.349950313568115,7.576050281524658
1781033871795077600,14.39807763671875,5.881050109863281,-4.7719502449035645,7.078050136566162
1781033871814587600,14.417587646484375,5.304000377655029,-3.139050245285034,5.217000484466553
1781033871834098000,14.437097900390626,3.616950273513794,-2.6200501918792725,4.839000225067139
1781033871853609000,14.45660888671875,3.1660501956939697,-2.2890000343322754,4.756050109863281
1781033871873124000,14.4761240234375,2.6740500926971436,-2.143050193786621,4.915950298309326
1781033871892641500,14.4956416015625,2.4649500846862793,-2.1780002117156982,5.142000198364258
1781033871912158200,14.515158203125,2.69100022315979,-2.2450501918792725,5.287950038909912
1781033871931670300,14.534670166015625,3.181950092315674,-2.3449501991271973,5.221950054168701
1781033871951173000,14.554173095703124,3.736950159072876,-2.5830001831054688,4.99500036239624
1781033871970683600,14.57368359375,4.215000152587891,-3.0169501304626465,4.618950366973877
1781033871990198800,14.59319873046875,4.41795015335083,-4.839000225067139,4.162050247192383
1781033872009708000,14.6127080078125,4.507050037384033,-5.158950328826904,3.646050214767456
1781033872029216000,14.632216064453125,4.699050426483154,-5.736000061035156,2.1700501441955566
1781033872048727300,14.651727294921875,4.921950340270996,-6.388050079345703,0.453000009059906
1781033872068237000,14.671237060546876,5.407950401306152,-6.919050216674805,-1.3489500284194946
1781033872087752000,14.690751953125,5.995950222015381,-7.219050407409668,-3.205050230026245
1781033872107272700,14.710272705078125,6.325050354003906,-7.353000164031982,-3.52905011177063
1781033872126790700,14.729790771484375,6.487950325012207,-7.34505033493042,-3.838050127029419
1781033872146302700,14.749302734375,6.544950485229492,-7.147050380706787,-4.029000282287598
1781033872165816600,14.768816650390624,6.568050384521484,-6.76200008392334,-4.25100040435791
1781033872185335600,14.78833544921875,6.694950103759766,-6.364050388336182,-4.759050369262695
1781033872204851500,14.8078515625,6.8359503746032715,-6.03795051574707,-6.552000522613525
1781033872224364500,14.827364501953125,6.874050140380859,-5.962050437927246,-6.9970502853393555
1781033872243878000,14.8468779296875,6.991950511932373,-6.1080002784729,-6.990000247955322
1781033872263390200,14.86639013671875,7.291950225830078,-6.277050495147705,-4.663050174713135
1781033872282903300,14.8859033203125,7.597050189971924,-6.514050483703613,-2.0560500621795654
1781033872302419700,14.905419677734375,7.987950325012207,-6.796050548553467,-0.2970000207424164
1781033872321941000,14.92494091796875,8.14905071258545,-7.012950420379639,-0.1279500126838684
1781033872341460200,14.944460205078125,7.944000244140625,-7.033050537109375,-0.25394999980926514
1781033872360973800,14.963973876953125,7.383000373840332,-6.904050350189209,-0.6400500535964966
1781033872380482600,14.983482666015625,5.686950206756592,-6.492000102996826,-0.8790000677108765
1781033872399994400,15.002994384765625,5.3580002784729,-4.573050022125244,-0.6790500283241272
1781033872419507200,15.022507080078125,5.104050159454346,-4.23900032043457,0.9150000214576721
1781033872439022800,15.04202294921875,4.929000377655029,-3.7189502716064453,2.7270002365112305
1781033872458540000,15.0615400390625,4.633950233459473,-3.3930001258850098,3.2539501190185547
1781033872478049500,15.081049560546875,4.138050079345703,-3.409050226211548,3.595050096511841
1781033872497558300,15.100558349609376,3.541950225830078,-3.690000057220459,3.5629501342773438
1781033872517072000,15.12007177734375,3.1530001163482666,-3.9790501594543457,3.3790502548217773
1781033872536586500,15.13958642578125,3.2380502223968506,-4.129050254821777,3.4300501346588135
1781033872556099800,15.159099853515626,3.579000234603882,-4.402050018310547,5.008950233459473
1781033872575610000,15.178610107421875,5.151000022888184,-4.912950038909912,5.5219502449035645
1781033872595115800,15.19811572265625,5.602950096130371,-6.427950382232666,7.051050186157227
1781033872614630000,15.2176298828125,6.208950519561768,-6.955050468444824,7.207050323486328
1781033872634148000,15.237148193359374,6.808050155639648,-7.573950290679932,7.063950538635254
1781033872653665500,15.25666552734375,7.15500020980835,-9.079050064086914,6.478050231933594
1781033872673183200,15.276183349609376,7.515000343322754,-9.631950378417969,5.893950462341309
1781033872692696600,15.295696533203126,8.008049964904785,-9.91395092010498,5.509050369262695
1781033872712206600,15.31520654296875,8.60205078125,-9.592050552368164,4.98105001449585
1781033872731716900,15.334716796875,10.23705005645752,-9.049050331115723,4.558050155639648
1781033872751231700,15.354231689453124,10.015950202941895,-7.566000461578369,4.462950229644775
1781033872770748400,15.37374853515625,9.403950691223145,-7.789050579071045,4.305000305175781
1781033872790260500,15.393260498046875,7.909050464630127,-8.416950225830078,4.375050067901611
1781033872809770500,15.4127705078125,7.534950256347656,-8.985000610351562,4.348050117492676
1781033872829278000,15.43227783203125,7.462950229644775,-9.298050880432129,2.4840002059936523
1781033872848784000,15.451783935546874,7.6050004959106445,-9.32295036315918,2.118000030517578
1781033872868292000,15.4712919921875,7.744950294494629,-9.445950508117676,1.7509500980377197
1781033872887803400,15.490803466796875,7.804050445556641,-9.67905044555664,1.8049501180648804
1781033872907317200,15.510317138671875,7.849950313568115,-9.909000396728516,2.2680001258850098
1781033872926836000,15.5298359375,8.092950820922852,-10.000950813293457,3.967050075531006
1781033872946350800,15.549350830078126,8.329950332641602,-9.811050415039062,5.718000411987305
1781033872965859600,15.568859619140625,8.530050277709961,-9.306000709533691,6.115950107574463
1781033872985363500,15.588363525390625,8.454000473022461,-7.63800048828125,7.669050216674805
1781033873004865800,15.60786572265625,8.050050735473633,-7.330050468444824,8.146950721740723
1781033873024375000,15.627375,6.435000419616699,-6.745050430297852,8.581950187683105
1781033873043882000,15.646882080078125,6.20205020904541,-6.5370001792907715,8.719950675964355
1781033873063386600,15.66638671875,5.94195032119751,-6.594000339508057,8.434050559997559
1781033873082895000,15.68589501953125,5.547000408172607,-6.139050483703613,6.615000247955322
1781033873102400800,15.70540087890625,5.1469502449035645,-4.452000141143799,4.8510003089904785
1781033873121906700,15.72490673828125,4.713000297546387,-2.616000175476074,4.597949981689453
1781033873141413400,15.744413330078125,3.2280001640319824,-2.410950183868408,4.522950172424316
1781033873160924200,15.763924072265626,3.0520501136779785,-2.5360500812530518,4.78695011138916
1781033873180437000,15.78343701171875,3.1840500831604004,-2.980950117111206,5.089950084686279
1781033873199947500,15.802947509765625,3.4560000896453857,-3.2629501819610596,5.118000030517578
1781033873219459800,15.8224599609375,3.9379501342773438,-3.340050220489502,4.915950298309326
1781033873238971000,15.841970947265626,4.462950229644775,-3.495000123977661,4.471050262451172
1781033873258478000,15.86147802734375,4.776000022888184,-3.7549502849578857,2.6929500102996826
1781033873277985300,15.8809853515625,5.056950092315674,-4.108050346374512,2.2260000705718994
1781033873297496000,15.90049609375,5.319000244140625,-4.573950290679932,0.4549500346183777
1781033873317007000,15.920007080078125,5.442000389099121,-6.235950469970703,-0.07605000585317612
1781033873336519400,15.93951953125,5.626950263977051,-6.51300048828125,-1.8850500583648682
1781033873356037600,15.95903759765625,6.004950523376465,-6.841950416564941,-2.2930500507354736
1781033873375553300,15.97855322265625,6.609000205993652,-6.922950267791748,-3.828000068664551
1781033873395065300,15.9980654296875,8.266950607299805,-6.660000324249268,-4.284000396728516
1781033873414579200,16.0175791015625,8.614950180053711,-6.186000347137451,-4.7820000648498535
1781033873434095900,16.037095947265627,8.734050750732422,-5.593950271606445,-5.26200008392334
1781033873453608700,16.056608642578126,8.63895034790039,-5.0370001792907715,-5.691000461578369
1781033873473114400,16.0761142578125,8.319000244140625,-4.633950233459473,-5.9239501953125
1781033873492622600,16.09562255859375,7.9069504737854,-4.336950302124023,-5.842050075531006
1781033873512136400,16.115136474609375,7.7410502433776855,-4.203000068664551,-5.383050441741943
1781033873531652400,16.13465234375,7.809000492095947,-4.108050346374512,-3.888000249862671
1781033873551167000,16.1541669921875,8.085000038146973,-4.146000385284424,-2.2860000133514404
1781033873570678000,16.173677978515624,8.379000663757324,-4.387050151824951,-1.8649500608444214
1781033873590188300,16.193188232421875,8.494050025939941,-4.816050052642822,-1.2750000953674316
1781033873609701400,16.212701416015626,8.326050758361816,-5.3959503173828125,-0.9220500588417053
1781033873629217300,16.23221728515625,8.08395004272461,-5.755950450897217,-0.9640500545501709
1781033873648732000,16.25173193359375,7.732950210571289,-5.700000286102295,-1.1239500045776367
1781033873668240400,16.271240478515626,7.222950458526611,-5.2860002517700195,-0.9049500226974487
1781033873687746800,16.290746826171876,6.640050411224365,-4.660950183868408,0.7669500112533569
1781033873707255800,16.310255859375,4.960050106048584,-4.107000350952148,2.4970500469207764
1781033873726766000,16.32976611328125,4.623000144958496,-3.8230502605438232,2.9040000438690186
1781033873746277000,16.349277099609374,4.318050384521484,-3.7710001468658447,3.091050148010254
1781033873765788200,16.3687880859375,4.198050022125244,-3.9030001163482666,3.0829501152038574
1781033873785297400,16.38829736328125,4.393050193786621,-4.171950340270996,3.2119500637054443
1781033873804804600,16.4078046875,4.744050025939941,-4.461000442504883,3.5220000743865967
1781033873824312600,16.4273125,5.217000484466553,-4.777950286865234,4.009950160980225
1781033873843826000,16.446825927734373,5.773050308227539,-5.083950042724609,4.5859503746032715
1781033873863336700,16.466336669921876,6.258000373840332,-5.359050273895264,5.047050476074219
1781033873882846700,16.4858466796875,6.565950393676758,-5.686950206756592,5.341050148010254
1781033873902360800,16.50536083984375,6.843000411987305,-6.175050258636475,5.467050075531006
1781033873921872600,16.52487255859375,7.341000556945801,-7.71405029296875,5.425050258636475
1781033873941384200,16.54438427734375,9.211950302124023,-8.200950622558594,5.137950420379639
1781033873960899300,16.5638994140625,9.523050308227539,-8.506050109863281,3.495000123977661
1781033873980414700,16.583414794921875,9.979050636291504,-8.445000648498535,1.7920501232147217
1781033873999930000,16.60293017578125,10.449000358581543,-8.107950210571289,1.4850000143051147
1781033874019443000,16.62244287109375,10.612950325012207,-7.833000183105469,1.3230000734329224
1781033874038951200,16.641951171875,10.432050704956055,-7.945050239562988,1.527000069618225
1781033874058460200,16.661460205078125,10.16100025177002,-8.251049995422363,3.1690502166748047
1781033874077978000,16.68097802734375,9.577950477600098,-8.3899507522583,3.1840500831604004
1781033874097500200,16.700500244140624,8.235000610351562,-8.34000015258789,2.9700000286102295
1781033874117012200,16.72001220703125,8.377050399780273,-8.212950706481934,2.659050226211548
1781033874136518100,16.73951806640625,8.647050857543945,-8.166000366210938,2.3839499950408936
1781033874156028200,16.759028076171877,9.058050155639648,-8.278950691223145,2.320050001144409
1781033874175536600,16.77853662109375,9.583050727844238,-8.611050605773926,2.5189502239227295
1781033874195041300,16.798041259765625,10.027950286865234,-9.076950073242188,3.0840001106262207
1781033874214548700,16.817548828125,10.362000465393066,-9.295050621032715,5.008050441741943
1781033874234058000,16.83705810546875,10.366050720214844,-9.046050071716309,6.658050537109375
1781033874253569300,16.8565693359375,10.057950019836426,-6.757050514221191,7.012050151824951
1781033874273078300,16.876078369140625,7.927950382232666,-4.974000453948975,7.483050346374512
1781033874292584700,16.895584716796876,7.381950378417969,-4.713000297546387,7.903050422668457
1781033874312093400,16.915093505859375,5.9239501953125,-4.564050197601318,8.193000793457031
1781033874331602200,16.934602294921874,5.514000415802002,-4.426949977874756,7.942050457000732
1781033874351110700,16.954110595703124,5.028000354766846,-4.14900016784668,6.20805025100708
1781033874370620000,16.973619873046875,4.582050323486328,-3.709050178527832,4.7220001220703125
1781033874390126000,16.9931259765625,4.089000225067139,-3.207000255584717,4.465950012207031
1781033874409631500,17.012631591796875,3.766050100326538,-2.9130001068115234,4.636050224304199
1781033874429138400,17.032138427734374,3.741000175476074,-2.914950132369995,5.14995002746582
1781033874448647200,17.051647216796876,3.81600022315979,-3.1090500354766846,5.493000030517578
1781033874468160300,17.07116015625,3.922950267791748,-3.3070502281188965,5.296050071716309
1781033874487673000,17.090673095703124,4.069950103759766,-3.4650001525878906,3.4990501403808594
1781033874507179300,17.11017919921875,4.249950408935547,-3.7230002880096436,3.0640501976013184
1781033874526683100,17.12968310546875,4.50600004196167,-4.168950080871582,1.5049500465393066
1781033874546187800,17.149187744140626,4.8319501876831055,-5.818050384521484,-0.3349500298500061
1781033874565696300,17.1686962890625,5.36400032043457,-6.037050247192383,-0.7560000419616699
1781033874585212200,17.188212158203125,7.068000316619873,-6.3409504890441895,-1.4029500484466553
1781033874604729600,17.2077294921875,7.294950485229492,-6.493950366973877,-2.0089499950408936
1781033874624244500,17.227244384765626,7.629000186920166,-6.361950397491455,-2.4760501384735107
1781033874643756300,17.24675634765625,7.764000415802002,-5.994000434875488,-4.165950298309326
1781033874663266300,17.266266357421873,7.680000305175781,-5.533950328826904,-5.848950386047363
1781033874682773200,17.285773193359375,7.588950157165527,-5.236050128936768,-6.228000164031982
1781033874702278100,17.305278076171874,7.627950191497803,-5.260050296783447,-6.454950332641602
1781033874721787600,17.32478759765625,8.0149507522583,-5.4370503425598145,-6.28095006942749
1781033874741297200,17.344297119140624,9.6670503616333,-5.701050281524658,-4.491000175476074
1781033874760798000,17.3637978515625,10.060050010681152,-5.9239501953125,-4.06695032119751
1781033874780298000,17.383298095703125,10.350000381469727,-6.082050323486328,-3.4680001735687256
1781033874799798000,17.402798095703126,10.336050033569336,-6.301950454711914,-1.9290001392364502
1781033874819300000,17.422300048828124,9.78795051574707,-6.4519500732421875,-1.5070500373840332
1781033874838808300,17.441808349609374,8.034000396728516,-6.364050388336182,-1.2229501008987427
1781033874858317300,17.4613173828125,6.3760504722595215,-5.968950271606445,-1.1809500455856323
1781033874877826000,17.480825927734376,5.953050136566162,-5.386050224304199,-1.1080501079559326
1781033874897334300,17.500334228515626,5.371950149536133,-4.743000030517578,-0.7510500550270081
1781033874916846000,17.51984619140625,4.941000461578369,-4.180950164794922,1.141950011253357
1781033874936359400,17.539359375,4.726950168609619,-3.829050064086914,1.5910500288009644
1781033874955866600,17.55886669921875,4.642050266265869,-3.7110002040863037,3.055950164794922
1781033874975375400,17.578375244140624,4.600950241088867,-3.7639501094818115,3.430950164794922
1781033874994889500,17.597889404296875,4.420950412750244,-3.9210002422332764,3.8680500984191895
1781033875014398500,17.6173984375,3.96405029296875,-4.156050205230713,4.201050281524658
1781033875033901000,17.636901123046876,3.559950113296509,-4.483950138092041,4.350000381469727
1781033875053407500,17.656407470703126,3.526050090789795,-4.963950157165527,4.405050277709961
1781033875072917000,17.6759169921875,3.931950092315674,-6.733950138092041,4.591950416564941
1781033875092423200,17.695423095703124,4.540950298309326,-7.117950439453125,4.9170002937316895
1781033875111931400,17.714931396484374,4.996950149536133,-8.704050064086914,5.350050449371338
1781033875131441200,17.734441162109373,5.178000450134277,-9.319950103759766,5.805000305175781
1781033875150949400,17.753949462890624,5.247000217437744,-10.807050704956055,6.067050457000732
1781033875170458000,17.7734580078125,5.607000350952148,-11.008050918579102,6.238950252532959
1781033875189969000,17.792968994140626,7.294050216674805,-10.819950103759766,6.1080002784729
1781033875209478100,17.81247802734375,7.513950347900391,-10.221000671386719,4.341000080108643
1781033875228981800,17.831981689453126,7.950000286102295,-9.669000625610352,3.89805006980896
1781033875248487200,17.851487060546877,7.972050189971924,-9.34695053100586,2.4379501342773438
1781033875267999500,17.87099951171875,7.8100504875183105,-9.30405044555664,2.3140501976013184
1781033875287513900,17.890513916015625,7.4569501876831055,-9.42495059967041,2.557950019836426
1781033875307025700,17.910025634765624,6.055050373077393,-9.576000213623047,3.100950241088867
1781033875326537700,17.929537841796876,6.0319504737854,-9.583050727844238,3.4930500984191895
1781033875346055000,17.949054931640624,6.121950149536133,-9.676050186157227,3.6120002269744873
1781033875365572900,17.96857275390625,6.526950359344482,-9.985950469970703,3.6720001697540283
1781033875404595500,18.007595458984376,7.318050384521484,-10.6399507522583,4.2019500732421875
1781033875424109000,18.027109130859376,7.4760003089904785,-10.825950622558594,6.069000244140625
1781033875443625700,18.046625732421877,7.417050361633301,-10.810050964355469,7.902000427246094
1781033875463141600,18.0661416015625,7.288050174713135,-10.609050750732422,8.181000709533691
1781033875482658300,18.085658203125,7.095000267028809,-10.167000770568848,8.397000312805176
1781033875502166800,18.105166748046877,6.822000503540039,-8.401050567626953,8.194050788879395
1781033875521672400,18.12467236328125,6.454050540924072,-7.948950290679932,7.597050189971924
1781033875541181000,18.144180908203126,5.925000190734863,-6.057000160217285,6.034050464630127
1781033875560691200,18.163691162109377,5.460000038146973,-4.051949977874756,5.82105016708374
1781033875580204000,18.1832041015625,4.885950088500977,-3.6690001487731934,5.959050178527832
1781033875599720700,18.202720703125,3.340050220489502,-3.199050188064575,6.532950401306152
1781033875619234600,18.222234619140625,3.1020002365112305,-2.9250001907348633,7.966050148010254
1781033875638743000,18.241742919921876,2.9040000438690186,-2.751000165939331,7.756950378417969
1781033875658253600,18.261253662109375,2.9440500736236572,-2.700000047683716,6.112950325012207
1781033875677760500,18.280760498046874,3.2149500846862793,-2.806950092315674,4.075050354003906
1781033875697267500,18.300267333984376,3.6910502910614014,-2.9359500408172607,2.2710001468658447
1781033875716777500,18.319777587890623,4.1509504318237305,-3.1500000953674316,1.7290500402450562
1781033875736285200,18.33928515625,4.552950382232666,-3.561000108718872,1.2400500774383545
1781033875755789000,18.3587890625,4.831050395965576,-4.123050212860107,0.7999500632286072
1781033875775296800,18.378296875,5.002050399780273,-5.893950462341309,0.3859500288963318
1781033875794804700,18.3978046875,5.278050422668457,-6.157050132751465,-0.10395000129938126
1781033875814311200,18.417311279296875,5.776050090789795,-6.463950157165527,-1.6819500923156738
1781033875833816800,18.43681689453125,7.242000579833984,-6.559950351715088,-3.3409502506256104
1781033875853319700,18.456319580078127,7.782000541687012,-6.237000465393066,-5.331000328063965
1781033875872827100,18.4758271484375,8.383049964904785,-5.662050247192383,-6.943050384521484
1781033875892338400,18.49533837890625,8.689050674438477,-4.087049961090088,-7.3309502601623535
1781033875911847200,18.51484716796875,8.845050811767578,-2.4660000801086426,-7.473000526428223
1781033875931354400,18.534354248046874,8.836950302124023,-2.1940500736236572,-7.297950267791748
1781033875950866400,18.553866455078126,8.626049995422363,-1.8600001335144043,-6.939000129699707
1781033875970380000,18.573380126953126,8.287050247192383,-1.8259501457214355,-6.543000221252441
1781033875989892400,18.592892333984373,7.884000301361084,-2.2729501724243164,-6.211950302124023
1781033876009403400,18.6124033203125,7.618950366973877,-4.033950328826904,-5.644050121307373
1781033876028908800,18.63190869140625,7.612050533294678,-4.6369500160217285,-3.7960500717163086
1781033876048410000,18.65141015625,7.9770002365112305,-6.226950168609619,-1.9210500717163086
1781033876067914800,18.670914794921874,8.422950744628906,-6.357000350952148,-1.606950044631958
1781033876087421700,18.690421630859376,8.563950538635254,-6.319950103759766,-1.363050103187561
1781033876106929400,18.709929443359375,8.3100004196167,-6.064950466156006,-1.396950125694275
1781033876126440200,18.729440185546874,6.600000381469727,-5.451000213623047,-1.4929500818252563
1781033876145946600,18.748946533203124,4.753950119018555,-4.807950019836426,-1.210050106048584
1781033876165451300,18.768451171875,3.0040502548217773,-4.164000034332275,0.30105000734329224
1781033876184960300,18.787960205078125,2.67900013923645,-3.7270500659942627,1.8690000772476196
1781033876204473000,18.80747314453125,2.454000234603882,-3.7230002880096436,3.487950086593628
1781033876223981000,18.82698095703125,2.4529500007629395,-3.891000270843506,3.8389501571655273
1781033876243488500,18.846488525390626,2.7109501361846924,-4.168950080871582,4.072050094604492
1781033876263001000,18.8660009765625,3.120000123977661,-4.615050315856934,4.414050102233887
1781033876282518300,18.885518310546875,3.318000078201294,-5.170050144195557,4.888950347900391
1781033876302037200,18.905037353515624,3.2779500484466553,-6.840000152587891,6.9810004234313965
1781033876321550600,18.924550537109376,3.2179501056671143,-7.384950160980225,7.482000350952148
1781033876341060900,18.944060791015627,3.318000078201294,-7.864950180053711,8.116050720214844
1781033876360573700,18.96357373046875,3.7600502967834473,-8.332950592041016,8.608050346374512
1781033876380088300,18.98308837890625,5.275050163269043,-8.713950157165527,8.709000587463379
1781033876399595500,19.002595458984374,5.473050117492676,-10.357950210571289,8.323050498962402
1781033876419102200,19.022102294921876,5.463000297546387,-10.488000869750977,7.833000183105469
1781033876438613800,19.04161376953125,5.263050079345703,-10.621950149536133,7.410000324249268
1781033876458126000,19.0611259765625,5.029950141906738,-10.987950325012207,7.188000202178955
1781033876477642500,19.080642578125,4.870950222015381,-11.119950294494629,7.07205057144165
1781033876497159400,19.100159423828124,4.897050380706787,-11.269950866699219,6.765000343322754
1781033876516671200,19.119671142578124,5.112000465393066,-11.325000762939453,4.8949503898620605
1781033876536179000,19.139178955078126,5.260050296783447,-11.043000221252441,4.573050022125244
1781033876555684400,19.158684326171876,5.4910502433776855,-10.85205078125,4.273950099945068
1781033876575195600,19.178195556640624,5.728050231933594,-10.870950698852539,4.285950183868408
1781033876594709000,19.197708984375,5.974950313568115,-10.996950149536133,6.061950206756592
1781033876614220800,19.217220703125,6.277050495147705,-11.182950973510742,6.57705020904541
1781033876633737000,19.236737060546876,6.655950546264648,-11.188050270080566,8.425950050354004
1781033876653246500,19.25624658203125,6.823950290679932,-10.831950187683105,8.563950538635254
1781033876672749300,19.275749267578124,7.0600504875183105,-10.366050720214844,8.233050346374512
1781033876692253400,19.29525341796875,7.449000358581543,-9.867000579833984,7.642950534820557
1781033876711761700,19.31476171875,7.531050205230713,-8.07705020904541,6.183000087738037
1781033876731271700,19.334271728515624,7.3470001220703125,-7.699050426483154,6.373050212860107
1781033876750780000,19.35377978515625,5.508000373840332,-7.111050128936768,6.733950138092041
1781033876770290700,19.373290771484374,3.5269501209259033,-5.457000255584717,6.933000564575195
1781033876789801000,19.392801025390625,3.1969501972198486,-3.730950117111206,6.9649505615234375
1781033876809311000,19.41231103515625,3.1150500774383545,-3.4069502353668213,7.108050346374512
1781033876828821800,19.43182177734375,3.547950267791748,-2.9280002117156982,7.384950160980225
1781033876848332800,19.451332763671875,3.9100501537323,-2.407050132751465,7.3750505447387695
1781033876867844900,19.470844970703126,4.075050354003906,-2.1000001430511475,5.64300012588501
1781033876887359000,19.49035888671875,4.111950397491455,-2.095950126647949,3.3420002460479736
1781033876906873600,19.50987353515625,4.156050205230713,-2.296950101852417,1.7160000801086426
1781033876926386400,19.529386474609375,4.222949981689453,-2.5570502281188965,1.3570500612258911
1781033876945893600,19.5488935546875,4.288050174713135,-2.9760000705718994,0.7810500264167786
1781033876965398800,19.568398681640623,4.384050369262695,-3.5659501552581787,-0.9829500317573547
1781033876984908800,19.58790869140625,4.558050155639648,-4.051050186157227,-1.281000018119812
1781033877004422700,19.607422607421874,4.872000217437744,-4.576050281524658,-1.755000114440918
1781033877023937500,19.6269375,5.398050308227539,-5.1060004234313965,-2.284050226211548
1781033877043451100,19.646451171875,7.021050453186035,-5.484000205993652,-3.96405029296875
1781033877062962700,19.665962646484374,7.555050373077393,-5.56095027923584,-6.078000068664551
1781033877082478300,19.685478271484374,9.676050186157227,-5.16795015335083,-6.595950126647949
1781033877101998000,19.704998046875,10.254000663757324,-3.6720001697540283,-8.335050582885742
1781033877121513700,19.724513671875,10.468050956726074,-3.1930501461029053,-8.749950408935547
1781033877141026000,19.744026123046876,10.372950553894043,-2.7049500942230225,-9.307050704956055
1781033877160545800,19.7635458984375,10.068000793457031,-2.3550000190734863,-9.744000434875488
1781033877180065800,19.783065673828126,8.404050827026367,-2.40405011177063,-9.622050285339355
1781033877199581200,19.802581298828127,6.721050262451172,-4.744050025939941,-6.003000259399414
1781033877219100400,19.822100341796876,6.469950199127197,-6.561000347137451,-1.3650000095367432
1781033877238613800,19.84161376953125,6.342000484466553,-7.011000156402588,0.6409500241279602
1781033877258120000,19.861119873046874,6.454950332641602,-7.546950340270996,1.13100004196167
1781033877277624800,19.880624755859376,6.922950267791748,-7.629000186920166,0.9820500612258911
1781033877297132800,19.9001328125,7.431000232696533,-5.950050354003906,-1.071000099182129
1781033877316645400,19.919645263671875,7.309950351715088,-5.545050144195557,-1.5340501070022583
1781033877336157200,19.9391572265625,6.742950439453125,-3.6720001697540283,-1.1770501136779785
1781033877355668200,19.958668212890625,4.8259501457214355,-3.3000001907348633,0.7960500121116638
1781033877375178800,19.9781787109375,4.486950397491455,-2.931000232696533,2.63100004196167
1781033877394687500,19.9976875,3.9499502182006836,-2.854950189590454,3.2250001430511475
1781033877414196200,20.0171962890625,3.517050266265869,-2.9820001125335693,3.498000144958496
1781033877433711900,20.0367119140625,3.3859500885009766,-3.259050130844116,3.2970001697540283
1781033877453224400,20.056224365234375,3.421950101852417,-3.6750001907348633,2.962050199508667
1781033877472729900,20.075729736328125,3.397050142288208,-5.416050434112549,3.0870001316070557
1781033877492240000,20.095239990234376,3.4549500942230225,-5.734050273895264,4.879950046539307
1781033877511753000,20.1147529296875,3.52305006980896,-7.3470001220703125,7.042050361633301
1781033877531268000,20.13426806640625,3.7570502758026123,-7.689000129699707,8.49000072479248
1781033877550787300,20.153787353515625,4.273050308227539,-8.181000709533691,8.779050827026367
1781033877570305300,20.17330517578125,6.028950214385986,-8.599050521850586,8.770050048828125
1781033877589818400,20.192818359375,6.508950233459473,-8.829000473022461,8.392950057983398
1781033877609326800,20.212326904296877,7.050000190734863,-8.964000701904297,7.848000526428223
1781033877628837400,20.23183740234375,7.288050174713135,-9.375,7.201950550079346
1781033877648349400,20.251349365234375,7.009050369262695,-11.059950828552246,6.59505033493042
1781033877667856600,20.270856689453126,6.766050338745117,-11.370000839233398,5.053950309753418
1781033877687360000,20.290360107421876,6.886050224304199,-11.268000602722168,3.055950164794922
1781033877706864000,20.309864013671874,7.1419501304626465,-10.803000450134277,2.698050022125244
1781033877726373600,20.32937353515625,7.392000198364258,-10.243950843811035,2.467050075531006
1781033877745881000,20.348881103515627,7.266000270843506,-10.045950889587402,2.7910501956939697
1781033877765389000,20.36838916015625,6.771000385284424,-10.252950668334961,4.3309502601623535
1781033877784897800,20.387897705078124,6.403050422668457,-10.585050582885742,4.593000411987305
1781033877804406300,20.40740625,6.547950267791748,-10.608000755310059,4.534049987792969
1781033877823914200,20.426914306640626,6.760050296783447,-10.456950187683105,4.270050048828125
1781033877843422000,20.446421875,7.023000240325928,-10.498050689697266,4.230000019073486
1781033877862930700,20.4659306640625,7.1770501136779785,-10.47705078125,4.561950206756592
1781033877882439200,20.485439208984374,7.243950366973877,-10.297050476074219,4.975950241088867
1781033877901949400,20.504949462890625,7.350000381469727,-9.82395076751709,5.506050109863281
1781033877921462800,20.524462890625,7.213950157165527,-7.6810503005981445,6.141000270843506
1781033877940977000,20.543976806640625,6.679050445556641,-5.668050289154053,7.777950286865234
1781033877960486400,20.563486328125,4.264950275421143,-5.215050220489502,9.873000144958496
1781033877979992300,20.582992431640626,3.988950252532959,-6.754950523376465,10.087050437927246
1781033877999501600,20.60250146484375,3.8010001182556152,-6.925050258636475,9.72195053100586
1781033878019012600,20.6220126953125,3.6379501819610596,-6.474000453948975,6.02400016784668
1781033878038522400,20.6415224609375,4.069950103759766,-4.423050403594971,3.976950168609619
1781033878058034200,20.6610341796875,4.038000106811523,-2.076000213623047,3.973950147628784
1781033878077543700,20.680543701171874,3.7219502925872803,-1.6990500688552856,4.488000392913818
1781033878097051600,20.7000517578125,3.640050172805786,-2.0940001010894775,6.241950511932373
1781033878116567000,20.719567138671874,3.751950263977051,-3.610950231552124,6.288000106811523
1781033878136083500,20.73908349609375,3.8929502964019775,-3.6600000858306885,4.14900016784668
1781033878155594000,20.758593994140625,4.228950023651123,-3.6229500770568848,2.556000232696533
1781033878175104300,20.778104248046876,4.656000137329102,-3.808950185775757,2.2170000076293945
1781033878194613200,20.79761328125,4.8919501304626465,-4.25100040435791,0.4729500114917755
1781033878214120400,20.817120361328126,4.933950424194336,-4.819050312042236,-1.0999500751495361
1781033878233626600,20.836626708984376,4.915050029754639,-6.361950397491455,-2.8600502014160156
1781033878253133300,20.85613330078125,4.978050231933594,-6.753000259399414,-3.330000162124634
1781033878272637400,20.875637451171876,5.331000328063965,-7.147050380706787,-3.778050184249878
1781033878292144000,20.89514404296875,6.946950435638428,-7.401000499725342,-3.9120001792907715
1781033878311659500,20.914659423828127,7.474950313568115,-7.383000373840332,-3.778050184249878
1781033878331174700,20.934174560546875,7.963950157165527,-7.201950550079346,-3.495000123977661
1781033878350685000,20.953684814453126,8.215950012207031,-7.0249505043029785,-3.249000072479248
1781033878370188800,20.973188720703124,8.176050186157227,-6.916950225830078,-3.118950128555298
1781033878389694000,20.99269384765625,8.122050285339355,-6.843000411987305,-3.2119500637054443
1781033878409204500,21.01220458984375,8.079000473022461,-6.646050453186035,-3.592050075531006
1781033878428713200,21.031713134765624,8.056950569152832,-6.394050121307373,-4.074000358581543
1781033878448220400,21.051220458984375,7.999050617218018,-6.2410502433776855,-4.222050189971924
1781033878467731500,21.0707314453125,7.849950313568115,-6.1870503425598145,-3.751950263977051
1781033878487242000,21.090241943359374,7.746000289916992,-6.322050094604492,-1.6200001239776611
1781033878506753800,21.10975390625,7.482000350952148,-6.444000244140625,-1.144950032234192
1781033878526266400,21.129266357421876,7.087050437927246,-6.456000328063965,-1.0870500802993774
1781033878545780000,21.148780029296876,6.687000274658203,-6.22005033493042,-1.3680000305175781
1781033878565294800,21.168294921875,6.3919501304626465,-5.623950481414795,-1.5559500455856323
1781033878584804000,21.18780419921875,6.1650004386901855,-4.129950046539307,0.453000009059906
1781033878604310800,21.207310791015626,5.914050102233887,-3.873000144958496,2.940000057220459
1781033878623816400,21.22681640625,5.524050235748291,-3.637050151824951,3.3510000705718994
1781033878643330300,21.246330322265624,4.88700008392334,-3.595050096511841,3.582000255584717
1781033878662849800,21.265849853515626,4.243950366973877,-3.6630001068115234,3.3790502548217773
1781033878682367700,21.28536767578125,3.7230002880096436,-3.727950096130371,2.9790000915527344
1781033878701882400,21.30488232421875,3.3829500675201416,-3.888000249862671,3.00600004196167
1781033878721395000,21.32439501953125,3.1500000953674316,-4.297950267791748,5.049000263214111
1781033878740907500,21.343907470703126,3.078000068664551,-5.7960004806518555,6.7699503898620605
1781033878760418300,21.363418212890625,3.274050235748291,-7.501950263977051,7.2460503578186035
1781033878779921200,21.382921142578127,3.5620501041412354,-7.954950332641602,7.81695032119751
1781033878799425000,21.402425048828125,5.475000381469727,-9.496050834655762,8.158950805664062
1781033878818934800,21.421934814453124,6.015000343322754,-9.727950096130371,8.122050285339355
1781033878838442800,21.44144287109375,7.507050514221191,-9.861000061035156,7.735950469970703
1781033878857947600,21.46094775390625,8.041950225830078,-9.88800048828125,7.350000381469727
1781033878877453600,21.48045361328125,8.194050788879395,-9.754950523376465,7.092000484466553
1781033878896963800,21.4999638671875,7.695000171661377,-9.507000923156738,6.873000144958496
1781033878916475100,21.51947509765625,7.059000492095947,-9.292950630187988,6.6220502853393555
1781033878935984600,21.538984619140624,6.4800004959106445,-9.085050582885742,6.103050231933594
1781033878955496000,21.558495849609375,6.23805046081543,-9.03600025177002,4.396049976348877
1781033878975013000,21.57801318359375,6.382950305938721,-9.222000122070312,3.9880502223968506
1781033878994527200,21.59752734375,6.772950172424316,-9.594000816345215,3.7350001335144043
1781033879014035200,21.61703515625,7.201050281524658,-10.009950637817383,3.8620502948760986
1781033879033542100,21.636542236328125,7.587000370025635,-10.200000762939453,4.293000221252441
1781033879053048600,21.656048583984376,7.819050312042236,-10.188000679016113,4.867950439453125
1781033879072560600,21.675560546875,8.002950668334961,-10.01205062866211,5.47605037689209
1781033879092073200,21.6950732421875,8.380050659179688,-9.861000061035156,7.231050491333008
1781033879111581000,21.714580810546874,8.822999954223633,-9.913050651550293,7.5960001945495605
1781033879131086800,21.7340869140625,9.009000778198242,-9.850050926208496,8.124000549316406
1781033879150594300,21.75359423828125,8.734050750732422,-9.406050682067871,8.431050300598145
1781033879170103000,21.77310302734375,7.171950340270996,-8.98905086517334,8.245050430297852
1781033879189609700,21.792609619140624,5.436000347137451,-7.158000469207764,6.603000164031982
1781033879209121500,21.81212158203125,5.175000190734863,-5.125950336456299,4.41195011138916
1781033879228629200,21.831629150390626,4.998000144958496,-4.687950134277344,3.0430500507354736
1781033879248133400,21.85113330078125,4.738950252532959,-3.1500000953674316,3.20205020904541
1781033879267642400,21.870642333984375,4.42995023727417,-2.9130001068115234,3.639000177383423
1781033879306665000,21.9096650390625,4.6720499992370605,-3.2719502449035645,5.54295015335083
1781033879326167800,21.929167724609375,4.956000328063965,-3.44100022315979,5.347950458526611
1781033879345672000,21.948671875,5.2819504737854,-3.372000217437744,4.783050060272217
1781033879365183500,21.96818359375,5.373000144958496,-3.4650001525878906,3.172950267791748
1781033879384695800,21.98769580078125,5.019000053405762,-3.859950065612793,1.5799500942230225
1781033879404209700,22.007209716796876,4.4239501953125,-5.64300012588501,1.3819500207901
1781033879423722000,22.026721923828124,4.153050422668457,-5.8120503425598145,1.2540000677108765
1781033879443231700,22.046231689453126,4.531050205230713,-5.715000152587891,1.0350000858306885
1781033879462740700,22.06574072265625,6.478050231933594,-3.82200026512146,0.51705002784729
1781033879482250500,22.08525048828125,6.874050140380859,-3.57705020904541,-1.3069500923156738
1781033879501761300,22.10476123046875,6.997950553894043,-3.7380001544952393,-3.0520501136779785
1781033879521269800,22.124269775390626,6.694950103759766,-5.646000385284424,-4.951050281524658
1781033879540777500,22.143777587890625,6.51900053024292,-6.130950450897217,-6.654000282287598
1781033879560286000,22.163285888671876,6.930000305175781,-6.493950366973877,-6.95805025100708
1781033879579796700,22.182796630859375,7.5859503746032715,-6.438000202178955,-7.095000267028809
1781033879599306800,22.202306640625,8.089950561523438,-6.357000350952148,-5.140050411224365
1781033879618811000,22.221810791015624,8.251049995422363,-6.3409504890441895,-3.418950080871582
1781033879638316300,22.24131640625,8.367000579833984,-6.193050384521484,-3.325050115585327
1781033879657824300,22.26082421875,8.44694995880127,-5.925000190734863,-3.5460002422332764
1781033879677334500,22.28033447265625,8.425050735473633,-5.679000377655029,-3.96405029296875
1781033879696845800,22.299845703125,8.320050239562988,-5.577000141143799,-4.093950271606445
1781033879716353800,22.319353759765626,8.196000099182129,-5.535000324249268,-3.6529502868652344
1781033879735862500,22.338862548828125,8.218050003051758,-5.4810004234313965,-1.6170001029968262
1781033879755375000,22.358375,8.245050430297852,-5.431950092315674,0.1270500123500824
1781033879774888400,22.377888427734376,8.112000465393066,-5.454000473022461,0.6289500594139099
1781033879794398200,22.397398193359376,7.678050518035889,-5.527950286865234,0.9780000448226929
1781033879813906200,22.41690625,5.85705041885376,-5.48205041885376,1.0230000019073486
1781033879833415400,22.43641552734375,5.55495023727417,-5.227050304412842,0.984000027179718
1781033879852927700,22.455927734375,4.974000453948975,-4.812000274658203,1.2139500379562378
1781033879872440000,22.475440185546876,4.378050327301025,-4.480950355529785,2.845050096511841
1781033879891951600,22.49495166015625,3.988950252532959,-4.22504997253418,3.0739500522613525
1781033879911460900,22.5144609375,3.8110501766204834,-4.038000106811523,3.2980501651763916
1781033879930971400,22.533971435546874,3.80400013923645,-4.014000415802002,3.457050085067749
1781033879950482400,22.553482421875,3.865950107574463,-4.108950138092041,3.573000192642212
1781033879969991000,22.572990966796876,3.8809502124786377,-4.527000427246094,3.8490002155303955
1781033879989494500,22.59249462890625,4.03695011138916,-6.409050464630127,4.342050075531006
1781033880008996400,22.611996337890623,4.440000057220459,-6.7699503898620605,4.876049995422363
1781033880028503000,22.6315029296875,5.962950229644775,-7.413000583648682,5.398950099945068
1781033880048010000,22.651010009765624,6.505050182342529,-8.005949974060059,5.766000270843506
1781033880067519200,22.670519287109375,7.9830002784729,-8.530050277709961,5.758050441741943
1781033880087029200,22.690029296875,8.17199993133545,-9.096000671386719,5.65500020980835
1781033880106535200,22.70953515625,7.82295036315918,-9.407999992370605,5.509950160980225
1781033880126043000,22.72904296875,6.2220001220703125,-9.574950218200684,5.062950134277344
1781033880145555000,22.748554931640626,6.331050395965576,-9.816000938415527,4.924050331115723
1781033880165067300,22.7680673828125,6.366000175476074,-9.856050491333008,4.855950355529785
1781033880184578300,22.787578369140626,6.5400004386901855,-10.147950172424316,4.495050430297852
1781033880204088000,22.807088134765625,6.95805025100708,-10.518000602722168,4.350000381469727
1781033880223597600,22.82659765625,6.8580002784729,-10.65000057220459,3.931950092315674
1781033880243108000,22.846108154296875,6.900000095367432,-10.669050216674805,2.5980000495910645
1781033880262619600,22.86561962890625,7.105950355529785,-10.552950859069824,2.7120001316070557
1781033880282132200,22.88513232421875,7.138050556182861,-10.56705093383789,3.0810000896453857
1781033880301643000,22.90464306640625,6.990000247955322,-10.563000679016113,4.699950218200684
1781033880321155800,22.92415576171875,6.720000267028809,-10.456050872802734,6.22605037689209
1781033880340664800,22.943664794921876,6.487950325012207,-10.213050842285156,8.211000442504883
1781033880360172500,22.963172607421875,6.388050079345703,-9.772050857543945,8.517000198364258
1781033880379682300,22.982682373046874,6.250950336456299,-9.28695011138916,8.926950454711914
1781033880399189500,23.002189453125,6.046950340270996,-8.905950546264648,9.33495044708252
1781033880418698200,23.0216982421875,5.6770501136779785,-8.716050148010254,9.547950744628906
1781033880438208300,23.041208251953126,5.245050430297852,-8.611050605773926,9.397950172424316
1781033880457716200,23.06071630859375,5.041050434112549,-6.79395055770874,7.365000247955322
1781033880477225700,23.080225830078124,4.786050319671631,-5.049000263214111,5.56695032119751
1781033880496733700,23.099733642578126,4.392000198364258,-4.624950408935547,5.338950157165527
1781033880516237300,23.1192373046875,3.907050132751465,-3.198000192642212,5.176050186157227
1781033880535740400,23.138740478515626,3.4140002727508545,-3.132000207901001,5.238000392913818
1781033880555247400,23.158247314453124,3.058950185775757,-3.2179501056671143,5.514000415802002
1781033880574754600,23.177754638671875,3.0670502185821533,-3.082050085067749,5.6610002517700195
1781033880594262800,23.1972626953125,3.235950231552124,-2.7930002212524414,5.484000205993652
1781033880613773800,23.21677392578125,3.3960001468658447,-2.731950044631958,5.172000408172607
1781033880633282600,23.236282470703124,3.6559500694274902,-2.91195011138916,4.693950176239014
1781033880652791300,23.255791259765626,3.9000000953674316,-3.264000177383423,3.1930501461029053
1781033880672296000,23.2752958984375,4.192950248718262,-3.7579500675201416,2.6860501766204834
1781033880691799600,23.294799560546874,4.534049987792969,-4.3309502601623535,1.1560500860214233
1781033880711305700,23.3143056640625,4.878000259399414,-4.969950199127197,0.7180500626564026
1781033880730813000,23.33381298828125,5.326050281524658,-6.418950080871582,0.14100000262260437
1781033880750323700,23.35332373046875,5.857950210571289,-6.715050220489502,-1.4029500484466553
1781033880769837800,23.372837890625,7.5450005531311035,-6.9720001220703125,-3.3580501079559326
1781033880789350100,23.39235009765625,7.753050327301025,-7.018950462341309,-5.181000232696533
1781033880808860400,23.4118603515625,7.9830002784729,-6.69795036315918,-6.883950233459473
1781033880828368000,23.431367919921875,8.158050537109375,-6.2470502853393555,-7.07895040512085
1781033880847880200,23.450880126953123,8.232000350952148,-5.809950351715088,-6.892950534820557
1781033880867396400,23.470396240234376,8.242950439453125,-5.448000431060791,-5.044050216674805
1781033880886905600,23.489905517578126,8.33595085144043,-5.317950248718262,-4.642950057983398
1781033880906414600,23.50941455078125,8.557050704956055,-5.305050373077393,-4.170000076293945
1781033880925925600,23.528925537109377,8.809950828552246,-5.329050064086914,-3.8230502605438232
1781033880945436000,23.548435791015624,8.991000175476074,-5.47605037689209,-3.457050085067749
1781033880964946000,23.56794580078125,8.878950119018555,-5.731050491333008,-2.886000156402588
1781033880984455400,23.587455322265626,8.42805004119873,-6.009000301361084,-1.0120500326156616
1781033881003959600,23.60695947265625,6.663000106811523,-6.258000373840332,0.6619500517845154
1781033881023463400,23.62646337890625,6.403950214385986,-6.32895040512085,0.8119500279426575
1781033881042979800,23.645979736328126,6.066000461578369,-6.0610504150390625,0.9120000600814819
1781033881062498300,23.665498291015624,5.620950222015381,-4.378950119018555,0.9379500150680542
1781033881082012000,23.685011962890623,5.046000003814697,-4.060050010681152,1.168950080871582
1781033881101525000,23.70452490234375,3.349950075149536,-3.580050230026245,2.9410500526428223
1781033881121041000,23.724041015625,3.085050106048584,-3.1309502124786377,3.3919501304626465
1781033881140550100,23.743550048828126,2.743950128555298,-2.9539501667022705,4.048050403594971
1781033881160056300,23.763056396484377,2.5470001697540283,-3.0450000762939453,4.597050189971924
1781033881179567400,23.7825673828125,2.4570000171661377,-3.3760502338409424,4.987950325012207
1781033881199078700,23.80207861328125,2.518050193786621,-3.9499502182006836,5.458950042724609
1781033881218590200,23.821590087890623,2.7120001316070557,-5.680050373077393,6.087000370025635
1781033881257611000,23.860611083984374,3.003000259399414,-7.684050559997559,8.45895004272461
1781033881277120300,23.880120361328125,3.2370002269744873,-9.415950775146484,8.848950386047363
1781033881296633600,23.899633544921876,3.44100022315979,-9.735000610351562,9.295950889587402
1781033881316149200,23.919149169921877,3.513000249862671,-9.78795051574707,9.354000091552734
1781033881335663000,23.9386630859375,5.149050235748291,-9.618000030517578,9.153000831604004
1781033881355172400,23.95817236328125,5.10705041885376,-9.700950622558594,8.8410005569458
1781033881374681900,23.977681884765627,4.947000026702881,-10.21500015258789,8.282999992370605
1781033881394193200,23.997193115234374,5.035050392150879,-10.75200080871582,7.824000358581543
1781033881413706800,24.016706787109374,4.906949996948242,-11.043000221252441,7.428000450134277
1781033881433216800,24.036216796875,4.9110002517700195,-10.705050468444824,5.392050266265869
1781033881452728600,24.055728515625,5.131950378417969,-10.219950675964355,5.2860002517700195
1781033881472241000,24.075240966796876,5.313000202178955,-10.08495044708252,5.377050399780273
1781033881491752000,24.094751953125,5.164050102233887,-10.156050682067871,5.547000408172607
1781033881511266800,24.114266845703124,4.863000392913818,-10.401000022888184,5.941050052642822
1781033881530778000,24.133778076171875,4.707000255584717,-10.672950744628906,7.494000434875488
1781033881550285600,24.15328564453125,4.621950149536133,-10.825950622558594,7.9860005378723145
1781033881569792000,24.1727919921875,4.7310004234313965,-10.782000541687012,9.682050704956055
1781033881589303000,24.192302978515624,4.900050163269043,-10.357950210571289,9.82395076751709
1781033881608818000,24.21181787109375,5.056950092315674,-9.760050773620605,9.87405014038086
1781033881628327200,24.2313271484375,5.371950149536133,-9.207000732421875,9.862950325012207
1781033881647839200,24.250839111328126,5.386950492858887,-8.74905014038086,9.673050880432129
1781033881667351800,24.270351806640626,5.086950302124023,-8.212050437927246,9.166950225830078
1781033881686864600,24.28986474609375,3.3109500408172607,-6.502050399780273,7.561950206756592
1781033881706381600,24.309381591796875,2.860950231552124,-4.780050277709961,6.979950428009033
1781033881725894700,24.328894775390626,2.4810001850128174,-4.410000324249268,5.478000164031982
1781033881745401600,24.348401611328125,2.281949996948242,-3.9780001640319824,5.254050254821777
1781033881764904700,24.36790478515625,2.4130501747131348,-3.796950101852417,5.098050117492676
1781033881784405000,24.387405029296875,2.7750000953674316,-3.7600502967834473,4.88100004196167
1781033881803906800,24.40690673828125,3.1969501972198486,-3.733950138092041,4.615950107574463
1781033881823409400,24.426409423828126,3.6349501609802246,-3.736950159072876,4.510950088500977
1781033881842914300,24.445914306640624,4.060050010681152,-3.7510502338409424,4.516050338745117
1781033881862424300,24.46542431640625,4.359000205993652,-3.81600022315979,4.35705041885376
1781033881881938400,24.4849384765625,4.470000267028809,-3.999000072479248,3.910950183868408
1781033881901454000,24.5044541015625,4.507950305938721,-4.219950199127197,2.305950164794922
1781033881920969200,24.52396923828125,4.501049995422363,-4.584000110626221,1.752000093460083
1781033881940479700,24.543479736328123,4.53000020980835,-5.022000312805176,0.0690000057220459
1781033881959987200,24.5629873046875,4.779000282287598,-5.448000431060791,-0.2970000207424164
1781033881979489500,24.582489501953123,5.233050346374512,-5.85705041885376,-1.8850500583648682
1781033881998992100,24.6019921875,5.85105037689209,-6.052950382232666,-3.492000102996826
1781033882018499000,24.6214990234375,7.336950302124023,-6.082950115203857,-3.948000192642212
1781033882038008300,24.64100830078125,7.543050289154053,-6.118950366973877,-4.2109503746032715
1781033882057517600,24.660517578125,7.669050216674805,-6.225000381469727,-4.219050407409668
1781033882077020000,24.68002001953125,7.672050476074219,-6.309000492095947,-4.275000095367432
1781033882096521000,24.69952099609375,7.722000598907471,-6.240000247955322,-4.693950176239014
1781033882116029400,24.719029541015626,7.869000434875488,-5.9569501876831055,-6.444000244140625
1781033882135543600,24.73854345703125,7.990950584411621,-5.542050361633301,-6.579000473022461
1781033882155055600,24.7580556640625,7.9800004959106445,-5.250000476837158,-6.424050331115723
1781033882174566400,24.77756640625,7.7470502853393555,-5.25600004196167,-4.317000389099121
1781033882194077000,24.797076904296876,7.492950439453125,-5.523000240325928,-2.074050188064575
1781033882213585000,24.8165849609375,7.446000576019287,-5.974050521850586,-0.2569500207901001
1781033882233090800,24.8360908203125,7.5259504318237305,-6.457050323486328,0.009000000543892384
1781033882252598000,24.855597900390624,7.560000419616699,-6.844050407409668,0.14205001294612885
1781033882272110600,24.875110595703124,7.378050327301025,-6.98205041885376,0.009000000543892384
1781033882291625200,24.894625244140624,6.955050468444824,-6.6850504875183105,-0.039000000804662704
1781033882311138300,24.91413818359375,6.4360504150390625,-4.7059502601623535,1.6380001306533813
1781033882330650600,24.933650634765623,5.914950370788574,-4.254000186920166,3.6889500617980957
1781033882350157600,24.953157470703125,4.452000141143799,-2.8129501342773438,4.1509504318237305
1781033882369666800,24.972666748046876,2.8320000171661377,-2.6140501499176025,4.62600040435791
1781033882389180000,24.992179931640624,2.434950113296509,-2.5609500408172607,4.882950305938721
1781033882408693200,25.011693359375,1.9030500650405884,-2.7169501781463623,4.951050281524658
1781033882428201500,25.031201416015627,1.665000081062317,-3.0289502143859863,4.966950416564941
1781033882447707600,25.050707763671873,1.821000099182129,-3.5089502334594727,5.194050312042236
1781033882467221200,25.07022119140625,2.3170502185821533,-5.122950077056885,5.7430500984191895
1781033882486736100,25.089736083984373,3.8200502395629883,-7.07895040512085,7.42995023727417
1781033882506252300,25.109252197265626,4.060050010681152,-7.603950500488281,9.166050910949707
1781033882525771500,25.128771484375,4.309950351715088,-9.082050323486328,9.268950462341309
1781033882545288000,25.148287841796876,4.560000419616699,-9.199950218200684,8.920950889587402
1781033882564797400,25.16779736328125,6.337950229644775,-9.483000755310059,7.365000247955322
1781033882584305700,25.1873056640625,6.619950294494629,-9.957000732421875,7.102950572967529
1781033882603812900,25.206812744140624,7.174950122833252,-10.605000495910645,6.928950309753418
1781033882623320000,25.226320068359374,7.783950328826904,-11.041950225830078,6.856050491333008
1781033882642826800,25.24582666015625,7.82205057144165,-10.800000190734863,6.714000225067139
1781033882662331000,25.265330810546875,7.758000373840332,-9.289050102233887,6.2470502853393555
1781033882681836800,25.2848369140625,7.498950481414795,-8.931000709533691,5.761950492858887
1781033882701343500,25.304343505859375,7.087050437927246,-8.914050102233887,5.611050128936768
1781033882720850200,25.32385009765625,6.568950176239014,-9.2920503616333,5.7960004806518555
1781033882740357600,25.343357666015624,6.2310004234313965,-9.816000938415527,6.090000152587891
1781033882759865900,25.362865966796875,6.229050159454346,-10.0489501953125,6.375000476837158
1781033882779374000,25.3823740234375,6.541950225830078,-9.850050926208496,6.702000141143799
1781033882798880000,25.4018798828125,7.14300012588501,-9.337050437927246,7.04295015335083
1781033882818388000,25.421387939453126,7.4760003089904785,-8.728050231933594,7.387950420379639
1781033882837900300,25.440900390625,7.663950443267822,-8.191950798034668,7.842000484466553
1781033882857414700,25.46041455078125,7.546950340270996,-7.713000297546387,8.280000686645508
1781033882876926000,25.479926025390625,7.114950180053711,-7.234050273895264,8.641950607299805
1781033882896433400,25.499433349609376,6.538050174713135,-5.607000350952148,8.67300033569336
1781033882915937300,25.518937255859374,4.863000392913818,-5.260950088500977,8.217000007629395
1781033882935440400,25.5384404296875,4.492950439453125,-4.660950183868408,6.748950481414795
