time,seconds_elapsed,z,y,x
1780564709950910500,1.855910400390625,-2.104300022125244,-0.7975000143051147,2.666125059127808
1780564709970435000,1.87543505859375,-3.23895001411438,-1.1739749908447266,4.599512577056885
1780564709989961700,1.894961669921875,-3.23895001411438,-1.1739749908447266,4.599512577056885
1780564710009484800,1.91448486328125,-4.276387691497803,-1.471524953842163,6.515850067138672
1780564710029005800,1.934005859375,-4.906412601470947,-1.542199969291687,7.841762542724609
1780564710048526600,1.953526611328125,-4.906412601470947,-1.542199969291687,7.841762542724609
1780564710068048000,1.9730478515625,-3.9352500438690186,-0.9822999835014344,6.717562675476074
1780564710087569200,1.992569091796875,-3.9352500438690186,-0.9822999835014344,6.717562675476074
1780564710107092500,2.012092529296875,-3.2796499729156494,-0.645425021648407,5.965024948120117
1780564710126618000,2.0316181640625,-2.588574886322021,-0.341275006532669,4.881800174713135
1780564710146142500,2.051142578125,-1.96913743019104,-0.0833249986171722,3.920399904251098
1780564710165666000,2.070666015625,-1.4321999549865725,0.1302125006914138,3.1094250679016118
1780564710185190100,2.090190185546875,-0.9941250085830688,0.3079999983310699,2.473350048065185
1780564710204713500,2.10971337890625,-0.658762514591217,0.4541625082492828,2.0018625259399414
1780564710224239400,2.1292392578125,-0.4070000052452087,0.5631999969482422,1.647112488746643
1780564710243761700,2.14876171875,-0.203087493777275,0.6282374858856201,1.3510749340057373
1780564710263285200,2.16828515625,-0.0255750007927417,0.6510624885559082,1.0796500444412231
1780564710282815500,2.1878154296875,0.1264999955892563,0.644599974155426,0.8285750150680542
1780564710302343700,2.20734375,0.2429624944925308,0.6243875026702881,0.6045874953269958
1780564710321867300,2.2268671875,0.3192749917507171,0.598675012588501,0.4014999866485595
1780564710341396700,2.246396728515625,0.3701499998569488,0.5622375011444092,0.1885125041007995
1780564710360927500,2.265927490234375,0.4147000014781952,0.508062481880188,-0.0582999996840953
1780564710380453600,2.28545361328125,0.4629625082015991,0.4361499845981598,-0.3313750028610229
1780564710399981800,2.30498193359375,0.5138375163078308,0.3587374985218048,-0.596750020980835
1780564710419509000,2.324509033203125,0.5552250146865845,0.297962486743927,-0.8062999844551086
1780564710439029200,2.344029296875,0.5783249735832214,0.2733500003814697,-0.9301875233650208
1780564710458552300,2.36355224609375,0.5802500247955322,0.2881999909877777,-0.9666249752044678
1780564710478082000,2.38308203125,0.5649874806404114,0.3236750066280365,-0.9411875009536744
1780564710497611000,2.402611083984375,0.5394124984741211,0.3514499962329864,-0.8980125188827515
1780564710517138400,2.422138427734375,0.5084750056266785,0.3537875115871429,-0.8872874975204468
1780564710536666400,2.441666259765625,0.4811125099658966,0.3264249861240387,-0.9627749919891356
1780564710556193300,2.461193359375,0.4681875109672546,0.27114999294281,-1.1596750020980835
1780564710575718400,2.480718505859375,0.4769875109195709,0.1890625059604644,-1.4766124486923218
1780564710595243500,2.500243408203125,0.5190625190734863,0.0917124971747398,-1.896812438964844
1780564710614771500,2.519771484375,0.5955125093460083,0.0065999999642372,-2.3845250606536865
1780564710634302700,2.539302734375,0.678974986076355,-0.0350624993443489,-2.8666000366210938
1780564710653829000,2.5588291015625,0.7551500201225281,-0.0111375004053115,-3.294912576675415
1780564710673356000,2.57835595703125,0.8870124816894531,0.0951500013470649,-3.757737398147583
1780564710692886000,2.597885986328125,1.2100000381469729,0.3066250085830688,-4.488962650299072
1780564710712411600,2.61741162109375,1.8140374422073364,0.6289250254631042,-5.666100025177002
1780564710731935500,2.636935546875,2.6626875400543213,1.0371625423431396,-6.90236234664917
1780564710751464000,2.6564638671875,3.693662405014038,1.4870624542236328,-8.552362442016602
1780564710770994200,2.675994140625,4.687375068664551,1.885125041007996,-10.055375099182127
1780564710790523100,2.695523193359375,5.274362564086914,2.0935750007629395,-10.791825294494627
1780564710810051000,2.715051025390625,5.240950107574463,2.052462577819824,-10.434599876403809
1780564710829581300,2.734581298828125,5.240950107574463,2.052462577819824,-10.434599876403809
1780564710849112000,2.754112060546875,4.037687301635742,1.562137484550476,-7.8571624755859375
1780564710868642300,2.773642333984375,4.037687301635742,1.562137484550476,-7.8571624755859375
1780564710888170000,2.793169921875,4.037687301635742,1.562137484550476,-7.8571624755859375
1780564710907698200,2.8126982421875,2.741337537765503,1.028499960899353,-5.479650020599365
1780564710927224600,2.832224609375,2.741337537765503,1.028499960899353,-5.479650020599365
1780564710946751200,2.851751220703125,1.7778749465942385,0.6342874765396118,-3.688575029373169
1780564710966275300,2.871275390625,1.3271499872207642,0.479324996471405,-2.9104623794555664
1780564710985799400,2.89079931640625,0.7976375222206116,0.3400374948978424,-1.9820624589920044
1780564711005331700,2.910331787109375,0.2135374993085861,0.2417249977588653,-0.9274374842643738
1780564711024862200,2.9298623046875,0.2135374993085861,0.2417249977588653,-0.9274374842643738
1780564711063921400,2.96892138671875,-3.780287504196167,-0.6151750087738037,6.865787506103516
1780564711083451400,2.988451416015625,-8.814299583435059,-2.19807505607605,17.057836532592773
1780564711102979600,3.0079794921875,-11.341137886047363,-3.04259991645813,22.553298950195312
1780564711122507500,3.027507568359375,-9.55239963531494,-2.468674898147583,19.42256164550781
1780564711142036700,3.04703662109375,-7.220950126647949,-1.6886374950408936,15.07481288909912
1780564711161567000,3.06656689453125,-5.222525119781494,-1.0011374950408936,11.305387496948242
1780564711181094100,3.08609423828125,-3.6397624015808105,-0.4461874961853027,8.29372501373291
1780564711200619500,3.10561962890625,-2.457124948501587,-0.0244750007987022,6.245387554168701
1780564711220147200,3.125147216796875,-1.572450041770935,0.2722499966621399,4.380062580108643
1780564711239673300,3.14467333984375,-0.9523249864578248,0.4563624858856201,3.090862512588501
1780564711259199200,3.16419921875,-0.511775016784668,0.544362485408783,2.175387382507324
1780564711278722600,3.18372265625,-0.1934625059366226,0.5553625226020813,1.5236375331878662
1780564711298245400,3.203245361328125,0.0305249989032745,0.5157625079154968,1.0806125402450562
1780564711317772300,3.222772216796875,0.1782000064849853,0.4574624896049499,0.7951624989509583
1780564711337300500,3.242300537109375,0.269225001335144,0.4109874963760376,0.604449987411499
1780564711356825900,3.261825927734375,0.319412499666214,0.3925625085830688,0.4551250040531158
1780564711376346000,3.28134619140625,0.3400374948978424,0.3968249857425689,0.3167999982833862
1780564711395869200,3.300869140625,0.3462249934673309,0.3997125029563904,0.1648624986410141
1780564711415394600,3.32039453125,0.3517250120639801,0.3711124956607818,-0.0192499998956918
1780564711434915000,3.3399150390625,0.3602499961853027,0.2901250123977661,-0.2320999950170517
1780564711454434600,3.3594345703125,0.3658874928951263,0.1577125042676925,-0.4433000087738037
1780564711473960200,3.378960205078125,0.3558500111103058,0.0005499999970197,-0.6040375232696533
1780564711493486600,3.398486572265625,0.3242250084877014,-0.1399749964475631,-0.6824125051498413
1780564711513015000,3.41801513671875,0.2803624868392944,-0.222474992275238,-0.6945124864578247
1780564711532543200,3.437543212890625,0.2479124963283538,-0.2222000062465667,-0.6938250064849854
1780564711552069400,3.4570693359375,0.2398000061511993,-0.1487749963998794,-0.7074375152587891
1780564711571596000,3.476595947265625,0.2428250014781952,-0.0430375002324581,-0.7108749747276306
1780564711591123200,3.496123291015625,0.2389750033617019,0.0489500015974044,-0.6807624697685242
1780564711610649600,3.515649658203125,0.2276999950408935,0.103812500834465,-0.6513375043869019
1780564711630176800,3.5351767578125,0.2276999950408935,0.103812500834465,-0.6513375043869019
1780564711649701600,3.55470166015625,0.2124374955892563,0.0736999958753585,-0.8252750039100647
1780564711669226000,3.57422607421875,0.2124374955892563,0.0736999958753585,-0.8252750039100647
1780564711688751000,3.593751220703125,0.1937374919652938,-0.0386375002562999,-1.0685124397277832
1780564711708271600,3.613271728515625,0.164450004696846,-0.3267000019550323,-1.796162486076355
1780564711727795200,3.632795166015625,0.164450004696846,-0.3267000019550323,-1.796162486076355
1780564711747323000,3.652322998046875,0.164450004696846,-0.3267000019550323,-1.796162486076355
1780564711766849000,3.67184912109375,0.4193750023841858,-0.2814624905586242,-3.0292625427246094
1780564711786373000,3.691373046875,0.5817624926567078,-0.0472999997437,-4.138887405395508
1780564711805896200,3.710896240234375,0.7425000071525574,0.3533749878406524,-5.967912673950195
1780564711825416200,3.730416259765625,1.9534624814987185,0.963599979877472,-8.243537902832031
1780564711844938200,3.749938232421875,4.162125110626221,1.6924874782562256,-11.185762405395508
1780564711864461800,3.7694619140625,5.778437614440918,2.2186999320983887,-13.20343780517578
1780564711883980500,3.78898046875,6.226687431335449,2.3130249977111816,-13.262700080871582
1780564711903498500,3.80849853515625,5.7022624015808105,2.05287504196167,-11.741399765014648
1780564711923017000,3.828016845703125,4.742374897003174,1.6417499780654907,-9.599425315856934
1780564711942536400,3.847536376953125,3.7318875789642334,1.224987506866455,-7.506262302398682
1780564711962057500,3.867057373046875,2.8694875240325928,0.8768374919891357,-5.975474834442139
1780564711981582600,3.88658251953125,2.12396240234375,0.6187499761581421,-4.46063756942749
1780564712001108500,3.9061083984375,1.5149749517440796,0.4433000087738037,-3.2957375049591064
1780564712020630800,3.925630859375,0.9699249863624572,0.3244999945163727,-2.28772497177124
1780564712040154600,3.945154541015625,0.4377999901771545,0.2407625019550323,-1.3048750162124634
1780564712059676200,3.96467626953125,-0.113987497985363,0.1766874939203262,-0.2667500078678131
1780564712079197700,3.98419775390625,-0.4657124876976013,0.0992750003933906,0.95864999294281
1780564712098723600,4.0037236328125,-0.6045874953269958,-0.0534874983131885,2.63958740234375
1780564712118249700,4.023249755859375,-0.740024983882904,-0.3445749878883362,5.232012271881104
1780564712137775900,4.04277587890625,-2.198349952697754,-0.8458999991416931,8.568724632263184
1780564712157301200,4.06230126953125,-4.625637531280518,-1.4178999662399292,12.226224899291992
1780564712176823300,4.0818232421875,-5.897649765014648,-1.7012875080108645,14.112862586975098
1780564712196349700,4.101349609375,-5.862037658691406,-1.5941749811172483,13.660762786865234
1780564712215881200,4.120881103515625,-5.145387649536133,-1.278337478637695,11.987662315368652
1780564712235412000,4.140411865234375,-4.246274948120117,-0.9107999801635742,10.048362731933594
1780564712254941200,4.159941162109375,-3.36118745803833,-0.5511000156402588,8.200499534606934
1780564712274467800,4.1794677734375,-2.559837579727173,-0.2257750034332275,6.547887325286865
1780564712293992400,4.198992431640625,-1.881412506103516,0.0378125011920928,5.294162273406982
1780564712313515300,4.218515380859375,-1.3158749341964722,0.2154625058174133,4.034249782562256
1780564712333037000,4.238037109375,-0.8681749701499939,0.3037374913692474,3.047412395477295
1780564712352558300,4.257558349609375,-0.5198875069618225,0.3258749842643738,2.290750026702881
1780564712372080400,4.277080322265625,-0.2600125074386596,0.3313750028610229,1.7513375282287598
1780564712391599000,4.29659912109375,-0.0791999995708465,0.3720749914646148,1.4144624471664429
1780564712411108400,4.3161083984375,0.0442750006914138,0.4525125026702881,1.2178374528884888
1780564712430623000,4.335623046875,0.1405249983072281,0.5341874957084656,1.0649374723434448
1780564712450147300,4.355147216796875,0.1405249983072281,0.5341874957084656,1.0649374723434448
1780564712469673200,4.374673095703125,0.2242625057697296,0.5713124871253967,0.8799999952316284
1780564712489197000,4.394197021484375,0.3113000094890594,0.4307875037193298,0.347599983215332
1780564712508718000,4.413718017578125,0.3113000094890594,0.4307875037193298,0.347599983215332
1780564712528243500,4.433243408203125,0.2461249977350235,0.0987249985337257,-0.2202749997377395
1780564712547769000,4.45276904296875,0.2461249977350235,0.0987249985337257,-0.2202749997377395
1780564712567289000,4.4722890625,0.2461249977350235,0.0987249985337257,-0.2202749997377395
1780564712586809600,4.4918095703125,0.1424500048160553,-0.116187497973442,-0.5993624925613403
1780564712606332000,4.511331787109375,0.0808499976992607,-0.1623875051736831,-0.6880499720573425
1780564712625853700,4.530853759765625,0.0090749999508261,-0.1861750036478042,-0.7095000147819519
1780564712645377500,4.55037744140625,-0.0599500015377998,-0.1977249979972839,-0.6930000185966492
1780564712664902400,4.56990234375,-0.1082125008106231,-0.2046000063419342,-0.682824969291687
1780564712684423200,4.589423095703125,-0.1254000067710876,-0.2132624983787536,-0.708674967288971
1780564712703946000,4.608946044921875,-0.110275000333786,-0.228937491774559,-0.7822374701499939
1780564712723473200,4.62847314453125,-0.0673749968409538,-0.2510749995708465,-0.9139624834060668
1780564712743001300,4.64800146484375,-0.0065999999642372,-0.279262512922287,-1.1174625158309937
1780564712762524200,4.667524169921875,0.0720499977469444,-0.3140499889850616,-1.4079999923706057
1780564712782048000,4.687048095703125,0.1938749998807907,-0.3375625014305115,-1.8101874589920044
1780564712801579000,4.7065791015625,0.4078249931335449,-0.3143250048160553,-2.383562564849853
1780564712821108000,4.72610791015625,0.7826499938964844,-0.2077624946832656,-3.259850025177002
1780564712840632800,4.7456328125,1.4632749557495115,0.0244750007987022,-4.784999847412109
1780564712860157000,4.765156982421875,2.7379000186920166,0.4647499918937683,-7.30757474899292
1780564712879681500,4.784681640625,4.809887409210205,1.1545875072479248,-11.49032497406006
1780564712899205600,4.80420556640625,6.743412494659424,1.7738875150680542,-15.204062461853027
1780564712918734800,4.82373486328125,7.282412528991699,1.94466245174408,-15.930336952209473
1780564712938262300,4.84326220703125,6.622962474822998,1.7659125328063965,-14.222450256347656
1780564712957783800,4.86278369140625,5.577000141143799,1.4889874458312988,-11.80519962310791
1780564712996831700,4.901831787109375,3.52041244506836,0.9380249977111816,-7.315687656402588
1780564713016360200,4.921360107421875,2.6327126026153564,0.6883249878883362,-5.630624771118164
1780564713035883000,4.940883056640625,1.8291624784469604,0.4694249927997589,-3.919300079345703
1780564713055402800,4.96040283203125,1.1727374792099,0.283112496137619,-2.596137523651123
1780564713074929000,4.979928955078125,0.6311249732971191,0.1233374997973442,-1.5522375106811523
1780564713094458000,4.9994580078125,0.1501500010490417,-0.0166375003755092,-0.6567000150680542
1780564713113983500,5.0189833984375,-0.2758249938488006,-0.130074992775917,0.1622499972581863
1780564713133510000,5.038510009765625,-0.6841999888420105,-0.20363749563694,0.9512249827384948
1780564713153038300,5.058038330078125,-1.240112543106079,-0.2635875046253204,2.029774904251098
1780564713172566000,5.07756591796875,-2.459049940109253,-0.4471499919891357,4.579024791717529
1780564713192090400,5.09709033203125,-5.64739990234375,-1.1415250301361084,11.188237190246582
1780564713211612200,5.116612060546875,-9.283174514770508,-2.003649950027466,19.19857406616211
1780564713231132000,5.1361318359375,-9.81461238861084,-2.067037582397461,20.994600296020508
1780564713250653200,5.155653076171875,-7.964412689208984,-1.462862491607666,17.659950256347656
1780564713270177000,5.175177001953125,-7.964412689208984,-1.462862491607666,17.659950256347656
1780564713289697000,5.194697021484375,-5.9278998374938965,-0.8062999844551086,13.747387886047363
1780564713309216500,5.214216552734375,-4.239262580871582,-0.2707374989986419,10.42799949645996
1780564713328735500,5.233735595703125,-2.9481375217437744,0.1135749965906143,7.831587314605713
1780564713348257500,5.253257568359375,-1.3078999519348145,0.5033875107765198,4.439187526702881
1780564713367784200,5.2727841796875,-1.3078999519348145,0.5033875107765198,4.439187526702881
1780564713387311000,5.29231103515625,-1.3078999519348145,0.5033875107765198,4.439187526702881
1780564713406835700,5.311835693359375,-0.4780874848365783,0.6022499799728394,2.5161125659942627
1780564713426359300,5.331359375,-0.2158749997615814,0.6199874877929688,1.947137475013733
1780564713445883400,5.35088330078125,0.0005499999970197,0.6230124831199646,1.476337432861328
1780564713465404000,5.37040380859375,0.1722874939441681,0.5687000155448914,1.035925030708313
1780564713484925700,5.38992578125,0.2866874933242798,0.4313375055789947,0.6050000190734863
1780564713504450000,5.409449951171875,0.347599983215332,0.2418625056743621,0.1938749998807907
1780564713523973600,5.4289736328125,0.3716624975204468,0.0657249987125396,-0.1627999991178512
1780564713543494400,5.448494384765625,0.3764750063419342,-0.0397375002503395,-0.4343625009059906
1780564713563014000,5.468013916015625,0.3796375095844269,-0.0419375002384185,-0.5983999967575073
1780564713582534700,5.48753466796875,0.3925625085830688,0.0472999997437,-0.6395124793052673
1780564713602057700,5.5070576171875,0.4137375056743622,0.1815000027418136,-0.5689749717712402
1780564713621582300,5.526582275390625,0.4310624897480011,0.3181749880313873,-0.4444000124931335
1780564713641106700,5.546106689453125,0.4257000088691711,0.4402749836444855,-0.3359124958515167
1780564713660629800,5.565629638671875,0.3723500072956085,0.5110874772071838,-0.2876499891281128
1780564713680151800,5.58515185546875,0.2498375028371811,0.4692874848842621,-0.3091000020503998
1780564713699672000,5.604672119140625,0.0635249987244606,0.3027749955654144,-0.3832125067710876
1780564713719195100,5.624195068359375,-0.1511124968528747,0.0677874982357025,-0.4837250113487243
1780564713738720800,5.643720703125,-0.3531000018119812,-0.1526249945163726,-0.5948249697685242
1780564713758247200,5.6632470703125,-0.4943124949932098,-0.3126749992370605,-0.7804499864578247
1780564713777774300,5.6827744140625,-0.5048999786376953,-0.4001249969005584,-1.1748000383377075
1780564713797303600,5.702303466796875,-0.3155624866485595,-0.3961375057697296,-1.8951624631881716
1780564713816834300,5.721834228515625,0.1117874979972839,-0.2688125073909759,-3.040950059890747
1780564713836359200,5.741359130859375,0.5465624928474426,0.0471624992787838,-5.027549743652344
1780564713855882200,5.76088232421875,1.9361374378204343,0.8738124966621399,-9.040900230407717
1780564713875404800,5.78040478515625,4.773449897766113,2.301337480545044,-15.89692497253418
1780564713894929000,5.799928955078125,6.594775199890137,3.187937498092652,-19.888961791992188
1780564713914457600,5.81945751953125,6.300525188446045,2.9567999839782715,-18.2275505065918
1780564713933988600,5.838988525390625,5.187600135803223,2.3124749660491943,-14.59892463684082
1780564713953519900,5.858519775390625,4.054325103759766,1.663749933242798,-11.131449699401855
1780564713973049300,5.87804931640625,3.091137409210205,1.1053625345230105,-8.294137001037598
1780564713992577300,5.897577392578125,2.326362371444702,0.6536750197410583,-6.366250038146973
1780564714012107300,5.917107177734375,1.6879500150680542,0.3096500039100647,-4.520037651062012
1780564714031634200,5.93663427734375,1.1605000495910645,0.0622874982655048,-3.155349969863892
1780564714051157500,5.956157470703125,0.7107374668121338,-0.101062498986721,-2.1000375747680664
1780564714070679600,5.975679443359375,0.3294500112533569,-0.1903000026941299,-1.2665125131607056
1780564714090200800,5.995200927734375,0.3294500112533569,-0.1903000026941299,-1.2665125131607056
1780564714109727000,6.01472705078125,0.0195249989628791,-0.2146375030279159,-0.6131125092506409
1780564714129254000,6.03425390625,-0.2187625020742416,-0.1806749999523162,-0.1157749965786933
1780564714148781300,6.05378125,-0.4089249968528747,-0.1042250022292137,0.2844874858856201
1780564714168306200,6.07330615234375,-0.4089249968528747,-0.1042250022292137,0.2844874858856201
1780564714187832000,6.09283203125,-0.9370625019073486,0.0059124999679625,1.4748250246047974
1780564714207359200,6.112359130859375,-0.9370625019073486,0.0059124999679625,1.4748250246047974
1780564714226881000,6.131881103515625,-3.021012544631958,-0.607200026512146,6.7238874435424805
1780564714246403600,6.151403564453125,-5.549912452697754,-1.649175047874451,13.568499565124512
1780564714265930800,6.1709306640625,-7.334662437438965,-2.4409000873565674,18.90473747253418
1780564714285456400,6.190456298828125,-6.96533727645874,-2.290750026702881,18.60773658752441
1780564714304982300,6.209982177734375,-5.595699787139893,-1.678874969482422,15.403849601745604
1780564714324507000,6.2295068359375,-4.208600044250488,-1.0645250082015991,11.973087310791016
1780564714344029700,6.24902978515625,-3.064737558364868,-0.5856124758720398,9.102774620056152
1780564714363553500,6.268553466796875,-2.191887378692627,-0.2635875046253204,6.912125110626221
1780564714383078400,6.288078369140625,-1.5512750148773191,-0.0699874982237815,5.478687286376953
1780564714402600200,6.30760009765625,-1.0760749578475952,0.0409750007092952,4.19457483291626
1780564714422121700,6.327121826171875,-0.7288874983787537,0.1104125007987022,3.272362470626831
1780564714441650700,6.346650634765625,-0.4677749872207641,0.1669249981641769,2.5814249515533447
1780564714461180400,6.366180419921875,-0.2575374841690063,0.2199999988079071,2.0198750495910645
1780564714480706300,6.385706298828125,-0.0763124972581863,0.2586374878883362,1.525974988937378
1780564714500235800,6.40523583984375,0.0812624990940094,0.2626250088214874,1.0789624452590942
1780564714519768000,6.42476806640625,0.2117500007152557,0.2176624983549118,0.6810374855995178
1780564714539301000,6.444301025390625,0.3140499889850616,0.1317249983549118,0.3316499888896942
1780564714558830800,6.463830810546875,0.3971000015735626,0.0375375002622604,0.0149875003844499
1780564714578356200,6.483356201171875,0.4746499955654144,-0.0280499998480081,-0.2767874896526336
1780564714597878800,6.502878662109375,0.5516499876976013,-0.0474375002086162,-0.5186499953269958
1780564714617402600,6.522402587890625,0.6168249845504761,-0.0244750007987022,-0.6689375042915344
1780564714636929300,6.54192919921875,0.6525750160217285,0.0283249989151954,-0.7144500017166138
1780564714656456000,6.5614560546875,0.649275004863739,0.0987249985337257,-0.6943749785423279
1780564714675978500,6.580978515625,0.6124249696731567,0.173799991607666,-0.679937481880188
1780564714695500300,6.600500244140625,0.5414749979972839,0.2385624945163726,-0.7187125086784363
1780564714715023400,6.6200234375,0.4190999865531921,0.2550624907016754,-0.8205999732017517
1780564714734547000,6.639546875,0.2323749959468841,0.1750375032424926,-0.9615374803543092
1780564714754071600,6.659071533203125,-0.0085249999538064,-0.0170499999076128,-1.0884499549865725
1780564714773594000,6.678593994140625,-0.2483250051736831,-0.2901250123977661,-1.2076624631881714
1780564714793119700,6.69811962890625,-0.3944875001907348,-0.5592125058174133,-1.42683744430542
1780564714812646400,6.717646484375,-0.3431999981403351,-0.7099124789237976,-1.9332499504089355
1780564714832175400,6.73717529296875,-0.0030249999836087,-0.645562469959259,-2.9253125190734863
1780564714851705300,6.756705322265625,0.7137625217437744,-0.3244999945163727,-4.638700008392334
1780564714871233300,6.7762333984375,1.967350006103516,0.2623499929904938,-7.183000087738037
1780564714890760700,6.7957607421875,3.787575006484986,1.0564124584197998,-10.918874740600586
1780564714910289200,6.8152890625,5.464662551879883,1.7318124771118164,-14.142012596130373
1780564714929817900,6.83481787109375,5.464662551879883,1.7318124771118164,-14.142012596130373
1780564714968874800,6.873874755859375,4.753375053405762,1.3135374784469604,-11.165274620056152
1780564714988401700,6.893401611328125,4.753375053405762,1.3135374784469604,-11.165274620056152
1780564715007930000,6.91293017578125,3.024174928665161,0.7376874685287476,-7.052925109863281
1780564715027458000,6.9324580078125,3.024174928665161,0.7376874685287476,-7.052925109863281
1780564715046981600,6.951981689453125,2.3561999797821045,0.596887469291687,-5.672699928283691
1780564715066504200,6.971504150390625,1.7584874629974363,0.4955500066280365,-4.203787326812744
1780564715086029600,6.991029541015625,1.252074956893921,0.414837509393692,-2.995300054550171
1780564715105557200,7.01055712890625,0.8335250020027161,0.3550249934196472,-2.020425081253052
1780564715125086000,7.0300859375,0.4805625081062317,0.3051125109195709,-1.233649969100952
1780564715144616000,7.049615966796875,0.1561999917030334,0.2463999986648559,-0.5641624927520752
1780564715164142800,7.069142822265625,-0.1509750038385391,0.1725624948740005,0.0192499998956918
1780564715183665700,7.088665771484375,-0.4292750060558319,0.0937749966979026,0.5132874846458435
1780564715203196000,7.10819580078125,-0.6843374967575073,0.0196624994277954,0.9554874897003174
1780564715222732000,7.12773193359375,-0.9657999873161316,-0.0493624992668628,1.4803249835968018
1780564715242264800,7.147264892578125,-1.401537537574768,-0.1340624988079071,2.4025375843048096
1780564715261793300,7.166793212890625,-2.262012481689453,-0.2912249863147735,4.409212589263916
1780564715281321700,7.18632177734375,-3.9263124465942383,-0.6260374784469604,8.289462089538574
1780564715300850200,7.20585009765625,-6.041749954223633,-1.0738749504089355,13.61662483215332
1780564715320376800,7.225376953125,-7.006724834442139,-1.2494624853134155,16.577411651611328
1780564715339905000,7.244905029296875,-6.342875003814697,-1.0041625499725342,15.79847526550293
1780564715359433500,7.26443359375,-4.999362468719482,-0.5590749979019165,13.411062240600586
1780564715378961700,7.283961669921875,-3.6136374473571777,-0.0803000032901763,10.88889980316162
1780564715398490400,7.303490478515625,-2.413949966430664,0.3433375060558319,8.660300254821777
1780564715418020000,7.32302001953125,-1.471524953842163,0.6543624997138977,6.791675090789795
1780564715437549800,7.3425498046875,-0.7697250247001648,0.8381999731063843,5.416812419891357
1780564715457074200,7.36207421875,-0.2540999948978424,0.8911374807357788,4.007024765014648
1780564715476598000,7.381597900390625,0.1192125007510185,0.8149625062942505,2.8334624767303467
1780564715496126500,7.40112646484375,0.3832125067710876,0.6448749899864197,1.857487440109253
1780564715515652600,7.420652587890625,0.551925003528595,0.443987488746643,1.091475009918213
1780564715535178800,7.4401787109375,0.6338750123977661,0.2715624868869781,0.5450500249862671
1780564715554711000,7.4597109375,0.6430875062942505,0.1553750038146972,0.1931875050067901
1780564715574247200,7.4792470703125,0.6067875027656555,0.0976250022649765,-0.0144375003874301
1780564715593783600,7.498783447265625,0.5572875142097473,0.0897874981164932,-0.1273249983787536
1780564715613316400,7.51831640625,0.5119125247001648,0.1164624989032745,-0.1970375031232834
1780564715632844000,7.537843994140625,0.47079998254776,0.1647250056266784,-0.2725250124931335
1780564715652369700,7.55736962890625,0.4230875074863434,0.2190375030040741,-0.3753750026226043
1780564715671897300,7.5768974609375,0.3599750101566314,0.2556124925613403,-0.4972000122070312
1780564715691426600,7.596426513671875,0.2646875083446502,0.2466749995946884,-0.6018375158309937
1780564715710956000,7.6159560546875,0.1194875016808509,0.1810874938964843,-0.6632999777793884
1780564715730483000,7.63548291015625,-0.070262499153614,0.0732875019311904,-0.6993250250816345
1780564715750011400,7.655011474609375,-0.2714250087738037,-0.0621500015258789,-0.7770124673843384
1780564715769540600,7.67454052734375,-0.432574987411499,-0.2316875010728836,-1.005674958229065
1780564715789068800,7.69406884765625,-0.432574987411499,-0.2316875010728836,-1.005674958229065
1780564715808593700,7.71359375,-0.5139750242233276,-0.4300999939441681,-1.4507625102996826
1780564715828119300,7.733119384765625,-0.3727625012397766,-0.7140374779701233,-2.901249885559082
1780564715847647700,7.752647705078125,-0.3727625012397766,-0.7140374779701233,-2.901249885559082
1780564715867172000,7.772172119140625,-0.0694374963641166,-0.6681125164031982,-3.956012487411499
1780564715886692000,7.791692138671875,0.5515124797821045,-0.4508624970912933,-5.559262275695801
1780564715906206500,7.81120654296875,1.618374943733215,-0.0867625027894973,-7.569650173187256
1780564715925721900,7.830721923828125,3.038337469100952,0.3133625090122223,-10.23976230621338
1780564715945243400,7.850243408203125,4.360812664031982,0.5769500136375427,-12.45639991760254
1780564715964765000,7.869764892578125,5.040750026702881,0.6070625185966492,-13.205775260925291
1780564715984285700,7.88928564453125,4.949587345123291,0.4808374941349029,-12.390399932861328
1780564716003808500,7.90880859375,4.386112689971924,0.3481499850749969,-10.72417449951172
1780564716023332400,7.928332275390625,3.674824953079224,0.2847625017166137,-8.876312255859375
1780564716042850600,7.9478505859375,2.9767374992370605,0.2813250124454498,-7.147250175476074
1780564716062367200,7.9673671875,2.3384625911712646,0.3007124960422516,-5.785587310791016
1780564716081890600,7.986890625,1.709262490272522,0.3265624940395355,-4.2026872634887695
1780564716101410600,8.00641064453125,1.099174976348877,0.3537875115871429,-2.750274896621704
1780564716120926200,8.02592626953125,0.4670875072479248,0.3687750101089477,-1.3171124458312988
1780564716140446200,8.0454462890625,-0.2531374990940094,0.3569499850273132,0.2589125037193298
1780564716159966200,8.06496630859375,-1.195562481880188,0.3001624941825866,2.305875062942505
1780564716179484200,8.084484130859375,-2.676024913787842,0.1647250056266784,5.6585373878479
1780564716199003600,8.104003662109376,-4.928687572479248,-0.0884125009179115,10.48657512664795
1780564716218523100,8.123523193359375,-7.033675193786621,-0.3562625050544739,15.315025329589844
1780564716238042600,8.143042724609375,-7.47807502746582,-0.4428874850273132,16.6512508392334
1780564716257565700,8.162565673828125,-6.49714994430542,-0.3321999907493591,14.889049530029297
1780564716277089000,8.182089111328125,-5.110875129699707,-0.1358499974012375,12.222925186157228
1780564716296610300,8.2016103515625,-3.797887563705444,0.0710875019431114,9.70199966430664
1780564716316127200,8.221127197265625,-2.69073748588562,0.2542375028133392,7.603199958801269
1780564716335640600,8.240640625,-1.827512502670288,0.4085125029087066,6.233012676239014
1780564716355157200,8.2601572265625,-1.1750749349594116,0.5439500212669373,4.904624938964844
1780564716374678800,8.2796787109375,-0.7063375115394592,0.6729249954223633,3.951750040054321
1780564716394200000,8.299199951171875,-0.3673999905586242,0.7954375147819519,3.1965999603271484
1780564716413722600,8.31872265625,-0.1238875016570091,0.8892124891281128,2.530412435531616
1780564716433245200,8.3382451171875,0.038087498396635,0.9065374732017516,1.9133124351501465
1780564716452766200,8.35776611328125,0.1348875015974044,0.791450023651123,1.303225040435791
1780564716472292600,8.377292724609376,0.190712496638298,0.5368000268936157,0.6626124978065491
1780564716491816200,8.396816162109374,0.2248124927282333,0.201162502169609,0.0186999998986721
1780564716511337700,8.416337646484376,0.2407625019550323,-0.1352999955415725,-0.5306124687194824
1780564716530856700,8.435856689453125,0.2209624946117401,-0.4075500071048736,-0.859375
1780564716550371800,8.455371826171875,0.146987497806549,-0.5750250220298767,-0.8867374658584595
1780564716569887500,8.474887451171876,0.146987497806549,-0.5750250220298767,-0.8867374658584595
1780564716589407500,8.494407470703125,0.0219999998807907,-0.6115999817848206,-0.6215000152587891
1780564716608930000,8.513929931640625,-0.1088999956846237,-0.295487493276596,0.1977249979972839
1780564716628451000,8.533451171875,-0.1088999956846237,-0.295487493276596,0.1977249979972839
1780564716647975200,8.55297509765625,0.2432374954223632,0.2782999873161316,0.4768500030040741
1780564716667499300,8.572499267578126,0.2432374954223632,0.2782999873161316,0.4768500030040741
1780564716687019500,8.59201953125,0.2173874974250793,0.5256624817848206,0.4424749910831451
1780564716706544600,8.611544677734376,0.214087501168251,0.7115625143051147,0.3546124994754791
1780564716726071300,8.6310712890625,0.4193750023841858,0.8053374886512756,0.210099995136261
1780564716745595000,8.650594970703125,0.4494875073432922,0.7500625252723694,-0.0127875003963708
1780564716765120300,8.670120361328125,0.3396250009536743,0.5385875105857849,-0.3155624866485595
1780564716784649500,8.6896494140625,0.1850749999284744,0.2476374953985214,-0.6946499943733215
1780564716804177400,8.709177490234374,0.0859375,-0.0186999998986721,-1.168887495994568
1780564716823703000,8.728703125,0.1051874980330467,-0.1798499971628189,-1.7697625160217283
1780564716843227000,8.748226806640625,0.2778874933719635,-0.1878249943256378,-2.558462381362915
1780564716862751000,8.7677509765625,0.6347000002861023,-0.0137499999254941,-3.648974895477295
1780564716882277400,8.78727734375,1.277512550354004,0.3848625123500824,-5.403474807739258
1780564716901809000,8.806808837890625,2.4061124324798584,1.0946375131607056,-8.009787559509277
1780564716921334500,8.82633447265625,4.021737575531006,2.066624879837036,-11.879724502563477
1780564716940851500,8.8458515625,5.352462291717529,2.806375026702881,-14.848899841308594
1780564716960370200,8.8653701171875,5.646850109100342,2.884887456893921,-15.124449729919434
1780564716979893000,8.88489306640625,5.127099990844727,2.485312461853028,-13.428250312805176
1780564716999413800,8.904413818359375,4.306362628936768,1.952775001525879,-11.118249893188477
1780564717018935300,8.923935302734375,3.426500082015991,1.452549934387207,-8.801512718200684
1780564717038459400,8.94345947265625,2.584587574005127,1.040737509727478,-6.689237594604492
1780564717057987300,8.9629873046875,1.838925004005432,0.7280625104904175,-5.001975059509277
1780564717077517300,8.982517333984376,1.18607497215271,0.5003625154495239,-3.366962432861328
1780564717097045500,9.00204541015625,0.6316750049591064,0.3348124921321869,-2.034174919128418
1780564717116575200,9.0215751953125,0.146987497806549,0.20363749563694,-0.9010375142097472
1780564717136100000,9.04110009765625,-0.3033249974250793,0.0793375000357627,0.1282874941825866
1780564717155624200,9.060624267578126,-0.7584499716758728,-0.0602249987423419,1.1507375240325928
1780564717175147300,9.080147216796876,-1.2581249475479126,-0.2303124964237213,2.276449918746948
1780564717194665700,9.099665771484377,-1.8695875406265257,-0.4512749910354614,3.705487489700317
1780564717214184200,9.11918408203125,-2.7186501026153564,-0.7623000144958496,5.844299793243408
1780564717233702000,9.138701904296877,-3.8300623893737793,-1.1837375164031982,8.461337089538574
1780564717253221400,9.158221435546874,-4.97626256942749,-1.5875749588012695,11.508062362670898
1780564717272746000,9.17774609375,-5.542487621307373,-1.7265875339508057,13.297900199890137
1780564717292267500,9.197267578125,-5.316712379455566,-1.532437443733215,13.198487281799316
1780564717311788800,9.216788818359374,-4.583837509155273,-1.165174961090088,11.824174880981444
1780564717331310800,9.236310791015624,-3.677025079727173,-0.7937874794006348,9.960912704467772
1780564717350831400,9.255831298828124,-2.8022499084472656,-0.4959625005722046,8.09888744354248
1780564717370354000,9.27535400390625,-2.056725025177002,-0.2758249938488006,6.469237327575684
1780564717389879600,9.294879638671874,-2.056725025177002,-0.2758249938488006,6.469237327575684
1780564717409405700,9.31440576171875,-1.0081499814987185,0.0819500014185905,4.321074962615967
1780564717428929000,9.333928955078123,-1.0081499814987185,0.0819500014185905,4.321074962615967
1780564717448449500,9.353449462890625,-0.6077499985694885,0.2886124849319458,3.5523123741149902
1780564717467972900,9.372972900390623,0.0991374999284744,0.6224625110626221,2.1791000366210938
1780564717487498800,9.392498779296876,0.0991374999284744,0.6224625110626221,2.1791000366210938
1780564717507021000,9.41202099609375,0.3620375096797943,0.6352499723434448,1.47056245803833
1780564717526542000,9.4315419921875,0.5389999747276306,0.5571500062942505,0.7942000031471252
1780564717546063600,9.451063720703123,0.6280999779701233,0.445499986410141,0.2318249940872192
1780564717565585700,9.470585693359377,0.6385499835014343,0.3438875079154968,-0.1527625024318695
1780564717585108000,9.49010791015625,0.6004624962806702,0.2743124961853027,-0.3826625049114227
1780564717604629500,9.50962939453125,0.5480750203132629,0.2528625130653381,-0.5418875217437744
1780564717624149500,9.5291494140625,0.4966500103473663,0.2803624868392944,-0.6897000074386597
1780564717643671800,9.548671875,0.4375250041484833,0.3255999982357025,-0.821150004863739
1780564717663198000,9.568197998046877,0.3539249897003174,0.3491125106811523,-0.899524986743927
1780564717682719500,9.587719482421877,0.2381500005722046,0.3283500075340271,-0.9063999652862548
1780564717702236400,9.607236328125,0.091849997639656,0.2641375064849853,-0.8530499935150146
1780564717721756700,9.626756591796877,-0.0745249986648559,0.1700875014066696,-0.7603750228881836
1780564717741278200,9.6462783203125,-0.2452999949455261,0.0617375001311302,-0.6459749937057495
1780564717760800300,9.66580029296875,-0.4078249931335449,-0.0466125011444091,-0.5343250036239624
1780564717780320800,9.68532080078125,-0.5436750054359436,-0.1577125042676925,-0.4954124987125397
1780564717799838500,9.70483837890625,-0.6208124756813049,-0.291637510061264,-0.6675624847412109
1780564717819360500,9.724360595703123,-0.5802500247955322,-0.4328500032424927,-1.2557874917984009
1780564717838887700,9.7438876953125,-0.2943874895572662,-0.4771249890327453,-2.6191000938415527
1780564717858414800,9.763414794921877,0.5511000156402588,-0.2327875047922134,-5.667474746704102
1780564717877939000,9.78293896484375,2.439112424850464,0.4427500069141388,-10.88133716583252
1780564717897464000,9.802464111328124,4.641725063323975,1.136162519454956,-16.48157501220703
1780564717916987100,9.821987060546874,5.525437355041504,1.2841124534606934,-18.065711975097656
1780564717936508400,9.84150830078125,5.035937309265137,1.0089750289916992,-16.011186599731445
1780564717956029200,9.861029296875,4.110700130462647,0.6527125239372253,-12.987287521362305
1780564717975550000,9.880550048828123,3.201550006866455,0.340312510728836,-10.182562828063965
1780564717995071000,9.900071044921877,2.4395248889923096,0.1039500012993812,-7.906112670898437
1780564718014596600,9.9195966796875,1.8386499881744385,-0.0562375001609325,-6.416299819946289
1780564718034124800,9.939124755859376,1.3414499759674072,-0.1483625024557113,-4.87244987487793
1780564718053649400,9.9586494140625,0.928950011730194,-0.1762749999761581,-3.6694624423980713
1780564718073173500,9.978173583984375,0.5813499689102173,-0.1347499936819076,-2.69665002822876
1780564718092700700,9.99770068359375,0.3029125034809112,-0.0203499998897314,-1.91949999332428
1780564718112230000,10.01722998046875,0.0925374999642372,0.1472624987363815,-1.307075023651123
1780564718131755000,10.036755126953125,-0.0966624990105629,0.3301374912261963,-0.7404375076293945
1780564718151276800,10.05627685546875,-0.3513124883174896,0.4958249926567077,-0.006874999962747
1780564718170797600,10.075797607421874,-0.8082249760627747,0.6389625072479248,1.2531750202178955
1780564718190319000,10.095319091796876,-1.1449625492095947,0.7618874907493591,5.905624866485596
1780564718209843500,10.114843505859374,-1.2219624519348145,0.8035500049591064,20.8784122467041
1780564718229369600,10.13436962890625,-1.2219624519348145,0.8035500049591064,20.8784122467041
1780564718248893700,10.153893798828124,-1.214674949645996,0.9250999689102172,22.938024520874023
1780564718268418300,10.173418212890626,-1.214674949645996,0.9250999689102172,22.938024520874023
1780564718287943700,10.192943603515625,-0.5149375200271606,1.0456874370574951,12.02753734588623
1780564718307466000,10.212466064453125,-0.5149375200271606,1.0456874370574951,12.02753734588623
1780564718326989300,10.2319892578125,-0.5149375200271606,1.0456874370574951,12.02753734588623
1780564718346513200,10.25151318359375,0.0658624991774559,0.9821624755859376,6.6605000495910645
1780564718366036000,10.271035888671875,0.2877874970436096,0.9323874711990356,4.776337623596191
1780564718385560000,10.29056005859375,0.4757499992847442,0.9039250016212464,3.4788875579833984
1780564718405083100,10.310083251953126,0.6256250143051147,0.8916875123977661,2.5664374828338623
1780564718424602400,10.329602294921877,0.7387874722480774,0.8826124668121338,1.90024995803833
1780564718444125400,10.34912548828125,0.8212875127792358,0.8655624985694885,1.3678499460220337
1780564718463650600,10.368650634765626,0.8753250241279602,0.8101499676704407,0.8842625021934509
1780564718483172900,10.3881728515625,0.8959500193595886,0.6642624735832214,0.4086500108242035
1780564718502697200,10.407697265625,0.8826124668121338,0.4067249894142151,-0.0636624991893768
1780564718522220800,10.427220703125,0.847000002861023,0.0851124972105026,-0.512737512588501
1780564718541744400,10.446744384765625,0.8095999956130981,-0.2118874937295913,-0.903374969959259
1780564718561269500,10.46626953125,0.781962513923645,-0.402875006198883,-1.1706750392913818
1780564718580787700,10.48578759765625,0.7605124711990356,-0.4368374943733215,-1.2432750463485718
1780564718600305400,10.505305419921877,0.7418124675750732,-0.309374988079071,-1.108662486076355
1780564718619829800,10.524829833984375,0.73232501745224,-0.0699874982237815,-0.8463125228881836
1780564718639353000,10.54435302734375,0.735212504863739,0.2032250016927719,-0.5834124684333801
1780564718658875400,10.56387548828125,0.7331500053405762,0.4508624970912933,-0.4060375094413757
1780564718678398200,10.583398193359375,0.6914874911308289,0.6393749713897705,-0.31597501039505
1780564718697920500,10.60292041015625,0.5699374675750732,0.7360374927520752,-0.2602874934673309
1780564718717441300,10.622441162109377,0.3506250083446502,0.7023500204086304,-0.2079000025987625
1780564718736960500,10.64196044921875,0.0654499977827072,0.5139750242233276,-0.2292124927043914
1780564718756484000,10.661484130859376,-0.214087501168251,0.2067999988794326,-0.4384874999523163
1780564718776010000,10.681010009765624,-0.4085125029087066,-0.1259499937295913,-0.9063999652862548
1780564718795535400,10.700535400390624,-0.4508624970912933,-0.3806000053882599,-1.6766749620437622
1780564718815057200,10.72005712890625,-0.2752749919891357,-0.47079998254776,-2.864262580871582
1780564718834579700,10.739579833984376,0.2668874859809875,-0.2974124848842621,-4.939412593841553
1780564718854105000,10.75910498046875,1.5551249980926514,0.3132250010967254,-8.591962814331055
1780564718873629700,10.778629638671877,2.262700080871582,0.8934749960899353,-14.642237663269045
1780564718893158700,10.79815869140625,3.100487470626831,1.3554749488830566,-19.175336837768555
1780564718912687600,10.8176875,4.1808247566223145,1.618512511253357,-18.976924896240234
1780564718932211500,10.83721142578125,3.950237512588501,1.3924624919891355,-16.03483772277832
1780564718951736800,10.85673681640625,3.328737497329712,1.056962490081787,-12.68478775024414
1780564718971264300,10.87626416015625,2.681387424468994,0.7387874722480774,-9.734999656677246
1780564718990793200,10.895793212890624,2.1084249019622803,0.4801499843597412,-7.339200019836426
1780564719010318800,10.91531884765625,1.6277250051498413,0.2991999983787536,-5.654687404632568
1780564719029843500,10.934843505859376,1.212612509727478,0.188787505030632,-4.067662715911865
1780564719049369300,10.954369384765624,1.212612509727478,0.188787505030632,-4.067662715911865
1780564719068895500,10.9738955078125,0.5072374939918518,0.0664125010371208,-1.8298499584198
1780564719088420600,10.993420654296877,0.5072374939918518,0.0664125010371208,-1.8298499584198
1780564719107942700,11.012942626953125,-0.0651749968528747,-0.0030249999836087,-0.3338499963283539
1780564719127467500,11.032467529296875,-0.0651749968528747,-0.0030249999836087,-0.3338499963283539
1780564719146993400,11.051993408203124,-0.0651749968528747,-0.0030249999836087,-0.3338499963283539
1780564719166515500,11.071515380859376,-0.5255249738693237,-0.0225499998778104,0.7886999845504761
1780564719186038500,11.09103857421875,-0.896637499332428,-0.045924998819828,1.621399998664856
1780564719205563000,11.11056298828125,-1.445812463760376,-0.1131625026464462,2.9519875049591064
1780564719225083100,11.130083251953126,-2.3204500675201416,-0.2817375063896179,5.278349876403809
1780564719244603400,11.149603271484375,-3.9261748790740967,-0.7016624808311462,9.42493724822998
1780564719264126700,11.169126708984376,-6.34975004196167,-1.3976874351501465,16.16724967956543
1780564719283653400,11.1886533203125,-7.728737354278564,-1.7873624563217163,20.44363784790039
1780564719303182000,11.20818212890625,-7.070250034332275,-1.527074933052063,19.3033504486084
1780564719322708000,11.2277080078125,-5.588412284851074,-0.9919250011444092,15.815112113952637
1780564719342235400,11.2472353515625,-4.12939977645874,-0.4877125024795532,12.277099609375
1780564719361760800,11.2667607421875,-2.9246249198913574,-0.1143999993801117,9.338725090026855
1780564719381280500,11.286280517578126,-2.0054373741149902,0.1269125044345855,7.091700077056885
1780564719400802000,11.305802001953126,-1.3381500244140625,0.2902624905109405,5.63928747177124
1780564719420321800,11.32532177734375,-0.8509874939918518,0.4343625009059906,4.333449840545654
1780564719439840500,11.344840576171874,-0.4877125024795532,0.5761250257492065,3.377137422561645
1780564719459359200,11.364359130859375,-0.2088624984025955,0.6886000037193298,2.621299982070923
1780564719478876700,11.383876708984374,-0.0034374999813735,0.7189875245094299,1.9714750051498413
1780564719498393900,11.403393798828125,0.1263625025749206,0.6315374970436096,1.383525013923645
1780564719517910500,11.42291064453125,0.1868624985218048,0.4397250115871429,0.8586875200271606
1780564719537429500,11.442429443359377,0.1964875012636184,0.1975875049829483,0.4310624897480011
1780564719556949800,11.46194970703125,0.176825001835823,-0.0325874984264373,0.1447875052690506
1780564719576466400,11.481466552734377,0.1497374922037124,-0.2120250016450882,0.0017874999903142
1780564719595983400,11.5009833984375,0.1402499973773956,-0.3199625015258789,-0.0538999997079372
1780564719615506400,11.52050634765625,0.170912504196167,-0.3452624976634979,-0.0958374962210655
1780564719635030500,11.540030517578124,0.2452999949455261,-0.295074999332428,-0.1501500010490417
1780564719654555100,11.55955517578125,0.3455374836921692,-0.1890625059604644,-0.1861750036478042
1780564719674084400,11.57908447265625,0.4510000050067901,-0.0455125011503696,-0.1830125004053115
1780564719693613300,11.59861328125,0.5522000193595886,0.1214125007390976,-0.1742125004529953
1780564719713134000,11.618134033203123,0.6337375044822693,0.2939749956130981,-0.2098249942064285
1780564719732652500,11.637652587890624,0.6524375081062317,0.4365625083446502,-0.2836624979972839
1780564719752173300,11.65717333984375,0.5634750127792358,0.4871625006198883,-0.3591499924659729
1780564719771695400,11.6766953125,0.3738625049591064,0.3885749876499176,-0.4531999826431274
1780564719791217700,11.6962177734375,0.1548250019550323,0.1651374995708465,-0.632224977016449
1780564719810739500,11.715739501953124,-0.002199999988079,-0.0654499977827072,-0.9570000171661376
1780564719830259500,11.735259521484377,-0.002199999988079,-0.0654499977827072,-0.9570000171661376
1780564719849779200,11.754779296875,-0.0378125011920928,-0.1933249980211258,-1.4416874647140503
1780564719869298200,11.774298095703124,0.3385249972343445,-0.0547249987721443,-3.0082249641418457
1780564719888813000,11.79381298828125,0.3385249972343445,-0.0547249987721443,-3.0082249641418457
1780564719908327200,11.8133271484375,0.3385249972343445,-0.0547249987721443,-3.0082249641418457
1780564719927841800,11.832841796875,2.2229623794555664,1.381737470626831,-8.68271255493164
1780564719947357700,11.852357666015624,2.2229623794555664,1.381737470626831,-8.68271255493164
1780564719966877400,11.87187744140625,5.871250152587891,4.215612411499023,-18.994112014770508
1780564719986399700,11.891399658203126,5.607662677764893,3.848900079727173,-17.539087295532227
1780564720005919500,11.91091943359375,4.670050144195557,2.9990124702453613,-14.28487491607666
1780564720025440300,11.930440185546876,3.710712432861328,2.205087423324585,-11.182737350463867
1780564720044963600,11.949963623046877,2.897537469863892,1.5841374397277832,-8.676387786865234
1780564720064490500,11.969490478515626,2.23877501487732,1.128737449645996,-6.755237579345703
1780564720084014800,11.989014892578124,1.7078875303268433,0.8001124858856201,-5.472362518310547
1780564720103532800,12.00853271484375,1.2476749420166016,0.5559124946594238,-4.223724842071533
1780564720123050800,12.02805078125,0.8311874866485596,0.3669874966144562,-3.195912599563598
1780564720142571300,12.0475712890625,0.4461874961853027,0.2235749959945678,-2.3047749996185303
1780564720162090500,12.067090576171877,0.1028499975800514,0.1288374960422516,-1.535325050354004
1780564720181606400,12.0866064453125,-0.1769624948501587,0.089649997651577,-0.906125009059906
1780564720201123800,12.106123779296874,-0.3891249895095825,0.1043625026941299,-0.402875006198883
1780564720220645000,12.12564501953125,-0.5702124834060669,0.1537249982357025,0.0746624991297721
1780564720240168400,12.14516845703125,-0.8197749853134155,0.1908500045537948,0.7826499938964844
1780564720259691300,12.164691162109374,-1.5398625135421753,0.0301124993711709,2.799912452697754
1780564720279210200,12.184210205078124,-5.415299892425537,-1.6483500003814695,13.618550300598145
1780564720298730200,12.203730224609377,-9.434562683105469,-3.494425058364868,25.54351234436035
1780564720318255400,12.22325537109375,-8.808525085449219,-3.2245125770568848,25.1752872467041
1780564720337782300,12.2427822265625,-6.458924770355225,-2.0774874687194824,19.385162353515625
1780564720357309700,12.262309814453126,-4.628662586212158,-1.140974998474121,14.370124816894531
1780564720376832000,12.28183203125,-3.229187488555908,-0.4914250075817108,10.505687713623049
1780564720396347600,12.30134765625,-2.2010998725891118,-0.0928125008940696,7.626024723052978
1780564720415854800,12.320854736328124,-1.465612530708313,0.1207249984145164,5.709412574768066
1780564720435360800,12.34036083984375,-0.9301875233650208,0.2283875048160553,4.012249946594238
1780564720454873000,12.359873046875,-0.5335000157356262,0.3048374950885772,2.782449960708618
1780564720474391300,12.379391357421875,-0.220550000667572,0.3937999904155731,1.8602374792099
1780564720493911300,12.398911376953125,0.0406999997794628,0.4982999861240387,1.154175043106079
1780564720513427200,12.41842724609375,0.2611125111579895,0.5926250219345093,0.6058250069618225
1780564720532947700,12.43794775390625,0.4384874999523163,0.6462500095367432,0.1747625023126602
1780564720552472000,12.45747216796875,0.562375009059906,0.639787495136261,-0.1596374958753585
1780564720571988200,12.47698828125,0.6252124905586243,0.5725499987602234,-0.4090625047683716
1780564720591510000,12.496510009765624,0.6297500133514404,0.4617249965667724,-0.5923500061035156
1780564720611033600,12.51603369140625,0.5935875177383423,0.334262490272522,-0.7335624694824219
1780564720630554000,12.53555419921875,0.5392749905586243,0.2158749997615814,-0.8515374660491943
1780564720650082600,12.55508251953125,0.5392749905586243,0.2158749997615814,-0.8515374660491943
1780564720669611500,12.574611572265624,0.4827624857425689,0.1223749965429306,-0.9527375102043152
1780564720689134600,12.594134521484374,0.3757874965667724,0.0419375002384185,-1.0789624452590942
1780564720708657000,12.613656982421874,0.3757874965667724,0.0419375002384185,-1.0789624452590942
1780564720728180700,12.6331806640625,0.2536875009536743,0.0981749966740608,-1.0551749467849731
1780564720747703600,12.65270361328125,0.2536875009536743,0.0981749966740608,-1.0551749467849731
1780564720767223600,12.6722236328125,0.2536875009536743,0.0981749966740608,-1.0551749467849731
1780564720786743600,12.69174365234375,-0.2004749923944473,0.1319999992847442,-0.7419499754905701
1780564720806263600,12.711263671875,-0.2004749923944473,0.1319999992847442,-0.7419499754905701
1780564720825783600,12.730783447265624,-0.4060375094413757,0.0287375003099441,-0.7354875206947327
1780564720845302500,12.750302490234375,-0.5362499952316284,-0.091849997639656,-0.8446624875068665
1780564720864822500,12.769822509765625,-0.5511000156402588,-0.2044624984264373,-1.1433124542236328
1780564720884343000,12.789343017578124,-0.4399999976158142,-0.2868250012397766,-1.7521624565124512
1780564720903861000,12.808861083984375,-0.1561999917030334,-0.2660624980926513,-2.883237600326538
1780564720923376400,12.82837646484375,0.1614249944686889,0.0030249999836087,-5.608075141906738
1780564720942896400,12.847896484375,2.5737249851226807,1.5581499338150024,-14.20842456817627
1780564720962419500,12.86741943359375,5.968599796295166,3.358162403106689,-23.782550811767575
1780564720981939500,12.886939453125,6.504300117492676,3.344825029373169,-23.97711181640625
1780564721001458000,12.9064580078125,5.225137233734131,2.3729748725891118,-18.89882469177246
1780564721020977200,12.92597705078125,3.900049924850464,1.4888499975204468,-14.073399543762209
1780564721040495600,12.94549560546875,2.794275045394897,0.8243125081062317,-10.217487335205078
1780564721060011500,12.965011474609376,1.923349976539612,0.3647874891757965,-7.286125183105469
1780564721079529200,12.984529296875,1.2640374898910522,0.0716374963521957,-5.27628755569458
1780564721099051000,13.004051025390623,0.7803124785423279,-0.0874499976634979,-3.590674877166748
1780564721118571800,13.02357177734375,0.4461874961853027,-0.1403875052928924,-2.427837371826172
1780564721138093000,13.043093017578125,0.2121624946594238,-0.1155000030994415,-1.5877125263214111
1780564721157614000,13.062614013671874,0.0232375003397464,-0.0434499979019165,-0.910937488079071
1780564721177132500,13.082132568359375,-0.1478125005960464,0.0501874983310699,-0.3240875005722046
1780564721196653300,13.1016533203125,-0.2891624867916107,0.1504250019788742,0.1495999991893768
1780564721216173800,13.121173828125,-0.3852750062942505,0.2486000061035156,0.4768500030040741
1780564721235691000,13.14069091796875,-0.4510000050067901,0.3331624865531921,0.6957499980926514
1780564721255206700,13.16020654296875,-0.5174124836921692,0.393387496471405,0.8970500230789185
1780564721274723600,13.1797236328125,-0.6687999963760376,0.4060375094413757,1.3300374746322632
1780564721294246000,13.199245849609374,-1.878387451171875,0.0532125011086463,4.856500148773193
1780564721313770500,13.2187705078125,-2.7323999404907227,-0.6635749936103821,22.653812408447266
1780564721333289500,13.23828955078125,-2.400612592697144,-0.854562520980835,33.04991149902344
1780564721352807000,13.257806884765625,-2.054937601089477,-0.4508624970912933,24.811187744140625
1780564721372321000,13.277321044921877,-1.5676374435424805,-0.0609125010669231,18.209400177001957
1780564721391833000,13.2968330078125,-1.0913374423980713,0.2315499931573867,13.2980375289917
1780564721411347500,13.316347412109376,-0.6608250141143799,0.4632374942302704,9.637237548828123
1780564721430864100,13.335864013671875,-0.292600005865097,0.6905249953269958,6.913774967193604
1780564721450382300,13.35538232421875,0.009349999949336,0.9337624907493592,5.032225131988525
1780564721469900800,13.37490087890625,0.2501125037670135,1.1636625528335571,3.402024984359741
1780564721489419300,13.394419189453124,0.4280374944210052,1.3116124868392944,2.176487445831299
1780564721508940300,13.413940185546876,0.5392749905586243,1.2970374822616575,1.21274995803833
1780564721528462300,13.43346240234375,0.5392749905586243,1.2970374822616575,1.21274995803833
1780564721547984600,13.452984619140626,0.5909749865531921,0.6752625107765198,-0.2690874934196472
1780564721567503000,13.472503173828123,0.5909749865531921,0.6752625107765198,-0.2690874934196472
1780564721587020500,13.4920205078125,0.5852000117301941,0.2901250123977661,-0.8604750037193298
1780564721606536400,13.511536376953124,0.5964750051498413,0.0218624994158744,-1.3319624662399292
1780564721626049800,13.5310498046875,0.6304374933242798,-0.1430000066757202,-1.639412522315979
1780564721645565200,13.550565185546876,0.6707249879837036,-0.1747625023126602,-1.7587624788284302
1780564721665081600,13.57008154296875,0.7037249803543091,-0.1061500012874603,-1.7362124919891355
1780564721684601600,13.5896015625,0.7196750044822693,-0.0127875003963708,-1.657562494277954
1780564721704121900,13.609121826171876,0.7079874873161316,0.0745249986648559,-1.5736874341964722
1780564721723640000,13.62864013671875,0.6579374670982361,0.1454750001430511,-1.4823875427246094
1780564721743160000,13.64816015625,0.5629249811172485,0.1827374994754791,-1.359737515449524
1780564721762681000,13.66768115234375,0.4258374869823456,0.1802625060081482,-1.2005125284194946
1780564721782200300,13.687200439453123,0.2545124888420105,0.154412493109703,-1.0411499738693235
1780564721801718000,13.706718017578124,0.0576125010848045,0.1322750002145767,-0.9204249978065492
1780564721821239300,13.7262392578125,-0.1520749926567077,0.1296624988317489,-0.8373749852180481
1780564721840765200,13.74576513671875,-0.3480125069618225,0.1442375034093856,-0.7704125046730042
1780564721860293600,13.765293701171874,-0.4981625080108642,0.1577125042676925,-0.7038624882698059
1780564721879820800,13.78482080078125,-0.5757125020027161,0.1520749926567077,-0.6590374708175659
1780564721899347500,13.804347412109376,-0.5593500137329102,0.130074992775917,-0.729574978351593
1780564721918872300,13.823872314453125,-0.4273499846458435,0.1259499937295913,-1.096150040626526
1780564721938394000,13.84339404296875,-0.1321374922990799,0.203087493777275,-2.0629124641418457
1780564721957916400,13.86291650390625,0.5043500065803528,0.5021499991416931,-4.453487396240234
1780564721977438000,13.88243798828125,2.200962543487549,1.5085124969482422,-10.664087295532228
1780564721996959200,13.901959228515626,4.713775157928467,2.958724975585937,-19.526100158691406
1780564722016480500,13.92148046875,5.7274250984191895,3.310312509536743,-22.359975814819336
1780564722036005400,13.94100537109375,4.895549774169922,2.495074987411499,-18.596874237060547
1780564722055530200,13.9605302734375,3.7560875415802,1.5860625505447388,-14.031737327575684
1780564722075053000,13.980052978515625,2.766225099563598,0.8674874901771545,-10.21253776550293
1780564722094574000,13.999573974609374,1.9764249324798584,0.3558500111103058,-7.258487224578857
1780564722114095000,14.01909521484375,1.3611124753952026,0.0114124994724988,-5.1808624267578125
1780564722133618400,14.038618408203124,0.8866000175476074,-0.2074874937534332,-3.4229249954223637
1780564722153140700,14.058140625,0.5267624855041504,-0.3356375098228454,-2.1781375408172607
1780564722172662800,14.077662841796876,0.2470874935388565,-0.3948999941349029,-1.274762511253357
1780564722192187000,14.097186767578124,0.0259875003248453,-0.3997125029563904,-0.6135249733924866
1780564722211711700,14.116711669921877,-0.1542750000953674,-0.3656125068664551,-0.1218250021338462
1780564722231229700,14.136229736328126,-0.3250499963760376,-0.3133625090122223,0.2928749918937683
1780564722250744800,14.155744873046874,-0.5384500026702881,-0.2693625092506408,0.7642250061035156
1780564722270268700,14.1752685546875,-0.8428750038146973,-0.254375010728836,1.4242249727249146
1780564722289793800,14.194793701171877,-1.26610004901886,-0.2700499892234802,2.374487400054932
1780564722309315300,14.2143154296875,-1.26610004901886,-0.2700499892234802,2.374487400054932
1780564722328836400,14.23383642578125,-1.852674961090088,-0.3129499852657318,3.7959625720977774
1780564722348360000,14.25335986328125,-4.719550132751465,-0.987112522125244,11.726550102233888
1780564722367887600,14.2728876953125,-4.719550132751465,-0.987112522125244,11.726550102233888
1780564722387412500,14.29241259765625,-4.719550132751465,-0.987112522125244,11.726550102233888
1780564722406933000,14.31193310546875,-6.884487628936768,-1.7487249374389648,19.99937438964844
1780564722426456600,14.33145654296875,-5.62141227722168,-1.275862455368042,17.171411514282227
1780564722445978600,14.350978515625,-4.2129998207092285,-0.7864999771118164,13.491774559020996
1780564722465496000,14.37049609375,-3.0501625537872314,-0.4302375018596649,10.2902250289917
1780564722485017600,14.390017578125,-2.1672749519348145,-0.1951124966144561,7.783874988555908
1780564722504544000,14.4095439453125,-1.5079624652862549,-0.0302499998360872,6.108850002288818
1780564722524070700,14.429070556640625,-0.9822999835014344,0.116737499833107,4.445099830627441
1780564722543594500,14.448594482421877,-0.5413374900817871,0.2763749957084656,3.1347250938415527
1780564722563119600,14.46811962890625,-0.1512500047683715,0.4441249966621399,2.082437515258789
1780564722582645500,14.4876455078125,0.1929125040769577,0.5953750014305115,1.2658250331878662
1780564722602165200,14.507165283203124,0.4749250113964081,0.7114250063896179,0.6639875173568726
1780564722621683200,14.52668310546875,0.6712750196456909,0.7853999733924866,0.228937491774559
1780564722641203500,14.546203369140626,0.7713750004768372,0.8101499676704407,-0.0901999995112419
1780564722660723700,14.5657236328125,0.7966749668121338,0.7754999995231628,-0.340312510728836
1780564722680243700,14.58524365234375,0.794612467288971,0.6832374930381775,-0.5769500136375427
1780564722699766500,14.6047666015625,0.8036875128746033,0.5574250221252441,-0.8405374884605408
1780564722719286800,14.624286865234374,0.8159250020980835,0.4289999902248382,-1.114712476730347
1780564722738807300,14.643807373046876,0.8083624839782715,0.3161124885082245,-1.3282500505447388
1780564722758331100,14.6633310546875,0.7567999958992004,0.2168374955654144,-1.407312512397766
1780564722777853200,14.682853271484374,0.6510624885559082,0.1249874979257583,-1.346537470817566
1780564722797375700,14.702375732421874,0.5178250074386597,0.0492249988019466,-1.2179750204086304
1780564722816897500,14.7218974609375,0.3752374947071075,0.0085249999538064,-1.1074249744415283
1780564722836418300,14.741418212890624,0.2106499969959259,0.0087999999523162,-1.02753746509552
1780564722855943700,14.760943603515624,-0.0050874999724328,0.0268124993890523,-0.9112125039100648
1780564722875470300,14.78047021484375,-0.2600125074386596,0.0170499999076128,-0.7682124972343445
1780564722894996000,14.799995849609376,-0.476437509059906,-0.0547249987721443,-0.8038250207901001
1780564722914528300,14.8195283203125,-0.5522000193595886,-0.1695374995470047,-1.3135374784469604
1780564722934060800,14.839060791015624,-0.3903625011444092,-0.2356749922037124,-2.505662441253662
1780564722953592800,14.8585927734375,0.0948750004172325,-0.1205874979496002,-4.481262683868408
1780564722973126400,14.87812646484375,0.9494374990463256,0.2705999910831451,-6.8931498527526855
1780564722992659500,14.897659423828124,2.0450375080108643,0.890999972820282,-9.565324783325195
1780564723012191200,14.917191162109376,3.0179874897003174,1.533674955368042,-11.503662109375
1780564723031715600,14.936715576171874,3.549424886703491,1.9905874729156492,-12.074837684631348
1780564723051237600,14.956237548828126,3.6174874305725098,2.180749893188477,-11.386512756347656
1780564723070761700,14.97576171875,3.3749375343322754,2.125750064849853,-9.926400184631348
1780564723090282000,14.995281982421876,2.979899883270264,1.9094624519348145,-8.199399948120117
1780564723109805600,15.0148056640625,2.545675039291382,1.634600043296814,-6.6132001876831055
1780564723129333200,15.034333251953123,2.1461000442504883,1.3593250513076782,-5.601887702941895
1780564723148860200,15.053860107421874,2.1461000442504883,1.3593250513076782,-5.601887702941895
1780564723168386300,15.07338623046875,1.4480124711990356,0.7856749892234802,-4.294812679290772
1780564723187913700,15.092913818359374,1.4480124711990356,0.7856749892234802,-4.294812679290772
1780564723207442400,15.1124423828125,1.4480124711990356,0.7856749892234802,-4.294812679290772
1780564723226970400,15.131970458984377,0.878350019454956,0.2722499966621399,-3.782624959945679
1780564723246497500,15.15149755859375,0.6128374934196472,0.1482249945402145,-3.4061498641967773
1780564723266027300,15.17102734375,0.3624500036239624,0.1372250020503997,-2.9101874828338623
1780564723285556500,15.190556396484377,0.1648624986410141,0.2111999988555908,-2.4215126037597656
1780564723305083000,15.210082763671876,0.0633874982595443,0.3338499963283539,-2.0801000595092773
1780564723324607000,15.22960693359375,0.0922624990344047,0.5073750019073486,-1.990312457084656
1780564723344128000,15.2491279296875,0.4023250043392181,0.7979124784469604,-2.6113998889923096
1780564723363649800,15.26864990234375,6.119987487792969,3.216675043106079,-19.256187438964844
1780564723383178800,15.2881787109375,10.86813735961914,5.269000053405762,-33.32944869995117
1780564723402707200,15.307707275390625,8.780887603759766,4.572012424468994,-27.039100646972656
1780564723422233300,15.3272333984375,6.386875152587891,3.6546125411987305,-19.538063049316406
1780564723441758500,15.346758544921874,4.647637367248535,2.959549903869629,-13.980449676513672
1780564723461282300,15.3662822265625,3.4456124305725098,2.4637250900268555,-10.00793743133545
1780564723480808400,15.385808349609375,2.6654374599456787,2.150362491607666,-7.216962337493896
1780564723500333000,15.4053330078125,2.201512575149536,2.010387420654297,-5.433862686157227
1780564723519858200,15.424858154296874,1.906987547874451,1.9663875102996824,-3.95381236076355
1780564723539385600,15.444385498046875,1.704450011253357,1.9428750276565552,-2.97371244430542
1780564723558914000,15.4639140625,1.5367000102996826,1.8500624895095823,-2.379849910736084
1780564723578442200,15.483442138671874,1.381600022315979,1.4090999364852903,-2.1082875728607178
1780564723597967600,15.502967529296876,1.2413499355316162,0.9114875197410583,-2.086287498474121
1780564723617491200,15.5224912109375,1.133412480354309,0.6250749826431274,-2.210312604904175
1780564723637012200,15.54201220703125,1.0648000240325928,0.3584625124931335,-2.3368124961853027
1780564723656532200,15.5615322265625,1.021212458610535,0.2087250053882599,-2.3271875381469727
1780564723676057000,15.58105712890625,0.9836750030517578,0.2039124965667724,-2.122037410736084
1780564723695584800,15.600584716796876,0.9447624683380128,0.3102000057697296,-1.778975009918213
1780564723715114000,15.620114013671875,0.8999375104904175,0.4629625082015991,-1.4174875020980835
1780564723734644700,15.639644775390623,0.8355875015258789,0.6047250032424927,-1.1226874589920044
1780564723754175700,15.65917578125,0.7327374815940857,0.7030375003814697,-0.9102500081062316
1780564723773703700,15.67870361328125,0.5784624814987183,0.7382375001907349,-0.7768750190734863
1780564723793225700,15.698225830078124,0.3724874854087829,0.6951999664306641,-0.7532249689102173
1780564723812745200,15.7177451171875,0.1269125044345855,0.568149983882904,-0.8764249682426453
1780564723832270000,15.73727001953125,-0.1391499936580658,0.3723500072956085,-1.1270874738693235
1780564723851797200,15.75679736328125,-0.4060375094413757,0.1392875015735626,-1.4192750453948977
1780564723871324200,15.77632421875,-0.6500999927520752,-0.0940499976277351,-1.6640249490737915
1780564723890853400,15.795853271484376,-0.8258249759674072,-0.2892999947071075,-1.8796249628067017
1780564723910385700,15.8153857421875,-0.8647375106811523,-0.3979249894618988,-2.237262487411499
1780564723929914600,15.83491455078125,-0.8647375106811523,-0.3979249894618988,-2.237262487411499
1780564723949439700,15.854439697265626,-0.1121999993920326,0.0059124999679625,-5.203549861907959
1780564723968965000,15.873965087890625,1.3470875024795532,1.0346875190734863,-10.02443790435791
1780564723988492000,15.893491943359376,1.3470875024795532,1.0346875190734863,-10.02443790435791
1780564724008018700,15.913018798828125,4.927587509155273,3.2690625190734863,-20.698150634765625
1780564724027542300,15.932542236328125,4.927587509155273,3.2690625190734863,-20.698150634765625
1780564724047067400,15.9520673828125,4.654512405395508,2.898775100708008,-18.559062957763672
1780564724066594800,15.9715947265625,3.872274875640869,2.261324882507324,-14.908849716186523
1780564724086121200,15.991121337890624,3.0993874073028564,1.6654000282287598,-11.52236270904541
1780564724105649200,16.010649169921876,2.4359500408172607,1.1530749797821045,-8.753800392150879
1780564724125174000,16.030174072265623,1.8723374605178835,0.724762499332428,-6.58982515335083
1780564724144693800,16.04969384765625,1.382562518119812,0.3808749914169311,-5.075262546539307
1780564724164215600,16.069215576171874,0.950124979019165,0.1179749965667724,-3.7401375770568848
1780564724183740000,16.088739990234377,0.6004624962806702,-0.0629749968647956,-2.815999984741211
1780564724203260200,16.10826025390625,0.3370124995708465,-0.1612875014543533,-2.191474914550781
1780564724222780400,16.127780517578124,0.1273249983787536,-0.1913999915122985,-1.707337498664856
1780564724242304500,16.147304443359374,-0.06751249730587,-0.1714625060558319,-1.2292499542236328
1780564724261828600,16.16682861328125,-0.2502500116825104,-0.1099999994039535,-0.7354875206947327
1780564724281354500,16.1863544921875,-0.3907749950885772,-0.0060499999672174,-0.2978250086307525
1780564724300882000,16.2058818359375,-0.4772624969482422,0.1333750039339065,0.0494999997317791
1780564724320409300,16.225409423828125,-0.5475249886512756,0.2854500114917755,0.3990249931812286
1780564724339939300,16.244939208984373,-0.7503374814987183,0.3902249932289123,1.167099952697754
1780564724359468000,16.264468017578125,-4.133524894714356,-0.630299985408783,11.447150230407717
1780564724378993400,16.283993408203123,-9.331025123596191,-2.4200000762939453,27.982349395751957
1780564724398518500,16.3035185546875,-9.789862632751465,-2.58774995803833,30.361787796020508
1780564724418044000,16.3230439453125,-7.063650131225586,-1.573412537574768,22.381149291992188
1780564724437569000,16.342569091796875,-4.960999965667725,-0.8196374773979187,16.238750457763672
1780564724457096000,16.362095947265626,-3.413987398147583,-0.2993375062942505,11.743462562561035
1780564724476623000,16.381623046875,-2.290337562561035,0.0442750006914138,8.491312026977539
1780564724496146000,16.40114599609375,-1.4803249835968018,0.2645500004291534,6.42606258392334
1780564724515669000,16.4206689453125,-0.8849499821662903,0.4071374833583832,4.546024799346924
1780564724535190500,16.4401904296875,-0.4531999826431274,0.503250002861023,3.221212387084961
1780564724554707700,16.459707763671876,-0.1472624987363815,0.5656750202178955,2.261737585067749
1780564724574224400,16.479224365234376,0.0558249987661838,0.5924875140190125,1.557462453842163
1780564724593742000,16.4987421875,0.178749993443489,0.5770875215530396,1.01791250705719
1780564724613263000,16.51826318359375,0.2461249977350235,0.5154874920845032,0.562375009059906
1780564724632789200,16.537789306640626,0.2798124849796295,0.4096125066280365,0.1446499973535537
1780564724652317000,16.55731689453125,0.2956250011920929,0.2704625129699707,-0.2385624945163726
1780564724671842600,16.576842529296876,0.3004375100135803,0.1214125007390976,-0.5655375123023987
1780564724691367400,16.596367431640626,0.296037495136261,-0.0078375004231929,-0.8152375221252441
1780564724730409500,16.635409423828126,0.2646875083446502,-0.1086250022053718,-1.0733250379562378
1780564724749927400,16.654927490234375,0.2646875083446502,-0.1086250022053718,-1.0733250379562378
1780564724769446400,16.6744462890625,0.2461249977350235,-0.0708125010132789,-1.1089375019073486
1780564724788969700,16.6939697265625,0.1828749924898147,0.0723249986767768,-0.9938499927520752
1780564724808495400,16.713495361328125,0.1828749924898147,0.0723249986767768,-0.9938499927520752
1780564724828019700,16.733019775390623,0.0629749968647956,0.1872749924659729,-0.8001124858856201
1780564724847541200,16.752541259765625,0.0629749968647956,0.1872749924659729,-0.8001124858856201
1780564724867061200,16.772061279296874,-0.0291499998420476,0.2073500007390976,-0.6832374930381775
1780564724886587000,16.7915869140625,-0.1511124968528747,0.1870000064373016,-0.5017374753952026
1780564724906116000,16.8111162109375,-0.2899875044822693,0.1254000067710876,-0.2836624979972839
1780564724925643000,16.83064306640625,-0.4059000015258789,0.0323125012218952,-0.1193500012159347
1780564724945169200,16.850169189453126,-0.4651624858379364,-0.0793375000357627,-0.0771375000476837
1780564724964693000,16.86969287109375,-0.4556750059127807,-0.1929125040769577,-0.1878249943256378
1780564724984215000,16.889215087890626,-0.3757874965667724,-0.2854500114917755,-0.5064125061035156
1780564725003733000,16.90873291015625,-0.1982749998569488,-0.3280749917030334,-1.2355749607086182
1780564725023253200,16.928253173828125,0.3862375020980835,-0.118937499821186,-3.8015999794006343
1780564725042776000,16.947776123046875,4.244349956512451,2.1010000705718994,-19.308162689208984
1780564725062298600,16.967298583984373,7.390349864959717,3.790462493896485,-31.339000701904297
1780564725081817300,16.9868173828125,6.2649126052856445,2.871000051498413,-26.0466251373291
1780564725101337300,17.00633740234375,4.640900135040283,1.7861249446868896,-19.185924530029297
1780564725120857600,17.025857666015625,3.321587562561035,0.9539750218391418,-13.736387252807615
1780564725140375000,17.045375,2.3233375549316406,0.3660250008106231,-9.69993782043457
1780564725159895800,17.064895751953124,1.5694249868392944,-0.0318999998271465,-6.759087562561035
1780564725179415600,17.08441552734375,0.9833999872207642,-0.2942500114440918,-4.717625141143799
1780564725198937000,17.10393701171875,0.5252500176429749,-0.4483875036239624,-3.0527749061584477
1780564725218459400,17.12345947265625,0.1845249980688095,-0.5077875256538391,-1.8990124464035036
1780564725237980400,17.14298046875,-0.056512501090765,-0.4754749834537506,-1.096287488937378
1780564725257505500,17.162505615234377,-0.2211000025272369,-0.3517250120639801,-0.5264874696731567
1780564725277032400,17.182032470703124,-0.3261500000953674,-0.158950001001358,-0.1168750002980232
1780564725296553500,17.201553466796874,-0.3931125104427337,0.0574750006198883,0.1995124965906143
1780564725316070400,17.2210703125,-0.4566375017166137,0.2490125000476837,0.5172749757766724
1780564725335587300,17.24058740234375,-0.5651249885559082,0.3849999904632568,0.97308748960495
1780564725355105500,17.26010546875,-0.8702374696731567,0.4140124917030334,2.008737564086914
1780564725374630400,17.27963037109375,-2.332550048828125,0.0207624994218349,6.435549736022949
1780564725394155800,17.29915576171875,-6.740662574768066,-1.448699951171875,19.95784950256348
1780564725413677300,17.31867724609375,-9.217724800109863,-2.3742125034332275,27.958011627197266
1780564725433204500,17.33820458984375,-7.470787525177002,-1.8918625116348269,23.16270065307617
1780564725452729000,17.35772900390625,-5.563525199890137,-1.3217874765396118,17.78961181640625
1780564725472248300,17.377248291015626,-4.038237571716309,-0.8349000215530396,13.586787223815918
1780564725491769600,17.39676953125,-2.8566999435424805,-0.3790875077247619,10.466500282287598
1780564725511292400,17.41629248046875,-1.9344874620437624,0.0886875018477439,8.150862693786621
1780564725530813200,17.435813232421875,-1.216599941253662,0.5347374677658081,6.7212748527526855
1780564725550333000,17.4553330078125,-0.6671500205993652,0.8883875012397766,5.204649925231934
1780564725569851400,17.474851318359374,-0.6671500205993652,0.8883875012397766,5.204649925231934
1780564725589367300,17.4943671875,-0.2722499966621399,1.115262508392334,4.028887271881104
1780564725608885000,17.513885009765627,0.1368124932050705,1.166137456893921,2.158887386322021
1780564725628406300,17.53340625,0.1368124932050705,1.166137456893921,2.158887386322021
1780564725647931100,17.55293115234375,0.2311374992132187,0.7684875130653381,0.6335999965667725
1780564725667456500,17.57245654296875,0.2311374992132187,0.7684875130653381,0.6335999965667725
1780564725686978300,17.591978271484376,0.2506625056266784,0.5237374901771545,0.0259875003248453
1780564725706504200,17.611504150390626,0.2784374952316284,0.3027749955654144,-0.4691500067710876
1780564725726034000,17.631033935546874,0.3150124847888946,0.1480875015258789,-0.8533250093460083
1780564725745563100,17.650563232421874,0.3546124994754791,0.1006499975919723,-1.1169124841690063
1780564725765090600,17.670090576171877,0.3916000127792358,0.1363999992609024,-1.2810875177383425
1780564725784620800,17.689620849609376,0.4152500033378601,0.2147749960422516,-1.3813250064849854
1780564725804153000,17.709153076171877,0.408237487077713,0.2943874895572662,-1.430412530899048
1780564725823678000,17.728677978515623,0.3619000017642975,0.3264249861240387,-1.430412530899048
1780564725843203300,17.748203369140626,0.2767874896526336,0.3004375100135803,-1.3953499794006348
1780564725862730800,17.767730712890625,0.1575749963521957,0.2311374992132187,-1.3710124492645264
1780564725882256000,17.787255859375,0.0089375004172325,0.1423124969005584,-1.397825002670288
1780564725901782300,17.8067822265625,-0.157987505197525,0.031624998897314,-1.4916000366210938
1780564725921304800,17.826304931640625,-0.3107500076293945,-0.1067000031471252,-1.695099949836731
1780564725940826000,17.845826171875,-0.3801875114440918,-0.2366375029087066,-2.156825065612793
1780564725960350000,17.865349853515625,-0.2722499966621399,-0.2866874933242798,-3.1167125701904297
1780564725979874800,17.884874755859375,0.0941874980926513,-0.1828749924898147,-4.7991623878479
1780564725999400400,17.904400390625,0.778249979019165,0.115225002169609,-7.019649982452393
1780564726018927000,17.923927001953125,1.7638499736785889,0.593999981880188,-9.963112831115724
1780564726038454300,17.943454345703124,2.81888747215271,1.1211750507354736,-12.741849899291992
1780564726057978000,17.96297802734375,3.5403499603271484,1.4775749444961548,-14.233036994934082
1780564726077502500,17.98250244140625,3.714837551116944,1.549899935722351,-13.99832534790039
1780564726097025500,18.002025634765626,3.4618375301361084,1.3794000148773191,-12.564200401306152
1780564726116543200,18.021543212890624,2.999287366867065,1.071125030517578,-10.671099662780762
1780564726136064800,18.041064697265625,2.4807748794555664,0.7239375114440918,-8.807287216186523
1780564726155587600,18.06058764648437,1.9758750200271609,0.3968249857425689,-7.154675006866455
1780564726175109000,18.080109130859373,1.5141500234603882,0.1260875016450882,-5.960487365722656
1780564726194634200,18.09963427734375,1.1054999828338623,-0.0617375001311302,-4.649837493896484
1780564726214159000,18.1191591796875,0.7706875205039978,-0.1575749963521957,-3.610337495803833
1780564726233686500,18.1386865234375,0.5046250224113464,-0.1696749925613403,-2.778325080871582
1780564726253217800,18.1582177734375,0.2895750105381012,-0.1172875016927719,-2.086012601852417
1780564726272744700,18.17774462890625,0.1131625026464462,-0.0217249989509582,-1.4955874681472778
1780564726292267500,18.197267578125,-0.0305249989032745,0.0981749966740608,-0.9915124773979188
1780564726311796500,18.21679638671875,-0.1621125042438507,0.2222000062465667,-0.5242875218391418
1780564726331328300,18.236328369140622,-0.3198249936103821,0.3309625089168548,0.0059124999679625
1780564726350856000,18.25585595703125,-0.5663625001907349,0.4074124991893768,0.7771499752998352
1780564726370382000,18.275382080078124,-1.0240999460220337,0.4329875111579895,2.167137384414673
1780564726389907700,18.29490771484375,-1.0240999460220337,0.4329875111579895,2.167137384414673
1780564726409431000,18.31443115234375,-5.316850185394287,-0.1046374961733818,15.453350067138672
1780564726428953300,18.333953369140627,-8.150862693786621,-0.5050374865531921,24.88419914245605
1780564726448478700,18.353478759765625,-8.150862693786621,-0.5050374865531921,24.88419914245605
1780564726468009500,18.373009521484374,-6.063199996948242,-0.0640750005841255,19.40399932861328
1780564726487538700,18.39253857421875,-6.063199996948242,-0.0640750005841255,19.40399932861328
1780564726507062500,18.4120625,-4.5236124992370605,0.1542750000953674,14.7915620803833
1780564726526584300,18.431584228515625,-3.2960124015808105,0.3212000131607055,11.23031234741211
1780564726546104600,18.4511044921875,-2.2951500415802,0.2102375030517578,8.610112190246582
1780564726565620000,18.470619873046875,-1.442787528038025,0.3540624976158142,6.669162273406982
1780564726585141500,18.4901416015625,-0.7294374704360962,0.9960500001907348,5.381887435913086
1780564726604665600,18.50966552734375,-0.1812250018119812,1.4720749855041504,4.178212642669678
1780564726624183000,18.52918310546875,0.1974499970674514,1.69798743724823,3.2405998706817627
1780564726668775000,18.57377490234375,0.5306124687194824,1.447737455368042,1.7210874557495115
1780564726692493800,18.597493896484377,0.4444000124931335,0.6832374930381775,0.3313750028610229
1780564726712012800,18.6170126953125,0.3278000056743622,0.2613874971866607,-0.3221625089645386
1780564726731531500,18.636531494140623,0.2138125002384185,0.2151875048875808,-0.9039250016212464
1780564726751051800,18.6560517578125,0.1318625062704086,0.4140124917030334,-1.376924991607666
1780564726770576400,18.675576416015623,0.0969374999403953,0.5702124834060669,-1.7366249561309814
1780564726790100200,18.695100341796877,0.1094499975442886,0.4247374832630157,-2.012037515640259
1780564726809622000,18.7146220703125,0.1566125005483627,0.0378125011920928,-2.211549997329712
1780564726829145600,18.7341455078125,0.1566125005483627,0.0378125011920928,-2.211549997329712
1780564726848668000,18.75366796875,0.2164250016212463,-0.1002374961972236,-2.306425094604492
1780564726868186600,18.7731865234375,0.304562509059906,0.0024749999865889,-2.159987449645996
1780564726887705900,18.792705810546877,0.304562509059906,0.0024749999865889,-2.159987449645996
1780564726907223800,18.812223876953126,0.3062124848365783,0.0995500013232231,-1.9412249326705933
1780564726926747100,18.8317470703125,0.2623499929904938,0.1724250018596649,-1.6372125148773191
1780564726946274800,18.85127490234375,0.1681624948978424,0.1790249943733215,-1.3125749826431274
1780564726965798700,18.87079858398437,0.0555500015616416,0.0827749967575073,-1.1207624673843384
1780564726985325000,18.890324951171877,-0.0131999999284744,-0.1079374998807907,-1.215637445449829
1780564727004850400,18.90985034179688,0.0193875003606081,-0.3092375099658966,-1.6559125185012815
1780564727024372000,18.9293720703125,0.2079000025987625,-0.3902249932289123,-2.5493874549865723
1780564727043892700,18.948892822265623,0.726687490940094,-0.1901624947786331,-4.555649757385254
1780564727063415800,18.968415771484374,2.380537509918213,0.7117000222206116,-10.082599639892578
1780564727082939400,18.987939453125,5.312587261199951,2.268749952316284,-19.545486450195312
1780564727102459600,19.007459716796877,6.784112453460693,2.987462520599365,-23.774436950683597
1780564727121983500,19.0269833984375,5.928862571716309,2.487512588500977,-20.410499572753903
1780564727141510000,19.046510009765623,4.602674961090088,1.7533999681472778,-15.72958755493164
1780564727161034500,19.066034423828125,3.40931248664856,1.0845999717712402,-11.677599906921388
1780564727180561200,19.08556103515625,2.4486000537872314,0.5414749979972839,-8.540399551391602
1780564727200088600,19.105088623046875,1.7069250345230105,0.1328250020742416,-6.488487243652344
1780564727219615200,19.124615234375,1.1283249855041504,-0.1435499936342239,-4.57091236114502
1780564727239142400,19.144142333984377,0.6986374855041504,-0.281187504529953,-3.2153000831604004
1780564727258668500,19.16366845703125,0.4054875075817108,-0.2734875082969665,-2.264625072479248
1780564727278189600,19.183189453125,0.2272875010967254,-0.1507000029087066,-1.609025001525879
1780564727297715700,19.2027158203125,0.113437496125698,0.0225499998778104,-1.116362452507019
1780564727317245700,19.22224560546875,0.0076999999582767,0.1843875050544738,-0.6605499982833862
1780564727336773600,19.241773681640623,-0.1199000030755996,0.3088249862194061,-0.170362502336502
1780564727356303400,19.261303466796875,-0.2704625129699707,0.3936625123023987,0.3722124993801117
1780564727375829800,19.28082983398437,-0.4939000010490417,0.4235000014305115,1.1368499994277954
1780564727395355400,19.30035546875,-1.4236749410629272,0.2004749923944473,4.065737247467041
1780564727414882600,19.319882568359372,-6.505537509918213,-1.5802874565124512,19.716537475585938
1780564727434407200,19.3394072265625,-9.822449684143066,-2.780937433242798,30.471925735473636
1780564727453931800,19.358931884765624,-7.603475093841553,-1.9402624368667605,24.39414978027344
1780564727473460000,19.3784599609375,-5.408287525177002,-1.0749750137329102,18.22163772583008
1780564727492982800,19.397982666015626,-3.731337547302246,-0.4071374833583832,13.516112327575684
1780564727512503800,19.41750390625,-2.504425048828125,0.0676499977707862,10.001612663269045
1780564727532025300,19.437025390625,-1.6447750329971311,0.3642374873161316,7.378387451171875
1780564727551546000,19.456546142578127,-1.0757999420166016,0.4977499842643738,5.632275104522705
1780564727571067400,19.4760673828125,-0.7134875059127808,0.5007749795913696,4.089250087738037
1780564727590587400,19.49558740234375,-0.4886749982833862,0.4299624860286712,2.984299898147583
1780564727610105900,19.51510595703125,-0.3477374911308288,0.3452624976634979,2.156825065612793
1780564727629623600,19.53462353515625,-0.2563000023365021,0.2814624905586242,1.5175875425338743
1780564727649141800,19.554141845703125,-0.1922249943017959,0.2400749921798706,1.028087496757507
1780564727668661200,19.5736611328125,-0.1922249943017959,0.2400749921798706,1.028087496757507
1780564727688182300,19.59318237304688,-0.1922249943017959,0.2400749921798706,1.028087496757507
1780564727707704600,19.61270458984375,-0.0979000031948089,0.1403875052928924,0.3445749878883362
1780564727727228200,19.632228271484376,-0.0979000031948089,0.1403875052928924,0.3445749878883362
1780564727746747100,19.6517470703125,0.0017874999903142,-0.1057374998927116,-0.2314125001430511
1780564727766262300,19.67126220703125,0.0661375001072883,-0.2089999914169311,-0.4870249927043915
1780564727785783000,19.69078295898437,0.1402499973773956,-0.234437495470047,-0.6765000224113464
1780564727805307600,19.7103076171875,0.2191749960184097,-0.1731124967336654,-0.7690374851226807
1780564727824831200,19.729831298828124,0.2985124886035919,-0.0499125011265277,-0.7833374738693237
1780564727844353300,19.74935327148437,0.3749625086784363,0.1007874980568885,-0.7841625213623047
1780564727863878000,19.7688779296875,0.4346374869346618,0.2343000024557113,-0.8294000029563904
1780564727883401200,19.788401123046874,0.454987496137619,0.3107500076293945,-0.9288125038146972
1780564727902922200,19.807922119140624,0.4119499921798706,0.3078624904155731,-1.0595749616622925
1780564727922445000,19.82744506835937,0.2990624904632568,0.2135374993085861,-1.2399749755859375
1780564727941971500,19.84697143554688,0.1412124931812286,0.0404249988496303,-1.523087501525879
1780564727961491200,19.8664912109375,-0.0145749999210238,-0.1786125004291534,-1.9511250257492063
1780564727981004300,19.88600439453125,-0.0860750004649162,-0.4111250042915344,-2.636012554168701
1780564728000520700,19.905520751953127,0.0532125011086463,-0.6045874953269958,-3.810262441635132
1780564728020039400,19.925039306640624,0.5838249921798706,-0.6759499907493591,-5.854750156402588
1780564728039561500,19.9445615234375,1.6710374355316162,-0.5626500248908997,-8.474949836730957
1780564728059085800,19.9640859375,3.1876626014709477,-0.3232625126838684,-11.736724853515623
1780564728078608400,19.9836083984375,4.5055999755859375,-0.1258125007152557,-13.977974891662598
1780564728098135300,20.00313525390625,5.038825035095215,-0.0468874983489513,-14.184499740600586
1780564728117664500,20.02266455078125,4.83546257019043,-0.0136124994605779,-12.786262512207031
1780564728137191200,20.042191162109376,4.268274784088135,0.0460624992847442,-10.737375259399414
1780564728156718600,20.06171850585937,3.6066250801086426,0.1384624987840652,-8.651362419128418
1780564728176245000,20.081244873046877,2.9826500415802,0.2373249977827072,-6.817387580871582
1780564728195770600,20.1007705078125,2.4766499996185303,0.3201000094413757,-5.551562309265137
1780564728215293400,20.12029345703125,2.0439374446868896,0.3761999905109405,-4.371399879455566
1780564728234814700,20.139814697265624,1.6644375324249268,0.402875006198883,-3.4753124713897705
1780564728254337000,20.1593369140625,1.3008874654769895,0.4050749838352203,-2.7279999256134038
1780564728273859000,20.178859130859376,0.9534249901771544,0.3913249969482422,-2.082712411880493
1780564728293379300,20.19837939453125,0.6334624886512756,0.3649249970912933,-1.5256999731063845
1780564728312902000,20.21790185546875,0.3357749879360199,0.3229874968528747,-1.018049955368042
1780564728332425500,20.23742553710937,0.0361624993383884,0.2617999911308288,-0.4896374940872192
1780564728351945000,20.25694506835937,-0.2939749956130981,0.18521249294281,0.1324124932289123
1780564728371466500,20.276466552734377,-0.6710000038146973,0.1090374961495399,0.8926500082015991
1780564728390989300,20.2959892578125,-1.1206250190734863,0.0525249987840652,1.8633999824523928
1780564728410507800,20.3155078125,-1.7997374534606934,0.0208999998867511,3.4544124603271484
1780564728430026500,20.335026611328125,-3.396250009536743,-0.0314874984323978,7.300425052642822
1780564728449545500,20.35454541015625,-3.396250009536743,-0.0314874984323978,7.300425052642822
1780564728469063400,20.3740634765625,-6.800062656402588,-0.1556500047445297,15.976675033569336
1780564728488583400,20.39358349609375,-9.059325218200684,-0.0952875018119812,22.310199737548828
1780564728508104700,20.41310473632813,-6.097712516784668,0.7679374814033508,16.481849670410156
1780564728527625000,20.432625,-6.097712516784668,0.7679374814033508,16.481849670410156
1780564728547144400,20.45214453125,-4.232800006866455,1.1555500030517578,12.43494987487793
1780564728566661600,20.47166162109375,-2.746424913406372,1.3972749710083008,9.180462837219238
1780564728586179300,20.49117944335937,-1.6314375400543213,1.5006749629974363,6.683462619781494
1780564728605698300,20.5106982421875,-1.6314375400543213,1.5006749629974363,6.683462619781494
1780564728625217300,20.53021728515625,-0.2480500042438507,1.404425024986267,3.415362596511841
1780564728644731600,20.549731689453125,0.1240250021219253,1.2057374715805054,2.2789249420166016
1780564728664250400,20.56925048828125,0.3411374986171722,0.9333499670028688,1.3877874612808228
1780564728683779300,20.588779296875,0.4476999938488006,0.6373124718666077,0.6678375005722046
1780564728703307300,20.608307373046877,0.4830375015735626,0.3539249897003174,0.0654499977827072
1780564728722829800,20.62782983398437,0.4868874847888946,0.098312497138977,-0.4798749983310699
1780564728742356200,20.647356201171878,0.4965125024318695,-0.1121999993920326,-1.0058125257492063
1780564728761883100,20.666883056640625,0.5339124798774719,-0.2560249865055084,-1.4891250133514404
1780564728781404000,20.68640380859375,0.5872625112533569,-0.3224374949932098,-1.8474500179290767
1780564728800924000,20.705923828125,0.6250749826431274,-0.3053874969482422,-1.995537519454956
1780564728820445700,20.72544580078125,0.6334624886512756,-0.2157374918460846,-1.94466245174408
1780564728839970000,20.744969970703124,0.6301624774932861,-0.0834624990820884,-1.817199945449829
1780564728859492900,20.764492919921874,0.631262481212616,0.0629749968647956,-1.735937476158142
1780564728879013000,20.78401318359375,0.6247999668121338,0.209549993276596,-1.7256250381469729
1780564728898537700,20.803537841796874,0.5807999968528748,0.3361875116825104,-1.723425030708313
1780564728918066200,20.82306616210937,0.4808374941349029,0.4173125028610229,-1.6803874969482422
1780564728937593300,20.84259326171875,0.3294500112533569,0.4516874849796295,-1.6282750368118286
1780564728957119200,20.862119140625,0.1421750038862228,0.4527874886989593,-1.6307499408721924
1780564728976649500,20.8816494140625,-0.0515624992549419,0.4155249893665313,-1.7374500036239624
1780564728996177000,20.90117700195313,-0.2040500044822693,0.3276624977588653,-1.9846749305725095
1780564729015694800,20.92069482421875,-0.2499749958515167,0.2175250053405761,-2.452862501144409
1780564729035214000,20.940214111328125,-0.1099999994039535,0.1533125042915344,-3.347987413406372
1780564729054735000,20.959735107421874,0.3128125071525574,0.2059749960899353,-5.047487258911133
1780564729074256600,20.97925659179688,1.1842875480651855,0.4357374906539917,-7.780162334442139
1780564729093778000,20.99877783203125,2.626662492752075,0.8490625023841858,-12.234612464904783
1780564729113303300,21.01830322265625,4.101900100708008,1.224987506866455,-16.4140625
1780564729132831700,21.037831787109376,4.690124988555908,1.290162444114685,-17.51626205444336
1780564729152358400,21.0573583984375,4.326712608337402,1.0907875299453735,-15.610099792480469
1780564729171882800,21.0768828125,3.5824248790740967,0.8171625137329102,-12.61507511138916
1780564729191408600,21.09640869140625,2.8250749111175537,0.558662474155426,-9.70268726348877
1780564729210932500,21.115932373046878,2.175800085067749,0.3343999981880188,-7.260687351226807
1780564729230455000,21.135455078125,1.649999976158142,0.1430000066757202,-5.511825084686279
1780564729249982200,21.15498217773437,1.211925029754639,-0.0185624994337558,-3.896749973297119
1780564729269507800,21.1745078125,0.8503000140190125,-0.1502874940633773,-2.6937625408172607
1780564729289030000,21.19402978515625,0.5455999970436096,-0.2487374991178512,-1.770449995994568
1780564729308554200,21.21355419921875,0.5455999970436096,-0.2487374991178512,-1.770449995994568
1780564729328076500,21.23307666015625,0.0782374963164329,-0.306487500667572,-0.4668124914169311
1780564729347595300,21.25259521484375,0.0782374963164329,-0.306487500667572,-0.4668124914169311
1780564729367118600,21.27211865234375,-0.0952875018119812,-0.233887493610382,0.0169124994426965
1780564729386644700,21.291644775390623,-0.281187504529953,-0.1159124970436096,0.5439500212669373
1780564729406168000,21.31116796875,-0.5556374788284302,-0.0120999999344348,1.3315500020980835
1780564729425691400,21.33069140625,-0.8911374807357788,0.0032999999821186,2.7842373847961426
1780564729445214000,21.3502138671875,-1.2044999599456787,-0.2018499970436096,6.348649978637695
1780564729464736800,21.36973681640625,-1.4878875017166138,-0.6723750233650208,13.862475395202637
1780564729484259800,21.389259765625,-2.9577624797821045,-1.2148125171661377,21.285137176513672
1780564729503782100,21.4087822265625,-4.200762271881104,-1.3268749713897705,21.726238250732425
1780564729523307800,21.428307861328125,-3.7244625091552734,-0.9762499928474426,18.08180046081543
1780564729542833400,21.44783349609375,-2.9517123699188232,-0.5736500024795532,14.225199699401855
1780564729562355500,21.46735546875,-2.248674869537353,-0.2261874973773956,11.044824600219728
1780564729581880600,21.486880615234377,-1.6831375360488892,0.0405624993145465,8.594437599182129
1780564729601406700,21.50640673828125,-1.2379125356674194,0.2300374954938888,6.713162422180176
1780564729620929800,21.5259296875,-0.8848124742507935,0.3606624901294708,5.408012390136719
1780564729640452000,21.5454521484375,-0.606374979019165,0.4529249966144562,4.134349822998047
1780564729659974700,21.564974609375,-0.3984749913215637,0.5154874920845032,3.1586499214172363
1780564729679496400,21.584496337890624,-0.2525874972343445,0.5438125133514404,2.407900094985962
1780564729699016000,21.604015869140625,-0.1548250019550323,0.512737512588501,1.797124981880188
1780564729718539500,21.62353955078125,-0.0878624990582466,0.3937999904155731,1.2564749717712402
1780564729738066400,21.64306640625,-0.0328624993562698,0.1982749998569488,0.7621625065803528
1780564729757590300,21.66259033203125,0.0279124993830919,-0.017875000834465,0.3310999870300293
1780564729777120300,21.682120361328124,0.1020250022411346,-0.1940124928951263,-0.0015124999918043
1780564729796654000,21.701654052734376,0.1880999952554702,-0.3056625127792358,-0.2267374992370605
1780564729816188000,21.72118798828125,0.2814624905586242,-0.3415499925613403,-0.3660250008106231
1780564729835721200,21.74072119140625,0.3753750026226043,-0.2901250123977661,-0.4384874999523163
1780564729855251200,21.760251220703125,0.4629625082015991,-0.1649999916553497,-0.4575999975204468
1780564729874780700,21.77978076171875,0.5425750017166138,-0.0043999999761581,-0.4525125026702881
1780564729894304300,21.79930419921875,0.612975001335144,0.1526249945163726,-0.467912495136261
1780564729913830400,21.818830322265622,0.6643999814987183,0.2853125035762787,-0.5273125171661377
1780564729933359600,21.838359619140626,0.6748499870300293,0.3790875077247619,-0.6165499687194824
1780564729952885200,21.85788525390625,0.6278250217437744,0.404387503862381,-0.7405750155448914
1780564729972412200,21.877412109375,0.5333625078201294,0.3440249860286712,-0.9600250124931335
1780564729991940000,21.896940185546875,0.4218499958515167,0.2268749922513961,-1.3259124755859375
1780564730011468300,21.91646826171875,0.3356375098228454,0.116737499833107,-1.8438749313354488
1780564730030996200,21.935996337890625,0.3291749954223633,0.085387498140335,-2.5635499954223637
1780564730050524200,21.95552416992188,0.4820750057697296,0.1911250054836273,-3.704387426376343
1780564730070052000,21.975052001953124,0.911899983882904,0.4859249889850616,-5.681637287139893
1780564730089576200,21.994576171875,0.911899983882904,0.4859249889850616,-5.681637287139893
1780564730109102600,22.0141025390625,2.84185004234314,1.6611374616622925,-11.726550102233888
1780564730128630300,22.03363037109375,2.84185004234314,1.6611374616622925,-11.726550102233888
1780564730148157200,22.0531572265625,4.212312698364258,2.2844250202178955,-14.669050216674805
1780564730167687200,22.07268725585937,4.212312698364258,2.2844250202178955,-14.669050216674805
1780564730187221000,22.092220947265623,4.059687614440918,2.107187509536743,-13.391674995422363
1780564730206750500,22.11175048828125,3.644850015640259,1.816925048828125,-11.443849563598633
1780564730226271700,22.131271728515625,3.1508123874664307,1.5017750263214111,-9.43690013885498
1780564730245793800,22.150793701171875,2.648662567138672,1.181262493133545,-7.5981125831604
1780564730265317600,22.170317626953125,2.191474914550781,0.8749125003814697,-6.29117488861084
1780564730284843500,22.189843505859372,1.7672874927520752,0.6109125018119812,-4.888124942779541
1780564730304369400,22.209369384765623,1.3947999477386477,0.4108499884605407,-3.8325374126434326
1780564730323892200,22.228892333984376,1.059849977493286,0.2732124924659729,-3.028712511062622
1780564730343413800,22.24841381835937,0.7429124712944031,0.1779250055551529,-2.3655500411987305
1780564730362935000,22.26793505859375,0.420199990272522,0.1025749966502189,-1.7278250455856323
1780564730382457300,22.287457275390626,0.0706750005483627,0.0347874984145164,-1.0242375135421753
1780564730401979400,22.3069794921875,-0.2791250050067901,-0.0272249989211559,-0.2293500006198883
1780564730421501400,22.32650146484375,-0.6474875211715698,-0.0841500014066696,0.6399250030517578
1780564730441022200,22.346022216796875,-1.093400001525879,-0.1639000028371811,1.6906999349594116
1780564730460541400,22.36554150390625,-1.7395124435424805,-0.34375,3.377687454223633
1780564730480060200,22.38506005859375,-2.923525094985962,-0.7748125195503235,6.593949794769287
1780564730499583700,22.404583740234376,-4.983412265777588,-1.5834499597549438,12.52171230316162
1780564730519110000,22.42410986328125,-6.752900123596191,-2.265724897384644,17.964786529541016
1780564730538636500,22.443636474609374,-6.830862522125244,-2.2291500568389893,18.75444984436035
1780564730558163500,22.46316357421875,-5.749424934387207,-1.704587459564209,16.166975021362305
1780564730597207000,22.50220703125,-3.3404250144958496,-0.5740625262260437,10.110512733459473
1780564730616727600,22.5217275390625,-2.4164249897003174,-0.1568875014781952,7.829524993896484
1780564730636251000,22.5412509765625,-1.694962501525879,0.146025002002716,6.318124771118164
1780564730655774700,22.56077465820313,-1.129699945449829,0.345674991607666,4.774137496948242
1780564730675302400,22.580302490234374,-0.7042750120162964,0.4595249891281128,3.5806374549865723
1780564730694834400,22.59983447265625,-0.3939374983310699,0.5064125061035156,2.627624988555908
1780564730714364400,22.619364501953125,-0.1801249980926513,0.503250002861023,1.865049958229065
1780564730733895700,22.638895751953125,-0.0453750006854534,0.4629625082015991,1.2689875364303589
1780564730753423000,22.658423095703125,0.0310750007629394,0.3931125104427337,0.807812511920929
1780564730772948000,22.677947998046875,0.0720499977469444,0.2958999872207641,0.4295499920845032
1780564730792479000,22.69747900390625,0.0979000031948089,0.1725624948740005,0.0769999995827674
1780564730812010800,22.7170107421875,0.1179749965667724,0.0314874984323978,-0.2761000096797943
1780564730831542300,22.736542236328123,0.1322750002145767,-0.0163624994456768,-0.6137999892234802
1780564730851074600,22.756074462890624,0.1391499936580658,-0.0646250024437904,-0.8964999914169312
1780564730870603300,22.77560327148437,0.1413500010967254,-0.1747625023126602,-1.0843249559402466
1780564730890126000,22.7951259765625,0.1413500010967254,-0.1747625023126602,-1.0843249559402466
1780564730909650000,22.81464990234375,0.1427250057458877,-0.2110625058412552,-1.1584374904632568
1780564730929170200,22.834170166015625,0.1465750038623809,-0.1784749925136566,-1.1298375129699707
1780564730948694300,22.8536943359375,0.1575749963521957,-0.0930875018239021,-1.0467875003814695
1780564730968222700,22.87322265625,0.1575749963521957,-0.0930875018239021,-1.0467875003814695
1780564730987746000,22.89274609375,0.201162502169609,0.1138499975204467,-0.953012466430664
1780564731007270100,22.912270263671875,0.201162502169609,0.1138499975204467,-0.953012466430664
1780564731026798600,22.93179858398437,0.2014375030994415,0.1795749962329864,-1.0844625234603882
1780564731046325500,22.951325439453125,0.1559250056743621,0.1545500010251999,-1.182087540626526
1780564731065849900,22.970849853515624,0.0882750004529953,0.1043625026941299,-1.3008874654769895
1780564731085374500,22.99037451171875,0.0552750006318092,0.0362999998033046,-1.6362500190734863
1780564731104900900,23.00990087890625,0.2315499931573867,0.0052249999716877,-2.815999984741211
1780564731124422400,23.02942236328125,0.5730999708175659,0.202674999833107,-6.4348626136779785
1780564731143941600,23.048941650390624,2.337774991989136,0.8509874939918518,-13.166037559509276
1780564731163464200,23.06846411132813,4.808925151824951,1.4194124937057495,-19.56707572937012
1780564731182986000,23.087986083984376,5.535887241363525,1.3287999629974363,-20.274099349975582
1780564731202508300,23.10750830078125,4.939962387084961,0.8866000175476074,-17.294612884521484
1780564731222033700,23.12703369140625,4.038787364959717,0.4552625119686126,-13.76333713531494
1780564731241557000,23.146556884765623,3.20416259765625,0.1332374960184097,-10.685537338256836
1780564731261081300,23.166081298828125,2.5107500553131104,-0.0738374963402748,-8.207099914550781
1780564731280607500,23.185607421875,1.953874945640564,-0.1797125041484832,-6.5311126708984375
1780564731300135400,23.205135498046875,1.491874933242798,-0.1964875012636184,-4.7962751388549805
1780564731319670300,23.224670166015624,1.1263999938964844,-0.1407999992370605,-3.4772374629974365
1780564731339205000,23.244205078125,0.8505749702453613,-0.0324499979615211,-2.479675054550171
1780564731358730000,23.26372998046875,0.6590374708175659,0.1086250022053718,-1.7503750324249268
1780564731378250800,23.28325073242188,0.5303375124931335,0.2627624869346618,-1.2186625003814695
1780564731397774000,23.302774169921875,0.4317499995231628,0.4120875000953674,-0.7908999919891357
1780564731417298700,23.322298583984374,0.3398999869823456,0.5454624891281128,-0.3954499959945678
1780564731436819700,23.34181982421875,0.2484624981880188,0.6582124829292297,-0.0064624999649822
1780564731456340000,23.361340087890625,0.1465750038623809,0.7445625066757202,0.4041124880313873
1780564731475863300,23.38086328125,-0.0061874999664723,0.7877374887466431,0.9476500153541564
1780564731495378200,23.400378173828123,-0.3796375095844269,0.622737467288971,2.8499624729156494
1780564731514890200,23.41989013671875,-0.8571749925613403,-0.0631124973297119,21.793062210083008
1780564731534405000,23.439405029296875,-1.192674994468689,-0.4978874921798706,34.60132598876953
1780564731553924000,23.458924072265624,-1.1789250373840332,-0.2404875010251999,25.897438049316406
1780564731573445400,23.4784453125,-0.8904500007629395,0.0803000032901763,18.8291130065918
1780564731592968700,23.49796875,-0.6305750012397766,0.331787496805191,13.680700302124023
1780564731612492500,23.517492431640623,-0.4097499847412109,0.5220875144004822,9.890649795532228
1780564731632015400,23.537015380859376,-0.2364999949932098,0.6474875211715698,7.07135009765625
1780564731651541200,23.556541259765623,-0.1244374960660934,0.6951999664306641,5.170000076293945
1780564731671064800,23.57606494140625,-0.0743874981999397,0.6656374931335449,3.626975059509277
1780564731690588400,23.59558837890625,-0.0712250024080276,0.5863000154495239,2.593524932861328
1780564731710111500,23.615111572265626,-0.0712250024080276,0.5863000154495239,2.593524932861328
1780564731729632000,23.634632080078124,-0.0935000032186508,0.4955500066280365,1.8781124353408811
1780564731749152800,23.65415283203125,-0.1685750037431717,0.3935250043869018,1.0588874816894531
1780564731768675600,23.67367553710937,-0.1685750037431717,0.3935250043869018,1.0588874816894531
1780564731788203300,23.693203369140623,-0.231000006198883,0.3954499959945678,0.6888750195503235
1780564731807731200,23.712731201171877,-0.231000006198883,0.3954499959945678,0.6888750195503235
1780564731827260700,23.7322607421875,-0.231000006198883,0.3954499959945678,0.6888750195503235
1780564731846790100,23.7517900390625,-0.2043250054121017,0.2836624979972839,0.3726249933242798
1780564731866320000,23.77131982421875,-0.1582625061273574,0.1145374998450279,0.134612500667572
1780564731885849600,23.790849609375,-0.0977625027298927,-0.1212750002741813,-0.1871374994516372
1780564731905378600,23.810378662109372,-0.0317624993622303,-0.3723500072956085,-0.5579749941825867
1780564731924906500,23.829906494140623,0.0277750007808208,-0.5772249698638916,-0.9296374917030334
1780564731944431000,23.84943115234375,0.075762502849102,-0.7048249840736389,-1.2791625261306765
1780564731963957200,23.868957275390624,0.1187999993562698,-0.7438749670982361,-1.5998125076293943
1780564731983487200,23.8884873046875,0.1707749962806701,-0.6863999962806702,-1.88911247253418
1780564732003014100,23.90801416015625,0.2473624944686889,-0.5402374863624573,-2.152562379837036
1780564732022540300,23.927540283203125,0.355162501335144,-0.3331624865531921,-2.387412548065185
1780564732042067200,23.94706713867188,0.4881249964237213,-0.108762502670288,-2.5876123905181885
1780564732061595000,23.966594970703124,0.6467999815940857,0.0778250023722648,-2.860962390899658
1780564732081121800,23.986121826171875,0.8780750036239624,0.1813624948263168,-3.5418624877929688
1780564732100645000,24.00564501953125,1.274624943733215,0.2283875048160553,-5.035799980163574
1780564732120171800,24.025171875,1.934762477874756,0.3134999871253967,-7.17653751373291
1780564732139697700,24.04469775390625,2.850374937057495,0.4901874959468841,-9.934374809265137
1780564732159218000,24.064218017578124,3.7515499591827393,0.6802124977111816,-12.139599800109863
1780564732178742000,24.08374194335937,4.2703375816345215,0.7697250247001648,-12.8563871383667
1780564732198268000,24.103267822265625,4.271299839019775,0.768762469291687,-12.015162467956545
1780564732217792800,24.122792724609376,3.9001874923706055,0.7709624767303467,-10.229450225830078
1780564732237316400,24.14231640625,3.372874975204468,0.8251374959945679,-8.14330005645752
1780564732256840700,24.1618408203125,2.884887456893921,0.9072250127792358,-6.502099990844727
1780564732276365300,24.181365234375,2.4481875896453857,0.9626374840736388,-4.803287506103516
1780564732295891500,24.200891357421877,2.102787494659424,0.9675874710083008,-3.680187463760376
1780564732315419000,24.2204189453125,1.7993249893188477,0.9318374991416932,-3.0375125408172607
1780564732334943200,24.23994311523437,1.4972374439239502,0.8648750185966492,-2.718237400054932
1780564732354469600,24.2594697265625,1.1852500438690186,0.7710999846458435,-2.5511748790740967
1780564732373996000,24.27899609375,0.869825005531311,0.6631624698638916,-2.4012999534606934
1780564732393518300,24.298518310546875,0.5627874732017517,0.5666375160217285,-2.2200748920440674
1780564732413040400,24.318040283203125,0.2827000021934509,0.5233250260353088,-2.0069499015808105
1780564732432569300,24.3375693359375,0.0455125011503696,0.5832750201225281,-1.751062512397766
1780564732452098300,24.35709838867188,-0.1502874940633773,0.7594124674797058,-1.4298624992370603
1780564732471624000,24.3766240234375,-0.3166624903678894,1.000725030899048,-1.028499960899353
1780564732491148300,24.396148193359377,-0.4801499843597412,1.214400053024292,-0.4690124988555908
1780564732530202400,24.435202392578127,-1.0562750101089478,1.05421245098114,2.403362512588501
1780564732549728300,24.45472827148437,-4.26277494430542,-1.4981999397277832,22.775087356567383
1780564732569254400,24.47425439453125,-6.03858757019043,-3.040124893188477,34.897361755371094
1780564732588781000,24.493781005859372,-4.364112377166748,-1.7555999755859375,24.640825271606445
1780564732608310000,24.51331005859375,-2.158200025558472,-0.5278624892234802,11.103400230407717
1780564732627840500,24.532840576171875,-2.158200025558472,-0.5278624892234802,11.103400230407717
1780564732647366400,24.55236645507813,-2.158200025558472,-0.5278624892234802,11.103400230407717
1780564732666894000,24.57189404296875,-0.9374749660491944,-0.3454000055789947,4.295225143432617
1780564732686419500,24.59141943359375,-0.5159000158309937,-0.3491125106811523,2.370774984359741
1780564732705943800,24.61094384765625,-0.1748999953269958,-0.3480125069618225,1.2302124500274658
1780564732725474300,24.63047436523437,0.0972125008702278,-0.3099249899387359,0.6180624961853027
1780564732745001000,24.6500009765625,0.3172124922275543,-0.2022625058889389,0.3379749953746795
1780564732764520700,24.66952075195313,0.5131499767303467,-0.0360249988734722,0.2204124927520752
1780564732784041000,24.689041015625,0.6951999664306641,0.1391499936580658,0.1541374921798706
1780564732803561200,24.70856127929688,0.8505749702453613,0.2784374952316284,0.080437496304512
1780564732823081500,24.72808154296875,0.963325023651123,0.3733125030994415,-0.0276375003159046
1780564732842605000,24.74760498046875,1.0249249935150146,0.4273499846458435,-0.1692624986171722
1780564732862128400,24.76712841796875,1.0327625274658203,0.4329875111579895,-0.3212000131607055
1780564732881649200,24.78664916992188,0.9904124736785888,0.3913249969482422,-0.4797374904155731
1780564732901172200,24.806172119140623,0.9101125001907348,0.3238124847412109,-0.681862473487854
1780564732920699100,24.82569921875,0.807812511920929,0.2574000060558319,-0.9440749883651732
1780564732940228400,24.845228271484373,0.6964374780654907,0.2040500044822693,-1.2226500511169434
1780564732959757300,24.86475732421875,0.5831375122070312,0.1627999991178512,-1.4478750228881836
1780564732979286500,24.88428662109375,0.4729999899864197,0.1352999955415725,-1.5933499336242676
1780564732998815700,24.903815673828124,0.3701499998569488,0.1208624988794326,-1.6647125482559204
1780564733018343700,24.92334375,0.2740375101566314,0.107524998486042,-1.6680124998092651
1780564733037874400,24.94287451171875,0.1830125004053115,0.0830499976873397,-1.6402374505996704
1780564733057403000,24.96240283203125,0.0893749967217445,0.0419375002384185,-1.6368000507354736
1780564733076926000,24.981926025390624,-0.0186999998986721,-0.0138875003904104,-1.694137454032898
1780564733096448800,25.00144873046875,-0.1372250020503997,-0.0688875019550323,-1.8363125324249268
1780564733115974000,25.020973876953125,-0.2169750034809112,-0.082225002348423,-2.1631500720977783
1780564733135502300,25.04050244140625,-0.1413500010967254,0.0303875003010034,-2.999424934387207
1780564733155033000,25.060033203125,0.3768875002861023,0.4933499991893768,-5.4718122482299805
1780564733174561000,25.07956103515625,2.084637403488159,1.8467625379562376,-11.793237686157228
1780564733194090500,25.099090576171875,4.289724826812744,3.3886873722076416,-19.514137268066406
1780564733213618700,25.11861865234375,4.956600189208984,3.610337495803833,-21.112438201904297
1780564733233143800,25.138143798828125,4.202549934387207,2.8168249130249023,-17.59174919128418
1780564733252672300,25.15767236328125,3.2448625564575195,1.9564875364303589,-13.492599487304688
1780564733272201500,25.177201416015624,2.435812473297119,1.2751749753952026,-10.042449951171877
1780564733291727400,25.196727294921875,1.8309500217437744,0.8134499788284302,-7.406300067901611
1780564733311253000,25.2162529296875,1.405524969100952,0.5511000156402588,-5.663899898529053
1780564733330776600,25.235776611328124,1.0978000164031982,0.4328500032424927,-4.114824771881104
1780564733350302000,25.25530200195313,0.8625375032424927,0.3913249969482422,-2.98636245727539
1780564733369828900,25.274828857421877,0.6547750234603882,0.3669874966144562,-2.10471248626709
1780564733389354200,25.29435424804688,0.4500375092029571,0.3306874930858612,-1.363450050354004
1780564733408877000,25.313876953125,0.2371875047683715,0.2733500003814697,-0.6938250064849854
1780564733428397000,25.33339697265625,0.2371875047683715,0.2733500003814697,-0.6938250064849854
1780564733447915800,25.352915771484376,-0.2063875049352646,0.1061500012874603,0.505174994468689
1780564733467439900,25.37243994140625,-0.2063875049352646,0.1061500012874603,0.505174994468689
1780564733486968600,25.39196850585937,-0.4052124917507171,0.0272249989211559,0.969237506389618
1780564733506497000,25.4114970703125,-0.6004624962806702,-0.0471624992787838,1.4159749746322632
1780564733526023000,25.43102294921875,-0.9062625169754028,-0.1735250055789947,2.259812593460083
1780564733545545000,25.450544921875,-1.7423999309539795,-0.5747500061988831,5.061237335205078
1780564733565066200,25.470066162109376,-4.550425052642822,-2.053425073623657,14.624500274658203
1780564733584590300,25.48959033203125,-7.263575077056885,-3.491537570953369,24.484350204467773
1780564733604112600,25.509112548828124,-7.004112243652344,-3.306187391281128,24.30986213684082
1780564733623635700,25.5286357421875,-5.380787372589111,-2.3578500747680664,19.31751251220703
1780564733643161300,25.548161376953125,-3.839137554168701,-1.456125020980835,14.570324897766112
1780564733662686000,25.56768603515625,-2.583625078201294,-0.7378249764442444,10.754287719726562
1780564733682212900,25.587212890625,-1.618512511253357,-0.227012500166893,7.848225116729736
1780564733701737700,25.60673779296875,-0.9096999764442444,0.0939124971628189,5.913875102996826
1780564733721260000,25.626260009765623,-0.4145624935626983,0.2651000022888183,4.188799858093262
1780564733740785400,25.645785400390626,-0.0925374999642372,0.330825001001358,2.988149881362915
1780564733760308200,25.66530810546875,0.1073874980211258,0.3334375023841858,2.1473374366760254
1780564733779831800,25.68483178710937,0.231000006198883,0.3097875118255615,1.544399976730347
1780564733799355400,25.70435546875,0.3106124997138977,0.2849000096321106,1.0769000053405762
1780564733818877400,25.72387744140625,0.3676750063896179,0.2667500078678131,0.6564249992370605
1780564733838402600,25.743402587890625,0.4123624861240387,0.244887501001358,0.2330625057220459
1780564733857925000,25.762925048828127,0.4417875111103058,0.201162502169609,-0.1908500045537948
1780564733877450200,25.7824501953125,0.4460499882698059,0.1269125044345855,-0.5729625225067139
1780564733896977000,25.801976806640624,0.4230875074863434,0.0328624993562698,-0.865975022315979
1780564733916504600,25.821504638671875,0.3925625085830688,-0.0555500015616416,-1.0653499364852903
1780564733936031500,25.841031494140623,0.3750999867916107,-0.1135749965906143,-1.191575050354004
1780564733955554300,25.86055419921875,0.3687750101089477,-0.130074992775917,-1.2508374452590942
1780564733975080200,25.880080078125,0.3548874855041504,-0.1082125008106231,-1.241075038909912
1780564733994607400,25.899607421875,0.320374995470047,-0.0622874982655048,-1.184012532234192
1780564734014133200,25.91913330078125,0.2677125036716461,-0.0131999999284744,-1.125300049781799
1780564734033656000,25.93865600585937,0.2052875012159347,0.0195249989628791,-1.1052249670028689
1780564734053175300,25.95817529296875,0.1357125043869018,0.0298375003039836,-1.1508749723434448
1780564734072697600,25.977697509765623,0.0490874983370304,0.022962499409914,-1.251112461090088
1780564734092221700,25.9972216796875,-0.0694374963641166,0.0061874999664723,-1.34832501411438
1780564734111744800,26.016744873046875,-0.2088624984025955,-0.0195249989628791,-1.3974125385284424
1780564734131265300,26.036265380859376,-0.3247750103473663,-0.0562375001609325,-1.4261499643325806
1780564734150783700,26.05578369140625,-0.3713875114917755,-0.0907500013709068,-1.532437443733215
1780564734170300700,26.07530078125,-0.3244999945163727,-0.0951500013470649,-1.822837471961975
1780564734189819000,26.09481884765625,-0.3244999945163727,-0.0951500013470649,-1.822837471961975
1780564734209341000,26.1143408203125,0.2385624945163726,0.1535875052213668,-3.722262382507324
1780564734228863500,26.133863525390623,0.2385624945163726,0.1535875052213668,-3.722262382507324
1780564734248386800,26.15338671875,2.8223249912261963,1.3226125240325928,-11.17613697052002
1780564734267910400,26.172910400390624,2.8223249912261963,1.3226125240325928,-11.17613697052002
1780564734287433000,26.192432861328125,2.8223249912261963,1.3226125240325928,-11.17613697052002
1780564734306959600,26.21195971679688,5.4510498046875,2.0101125240325928,-17.581300735473633
1780564734326486300,26.231486328125,4.974199771881104,1.5694249868392944,-15.634437561035156
1780564734346012400,26.251012451171874,4.1618499755859375,1.1525249481201172,-12.915237426757812
1780564734365539000,26.2705390625,3.3855249881744385,0.9062625169754028,-10.40215015411377
1780564734385062000,26.290061767578123,2.731162548065185,0.8193625211715698,-8.284924507141113
1780564734404583400,26.30958349609375,2.214437484741211,0.849887490272522,-6.571674823760986
1780564734424109000,26.329109130859376,1.8442875146865845,0.9362375140190125,-5.429325103759766
1780564734443635500,26.348635498046875,1.600637435913086,1.020662546157837,-4.429699897766113
1780564734463163400,26.36816333007813,1.600637435913086,1.020662546157837,-4.429699897766113
