time,seconds_elapsed,z,y,x
1781031004177929700,1.1199296875,-1.8281019926071167,-0.3696370124816894,-1.3125749826431274
1781031004197447700,1.13944775390625,-2.020111083984375,0.0162640009075403,-0.6313179731369019
1781031004216962600,1.158962646484375,-2.020111083984375,0.0162640009075403,-0.6313179731369019
1781031004236473900,1.178473876953125,-2.557598114013672,0.5334410071372986,1.5748189687728882
1781031004255985000,1.19798486328125,-2.390005111694336,0.970196008682251,2.3671040534973145
1781031004275501300,1.217501220703125,-2.5325310230255127,1.2866790294647217,3.0379979610443115
1781031004295015200,1.23701513671875,-2.696866035461426,1.586001992225647,3.5939528942108154
1781031004314529500,1.256529541015625,-2.696866035461426,1.586001992225647,3.5939528942108154
1781031004334051300,1.27605126953125,-3.287070035934448,1.9516849517822263,3.9261279106140137
1781031004353576700,1.29557666015625,-3.3636319637298584,2.147528886795044,3.557715892791748
1781031004373101000,1.31510107421875,-3.3316879272460938,2.3324179649353027,1.801071047782898
1781031004392621300,1.334621337890625,-3.1435000896453857,2.473721027374268,-0.0887430012226104
1781031004412140300,1.354140380859375,-2.7853949069976807,2.5446701049804688,-2.186753988265991
1781031004431660500,1.37366064453125,-2.2515790462493896,2.480133056640625,-4.008962154388428
1781031004451182800,1.393182861328125,-1.5367889404296875,2.350835084915161,-5.64967679977417
1781031004470703400,1.412703369140625,0.1657769978046417,2.230639934539795,-5.817817211151123
1781031004490224600,1.432224609375,0.6182190179824829,2.157762050628662,-6.0140700340271
1781031004509747200,1.451747314453125,1.0012069940567017,2.139939069747925,-5.996368885040283
1781031004529269500,1.47126953125,1.1627390384674072,2.1801700592041016,-5.796605110168457
1781031004548789200,1.490789306640625,1.0144280195236206,2.299844026565552,-5.569285869598389
1781031004568307200,1.51030712890625,0.5516250133514404,2.627607107162476,-5.22247314453125
1781031004587827000,1.529826904296875,-0.8943259716033936,4.156889915466309,-4.758544921875
1781031004607343000,1.549343017578125,-1.398190975189209,4.263522148132324,-4.165668964385986
1781031004626858000,1.56885791015625,-2.77751898765564,4.430659770965576,-2.4606199264526367
1781031004646375000,1.588375,-2.772831916809082,4.376161098480225,-1.866343975067139
1781031004665890800,1.607890869140625,-2.505707025527954,4.052844047546387,-1.164821982383728
1781031004685405400,1.627405517578125,-1.9521000385284424,3.4333770275115967,0.5048059821128845
1781031004704918000,1.64691796875,-1.266548991203308,2.645593881607056,2.1632208824157715
1781031004724428800,1.6664287109375,-0.6285529732704163,0.7408980131149292,2.6664319038391118
1781031004743943700,1.685943603515625,-0.0675529986619949,0.2960419952869415,4.288054943084717
1781031004763459600,1.70545947265625,0.5006809830665588,-0.2302480041980743,4.746668815612793
1781031004782974700,1.724974609375,0.9872549772262572,-0.7446810007095337,5.088140964508057
1781031004802486300,1.744486328125,1.186202049255371,-1.179900050163269,5.179318904876709
1781031004822004000,1.76400390625,0.970546007156372,-1.44030499458313,5.008111000061035
1781031004841524500,1.7835244140625,-0.691025972366333,-1.589115023612976,4.547956943511963
1781031004861038800,1.803038818359375,-1.0061650276184082,-1.5944210290908811,2.713918924331665
1781031004880554000,1.822553955078125,-1.409363031387329,-1.4703840017318726,1.186926007270813
1781031004900068000,1.842068115234375,-1.5745669603347778,-1.32607102394104,-0.3805820047855377
1781031004919577900,1.861577880859375,-1.367339015007019,-1.2533509731292725,-0.8401079773902893
1781031004939088100,1.881088134765625,-0.8780739903450012,-1.2459529638290403,-2.439410924911499
1781031004958606300,1.9006064453125,-0.3104520142078399,-1.3069740533828735,-2.8887240886688232
1781031004978124800,1.920124755859375,0.1640339940786361,-1.3836339712142944,-3.396634101867676
1781031004997640200,1.93964013671875,0.4283089935779571,-1.467051982879639,-3.7599189281463614
1781031005017156600,1.959156494140625,0.4283089935779571,-1.467051982879639,-3.7599189281463614
1781031005036673500,1.978673583984375,1.0536420345306396,-1.7306900024414062,-3.6933090686798096
1781031005056192500,1.998192626953125,1.5265029668807983,-1.8298519849777224,-3.2757110595703125
1781031005075709700,2.017709716796875,1.5265029668807983,-1.8298519849777224,-3.2757110595703125
1781031005095225300,2.037225341796875,2.4351940155029297,-1.928912043571472,-2.5586869716644287
1781031005114743000,2.056742919921875,2.4686479568481445,-1.884708046913147,-2.2784299850463867
1781031005134263000,2.076262939453125,2.23986291885376,-1.7951090335845947,-2.0553269386291504
1781031005153782500,2.095782470703125,1.8108359575271609,-1.6662390232086182,-1.860504984855652
1781031005173303600,2.115303466796875,1.3255770206451416,-1.5085599422454834,-1.7075560092926023
1781031005192823300,2.1348232421875,0.8645560145378113,-1.346356987953186,-1.537752985954285
1781031005212340200,2.15434033203125,0.5079860091209412,-1.21214497089386,-1.2487210035324097
1781031005231860200,2.173860107421875,0.223470002412796,-1.0600169897079468,-0.7792569994926453
1781031005251381800,2.1933818359375,-0.1013889983296394,-0.8893150091171265,-0.1980569958686828
1781031005270903800,2.21290380859375,-0.4858759939670563,-0.6932809948921204,0.3757649958133697
1781031005290427100,2.23242724609375,-0.9202209711074828,-0.4405589997768402,0.8585339784622192
1781031005309947000,2.25194677734375,-1.3031009435653689,-0.1637569963932037,1.1923160552978516
1781031005329464300,2.27146435546875,-1.580631971359253,0.146925002336502,1.3642419576644895
1781031005348982800,2.290982666015625,-1.757343053817749,0.5056160092353821,1.417294979095459
1781031005368501800,2.310501708984375,-1.9266380071640012,0.8598859906196594,1.38645601272583
1781031005388021500,2.330021484375,-2.1517210006713867,1.1233559846878052,1.3695789575576782
1781031005407532500,2.349532470703125,-2.3404688835144043,1.2652440071105957,1.359323024749756
1781031005427041300,2.369041259765625,-2.3639938831329346,1.31816303730011,1.1938719749450684
1781031005446552600,2.388552490234375,-2.1337039470672607,1.3127249479293823,0.7771909832954407
1781031005466064000,2.40806396484375,-1.689931035041809,1.2650820016860962,-1.0933430194854736
1781031005485578200,2.427578125,-1.1409870386123655,1.1717380285263062,-1.4503309726715088
1781031005505091300,2.44709130859375,-0.6391720175743103,1.0679709911346436,-3.234225034713745
1781031005524599800,2.466599853515625,-0.287102997303009,0.9331640005111694,-3.4814939498901367
1781031005544114000,2.486114013671875,-0.0856629982590675,0.7858330011367798,-3.773843050003052
1781031005563632000,2.505632080078125,0.0490950010716915,0.6558219790458679,-4.002035140991211
1781031005583149800,2.52514990234375,0.195604994893074,0.5608950257301331,-4.112094879150391
1781031005602664200,2.544664306640625,0.4588069915771484,0.5052390098571777,-4.115840911865234
1781031005622176800,2.5641767578125,0.8894879817962646,0.510233998298645,-4.116279125213623
1781031005661205000,2.603205078125,1.5454189777374268,0.5511710047721863,-3.640949010848999
1781031005680721200,2.62272119140625,1.4515390396118164,0.5463280081748962,-1.7269409894943235
1781031005700239000,2.642239013671875,1.016814947128296,0.5806750059127808,-1.235690951347351
1781031005719758600,2.661758544921875,0.412553995847702,0.6176459789276123,0.4569140076637268
1781031005739276300,2.6812763671875,-0.0548430010676384,0.689507007598877,1.00456702709198
1781031005758789600,2.70078955078125,-0.305972009897232,0.7304120063781738,1.6348129510879517
1781031005778302500,2.720302490234375,-0.3123539984226227,0.6707109808921814,2.224461078643799
1781031005797815600,2.739815673828125,-0.1382479965686798,0.49651899933815,2.7663519382476807
1781031005817330700,2.75933056640625,-0.1382479965686798,0.49651899933815,2.7663519382476807
1781031005836849400,2.778849365234375,0.2876160144805908,0.0881090015172958,3.547502994537353
1781031005856369400,2.798369384765625,0.4254859983921051,-0.0520589984953403,3.652587890625
1781031005875890000,2.817889892578125,0.4877369999885559,-0.1269049942493438,3.452986001968384
1781031005895409700,2.83740966796875,0.4877369999885559,-0.1269049942493438,3.452986001968384
1781031005914927000,2.856927001953125,0.5995709896087646,-0.1013799980282783,0.1897809952497482
1781031005934443000,2.876443115234375,0.5995709896087646,-0.1013799980282783,0.1897809952497482
1781031005953961200,2.895961181640625,1.2942700386047363,-0.1626790016889572,-2.1246449947357178
1781031005973485000,2.915485107421875,1.546766996383667,-0.3346379995346069,-2.7836570739746094
1781031005993007000,2.935007080078125,1.5795060396194458,-0.5580090284347534,-3.3232810497283936
1781031006012529200,2.954529052734375,1.458981990814209,-0.7566429972648621,-3.613358020782471
1781031006032051200,2.97405126953125,1.4154659509658811,-0.8767049908638,-3.7461249828338623
1781031006051571000,2.993571044921875,1.6355960369110107,-0.9708759784698486,-3.7895898818969727
1781031006071095600,3.013095458984375,2.034588098526001,-1.0849510431289673,-3.547866106033325
1781031006090620700,3.03262060546875,2.4234960079193115,-1.263422966003418,-2.997894048690796
1781031006110141000,3.052140869140625,2.624973058700561,-1.4720799922943115,-1.5191129446029663
1781031006129663200,3.071663330078125,2.547015905380249,-1.6127599477767944,-1.2025150060653689
1781031006149182500,3.091182373046875,2.280764102935791,-1.6759699583053589,-1.063038945198059
1781031006168699100,3.11069921875,1.8843250274658203,-1.6592329740524292,-1.2023530006408691
1781031006188221400,3.130221435546875,1.406288981437683,-1.5716229677200315,-1.4254000186920166
1781031006207746600,3.14974658203125,0.8903629779815674,-1.4133620262145996,-1.546138048171997
1781031006227265800,3.169265869140625,0.3193710148334503,-1.1845329999923706,-1.3704849481582642
1781031006246781000,3.188781005859375,-0.320246011018753,-0.8942630290985107,-0.8421199917793274
1781031006266300400,3.208300537109375,-0.9273419976234436,-0.5991950035095215,0.681643009185791
1781031006285817000,3.227817138671875,-1.452617049217224,-0.3433890044689178,0.9957780241966248
1781031006305331200,3.247331298828125,-1.8174569606781008,-0.1766809970140457,1.331768035888672
1781031006324849000,3.266848876953125,-1.9660580158233645,-0.083017997443676,1.5117629766464231
1781031006344367600,3.28636767578125,-1.9757540225982664,0.0239250008016824,1.4772419929504397
1781031006363886600,3.305886474609375,-1.8953969478607176,0.1749369949102401,1.3088749647140503
1781031006383405800,3.32540576171875,-1.818712949752808,0.3718119859695434,1.0103230476379397
1781031006402922500,3.344922607421875,-1.7414250373840332,0.560932993888855,0.6449459791183472
1781031006422441000,3.36444091796875,-1.650473952293396,0.7102699875831604,0.2578960061073303
1781031006441961200,3.383961181640625,-1.4891870021820068,0.7862480282783508,-0.1635790020227432
1781031006461475800,3.403475830078125,-1.29954195022583,0.8296470046043396,-0.5702160000801086
1781031006480990000,3.422989990234375,-1.1590139865875244,0.8666980266571045,-1.06297504901886
1781031006500509000,3.442509033203125,-1.0447189807891846,0.8968769907951355,-2.952709913253784
1781031006520025600,3.462025634765625,-1.0205960273742676,0.9277920126914978,-3.394879102706909
1781031006539540700,3.481540771484375,-1.0333820581436155,0.9435349702835084,-5.186779975891113
1781031006559063300,3.501063232421875,-1.0827679634094238,0.9304450154304504,-5.7891998291015625
1781031006578585300,3.52058544921875,-1.1297199726104736,0.8879479765892029,-6.217930793762207
1781031006598100000,3.540099853515625,-1.0081969499588013,0.8218600153923035,-6.15825080871582
1781031006617619000,3.559618896484375,-1.0081969499588013,0.8218600153923035,-6.15825080871582
1781031006637137000,3.579136962890625,-0.1778469979763031,0.7821760177612305,-2.885375022888184
1781031006656655400,3.5986552734375,0.3488439917564392,0.7877060174942017,-2.4075400829315186
1781031006676173300,3.61817333984375,0.6100130081176758,0.7891910076141357,-0.8617339730262756
1781031006695687200,3.637687255859375,0.4732869863510132,0.7933899760246277,-0.347804993391037
1781031006715203300,3.657203369140625,0.0843510031700134,0.7893379926681519,1.3100459575653076
1781031006734722600,3.67672265625,0.0843510031700134,0.7893379926681519,1.3100459575653076
1781031006754241000,3.696240966796875,-0.6496279835700989,0.8035449981689453,2.122415065765381
1781031006773756200,3.715756103515625,-0.6805059909820557,0.745343029499054,2.7660679817199707
1781031006793270300,3.735270263671875,-0.5531219840049744,0.6466050148010254,3.42625093460083
1781031006812784600,3.75478466796875,-0.3481099903583526,0.494374006986618,4.05182695388794
1781031006832304600,3.7743046875,-0.1197360008955001,0.3433969914913177,4.535747051239014
1781031006851831800,3.793831787109375,0.1060789972543716,0.2097599953413009,4.75839376449585
1781031006871351800,3.813351806640625,0.3114320039749145,0.0646540001034736,4.639153003692627
1781031006890870800,3.832870849609375,0.5186589956283569,-0.0663599967956543,3.065032958984375
1781031006910391600,3.8523916015625,0.6904330253601074,-0.2213300019502639,1.205286979675293
1781031006929902800,3.87190283203125,0.9222490191459656,-0.3821249902248382,-1.1686749458312988
1781031006949414100,3.8914140625,1.2920830249786377,-0.5487260222434998,-3.4534571170806885
1781031006968931800,3.910931884765625,1.6665899753570557,-0.8223569989204407,-3.985761880874634
1781031006988444700,3.930444580078125,1.9052640199661253,-1.1877069473266602,-4.574326992034912
1781031007007958500,3.94995849609375,1.9429620504379272,-1.6072020530700684,-4.825850009918213
1781031007027480300,3.969480224609375,2.003901958465576,-2.0054759979248047,-4.757247924804688
1781031007046998800,3.988998779296875,2.2950479984283447,-2.295849084854126,-4.489809989929199
1781031007066514700,4.0085146484375,3.953690052032471,-2.4734530448913574,-4.173963069915772
1781031007086034700,4.02803466796875,4.140253067016602,-2.54072904586792,-3.741988897323608
1781031007105555000,4.047554931640625,4.178481101989746,-2.535360097885132,-1.918684005737305
1781031007125067500,4.067067626953125,3.850723028182984,-2.418876886367798,-1.625440001487732
1781031007144581000,4.0865810546875,3.1712820529937744,-2.215406894683838,-1.1336690187454224
1781031007164093400,4.106093505859375,2.406179904937744,-1.9536889791488647,-0.7094290256500244
1781031007183602400,4.1256025390625,1.706423044204712,-1.659986972808838,-0.4643279910087585
1781031007203114500,4.145114501953125,1.155197024345398,-1.3973350524902344,-0.3349370062351227
1781031007222631000,4.164630859375,0.7412599921226501,-1.1965999603271484,-0.1500390022993087
1781031007242147000,4.18414697265625,0.3441329896450043,-1.066951036453247,0.1868059933185577
1781031007261659400,4.203659423828125,-0.039971999824047,-0.9831479787826538,0.6934040188789368
1781031007281171000,4.2231708984375,-0.4745889902114868,-0.8968300223350525,1.2554539442062378
1781031007300691700,4.242691650390625,-0.9182249903678894,-0.782535970211029,1.683529019355774
1781031007320218000,4.262218017578125,-1.329656004905701,-0.6386899948120117,1.865103006362915
1781031007339741700,4.28174169921875,-1.7235159873962402,-0.3925620019435882,1.7304619550704956
1781031007359258600,4.301258544921875,-2.085891008377075,-0.0684190019965171,1.3897039890289309
1781031007378775300,4.320775390625,-2.36329197883606,0.2892569899559021,0.9671570062637328
1781031007398295300,4.34029541015625,-2.5188469886779785,0.6379290223121643,0.4990369975566864
1781031007417814800,4.359814697265625,-2.5188469886779785,0.6379290223121643,0.4990369975566864
1781031007437333800,4.379333740234375,-2.3549880981445312,1.1012729406356812,-1.6964930295944214
1781031007456852500,4.3988525390625,-2.144136905670166,1.2377300262451172,-2.265291929244995
1781031007476374300,4.418374267578125,-1.9844000339508057,1.340582013130188,-3.753709077835083
1781031007495893800,4.437893798828125,-1.954319953918457,1.4188909530639648,-4.0137038230896
1781031007515405600,4.457405517578125,-2.0126779079437256,1.473289966583252,-4.202999114990234
1781031007534917400,4.47691748046875,-2.0766489505767822,1.5118030309677124,-4.272234916687012
1781031007554432800,4.496432861328125,-2.0766489505767822,1.5118030309677124,-4.272234916687012
1781031007573952300,4.5159521484375,-2.153654098510742,1.5585999488830566,-4.281875133514404
1781031007612989700,4.55498974609375,-1.7359100580215454,1.344877004623413,-3.9079549312591553
1781031007632505300,4.57450537109375,-1.7359100580215454,1.344877004623413,-3.9079549312591553
1781031007652018200,4.59401806640625,0.4539200067520141,1.1062029600143433,-2.996978998184204
1781031007671532500,4.613532470703125,0.9416170120239258,0.9364929795265198,-1.2361520528793335
1781031007691050200,4.63305029296875,1.2930669784545898,0.7872719764709473,0.5806710124015808
1781031007710568000,4.65256787109375,1.2244000434875488,0.6625499725341797,1.042902946472168
1781031007730081500,4.67208154296875,0.772005021572113,0.6152780055999756,2.553538084030152
1781031007749599000,4.691598876953125,0.1791020035743713,0.656266987323761,2.956393957138061
1781031007769116400,4.711116455078125,-0.3191089928150177,0.7030659914016724,3.426943063735962
1781031007788635000,4.730634765625,-0.6005920171737671,0.7179110050201416,3.826033115386963
1781031007808152800,4.75015283203125,-0.6844140291213989,0.6701819896697998,4.161567211151123
1781031007827669800,4.769669677734375,-0.6144160032272339,0.5354800224304199,4.448822021484375
1781031007847187000,4.78918701171875,-0.5456089973449707,0.3251599967479706,4.588569164276123
1781031007866708200,4.808708251953125,-0.5186970233917236,0.0532580018043518,4.419638156890869
1781031007886229000,4.82822900390625,-0.4300220012664795,-0.2995609939098358,2.3070991039276123
1781031007905744600,4.84774462890625,-0.1057019978761673,-0.6735050082206726,-0.2290609925985336
1781031007925260300,4.86726025390625,1.659904956817627,-1.0076910257339478,-2.696767091751098
1781031007944779500,4.886779541015625,2.1042940616607666,-1.2787129878997805,-4.645124912261963
1781031007964296200,4.906296142578125,2.7064340114593506,-1.447862982749939,-5.0054850578308105
1781031007983807700,4.925807861328125,3.0234930515289307,-1.5041069984436035,-5.222076892852783
1781031008003322000,4.945322021484375,2.795125961303711,-1.4303309917449951,-5.078886032104492
1781031008022841000,4.964841064453125,2.247976064682007,-1.1985950469970703,-4.669671058654785
1781031008042358000,4.98435791015625,1.7758339643478394,-0.9039469957351683,-4.104101181030273
1781031008061874400,5.00387451171875,1.703474044799805,-0.6614810228347778,-3.5268430709838867
1781031008081393400,5.023393310546875,3.246201992034912,-0.5616210103034973,-3.080642938613892
1781031008100912000,5.042912109375,3.5539660453796387,-0.6537500023841858,-2.6687300205230717
1781031008120432000,5.06243212890625,3.931956052780152,-0.8433210253715515,-2.23105788230896
1781031008139953200,5.081953125,4.047633171081543,-1.0532150268554688,-1.8217309713363647
1781031008159467800,5.1014677734375,3.768574953079224,-1.1568690538406372,-1.44405996799469
1781031008178980400,5.12098046875,3.202363967895508,-1.147946000099182,-1.1466259956359863
1781031008198493000,5.140492919921875,2.5089690685272217,-1.0395959615707395,-0.8694729804992676
1781031008218011000,5.160010986328125,2.5089690685272217,-1.0395959615707395,-0.8694729804992676
1781031008237532000,5.179531982421875,1.0040340423583984,-0.6128439903259277,-0.0590320006012916
1781031008257051100,5.199051025390625,1.0040340423583984,-0.6128439903259277,-0.0590320006012916
1781031008276572700,5.21857275390625,-0.1895249933004379,-0.3950200080871582,1.076177000999451
1781031008296089000,5.238089111328125,-0.6606870293617249,-0.3099240064620971,1.5065679550170898
1781031008315600400,5.257600341796875,-1.0600179433822632,-0.2346819937229156,1.8263590335845947
1781031008335113500,5.277113525390625,-1.378661036491394,-0.1768690049648285,2.047038078308105
1781031008354630100,5.296630126953125,-1.378661036491394,-0.1768690049648285,2.047038078308105
1781031008374149600,5.316149658203125,-1.953881025314331,0.0087569998577237,1.903072953224182
1781031008393669400,5.33566943359375,-2.1650309562683105,0.1786849945783615,1.459210991859436
1781031008413192700,5.355192626953125,-2.272425889968872,0.3908669948577881,-0.4511039853096008
1781031008432717800,5.3747177734375,-2.300266981124878,0.5907809734344482,-0.8727440237998962
1781031008452232400,5.394232421875,-2.292304039001465,0.7816910147666931,-2.331861019134521
1781031008471746300,5.413746337890625,-2.297616958618164,0.9306529760360718,-2.581016063690185
1781031008491265000,5.43326513671875,-2.377329111099243,1.0137790441513062,-2.781183958053589
1781031008510786300,5.452786376953125,-2.497093915939331,1.0856629610061646,-2.942982912063598
1781031008530302200,5.47230224609375,-2.5836570262908936,1.1533050537109375,-3.117913007736206
1781031008549814500,5.491814453125,-2.6701691150665283,1.181835055351257,-3.308314085006714
1781031008569330700,5.51133056640625,-2.669945001602173,1.1935399770736694,-3.58909010887146
1781031008588849400,5.530849365234375,-2.5039989948272705,1.1664069890975952,-3.850096940994263
1781031008608369200,5.550369140625,-2.0840210914611816,1.0981040000915527,-3.952605962753296
1781031008627884300,5.56988427734375,-0.2634069919586181,1.0606629848480225,-3.949827909469605
1781031008647397600,5.589397705078125,0.0322499983012676,1.0555299520492554,-3.6767148971557617
1781031008666915300,5.608915283203125,0.2838720083236694,1.0994919538497925,-1.962839961051941
1781031008686434600,5.6284345703125,0.2571530044078827,1.2490659952163696,-1.5250619649887085
1781031008705955600,5.64795556640625,-0.0248830001801252,1.4274049997329712,0.0560219995677471
1781031008725477000,5.66747705078125,-0.3241649866104126,1.549286961555481,0.631784975528717
1781031008744991700,5.68699169921875,-0.4370900094509125,1.5407079458236694,2.1593499183654785
1781031008764505300,5.70650537109375,-0.3667480051517486,1.3660730123519895,2.5279641151428223
1781031008784022000,5.72602197265625,-0.2097370028495788,1.087833046913147,2.957223892211914
1781031008803539500,5.74553955078125,-0.0119719998911023,0.776636004447937,3.370897054672241
1781031008823054000,5.76505419921875,0.2066590040922165,0.5052210092544556,3.6834330558776855
1781031008842568000,5.78456787109375,0.4527609944343567,0.2705360054969787,3.838207960128784
1781031008862081300,5.804081298828125,0.7620810270309448,0.0745389983057975,3.775521039962769
1781031008881593600,5.823593505859375,1.1487809419631958,-0.0536359995603561,3.447434902191162
1781031008901106700,5.843106689453125,1.6273059844970703,-0.1553699970245361,1.8032399415969849
1781031008920618200,5.8626181640625,2.221342086791992,-0.2564699947834015,1.2901999950408936
1781031008940132900,5.8821328125,3.8906381130218506,-0.3987019956111908,-0.6749269962310791
1781031008959648800,5.901648681640625,4.026989936828613,-0.6206849813461304,-2.3405520915985107
1781031008979168000,5.92116796875,4.188117027282715,-0.871628999710083,-2.5735108852386475
1781031008998686000,5.94068603515625,4.187416076660156,-1.0381309986114502,-2.764017105102539
1781031009018203000,5.960202880859375,4.187416076660156,-1.0381309986114502,-2.764017105102539
1781031009037722400,5.979722412109375,3.8722949028015137,-0.9914180040359496,-3.0800271034240723
1781031009057241300,5.999241455078125,3.8722949028015137,-0.9914180040359496,-3.0800271034240723
1781031009076761000,6.018760986328125,3.5316710472106934,-0.68852698802948,-3.736609935760498
1781031009096282400,6.038282470703125,2.9131228923797607,-0.5767980217933655,-3.9583818912506095
1781031009115799300,6.05779931640625,2.2023420333862305,-0.5607659816741943,-3.782597064971924
1781031009135317800,6.07731787109375,1.4295250177383425,-0.5931130051612854,-3.280651092529297
1781031009154835700,6.096835693359375,1.4295250177383425,-0.5931130051612854,-3.280651092529297
1781031009174347800,6.11634765625,0.6172999739646912,-0.8689519762992859,-1.3659679889678955
1781031009193859000,6.135859130859375,0.6766279935836792,-1.0354020595550537,-1.1071120500564575
1781031009213369300,6.155369384765625,0.7487120032310486,-1.190036058425903,-0.8160780072212219
1781031009232885000,6.174885009765625,0.7487120032310486,-1.190036058425903,-0.8160780072212219
1781031009252405800,6.19440576171875,0.932103991508484,-1.4935879707336426,0.1746190041303634
1781031009271922200,6.213922119140625,0.581138014793396,-1.567291021347046,0.7470700144767761
1781031009291437600,6.2334375,0.0872780010104179,-1.540693998336792,1.189872980117798
1781031009310956000,6.2529560546875,-0.5202749967575073,-1.429007053375244,1.434535026550293
1781031009330476800,6.272476806640625,-1.1339019536972046,-1.2191989421844482,1.4471559524536133
1781031009349997600,6.29199755859375,-1.6751790046691897,-0.890038013458252,1.2278059720993042
1781031009369516800,6.311516845703125,-2.15209698677063,-0.520458996295929,0.8805969953536987
1781031009389033700,6.33103369140625,-2.540910005569458,-0.1666570007801056,0.4459260106086731
1781031009408550700,6.350550537109375,-2.833914041519165,0.1647129952907562,-0.0030920000281184
1781031009428069000,6.370069091796875,-3.065463066101074,0.4433119893074035,-0.4481799900531769
1781031009447591000,6.3895908203125,-3.283747911453247,0.6539959907531738,-1.0078710317611694
1781031009467113200,6.40911328125,-3.3934459686279297,0.8205860257148743,-2.478544950485229
1781031009486632700,6.4286328125,-3.4470620155334477,0.9118630290031432,-2.8571970462799072
1781031009506152400,6.44815234375,-3.394033908843994,0.9191719889640808,-3.226648092269897
1781031009525672000,6.467671875,-3.172070980072021,0.8776779770851135,-3.3751509189605717
1781031009564710400,6.50671044921875,-2.246628999710083,0.7550209760665894,-2.708070993423462
1781031009584227800,6.526227783203125,-1.700597047805786,0.7216730117797852,-2.2602100372314453
1781031009603742700,6.54574267578125,-1.2266249656677246,0.7105609774589539,-2.0272738933563232
1781031009623256600,6.565256591796875,-0.7744429707527161,0.6996269822120667,-2.091620922088623
1781031009642771200,6.584771240234375,-0.3131380081176758,0.6885210275650024,-2.4575600624084477
1781031009662290000,6.6042900390625,0.3254610002040863,0.6988790035247803,-2.841469049453736
1781031009681810400,6.623810546875,1.0150070190429688,0.7498369812965393,-2.892164945602417
1781031009701331000,6.6433310546875,1.5213069915771484,0.8487740159034729,-2.4634408950805664
1781031009720849700,6.662849609375,1.6213489770889282,0.9641720056533812,-0.6014220118522644
1781031009740365600,6.682365478515625,1.283728003501892,1.084149956703186,1.2302639484405518
1781031009759883500,6.701883544921875,0.7860419750213623,1.1975159645080566,2.848123073577881
1781031009779402800,6.72140283203125,0.3439039885997772,1.2795779705047607,4.531325817108154
1781031009798917600,6.740917724609375,0.0798790007829666,1.255694031715393,4.7801289558410645
1781031009818433500,6.76043359375,0.0798790007829666,1.255694031715393,4.7801289558410645
1781031009837950200,6.7799501953125,0.1477320045232772,0.7813169956207275,5.288968086242676
1781031009857470700,6.799470703125,0.3403680026531219,0.3959389925003052,5.155990123748779
1781031009876991700,6.81899169921875,0.6874669790267944,0.0083469999954104,3.4673030376434326
1781031009896509700,6.838509765625,1.1768070459365845,-0.3392069935798645,1.5968999862670898
1781031009916030200,6.8580302734375,1.1768070459365845,-0.3392069935798645,1.5968999862670898
1781031009935552800,6.877552734375,4.432194232940674,-1.28603994846344,-0.4980300068855285
1781031009955073000,6.897072998046875,4.432194232940674,-1.28603994846344,-0.4980300068855285
1781031009974593300,6.91659326171875,6.266392230987549,-3.338409900665283,-2.7530739307403564
1781031009994114300,6.9361142578125,6.367715835571289,-3.579539060592652,-3.2193520069122314
1781031010013633000,6.955633056640625,5.914962768554688,-3.675467967987061,-3.59754490852356
1781031010033150000,6.97514990234375,4.0071120262146,-3.506459951400757,-3.7149600982666016
1781031010052669000,6.9946689453125,3.285897970199585,-3.0648510456085205,-3.6037518978118896
1781031010072193000,7.014193115234375,2.7049570083618164,-2.4794418811798096,-3.429750919342041
1781031010091720200,7.03372021484375,2.381967067718506,-1.956009030342102,-3.3235349655151367
1781031010111241700,7.05324169921875,2.273468017578125,-1.6029579639434814,-3.2632999420166016
1781031010130757400,7.07275732421875,2.1991140842437744,-1.4033960103988647,-3.244724035263061
1781031010150275300,7.092275390625,2.0266098976135254,-1.316902995109558,-3.207083940505981
1781031010169791500,7.11179150390625,1.660310983657837,-1.256469964981079,-3.040515899658203
1781031010189302300,7.13130224609375,1.1019660234451294,-1.1559089422225952,-2.745281934738159
1781031010208812300,7.150812255859375,0.4693279862403869,-0.9917920231819152,-2.336765050888061
1781031010228320800,7.17032080078125,-0.2030649930238723,-0.7433459758758545,-1.7852280139923096
1781031010247824100,7.18982421875,-0.8591340184211731,-0.4765430092811584,-0.0151310004293918
1781031010267329000,7.2093291015625,-1.424586057662964,-0.2070389986038208,0.2624860107898712
1781031010286839300,7.22883935546875,-1.908830046653748,-0.0101309996098279,0.7628350257873535
1781031010306354000,7.24835400390625,-2.303774118423462,0.090388000011444,1.2677379846572876
1781031010325869800,7.267869873046875,-2.573206901550293,0.1600559949874878,1.708395004272461
1781031010345381000,7.287381103515625,-2.752048969268799,0.2362390011548996,2.045485019683838
1781031010364893000,7.306892822265625,-2.869645118713379,0.3629179894924164,2.289386034011841
1781031010384408600,7.32640869140625,-2.947969913482666,0.5528820157051086,2.401431083679199
1781031010403922700,7.345922607421875,-2.98498010635376,0.7444559931755066,2.2992680072784424
1781031010423434800,7.365434814453125,-2.976696014404297,0.90829598903656,1.9187439680099487
1781031010442945300,7.3849453125,-2.88753604888916,1.0623159408569336,0.1416420042514801
1781031010462460000,7.4044599609375,-2.7738029956817627,1.2083170413970947,-0.2391709983348846
1781031010481973000,7.423972900390625,-2.618263006210327,1.3477180004119873,-2.098397016525269
1781031010501480000,7.44347998046875,-2.4430959224700928,1.4614109992980957,-2.345015048980713
1781031010520987600,7.462987548828125,-2.3170111179351807,1.522076964378357,-2.748913049697876
1781031010540498200,7.482498291015625,-2.1988539695739746,1.5384390354156494,-3.216377019882202
1781031010560008400,7.502008544921875,-2.1017730236053467,1.5101900100708008,-3.615901947021485
1781031010579518200,7.521518310546875,-1.94071102142334,1.4393529891967771,-3.9323959350585938
1781031010599028700,7.54102880859375,-1.6185959577560425,1.3261439800262451,-4.189813137054443
1781031010618542300,7.560542236328125,-1.6185959577560425,1.3261439800262451,-4.189813137054443
1781031010638055400,7.580055419921875,-0.5890470147132874,1.0504889488220217,-3.9593288898468018
1781031010657568300,7.599568359375,-0.087459996342659,0.9479740262031556,-3.586067914962769
1781031010677079800,7.619079833984375,-0.087459996342659,0.9479740262031556,-3.586067914962769
1781031010696593400,7.638593505859375,0.3985700011253357,1.002349019050598,-2.8145980834960938
1781031010716108300,7.6581083984375,0.263031005859375,1.138247013092041,-2.4843270778656006
1781031010735627000,7.677626953125,-0.1191760003566742,1.2691019773483276,-1.991798996925354
1781031010755145500,7.6971455078125,-0.5828520059585571,1.2920869588851929,-0.4771440029144287
1781031010774658300,7.716658203125,-0.5828520059585571,1.2920869588851929,-0.4771440029144287
1781031010794173400,7.73617333984375,-0.9473419785499572,0.9114810228347778,0.6933259963989258
1781031010813687600,7.7556875,-0.5450419783592224,0.5111100077629089,1.285385012626648
1781031010833195800,7.77519580078125,0.0187829993665218,0.0355079993605613,1.840356945991516
1781031010852701400,7.794701416015625,0.5682889819145203,-0.4558739960193634,2.411639928817749
1781031010872214800,7.81421484375,1.031335949897766,-0.919543981552124,2.965665102005005
1781031010891726600,7.8337265625,1.5407710075378418,-1.299239993095398,3.3281400203704834
1781031010911237000,7.853237060546875,2.0568768978118896,-1.5410959720611572,3.3269360065460205
1781031010930753500,7.87275341796875,2.5439159870147705,-1.6873420476913452,2.8932080268859863
1781031010950269700,7.892269775390625,2.988888025283813,-1.7627969980239868,1.047175049781799
1781031010969785000,7.91178515625,3.3441030979156494,-1.8441829681396484,-0.6351000070571899
1781031010989300500,7.931300537109375,3.4859209060668945,-1.9482109546661377,-2.517359972000122
1781031011008813600,7.9508134765625,3.160343885421753,-2.00379490852356,-2.75803804397583
1781031011028324900,7.970324951171875,1.2908179759979248,-1.9571599960327148,-2.990216016769409
1781031011047838200,7.989838134765625,0.8081870079040527,-1.7452939748764038,-3.17496395111084
1781031011067354000,8.00935400390625,0.3142099976539612,-1.41526198387146,-3.3343698978424072
1781031011086870000,8.0288701171875,0.2505089938640594,-1.123613953590393,-3.501183032989502
1781031011106382600,8.048382568359376,0.6822419762611389,-1.0096759796142578,-3.534665107727051
1781031011125895400,8.0678955078125,2.223931074142456,-1.10808002948761,-3.2474260330200195
1781031011145411000,8.0874111328125,2.5754759311676025,-1.3578890562057495,-1.571882963180542
1781031011164930000,8.106929931640625,2.9054439067840576,-1.5964219570159912,-1.2700799703598022
1781031011184451800,8.126451904296875,2.975248098373413,-1.7504810094833374,-0.8923490047454834
1781031011203970300,8.14597021484375,2.691809892654419,-1.7963030338287354,-0.7639939785003662
1781031011223486500,8.165486572265625,2.131226062774658,-1.6656290292739868,-0.9980289936065674
1781031011243003600,8.185003662109375,0.2524270117282867,-1.4489439725875854,-1.4289419651031494
1781031011262521300,8.204521240234374,-0.1480789929628372,-1.1767289638519287,-1.735326051712036
1781031011282035500,8.224035400390624,-0.7521520256996155,-0.8389890193939209,-1.7086670398712158
1781031011301549000,8.243549072265624,-1.3828610181808472,-0.5288739800453186,-1.364106059074402
1781031011321063200,8.263063232421874,-1.869115948677063,-0.2209549993276596,-0.8740710020065308
1781031011340569000,8.282569091796875,-2.179018974304199,0.0495189987123012,-0.4610480070114136
1781031011360078000,8.302078125,-2.3284199237823486,0.270900011062622,-0.202234998345375
1781031011379592700,8.3215927734375,-2.402523994445801,0.4662590026855469,-0.1133959963917732
1781031011399106600,8.3411064453125,-2.457350969314575,0.6113680005073547,-0.1236210018396377
1781031011418621000,8.360620849609376,-2.516957998275757,0.7976790070533752,-0.1911240071058273
1781031011438138400,8.380138427734375,-2.572046995162964,0.9815719723701476,-0.2845770120620727
1781031011457659400,8.399659423828124,-2.573309898376465,1.1437259912490845,-0.4285140037536621
1781031011477183200,8.419183349609375,-2.573309898376465,1.1437259912490845,-0.4285140037536621
1781031011496704300,8.438704345703124,-2.309657096862793,1.397014021873474,-1.0049899816513062
1781031011535723300,8.47772314453125,-1.4917969703674316,1.4780869483947754,-1.7740429639816284
1781031011555232500,8.497232421875,-1.0058170557022097,1.4460409879684448,-2.0960500240325928
1781031011574745600,8.51674560546875,-1.0058170557022097,1.4460409879684448,-2.0960500240325928
1781031011594257400,8.53625732421875,-0.2637239992618561,1.4271889925003052,-2.7418789863586426
1781031011613764600,8.5557646484375,-0.0138109996914863,1.3345810174942017,-3.102895021438598
1781031011633275100,8.575275146484374,-0.0138109996914863,1.3345810174942017,-3.102895021438598
1781031011652796000,8.5947958984375,-0.2803109884262085,1.4027669429779053,-3.9485208988189697
1781031011672315100,8.614315185546875,-0.2445929944515228,1.4276219606399536,-4.167519092559815
1781031011691829200,8.633829345703125,0.1214480027556419,1.411013960838318,-4.122836112976074
1781031011711346700,8.6533466796875,0.6759989857673645,1.3617509603500366,-3.67499303817749
1781031011730869200,8.672869140625,1.1695749759674072,1.2817599773406982,-2.0190999507904053
1781031011750389000,8.692388916015625,1.2949509620666504,1.1520060300827026,-0.0035369999241083
1781031011769906700,8.71190673828125,1.0839240550994873,1.0145519971847534,0.4701839983463287
1781031011789426700,8.7314267578125,0.782139003276825,0.8561720252037048,1.9586310386657717
1781031011808949000,8.750948974609376,0.5529720187187195,0.6905069947242737,2.3111019134521484
1781031011828465000,8.77046484375,0.4089060127735138,0.5017790198326111,2.672313928604126
1781031011847977000,8.78997705078125,0.369253009557724,0.2912729978561401,2.968439102172852
1781031011867487500,8.809487548828125,0.363317996263504,0.0616579987108707,3.181062936782837
1781031011886998300,8.828998291015624,0.3724919855594635,-0.176046997308731,3.1995439529418945
1781031011906512400,8.848512451171874,0.3919639885425567,-0.3936240077018738,2.893497943878174
1781031011926025500,8.868025390625,0.3001900017261505,-0.5962449908256531,0.9169279932975768
1781031011945539800,8.887539794921874,0.2440560013055801,-0.7989450097084045,-1.0159469842910769
1781031011965055500,8.907055419921875,0.3752250075340271,-0.9755330085754396,-3.3131120204925537
1781031011984571600,8.926571533203125,0.8297970294952393,-1.1530280113220217,-3.874634981155396
1781031012004087000,8.946087158203126,2.268541097640991,-1.3800899982452393,-5.343019962310791
1781031012023602400,8.9656025390625,2.566559076309204,-1.5789339542388916,-5.242269992828369
1781031012043117300,8.985117431640624,2.761094093322754,-1.7158960103988647,-4.724669933319092
1781031012062635300,9.00463525390625,2.7582719326019287,-1.7804889678955078,-3.150609016418457
1781031012082158300,9.024158447265624,2.710387945175171,-1.7616100311279297,-2.698432922363281
1781031012101678300,9.04367822265625,2.731153011322021,-1.7277920246124268,-2.1112608909606934
1781031012121193700,9.06319384765625,2.828902006149292,-1.7130980491638184,-1.5693039894104004
1781031012140710000,9.0827099609375,2.906930923461914,-1.6829309463500977,-1.1516740322113037
1781031012160226600,9.1022265625,2.8576579093933105,-1.6004960536956787,-0.9630650281906128
1781031012179742000,9.121741943359376,2.5934979915618896,-1.4779269695281982,-1.020637035369873
1781031012199259000,9.1412587890625,2.0812270641326904,-1.3436709642410278,-1.1638679504394531
1781031012218780200,9.1607802734375,2.0812270641326904,-1.3436709642410278,-1.1638679504394531
1781031012238299600,9.180299560546874,0.7247599959373474,-1.003208041191101,-1.5309430360794067
1781031012257819000,9.19981884765625,0.1282359957695007,-0.7665500044822693,-1.6482789516448977
1781031012277339000,9.2193388671875,-0.3113699853420257,-0.5252460241317749,-1.576328992843628
1781031012296854000,9.23885400390625,-0.632282018661499,-0.3239180147647857,-1.260565996170044
1781031012316365300,9.258365234375,-0.632282018661499,-0.3239180147647857,-1.260565996170044
1781031012335880000,9.2778798828125,-1.212759017944336,-0.130061998963356,-0.3213649988174438
1781031012355396600,9.297396728515626,-1.4282020330429075,-0.0664059966802597,0.0076310001313686
1781031012374913500,9.31691357421875,-1.5723899602890017,0.0055639999918639,0.1881259977817535
1781031012394429400,9.336429443359377,-1.5723899602890017,0.0055639999918639,0.1881259977817535
1781031012413942000,9.35594189453125,-1.6741169691085815,0.1941940039396286,0.4160430133342743
1781031012433457400,9.37545751953125,-1.6741169691085815,0.1941940039396286,0.4160430133342743
1781031012452973300,9.394973388671875,-1.831223964691162,0.539454996585846,0.4243139922618866
1781031012472486000,9.41448583984375,-1.8744430541992188,0.7491440176963806,0.0916730016469955
1781031012492000300,9.434000244140623,-1.8550169467926023,0.9667689800262452,-1.7920939922332764
1781031012511511800,9.45351171875,-1.77395498752594,1.1312600374221802,-2.165224075317383
1781031012531027700,9.47302783203125,-1.705137014389038,1.232532978057861,-2.720310926437378
1781031012550548000,9.4925478515625,-1.6955310106277466,1.3112540245056152,-3.2116920948028564
1781031012570069000,9.512069091796874,-1.7445809841156006,1.3371390104293823,-3.519081115722656
1781031012589588700,9.531588623046876,-1.832358956336975,1.3126959800720217,-3.593287944793701
1781031012609108500,9.5511083984375,-1.8945059776306152,1.2556699514389038,-3.539803981781006
1781031012628629500,9.57062939453125,-1.8378440141677856,1.148664951324463,-3.4253549575805664
1781031012648148200,9.590148193359376,-1.6241639852523804,1.0064059495925903,-3.279428005218506
1781031012667666700,9.609666748046877,-1.208562970161438,0.8594220280647278,-3.1818389892578125
1781031012687181300,9.629181396484377,-0.5880990028381348,0.7515559792518616,-3.0730559825897217
1781031012706696200,9.6486962890625,0.0969770029187202,0.6722480058670044,-2.819119930267334
1781031012726215400,9.66821533203125,0.7028070092201233,0.6205790042877197,-2.325445890426636
1781031012745734100,9.687734130859376,1.086074948310852,0.6015530228614807,-0.8235700130462646
1781031012765251300,9.707251220703125,1.1488380432128906,0.6037160158157349,-0.2525410056114197
1781031012784772900,9.72677294921875,0.9577199816703796,0.6321139931678772,1.358667016029358
1781031012804294400,9.74629443359375,0.6245869994163513,0.6437379717826843,1.8154369592666624
1781031012823812400,9.765812255859377,0.2775009870529175,0.6175259947776794,2.327594041824341
1781031012843328000,9.785327880859375,0.0462829992175102,0.5416110157966614,2.791590929031372
1781031012862846200,9.80484619140625,-0.0487729981541633,0.3861710131168365,3.109381914138794
1781031012882366500,9.824366455078126,0.0032929999288171,0.1797710061073303,3.270796060562134
1781031012901884700,9.843884765625,0.1091910004615783,-0.0513340011239051,3.233797073364258
1781031012921399000,9.86339892578125,0.2761549949645996,-0.2710720002651214,2.933218002319336
1781031012940913700,9.88291357421875,0.5576930046081543,-0.4737449884414673,1.1235500574111938
1781031012960430300,9.902430419921876,0.9649500250816344,-0.6307920217514038,-0.5065129995346069
1781031012979947800,9.92194775390625,1.5627529621124268,-0.766972005367279,-2.286010980606079
1781031012999467500,9.941467529296874,2.9461820125579834,-0.8867959976196289,-2.790534019470215
1781031013018986200,9.960986328125,3.1388049125671387,-0.9706479907035828,-4.268022060394287
1781031013038498300,9.980498291015625,3.2007570266723637,-1.001891016960144,-4.333485126495361
1781031013058013200,10.00001318359375,2.994451999664306,-0.9733279943466188,-4.164034843444824
1781031013077533200,10.019533203125,2.632826089859009,-0.8597319722175598,-3.868614912033081
1781031013097050000,10.039050048828123,2.632826089859009,-0.8597319722175598,-3.868614912033081
1781031013116566800,10.05856689453125,2.372431993484497,-0.5770990252494812,-3.3619918823242188
1781031013136085200,10.078085205078125,2.554831027984619,-0.5528600215911865,-3.160543918609619
1781031013155602200,10.097602294921876,2.872996091842652,-0.6380450129508972,-2.902838945388794
1781031013175120100,10.1171201171875,2.995214939117432,-0.7851999998092651,-2.4424068927764893
1781031013194639600,10.1366396484375,2.995214939117432,-0.7851999998092651,-2.4424068927764893
1781031013214160600,10.15616064453125,2.8535890579223637,-1.053017020225525,-1.333016037940979
1781031013233682400,10.175682373046875,2.8535890579223637,-1.053017020225525,-1.333016037940979
1781031013253201400,10.195201416015625,2.1987080574035645,-1.1467349529266355,-0.8545629978179932
1781031013272719600,10.2147197265625,1.6605620384216309,-1.0498440265655518,-0.8702300190925598
1781031013292240000,10.234239990234377,1.0733389854431152,-0.8934419751167297,-0.8501179814338684
1781031013311761200,10.25376123046875,0.4436059892177582,-0.6783599853515625,-0.6494079828262329
1781031013331282700,10.27328271484375,-0.172652006149292,-0.4671429991722107,-0.273512989282608
1781031013350800100,10.292800048828123,-0.7076799869537354,-0.3090690076351166,0.107584998011589
1781031013370316500,10.312316650390626,-1.1289589405059814,-0.1976429969072342,0.4303910136222839
1781031013389840000,10.33183984375,-1.4129339456558228,-0.1444099992513656,0.6508470177650452
1781031013409362400,10.351362548828124,-1.5855590105056765,-0.0936689972877502,0.7236490249633789
1781031013428885500,10.370885498046874,-1.7123589515686035,0.008814999833703,0.6652219891548157
1781031013448405500,10.390405517578126,-1.8470970392227173,0.1397120058536529,0.5122150182723999
1781031013487431200,10.42943115234375,-2.2081260681152344,0.4755389988422394,-0.1538109928369522
1781031013506946800,10.44894677734375,-2.261169910430908,0.5958250164985657,-1.7794270515441897
1781031013526466800,10.468466796875,-2.15524697303772,0.6847360134124756,-2.188016891479492
1781031013545986800,10.48798681640625,-1.9299219846725464,0.7080559730529785,-3.864512920379639
1781031013565504500,10.50750439453125,-1.7302030324935913,0.6989420056343079,-4.011390209197998
1781031013585023500,10.5270234375,-1.585590958595276,0.7050290107727051,-4.248037815093994
1781031013604543000,10.54654296875,-1.4710190296173096,0.709771990776062,-4.328707218170166
1781031013624062200,10.566062255859377,-1.348615050315857,0.7043449878692627,-4.229522228240967
1781031013643580400,10.585580322265624,-1.1874150037765503,0.7265639901161194,-4.099686145782471
1781031013663098600,10.6050986328125,-1.0988709926605225,0.7788640260696411,-3.812458038330078
1781031013682619600,10.62461962890625,-1.0841649770736694,0.830256998538971,-3.3959848880767822
1781031013702141000,10.644140869140625,-0.9535679817199708,0.9053990244865416,-3.015691041946411
1781031013721658000,10.663658203125,-0.5967789888381958,0.954342007637024,-2.6187610626220703
1781031013741177600,10.683177490234376,0.0081540001556277,1.0081369876861572,-2.153062105178833
1781031013760698600,10.70269873046875,0.6620270013809204,1.040822982788086,-1.6026870012283323
1781031013780216000,10.722216064453123,1.072759032249451,1.0786809921264648,-0.0949349999427795
1781031013799737000,10.741737060546876,1.1005350351333618,1.087486982345581,0.5007920265197754
1781031013819261200,10.76126123046875,1.1005350351333618,1.087486982345581,0.5007920265197754
1781031013838782700,10.78078271484375,0.6297069787979126,0.9400449991226196,2.7120110988616943
1781031013858305500,10.800305419921877,0.4848600029945373,0.8451709747314453,3.2261250019073486
1781031013877826800,10.819826904296876,0.376475989818573,0.7464010119438171,3.6800830364227295
1781031013897346000,10.839345947265626,0.2625040113925934,0.6227620244026184,4.019025802612305
1781031013916864000,10.858864013671877,0.2625040113925934,0.6227620244026184,4.019025802612305
1781031013936380400,10.87838037109375,-0.0009619999909773,0.3201879858970642,3.994641065597534
1781031013955895800,10.897895751953126,0.1015999987721443,0.0690310001373291,3.513890027999878
1781031013975412700,10.917412841796876,0.4053710103034973,-0.1604309976100921,1.5267369747161863
1781031013994933000,10.93693310546875,0.4053710103034973,-0.1604309976100921,1.5267369747161863
1781031014014454000,10.9564541015625,2.486035108566284,-0.6946979761123657,-2.5097970962524414
1781031014033972700,10.97597265625,3.021836996078491,-1.08118999004364,-4.321778774261475
1781031014053489700,10.99548974609375,4.400012969970703,-1.4751859903335571,-4.800197124481201
1781031014073011700,11.01501171875,4.425270080566406,-1.83050799369812,-5.122165203094482
1781031014092534300,11.0345341796875,4.242256164550781,-2.071790933609009,-5.17081880569458
1781031014112053500,11.054053466796876,3.8755910396575928,-2.182436943054199,-5.041378974914551
1781031014131566300,11.07356640625,3.556209087371826,-2.2436349391937256,-4.757798194885254
1781031014151076400,11.093076416015624,3.4342429637908936,-2.277164936065674,-4.34125280380249
1781031014170588700,11.112588623046875,3.503577947616577,-2.299959897994995,-3.854902982711792
1781031014190098400,11.132098388671874,3.613126039505005,-2.345341920852661,-2.214318990707397
1781031014209609700,11.151609619140626,3.580996036529541,-2.3592898845672607,-1.9609129428863523
1781031014229127400,11.17112744140625,3.2548530101776123,-2.344330072402954,-1.51876699924469
1781031014248643300,11.190643310546877,2.679202079772949,-2.25274395942688,-1.0369830131530762
1781031014268159700,11.21015966796875,2.0091049671173096,-2.053222894668579,-0.6599010229110718
1781031014287671600,11.229671630859375,1.2794350385665894,-1.7745269536972046,-0.4147109985351562
1781031014307182000,11.24918212890625,0.6425359845161438,-1.4333209991455078,-0.2445680052042007
1781031014326695000,11.26869482421875,0.0733459964394569,-1.1128499507904053,-0.0437650009989738
1781031014346202000,11.2882021484375,-0.4694080054759979,-0.8280209898948669,0.2945210039615631
1781031014365708000,11.3077080078125,-0.9161099791526794,-0.6233459711074829,0.6598280072212219
1781031014385217000,11.327217041015626,-1.2861839532852173,-0.4343560039997101,0.9626880288124084
1781031014404726800,11.346726806640625,-1.5941660404205322,-0.2450760006904602,1.089411973953247
1781031014424234000,11.36623388671875,-1.8364670276641848,-0.0809530019760131,0.9263669848442078
1781031014443743000,11.385742919921874,-2.038815975189209,0.1255259960889816,0.5382050275802612
1781031014463259400,11.40525927734375,-2.2189829349517822,0.3428319990634918,-0.0137799996882677
1781031014482768600,11.4247685546875,-2.34824800491333,0.5553900003433228,-1.7496850490570068
1781031014502278400,11.4442783203125,-2.447035074234009,0.7929559946060181,-1.9949109554290767
1781031014521799700,11.463799560546876,-2.5378849506378174,1.012529969215393,-2.410083055496216
1781031014541319000,11.48331884765625,-2.5885770320892334,1.1930240392684937,-2.8800048828125
1781031014560836900,11.5028369140625,-2.5902628898620605,1.3417079448699951,-3.253187894821167
1781031014580358700,11.522358642578125,-2.588747024536133,1.443395972251892,-3.4209020137786865
1781031014599881500,11.541881591796876,-2.610806941986084,1.5178409814834597,-3.474262952804565
1781031014619402800,11.56140283203125,-2.610806941986084,1.5178409814834597,-3.474262952804565
1781031014638923300,11.58092333984375,-2.8057689666748047,1.6580519676208496,-3.4456260204315186
1781031014658443800,11.60044384765625,-2.774308919906616,1.6721930503845217,-3.553177118301392
1781031014677964000,11.619964111328123,-2.5297069549560547,1.635951042175293,-3.727075099945069
1781031014697483300,11.639483154296874,-2.075237989425659,1.546419978141785,-3.76280689239502
1781031014717002500,11.65900244140625,-2.075237989425659,1.546419978141785,-3.76280689239502
1781031014736520400,11.6785205078125,-0.9006360173225403,1.3320660591125488,-3.3503639698028564
1781031014756038700,11.69803857421875,-0.2536239922046661,1.3006000518798828,-2.877587080001831
1781031014775564300,11.717564208984374,0.3358080089092254,1.2784379720687866,-2.30282998085022
1781031014795088000,11.737087890625,0.3358080089092254,1.2784379720687866,-2.30282998085022
1781031014814608100,11.756608154296876,0.7865999937057495,1.2747609615325928,-0.0637440010905265
1781031014834130000,11.7761298828125,0.7865999937057495,1.2747609615325928,-0.0637440010905265
1781031014853651700,11.795651611328124,-0.0351039990782737,1.1841590404510498,2.0561649799346924
1781031014873171000,11.8151708984375,-0.3862200081348419,1.0273100137710571,2.6671149730682373
1781031014892686600,11.8346865234375,-0.4881049990653991,0.8370940089225769,3.154979944229126
1781031014912203500,11.85420361328125,-0.3479309976100921,0.6172860264778137,3.420440912246704
1781031014931724500,11.873724609375,-0.0548459999263286,0.3117580115795135,3.482465982437134
1781031014951245000,11.8932451171875,0.2844299972057342,-0.0018500000005587,3.2939670085906982
1781031014970762800,11.9127626953125,0.5953480005264282,-0.3257389962673187,2.7758030891418457
1781031014990279200,11.932279052734376,0.8731539845466614,-0.6028590202331543,0.8842080235481262
1781031015009794800,11.951794921875,1.224323034286499,-0.744193971157074,-1.0644949674606323
1781031015029311500,11.9713115234375,1.6100059747695925,-0.8703309893608093,-2.866020917892456
1781031015048832000,11.99083203125,1.94268000125885,-0.9472709894180298,-3.4181649684906006
1781031015068352500,12.0103525390625,2.168643951416016,-0.9543619751930236,-3.9237449169158936
1781031015087869000,12.029868896484375,2.191190004348755,-0.9040160179138184,-4.097663879394531
1781031015107387400,12.049387451171874,2.021229982376098,-0.7597640156745911,-3.991811990737915
1781031015126908700,12.06890869140625,1.8098440170288088,-0.5777209997177124,-3.856076002120972
1781031015146429200,12.08842919921875,1.8021730184555051,-0.4327709972858429,-3.7594521045684814
1781031015165951000,12.107950927734375,2.01676607131958,-0.4182589948177337,-3.645997047424317
1781031015185472800,12.12747265625,2.412883996963501,-0.5507360100746155,-3.511953115463257
1781031015204993000,12.146992919921876,2.912962913513184,-0.7553009986877441,-3.276719093322754
1781031015224516900,12.166516845703123,3.2561140060424805,-1.0169689655303955,-2.812140941619873
1781031015244042000,12.1860419921875,3.328282117843628,-1.2794300317764282,-2.196820020675659
1781031015263565300,12.2055654296875,3.163172960281372,-1.4664230346679688,-0.7913690209388733
1781031015283086300,12.22508642578125,2.821647882461548,-1.5518649816513062,-0.5579079985618591
1781031015302607600,12.244607666015623,2.359730958938598,-1.550726056098938,-0.327017992734909
1781031015322129000,12.26412890625,1.86627995967865,-1.4349980354309082,-0.1321350038051605
1781031015341646300,12.283646240234376,1.374359965324402,-1.2602070569992063,0.0499939993023872
1781031015361163300,12.303163330078124,0.8295310139656067,-1.0719879865646362,0.3170410096645355
1781031015380680200,12.32268017578125,0.2600489854812622,-0.8831279873847961,0.6281499862670898
1781031015400193800,12.34219384765625,-0.2455620020627975,-0.7404149770736694,0.8981750011444092
1781031015419708400,12.36170849609375,-0.6531050205230713,-0.5785199999809265,1.0755480527877808
1781031015458748700,12.400748779296874,-1.1657090187072754,-0.3177579939365387,0.9056559801101683
1781031015478269200,12.420269287109376,-1.357488989830017,-0.1471360027790069,0.5196620225906372
1781031015497784600,12.43978466796875,-1.5230690240859983,0.0117429997771978,-1.3159199953079224
1781031015517298200,12.459298095703126,-1.6081279516220093,0.2107439935207367,-1.8098280429840088
1781031015536819000,12.47881884765625,-1.6081279516220093,0.2107439935207367,-1.8098280429840088
1781031015556341500,12.498341552734376,-1.6734579801559448,0.6013649702072144,-3.893080949783325
1781031015575862800,12.51786279296875,-1.7746700048446655,0.7572939991950989,-4.208279132843018
1781031015595383000,12.537383056640625,-1.988500952720642,0.8444280028343201,-4.1871337890625
1781031015614903000,12.556903076171874,-1.988500952720642,0.8444280028343201,-4.1871337890625
1781031015634425600,12.576425537109374,-2.4452030658721924,0.9530569911003112,-3.775499105453491
1781031015653949400,12.595949462890625,-2.4452030658721924,0.9530569911003112,-3.775499105453491
1781031015673470700,12.615470703125,-2.262526035308838,0.9402589797973632,-3.3062260150909424
1781031015692988000,12.63498779296875,-2.0454699993133545,0.9503170251846312,-3.0262980461120605
1781031015712502500,12.65450244140625,-1.9456219673156736,0.9950960278511048,-2.773941993713379
1781031015732018700,12.674018798828126,-1.9263880252838133,1.0834150314331057,-2.682027101516724
1781031015751533600,12.693533447265626,-1.7458009719848633,1.1526789665222168,-2.7190120220184326
1781031015771045600,12.713045654296875,-1.2402440309524536,1.2074780464172363,-2.8281021118164062
1781031015790562000,12.73256201171875,0.2970330119132995,1.2434849739074707,-2.812930107116699
1781031015810082300,12.752082275390626,0.7135130167007446,1.305109977722168,-2.3810060024261475
1781031015829601000,12.77160107421875,0.8962420225143433,1.4033969640731812,-0.555957019329071
1781031015849117700,12.79111767578125,0.6768770217895508,1.5072089433670044,1.2396279573440552
1781031015868632300,12.81063232421875,0.2196979969739914,1.5974750518798828,2.939173936843872
1781031015888144600,12.83014453125,-0.1586620062589645,1.6401859521865845,3.5358400344848637
1781031015907661300,12.849661376953126,-0.2968949973583221,1.5846019983291626,4.083034992218018
1781031015927181300,12.869181396484375,-0.2440959960222244,1.3675450086593628,4.3901047706604
1781031015946700800,12.88870068359375,-0.0825320035219192,1.0052570104599,4.429426193237305
1781031015966220000,12.908219970703126,0.1111029982566833,0.5669280290603638,4.094351768493652
1781031015985742600,12.92774267578125,0.370481014251709,0.1110230013728141,2.005400896072388
1781031016005265700,12.947265625,0.7952110171318054,-0.2954829931259155,0.0023129999171942
1781031016024785400,12.966785400390624,1.4375909566879272,-0.6790379881858826,-2.179939031600952
1781031016044305000,12.986304931640625,3.024133920669556,-1.113154053688049,-3.958756923675537
1781031016063823400,13.0058232421875,3.3661060333251958,-1.5796109437942505,-4.2729268074035645
1781031016083344400,13.025344482421875,3.632909059524536,-2.0637729167938232,-4.448334217071533
1781031016102865700,13.04486572265625,3.6681740283966064,-2.4961109161376958,-4.246078968048096
1781031016122379500,13.064379638671875,3.536010980606079,-2.792171001434326,-3.818167924880981
1781031016141892900,13.083892822265623,3.395824909210205,-2.9471731185913086,-3.458801031112671
1781031016161408000,13.103407958984375,3.41997504234314,-2.987668991088867,-3.393683910369873
1781031016180924400,13.12292431640625,3.559987068176269,-2.9415109157562256,-3.592395067214966
1781031016200441900,13.14244189453125,3.635979890823364,-2.8604040145874023,-3.7462949752807617
1781031016219958000,13.1619580078125,3.5116539001464844,-2.759205102920532,-3.5839409828186035
1781031016239477000,13.18147705078125,3.151360034942627,-2.625190019607544,-2.0157620906829834
1781031016258996700,13.200996826171876,2.621565103530884,-2.4375710487365723,-1.6842440366744995
1781031016278516700,13.220516845703123,2.065148115158081,-2.2308359146118164,-1.229720950126648
1781031016298036000,13.240035888671876,1.5730390548706057,-2.002713918685913,-0.9562770128250122
1781031016317556200,13.25955615234375,1.134827971458435,-1.764125943183899,-0.9003810286521912
1781031016337079300,13.279079345703124,1.134827971458435,-1.764125943183899,-0.9003810286521912
1781031016356600300,13.298600341796876,0.138945996761322,-1.2938170433044434,-0.8406040072441101
1781031016376119300,13.318119384765623,-0.41559898853302,-1.0622479915618896,-0.6035150289535522
1781031016395637500,13.337637451171876,-0.9728639721870422,-0.8263339996337891,-0.2609289884567261
1781031016415156200,13.35715625,-0.9728639721870422,-0.8263339996337891,-0.2609289884567261
1781031016434675000,13.376675048828124,-1.7730289697647097,-0.4498260021209717,0.3708899915218353
1781031016454189800,13.39618994140625,-2.076720952987671,-0.21144400537014,0.450857013463974
1781031016473703200,13.415703125,-2.299232006072998,0.0312809981405735,0.3345719873905182
1781031016493223400,13.435223388671876,-2.4343791007995605,0.2904669940471649,0.0727730020880699
1781031016512740600,13.45474072265625,-2.510030031204224,0.570035994052887,-0.2376630008220672
1781031016532262400,13.474262451171874,-2.5663559436798096,0.823652982711792,-0.5563730001449585
1781031016551789600,13.49378955078125,-2.6080880165100098,1.072761058807373,-0.9664940237998962
1781031016571310000,13.51331005859375,-2.6179099082946777,1.272873044013977,-1.5372339487075806
1781031016590831000,13.5328310546875,-2.5650808811187744,1.427196979522705,-2.1571969985961914
1781031016610354700,13.552354736328123,-2.4787158966064453,1.5461039543151855,-2.671444892883301
1781031016629879300,13.57187939453125,-2.3669440746307373,1.584131956100464,-2.962256908416748
1781031016649406200,13.59140625,-2.252600908279419,1.5750099420547483,-3.0499050617218018
1781031016668932400,13.610932373046875,-2.12733793258667,1.5176409482955933,-3.054605007171631
1781031016688456200,13.630456298828124,-1.9128509759902956,1.45251202583313,-3.073554039001465
1781031016707978500,13.649978515625,-1.6796189546585083,1.421489953994751,-3.1604809761047363
1781031016727500500,13.66950048828125,-1.4174389839172363,1.3884170055389404,-3.2464990615844727
1781031016747026400,13.6890263671875,-1.0982550382614136,1.3561060428619385,-3.316011905670166
1781031016766550300,13.70855029296875,-0.6929649710655212,1.3083659410476685,-3.3395049571990967
1781031016786072600,13.728072509765624,-0.1310539990663528,1.2627520561218262,-3.164836883544922
1781031016805595400,13.747595458984376,0.4259519875049591,1.2243590354919434,-2.666796922683716
1781031016825117200,13.7671171875,0.8254629969596863,1.179041028022766,-1.0161010026931765
1781031016844636000,13.786635986328124,0.9029710292816162,1.126675009727478,0.8611090183258057
1781031016864157200,13.8061572265625,0.6930149793624878,1.05969500541687,1.2709399461746216
1781031016883681500,13.825681640625,0.3802860081195831,0.985980987548828,1.84157395362854
1781031016903200300,13.8452001953125,0.1168780028820037,0.8862259984016418,2.364248037338257
1781031016922716700,13.864716552734375,0.0166720002889633,0.736365020275116,2.756143093109131
1781031016942234600,13.884234619140624,0.1029980033636093,0.5102450251579285,3.0091168880462646
1781031016961749500,13.90374951171875,0.3230260014533996,0.2487819939851761,3.1773500442504883
1781031016981266000,13.923265869140623,0.6016860008239746,-0.0225750003010034,3.1866910457611084
1781031017000783600,13.94278369140625,0.8714140057563782,-0.2844490110874176,2.925024032592773
1781031017020300500,13.962300537109376,1.0772069692611694,-0.5281389951705933,1.0732150077819824
1781031017039817700,13.981817626953124,1.3503329753875732,-0.7964649796485901,-0.7626760005950928
1781031017059337700,14.001337646484377,1.888388991355896,-1.140887975692749,-2.643470048904419
1781031017078860000,14.020860107421877,3.502892017364502,-1.555891990661621,-3.1189990043640137
1781031017098380500,14.040380615234374,3.85930609703064,-2.0066959857940674,-3.622404098510742
1781031017117899500,14.0598994140625,4.050177097320557,-2.4727931022644043,-3.7419140338897705
1781031017137418000,14.07941796875,3.830079078674317,-2.783186912536621,-3.5146360397338867
1781031017156935000,14.098934814453123,3.830079078674317,-2.783186912536621,-3.5146360397338867
1781031017176454100,14.1184541015625,2.918572902679444,-2.888880968093872,-2.863101005554199
1781031017195977700,14.137977783203125,2.681654930114746,-2.7947030067443848,-2.5582189559936523
1781031017215504000,14.15750390625,2.6892549991607666,-2.6807448863983154,-2.298962116241455
1781031017235026700,14.177026611328126,2.7725510597229004,-2.5701279640197754,-2.002336025238037
1781031017254545000,14.196544921875,2.7725510597229004,-2.5701279640197754,-2.002336025238037
1781031017274061600,14.2160615234375,2.726069927215576,-2.368032932281494,-1.9223719835281368
1781031017293580800,14.235580810546876,2.327691078186035,-2.145318031311035,-2.173952102661133
1781031017313099300,14.255099365234376,1.7368149757385254,-1.8755249977111816,-2.5141730308532715
1781031017332619000,14.274618896484377,1.0918610095977783,-1.5444600582122805,-2.8358640670776367
1781031017352140800,14.294140869140625,1.0918610095977783,-1.5444600582122805,-2.8358640670776367
1781031017391179800,14.3331796875,-0.6375769972801208,-0.6174179911613464,-2.308736085891724
1781031017410704400,14.352704345703126,-1.155709981918335,-0.4065400063991546,-1.731050968170166
1781031017430226000,14.372225830078126,-1.6411609649658203,-0.2432799935340881,-1.2221100330352783
1781031017449743000,14.3917431640625,-2.0774550437927246,-0.0747440010309219,-0.9374920129776
1781031017469260500,14.411260498046875,-2.463953018188477,0.1470299959182739,-0.8324530124664307
1781031017488780000,14.430780029296876,-2.792639970779419,0.4015400111675262,-0.6890850067138672
1781031017508299300,14.45029931640625,-3.071175098419189,0.6637470126152039,-0.4693360030651092
1781031017527817000,14.46981689453125,-3.22266697883606,0.8864799737930298,-0.1582449972629547
1781031017547338500,14.48933837890625,-3.245840072631836,1.0593249797821045,0.1839379966259002
1781031017566864000,14.50886376953125,-3.1241660118103027,1.175469994544983,0.3882839977741241
1781031017586388200,14.52838818359375,-2.860323905944824,1.2615560293197632,0.3186849951744079
1781031017605909500,14.547909423828123,-2.5067920684814453,1.351470947265625,-0.076955996453762
1781031017625425000,14.5674248046875,-2.053900957107544,1.3657619953155518,-1.7610390186309814
1781031017644939300,14.586939208984376,-1.6824949979782104,1.3727710247039795,-2.0201780796051025
1781031017664458500,14.60645849609375,-1.451364040374756,1.3833400011062622,-2.4494409561157227
1781031017683981000,14.62598095703125,-1.3952150344848633,1.3661309480667114,-2.855321884155273
1781031017703504100,14.645504150390623,-1.5421479940414429,1.3653440475463867,-3.212317943572998
1781031017723020300,14.665020263671876,-1.7417999505996704,1.3388110399246216,-3.614927053451538
1781031017742535400,14.684535400390626,-1.856691002845764,1.2493950128555298,-3.9170000553131104
1781031017762051600,14.704051513671876,-1.7115579843521118,1.090747952461243,-4.071063041687012
1781031017781568300,14.723568359375,-1.1031819581985474,0.8978800177574158,-4.105313777923584
1781031017801085400,14.74308544921875,0.8884729743003845,0.6372740268707275,-3.9128010272979736
1781031017820601300,14.762601318359376,2.551307916641236,0.3434549868106842,-3.451978921890259
1781031017840117000,14.782116943359377,3.1222269535064697,0.0767479985952377,-1.952375054359436
1781031017859630300,14.80163037109375,3.4168450832366943,-0.1430359929800033,-0.2070039957761764
1781031017879141600,14.8211416015625,3.1837899684906006,-0.2518970072269439,0.2047609984874725
1781031017898655000,14.840655029296874,1.335502028465271,-0.2107719928026199,0.7831040024757385
1781031017918172200,14.860172119140625,0.996068000793457,-0.0641980022192001,1.3250499963760376
1781031017937690400,14.8796904296875,0.4929459989070892,0.1187520027160644,1.749140977859497
1781031017957204500,14.89920458984375,0.4929459989070892,0.1187520027160644,1.749140977859497
1781031017976722700,14.91872265625,-0.2175769954919815,0.4518440067768097,2.169179916381836
1781031017996244200,14.938244140625,-0.2816439867019653,0.4501779973506927,2.135409116744995
1781031018015768600,14.9577685546875,-0.2816439867019653,0.4501779973506927,2.135409116744995
1781031018035291000,14.977290771484377,0.0708279982209205,0.3734689950942993,1.3632099628448486
1781031018054807800,14.996807861328126,0.5748379826545715,0.2567099928855896,-0.1872030049562454
1781031018074326500,15.016326416015623,0.5748379826545715,0.2567099928855896,-0.1872030049562454
1781031018093846000,15.035845947265624,2.5752649307250977,-0.0104400003328919,-2.24289608001709
1781031018113364200,15.0553642578125,2.923017978668213,-0.1266259998083114,-2.5072100162506104
1781031018132884200,15.07488427734375,3.1353180408477783,-0.1781090050935745,-2.669487953186035
1781031018152405800,15.09440576171875,3.1077990531921387,-0.1504629999399185,-2.658926010131836
1781031018171926500,15.113926513671874,2.925457000732422,-0.0910210013389587,-2.556689977645874
1781031018191449600,15.13344970703125,2.793185949325561,-0.0037799999117851,-2.514638900756836
1781031018210969300,15.15296923828125,2.818700075149536,0.0526820011436939,-2.536562919616699
1781031018230487000,15.172487060546874,2.973702907562256,0.0801500007510185,-2.636051893234253
1781031018250007000,15.192007080078126,3.1806209087371826,0.0787570029497146,-2.65477991104126
1781031018269528000,15.211528076171875,3.180130958557129,0.0425029993057251,-2.4026999473571777
1781031018289052000,15.231052001953126,2.8929131031036377,-0.0023129999171942,-1.916990041732788
1781031018308577000,15.250576904296874,2.479933023452759,-0.0928770005702972,-1.388064980506897
1781031018328100000,15.27010009765625,2.01966404914856,-0.220550000667572,-1.0503350496292114
1781031018347621600,15.28962158203125,1.6413129568099976,-0.3609940111637115,-1.05287504196167
1781031018367148500,15.3091484375,1.386441946029663,-0.5020530223846436,-1.3126729726791382
1781031018386674200,15.328674072265626,1.1190929412841797,-0.6031550168991089,-1.56700599193573
1781031018406196000,15.348196044921876,0.7589600086212158,-0.6730549931526184,-1.567152976989746
1781031018425720000,15.367719970703124,0.321370005607605,-0.7061799764633179,-1.3019850254058838
1781031018445247200,15.387247314453123,-0.1963319927453994,-0.6765249967575073,-0.8858979940414429
1781031018464776400,15.4067763671875,-0.7325400114059448,-0.6308490037918091,-0.4485160112380981
1781031018484304000,15.426303955078126,-1.219514012336731,-0.5221670269966125,-0.1221719980239868
1781031018503828500,15.445828369140624,-1.6577039957046509,-0.3749530017375946,0.0067059998400509
1781031018523349500,15.465349609375,-1.950983047485352,-0.2009779959917068,-0.103643000125885
1781031018542868000,15.484867919921877,-2.0838959217071533,-0.0056639998219907,-0.4321689903736114
1781031018562390500,15.504390625,-2.1063289642333984,0.1420270055532455,-0.857276976108551
1781031018581918000,15.52391796875,-2.098539113998413,0.2579750120639801,-1.2594269514083862
1781031018601443600,15.543443603515623,-2.1630139350891118,0.3672930002212524,-1.515666961669922
1781031018620969500,15.562969482421876,-2.318514108657837,0.4711189866065979,-1.587000012397766
1781031018640492300,15.5824921875,-2.475990056991577,0.5650569796562195,-1.5623929500579834
1781031018660017200,15.60201708984375,-2.504157066345215,0.6219419836997986,-1.5565049648284912
1781031018679544000,15.6215439453125,-2.3107750415802,0.6164219975471497,-1.691182017326355
1781031018699063800,15.641063720703125,-1.9343409538269043,0.5635499954223633,-1.980445981025696
1781031018718581200,15.660581298828124,-1.5073779821395874,0.4899600148200989,-2.3466451168060303
1781031018738099000,15.680098876953124,-1.1574599742889404,0.4242439866065979,-2.766371011734009
1781031018757613300,15.69961328125,-1.024075984954834,0.345319002866745,-3.14797306060791
1781031018777130000,15.7191298828125,-1.024075984954834,0.345319002866745,-3.14797306060791
1781031018796644900,15.738644775390624,-0.9448890089988708,0.3047490119934082,-3.643718957901001
1781031018816154600,15.758154541015625,-0.6265209913253784,0.3183499872684479,-3.602489948272705
1781031018835663600,15.77766357421875,-0.6265209913253784,0.3183499872684479,-3.602489948272705
1781031018855180500,15.7971806640625,0.5740180015563965,0.407507985830307,-1.3835829496383667
1781031018874701800,15.816701904296876,0.5740180015563965,0.407507985830307,-1.3835829496383667
1781031018894222800,15.836222900390624,0.9554089903831482,0.4308249950408935,0.6570460200309753
1781031018913741300,15.8557412109375,0.7057690024375916,0.4127840101718902,2.3439180850982666
1781031018933254100,15.875254150390624,0.3549860119819641,0.4024020135402679,2.808213949203491
1781031018952771800,15.894771728515623,0.0095340004190802,0.378944993019104,3.275171995162964
1781031018972296000,15.9142958984375,-0.2269700020551681,0.3199819922447204,3.584731101989746
1781031018991819000,15.933819091796876,-0.3043000102043152,0.2164719998836517,3.615794897079468
1781031019011341300,15.95334130859375,-0.2538099884986877,0.0257339999079704,3.321722984313965
1781031019030864100,15.972864013671876,-0.0817150026559829,-0.2165929973125457,1.5694400072097778
1781031019050388200,15.99238818359375,0.2222079932689666,-0.4748570024967193,-0.016457000747323
1781031019069912300,16.011912353515626,0.7433109879493713,-0.7222260236740112,-1.7895309925079346
1781031019089433300,16.031433349609376,2.5598950386047363,-0.977292001247406,-2.323184013366699
1781031019108950300,16.0509501953125,2.92432188987732,-1.224905014038086,-4.081709861755371
1781031019128468200,16.07046826171875,3.372546911239624,-1.4084919691085815,-4.39047384262085
1781031019147989000,16.089989013671875,3.501538038253784,-1.5260859727859497,-4.530697822570801
1781031019167515400,16.109515380859374,3.209394931793213,-1.436579942703247,-4.438262939453125
1781031019187041500,16.12904150390625,1.33924400806427,-1.165889024734497,-4.092833042144775
1781031019206564000,16.148564208984375,0.9767420291900636,-0.8078160285949707,-3.6288809776306152
1781031019226087700,16.168087646484373,0.6114500164985657,-0.4102329909801483,-3.1408679485321045
1781031019245612500,16.187612548828124,0.4588100016117096,-0.1234679967164993,-2.7381980419158936
1781031019265137400,16.207137451171874,0.7540460228919983,0.0187819991260767,-2.648753881454468
1781031019284660200,16.22666015625,2.477607011795044,0.0003739999956451,-2.7308619022369385
1781031019304180000,16.246179931640626,2.703562021255493,-0.2042219936847686,-2.7210400104522705
1781031019323698200,16.2656982421875,3.0389230251312256,-0.4987129867076874,-2.47578501701355
1781031019343215000,16.285215087890624,3.222898006439209,-0.7994470000267029,-1.9426690340042116
1781031019362728400,16.304728515625,3.145673990249634,-1.0383559465408323,-0.5313339829444885
1781031019382241300,16.3242412109375,2.8246970176696777,-1.0985610485076904,-0.3299640119075775
1781031019401756400,16.34375634765625,2.301542997360229,-1.0390700101852417,-0.1400009989738464
1781031019421273300,16.3632734375,1.60515296459198,-0.921728014945984,0.0561789982020854
1781031019440788000,16.3827880859375,-0.2563230097293854,-0.7222179770469666,0.3086149990558624
1781031019460302300,16.40230224609375,-0.60521399974823,-0.505611002445221,0.6113979816436768
1781031019479810800,16.421810791015623,-1.0630780458450315,-0.2815800011157989,0.8992819786071777
1781031019499319300,16.4413193359375,-1.5098129510879517,-0.0583069995045661,1.1158390045166016
1781031019518835200,16.460835205078126,-1.8743679523468015,0.1400479972362518,1.2052409648895264
1781031019538351000,16.48035107421875,-2.1099228858947754,0.3173229992389679,1.091789960861206
1781031019557870600,16.49987060546875,-2.242562055587769,0.4728690087795257,0.7602829933166504
1781031019577388300,16.51938818359375,-2.24265193939209,0.6244419813156128,-0.8890420198440552
1781031019596898600,16.538898681640624,-2.24265193939209,0.6244419813156128,-0.8890420198440552
1781031019616408800,16.558408935546876,-1.9868470430374143,0.7820640206336975,-2.9094278812408447
1781031019635920400,16.57792041015625,-1.7738529443740845,0.8008769750595093,-3.091273069381714
1781031019655434800,16.597434814453123,-1.6888049840927124,0.7905229926109314,-3.208935022354126
1781031019674949400,16.616949462890624,-1.731469988822937,0.7437499761581421,-3.095841884613037
1781031019694464800,16.63646484375,-1.9613410234451292,0.7370799779891968,-2.910737991333008
1781031019713980700,16.655980712890624,-1.9613410234451292,0.7370799779891968,-2.910737991333008
1781031019733496800,16.675496826171877,-2.4658899307250977,0.8476510047912598,-2.7813808917999268
1781031019753010000,16.695010009765625,-2.489201068878174,0.9066789746284484,-2.910108089447021
1781031019772518000,16.714517822265623,-2.3517749309539795,0.9313219785690308,-2.995260000228882
1781031019792029700,16.73402978515625,-2.0175669193267822,0.8965319991111755,-2.9252068996429443
1781031019811549000,16.753548828125,-1.3962349891662598,0.8543909788131714,-2.78733491897583
1781031019831070500,16.773070556640626,0.3908300101757049,0.8091149926185608,-2.576499938964844
1781031019850592500,16.792592529296876,1.007622003555298,0.8450989723205566,-2.2598021030426025
1781031019870120000,16.812119873046875,1.515323042869568,0.949599027633667,-1.7953009605407717
1781031019889651200,16.831651123046875,1.5651789903640747,1.1022460460662842,0.1425810009241104
1781031019909177300,16.85117724609375,1.1194829940795898,1.2800660133361816,0.584185004234314
1781031019928702200,16.8707021484375,-0.3264870047569275,1.446315050125122,2.26258397102356
1781031019948227800,16.890227783203127,-0.6909379959106445,1.592517971992493,2.800010919570923
1781031019967747800,16.909747802734376,-0.9397950172424316,1.6453319787979126,3.404283046722412
1781031019987263700,16.929263671875,-0.9636200070381165,1.5558229684829712,3.867074012756348
1781031020006782700,16.94878271484375,-0.7637220025062561,1.2802380323410034,4.018366813659668
1781031020026307600,16.9683076171875,-0.344972014427185,0.8653330206871033,3.8445229530334473
1781031020045830000,16.987829833984375,0.222678005695343,0.4162890017032623,2.2728230953216557
1781031020065350100,17.00735009765625,0.8249819874763489,-0.0198519993573427,1.792646050453186
1781031020084872000,17.026871826171874,1.4734430313110352,-0.3926439881324768,-0.1671860069036483
1781031020104392200,17.04639208984375,3.294744968414306,-0.7221369743347168,-1.9121509790420528
1781031020123911400,17.065911376953125,3.6151139736175537,-1.0292160511016846,-3.4318718910217285
1781031020143434200,17.085434326171875,5.204693794250488,-1.279626965522766,-3.881948947906494
1781031020162960400,17.10496044921875,5.2722649574279785,-1.511579990386963,-4.231804847717285
1781031020182484000,17.12448388671875,5.22802209854126,-1.6789840459823608,-4.390810012817383
1781031020202008000,17.144008056640626,4.874258041381836,-1.7561639547348022,-4.452132225036621
1781031020221531000,17.16353076171875,4.28560209274292,-1.740020990371704,-4.539563179016113
1781031020241052000,17.183052001953126,3.664587020874024,-1.6354990005493164,-4.561738967895508
1781031020260576500,17.202576416015624,3.1326169967651367,-1.494110941886902,-4.380029201507568
1781031020280100600,17.2221005859375,2.74086594581604,-1.39382803440094,-3.8669259548187256
1781031020299621400,17.241621337890624,2.392507076263428,-1.350872039794922,-2.2672879695892334
1781031020319140600,17.261140625,2.0408411026000977,-1.3891780376434326,-1.865460991859436
1781031020338663400,17.280663330078124,1.6966049671173096,-1.47468900680542,-1.5070990324020386
1781031020358187800,17.300187744140626,1.3609490394592283,-1.5530129671096802,-1.3676769733428955
1781031020377714000,17.3197138671875,1.0164200067520142,-1.5860309600830078,-1.3351290225982666
1781031020397237500,17.339237548828127,0.6704570055007935,-1.5522220134735107,-1.269819974899292
1781031020416762000,17.35876220703125,0.6704570055007935,-1.5522220134735107,-1.269819974899292
1781031020436284400,17.378284423828124,-0.1095099970698356,-1.3850419521331787,-0.413233995437622
1781031020455800800,17.39780078125,-0.7099140286445618,-1.2033809423446655,1.2522000074386597
1781031020475323400,17.417323486328126,-1.2089500427246094,-1.063539981842041,1.4210649728775024
1781031020494852900,17.436852783203125,-1.6312190294265747,-0.930171012878418,1.6246930360794067
1781031020514378200,17.456378173828124,-1.6312190294265747,-0.930171012878418,1.6246930360794067
1781031020533900800,17.47590087890625,-2.135317087173462,-0.7613930106163025,1.4656779766082764
1781031020553419300,17.495419189453123,-2.236325979232788,-0.6120120286941528,0.9359880089759828
1781031020572935400,17.514935302734376,-2.2534749507904053,-0.407052993774414,-0.7693790197372437
1781031020592455000,17.534454833984373,-2.2162089347839355,-0.1338910013437271,-2.4543418884277344
1781031020611978500,17.553978515625,-2.169826030731201,0.1216050013899803,-2.6940219402313232
1781031020631502600,17.573502685546874,-2.2380940914154053,0.3747130036354065,-2.91359806060791
1781031020651028700,17.59302880859375,-2.414119005203247,0.5699669718742371,-2.9022369384765625
1781031020670554000,17.61255419921875,-2.661936044692993,0.7227200269699097,-2.7411348819732666
1781031020690074400,17.632074462890625,-2.827805995941162,0.9064289927482604,-2.7587690353393555
1781031020709596000,17.651595947265626,-2.7788989543914795,1.042665958404541,-3.0523009300231934
1781031020729120800,17.671120849609373,-2.5541350841522217,1.145535945892334,-3.432384967803955
1781031020748642300,17.690642333984375,-2.2445170879364014,1.1934579610824585,-3.704144954681397
1781031020768162600,17.71016259765625,-1.994359016418457,1.1740189790725708,-3.680284976959229
1781031020787682600,17.7296826171875,-1.8056670427322388,1.196964979171753,-3.385004997253418
1781031020807198000,17.749197998046874,-1.55253005027771,1.2564769983291626,-3.055414915084839
1781031020826714600,17.768714599609375,-1.0574970245361328,1.3706589937210083,-2.7701070308685303
1781031020846231300,17.788231201171875,-0.3559060096740722,1.518036961555481,-2.4181199073791504
1781031020865745700,17.80774560546875,0.3522700071334839,1.6731829643249512,-1.9204349517822263
1781031020885264000,17.827263916015625,0.8538770079612732,1.855502963066101,-0.0253069996833801
1781031020904781600,17.846781494140625,0.9298160076141356,1.9854170083999636,0.4278259873390198
1781031020924296400,17.86629638671875,0.6511679887771606,2.046947956085205,1.9805450439453125
1781031020943818200,17.885818359375,0.2477000057697296,1.953112006187439,2.47183609008789
1781031020963341300,17.90534130859375,-0.0282589998096227,1.6975489854812622,3.005531072616577
1781031020982860800,17.92486083984375,-0.0835890024900436,1.3514089584350586,3.395149946212769
1781031021002381800,17.9443818359375,0.0851100012660026,0.9177820086479188,3.626895904541016
1781031021021906400,17.963906494140623,0.3402340114116668,0.4819799959659576,3.68120789527893
1781031021041432800,17.983432861328126,0.5487040281295776,0.05103600025177,3.537897109985352
1781031021060963300,18.00296337890625,0.7373369932174683,-0.3671930134296417,3.1658730506896973
1781031021080492000,18.022491943359373,0.9520779848098756,-0.7453569769859314,1.265030026435852
1781031021100017400,18.042017333984376,1.3143320083618164,-1.1046370267868042,-0.459663987159729
1781031021119542300,18.06154223632813,1.7884140014648438,-1.4289690256118774,-2.297302007675171
1781031021139064800,18.08106494140625,2.298156976699829,-1.695693016052246,-2.810692071914673
1781031021158588400,18.10058837890625,2.761169910430908,-1.907256007194519,-4.283912181854248
1781031021178114000,18.120114013671877,2.916804075241089,-2.0191049575805664,-4.516202926635742
1781031021197635000,18.139635009765627,2.7982349395751958,-2.0733981132507324,-4.759445190429688
1781031021217154000,18.159154052734376,2.563014030456543,-2.0932810306549072,-5.116471767425537
1781031021236673300,18.17867333984375,2.563014030456543,-2.0932810306549072,-5.116471767425537
1781031021256194300,18.1981943359375,2.26346206665039,-2.167759895324707,-5.433958053588867
1781031021275713500,18.21771362304688,2.307526111602783,-2.19252610206604,-5.038684844970703
1781031021295229400,18.2372294921875,2.574306011199951,-2.3219590187072754,-3.1593339443206787
1781031021314748000,18.25674780273437,2.912889003753662,-2.4564359188079834,-1.6199170351028442
1781031021334269700,18.276269775390624,2.912889003753662,-2.4564359188079834,-1.6199170351028442
1781031021353791700,18.295791748046877,3.4283430576324463,-2.6193621158599854,-0.5226430296897888
1781031021373308000,18.31530786132813,3.3498659133911133,-2.504703998565674,-0.1702779978513717
1781031021392820700,18.33482080078125,3.005610942840576,-2.2726049423217773,0.0502410009503364
1781031021412335000,18.35433520507813,2.477039098739624,-1.9927359819412231,0.2979330122470855
1781031021431850800,18.373850830078126,1.7744970321655271,-1.71465802192688,0.6652889847755432
1781031021451365600,18.39336572265625,0.1432970017194748,-1.4635779857635498,1.1816569566726685
1781031021470881800,18.4128818359375,-0.3717109858989715,-1.2435259819030762,1.689844012260437
1781031021490400800,18.43240087890625,-1.0020970106124878,-0.9863389730453492,2.063476085662842
1781031021509921800,18.451921875,-1.589123010635376,-0.6715710163116455,2.292778968811035
1781031021529444600,18.471444580078124,-2.0442628860473637,-0.3091410100460052,2.359544038772583
1781031021548964000,18.490964111328125,-2.3749120235443115,0.0807820037007331,2.271285057067871
1781031021568485000,18.510485107421875,-2.55362606048584,0.4472970068454742,1.9750089645385744
1781031021588005400,18.53000537109375,-2.580310106277466,0.7562519907951355,0.2729780077934265
1781031021607525000,18.54952514648437,-2.489537000656128,1.035027027130127,-0.2247850000858307
1781031021627044900,18.569044921875,-2.3324880599975586,1.2334409952163696,-2.0654990673065186
1781031021646564900,18.58856494140625,-2.217694044113159,1.3865530490875244,-3.7258880138397217
1781031021666087400,18.60808740234375,-2.2212860584259038,1.4945709705352783,-3.8970329761505127
1781031021685609200,18.627609130859376,-2.4114859104156494,1.5653159618377686,-4.052890777587891
1781031021705129200,18.647129150390622,-2.7812659740448,1.7013059854507446,-4.188539981842041
1781031021724647700,18.666647705078127,-3.2549378871917725,1.8452119827270508,-4.396262168884277
1781031021744167200,18.686167236328124,-3.645417928695679,2.000025987625122,-4.684229850769043
1781031021763690800,18.705690673828126,-3.836841106414795,2.1000359058380127,-4.905045986175537
1781031021783215600,18.725215576171877,-3.713215112686157,2.088123083114624,-4.857135772705078
1781031021802735600,18.744735595703126,-3.166440963745117,2.0205039978027344,-4.400492191314697
1781031021822251300,18.764251220703127,-1.41034996509552,1.9544559717178345,-2.896811008453369
1781031021841763000,18.78376318359375,0.3144589960575104,1.924244999885559,-2.3811590671539307
1781031021861276700,18.80327661132813,2.078874111175537,1.918481945991516,-1.722998023033142
1781031021880791000,18.822791015625,2.2154688835144043,1.878371000289917,-0.1234740018844604
1781031021900304000,18.84230395507813,1.9860190153121948,1.7568540573120115,0.396481990814209
1781031021919819500,18.861819580078127,0.1518570035696029,1.577206015586853,1.8791600465774536
1781031021939344100,18.88134423828125,-0.1678960025310516,1.3848079442977903,2.272852897644043
1781031021958871000,18.90087109375,-0.5539829730987549,1.2056260108947754,2.648000955581665
1781031021978392300,18.92039233398437,-0.7101820111274719,1.0087239742279053,2.923182964324951
1781031021997910500,18.93991064453125,-0.6170910000801086,0.7715939879417419,3.058757066726685
1781031022017428500,18.95942846679688,-0.6170910000801086,0.7715939879417419,3.058757066726685
1781031022036946200,18.9789462890625,0.0612279996275901,0.2476280033588409,2.978848934173584
1781031022056463600,18.998463623046877,0.6695430278778076,-0.1424680054187774,2.786597967147827
1781031022075987200,19.0179873046875,1.1820420026779177,-0.4446240067481994,2.392874956130981
1781031022095516000,19.037515869140623,1.1820420026779177,-0.4446240067481994,2.392874956130981
1781031022115040000,19.0570400390625,2.07351303100586,-1.039484977722168,0.1072639971971511
1781031022134558700,19.076558837890627,2.07351303100586,-1.039484977722168,0.1072639971971511
1781031022154076700,19.09607666015625,3.976135015487671,-1.6141419410705566,-2.1182119846343994
1781031022173600300,19.115600341796878,4.332635879516602,-1.9374840259552,-2.4600489139556885
1781031022193122600,19.13512255859375,4.520738124847412,-2.181056022644043,-2.5725960731506348
1781031022212642000,19.15464208984375,4.419633865356445,-2.320612907409668,-2.5369908809661865
1781031022232160000,19.17415991210937,4.166379928588867,-2.3256869316101074,-2.598283052444458
1781031022251673300,19.19367333984375,3.978070020675659,-2.170974969863892,-2.827928066253662
1781031022271185200,19.21318505859375,3.9196178913116455,-2.010886907577514,-3.1503419876098637
1781031022290700500,19.23270043945313,3.9191949367523193,-1.8651930093765257,-3.4577910900115967
1781031022310220500,19.25222045898437,3.741734981536865,-1.7505300045013428,-3.522541046142578
1781031022329742800,19.271742919921877,3.2165329456329346,-1.666738986968994,-3.2571730613708496
1781031022349262800,19.291262939453127,1.393476963043213,-1.5478949546813965,-2.7770121097564697
1781031022368780300,19.3107802734375,0.9671030044555664,-1.4125850200653076,-2.2212910652160645
1781031022388297000,19.330296875,0.4856390058994293,-1.2586920261383057,-1.7348730564117432
1781031022407813000,19.34981323242188,0.0626339986920356,-1.115254044532776,-1.403663992881775
1781031022427325200,19.3693251953125,-0.333198994398117,-0.9929080009460448,-1.090245008468628
1781031022446837800,19.388837646484376,-0.777658998966217,-0.8642209768295288,-0.6999379992485046
1781031022466352600,19.4083525390625,-1.3152920007705688,-0.6899920105934143,-0.2631010115146637
1781031022476107300,19.41810717773437,-1.3152920007705688,-0.6899920105934143,-0.2631010115146637
1781031022485865500,19.427865478515624,-1.809810996055603,-0.440746009349823,0.2058490067720413
1781031022505377300,19.447377197265624,-2.172096967697144,-0.1488540023565292,0.5776370167732239
1781031022524890400,19.466890380859372,-2.399907112121582,0.1087329983711242,0.8829330205917358
1781031022544405500,19.486405517578124,-2.4614369869232178,0.290024995803833,1.1363790035247805
1781031022563921400,19.50592138671875,-2.448571920394897,0.4086939990520477,1.3248109817504885
1781031022583436500,19.5254365234375,-2.4544548988342285,0.5055369734764099,1.417193055152893
1781031022602952000,19.54495190429688,-2.470709085464477,0.620352029800415,1.273712992668152
1781031022622470000,19.56446997070313,-2.4856810569763184,0.7595869898796082,0.7745050191879272
1781031022641985500,19.58398559570313,-2.4346160888671875,0.903090000152588,-0.9175689816474916
1781031022661500700,19.603500732421875,-2.2784829139709477,0.9993500113487244,-1.492275953292847
1781031022681019400,19.623019287109376,-2.0772969722747803,1.0643739700317385,-2.8934690952301025
1781031022700536800,19.642536865234376,-1.871155023574829,1.08398699760437,-3.058042049407959
1781031022720052500,19.662052490234377,-1.6891429424285889,1.0843830108642578,-3.218646049499512
1781031022739573200,19.6815732421875,-1.5713030099868774,1.082131028175354,-3.378014087677002
1781031022759090400,19.70109033203125,-1.4743399620056152,1.0941120386123655,-3.483022928237915
1781031022778605800,19.720605712890624,-1.3717999458312988,1.118530035018921,-3.499635934829712
1781031022798124500,19.74012451171875,-1.2067179679870603,1.1549079418182373,-3.371815919876098
1781031022817644000,19.75964404296875,-1.2067179679870603,1.1549079418182373,-3.371815919876098
1781031022837163800,19.779163818359372,-0.5482190251350403,1.224763035774231,-2.834872007369995
1781031022856679700,19.7986796875,0.1686210036277771,1.112679958343506,-2.5012900829315186
1781031022876201500,19.818201416015626,0.7240650057792664,1.0180649757385254,-2.1748409271240234
1781031022895731700,19.837731689453125,0.7240650057792664,1.0180649757385254,-2.1748409271240234
1781031022915254800,19.8572548828125,1.0938340425491333,0.8335710167884827,-0.0716689974069595
1781031022934773200,19.876773193359377,0.8514819741249084,0.7542639970779419,0.2961649894714355
1781031022954290000,19.8962900390625,0.8514819741249084,0.7542639970779419,0.2961649894714355
1781031022973804000,19.915803955078125,0.2523350119590759,0.5840319991111755,2.308656930923462
1781031022993318400,19.935318359375,0.2937250137329101,0.4179989993572235,2.700860023498535
1781031023012830500,19.95483056640625,0.5061609745025635,0.2005040049552917,3.015952110290528
1781031023032344300,19.97434423828125,0.7333340048789978,-0.0442360006272792,3.2471048831939697
1781031023051863000,19.99386303710937,0.8703510165214539,-0.2321629971265792,3.3273510932922363
1781031023071375000,20.013375,0.9104480147361756,-0.3834019899368286,3.206257104873657
1781031023090885400,20.032885498046877,0.9418569803237916,-0.438946008682251,2.8424949645996094
1781031023110401500,20.05240161132813,1.0464309453964231,-0.4118809998035431,1.071081042289734
1781031023129921500,20.07192163085937,1.2670539617538452,-0.3983930051326751,0.5749760270118713
1781031023149440800,20.091440673828124,1.5889359712600708,-0.3852739930152893,-1.242751955986023
1781031023168961500,20.11096142578125,1.9497979879379272,-0.477649986743927,-1.7991509437561035
1781031023188483300,20.1304833984375,2.222024917602539,-0.6325089931488037,-2.3952109813690186
1781031023208002600,20.15000244140625,2.3991830348968506,-0.7896299958229065,-2.8159050941467285
1781031023247037700,20.18903759765625,2.586074113845825,-0.9360380172729492,-3.286545991897583
1781031023266560000,20.20856005859375,2.865200996398926,-0.9114609956741332,-3.510828018188477
1781031023286082600,20.22808251953125,3.2594549655914307,-0.9149870276451112,-3.7055530548095694
1781031023305606700,20.247606689453125,3.554779052734375,-0.945218026638031,-3.791008949279785
1781031023325131800,20.2671318359375,3.5388600826263428,-1.0266070365905762,-3.5303609371185303
1781031023344657700,20.28665771484375,3.1593270301818848,-1.100656032562256,-3.0535590648651123
1781031023364185600,20.306185546875,2.497922897338867,-1.1145989894866943,-2.511017084121704
1781031023383714000,20.325714111328125,1.809823036193848,-1.085271954536438,-2.0690929889678955
1781031023403241700,20.34524169921875,1.2007609605789185,-1.0088720321655271,-1.8005789518356323
1781031023422769200,20.36476904296875,0.6703709959983826,-0.8794869780540466,-1.616791009902954
1781031023442295600,20.384295654296874,0.2126329988241195,-0.7390480041503906,-1.4172179698944092
1781031023461822700,20.40382275390625,-0.2331089973449707,-0.5866039991378784,-1.074260950088501
1781031023481348600,20.4233486328125,-0.6322680115699768,-0.4511609971523285,-0.6450139880180359
1781031023500874800,20.44287475585937,-0.9783530235290528,-0.3491939902305603,-0.2562989890575409
1781031023520403700,20.46240380859375,-1.274688959121704,-0.2402610033750534,0.0667930021882057
1781031023539929300,20.481929443359373,-1.5460580587387085,-0.1619060039520263,0.263031005859375
1781031023559450600,20.50145068359375,-1.7926479578018188,-0.1002790033817291,0.338604986667633
1781031023578973700,20.5209736328125,-1.9762929677963257,-0.0131430001929402,0.3486480116844177
1781031023598497800,20.54049780273437,-2.099522113800049,0.0804919973015785,0.2567760050296783
1781031023618018300,20.56001831054688,-2.099522113800049,0.0804919973015785,0.2567760050296783
1781031023637537800,20.579537841796878,-2.259440898895264,0.3713490068912506,-0.2120970040559768
1781031023657060400,20.599060302734376,-2.259440898895264,0.3713490068912506,-0.2120970040559768
1781031023676586500,20.61858642578125,-2.451376914978028,0.6938580274581909,-1.3075000047683716
1781031023696109000,20.638109130859377,-2.435997009277344,0.8222929835319519,-1.902415990829468
1781031023715625500,20.65762548828125,-2.4503509998321533,0.9153940081596376,-2.405561923980713
1781031023735145200,20.677145263671875,-2.417354106903076,0.9536949992179872,-2.823322057723999
1781031023754669600,20.696669677734373,-2.325889110565185,0.9266459941864014,-3.090579032897949
1781031023774192600,20.716192626953124,-2.325889110565185,0.9266459941864014,-3.090579032897949
1781031023793714000,20.7357138671875,-2.1712241172790527,0.776652991771698,-3.170941114425659
1781031023813235500,20.7552353515625,-1.9107069969177248,0.6578400135040283,-3.069000005722046
1781031023832759300,20.77475927734375,-1.9107069969177248,0.6578400135040283,-3.069000005722046
1781031023852286000,20.79428588867188,-1.1431909799575806,0.544044017791748,-3.099100112915039
1781031023871813600,20.813813720703124,0.451427012681961,0.4975660145282745,-3.1799309253692627
1781031023891342300,20.83334228515625,1.0682679414749146,0.4467200040817261,-3.081728935241699
1781031023910869200,20.852869140625,1.5631259679794312,0.4193120002746582,-2.630521059036255
1781031023930395000,20.872394775390624,1.6848349571228027,0.4173029959201813,-0.9713159799575806
1781031023949920800,20.891920654296875,1.3416110277175903,0.4428530037403106,0.9489409923553468
1781031023969444600,20.911444580078125,-0.3860099911689758,0.5217030048370361,1.379744052886963
1781031023988970000,20.930969970703124,-0.4902290105819702,0.588030993938446,1.9906630516052248
1781031023998731800,20.940731689453123,-0.4902290105819702,0.588030993938446,1.9906630516052248
1781031024008497000,20.950496826171875,-0.5680720210075378,0.6273750066757202,2.5004899501800537
1781031024028023800,20.97002392578125,-0.5237489938735962,0.597009003162384,2.7919790744781494
1781031024047552300,20.98955224609375,-0.3227640092372894,0.4858820140361786,2.893860101699829
1781031024067082000,21.00908203125,-0.0476320013403892,0.3234849870204925,2.8147900104522705
1781031024086608600,21.028608642578124,0.1986220031976699,0.1059250012040138,2.48180890083313
1781031024106131500,21.04813134765625,0.5304800271987915,-0.1031650006771087,0.8520389795303345
1781031024125654500,21.067654541015624,0.9735440015792848,-0.3152219951152801,-0.7184979915618896
1781031024145177300,21.08717724609375,1.5947179794311523,-0.5422149896621704,-2.418873071670532
1781031024164698600,21.10669873046875,3.2086269855499268,-0.765500009059906,-2.895721912384033
1781031024184220200,21.12622021484375,3.5321149826049805,-0.9937340021133424,-4.331023216247559
1781031024203743500,21.145743408203124,3.778024911880493,-1.1908509731292725,-4.37490701675415
1781031024223265800,21.165265869140622,3.764730930328369,-1.3000420331954956,-4.285599231719971
1781031024242781400,21.184781494140623,3.5515151023864746,-1.3155620098114014,-4.122032165527344
1781031024262300700,21.20430078125,3.288356065750122,-1.2860610485076904,-3.9092938899993896
1781031024281826800,21.223826904296875,3.0898358821868896,-1.242148995399475,-3.5925660133361816
1781031024301351000,21.243350830078125,2.990097045898437,-1.2021490335464478,-3.1128358840942383
1781031024320871400,21.262871337890623,2.983100891113281,-1.1965149641036987,-2.5352699756622314
1781031024340391200,21.28239111328125,3.002419948577881,-1.2023789882659912,-1.9570879936218264
1781031024359908900,21.30190893554688,2.945064067840576,-1.2103739976882937,-1.5718990564346311
1781031024379426300,21.32142626953125,2.774142026901245,-1.248142957687378,-1.396690011024475
1781031024398940200,21.340940185546877,2.4314260482788086,-1.2921860218048096,-1.3912750482559204
1781031024418451700,21.36045166015625,2.4314260482788086,-1.2921860218048096,-1.3912750482559204
1781031024437968600,21.37996875,1.4682140350341797,-1.2276010513305664,-1.84346604347229
1781031024457483500,21.3994833984375,0.9537490010261536,-1.1170860528945925,-2.1277520656585693
1781031024476996900,21.418996826171878,0.4294709861278534,-0.9815660119056702,-2.2166779041290283
1781031024496520000,21.43852001953125,-0.1564269959926605,-0.8632010221481323,-2.055370092391968
1781031024516045600,21.458045654296875,-0.1564269959926605,-0.8632010221481323,-2.055370092391968
1781031024535568600,21.477568603515625,-1.3635129928588867,-0.5590479969978333,-1.350903034210205
1781031024555090700,21.497090576171875,-1.903815031051636,-0.2933909893035888,-1.0353740453720093
1781031024574606600,21.516606689453123,-2.316746950149536,0.0358470007777214,-0.7910339832305908
1781031024594124000,21.5361240234375,-2.316746950149536,0.0358470007777214,-0.7910339832305908
1781031024613646300,21.55564624023437,-2.882591009140014,0.6067270040512085,-0.5684030055999756
1781031024633166300,21.575166259765624,-3.022078037261963,0.7807430028915405,-0.5115349888801575
1781031024652687400,21.594687255859377,-3.2330360412597656,0.9001920223236084,-0.5828269720077515
1781031024672206600,21.61420654296875,-3.4986379146575928,1.014691948890686,-0.8697460293769836
1781031024691723800,21.633723876953123,-3.6548550128936768,1.1486469507217407,-1.3444249629974363
1781031024711246000,21.65324609375,-3.665075063705444,1.2554190158843994,-1.8814610242843628
1781031024730770400,21.6727705078125,-3.360902070999145,1.2797889709472656,-2.4068920612335205
1781031024750293000,21.69229296875,-2.721215009689331,1.2163649797439575,-2.830404043197632
1781031024769815800,21.71181591796875,-2.0382750034332275,1.0876740217208862,-3.09856390953064
1781031024789333500,21.73133349609375,-1.496695041656494,0.9506980180740356,-3.269483089447021
1781031024808851700,21.750851806640625,-1.151466965675354,0.8451499938964844,-3.368557929992676
1781031024828373000,21.770373046875,-1.0054889917373655,0.7842890024185181,-3.339888095855713
1781031024847893200,21.78989331054688,-0.8877490162849426,0.7563570141792297,-3.253592014312744
1781031024867412700,21.809412841796878,-0.68510502576828,0.7572960257530212,-3.2057418823242188
1781031024886933200,21.828933349609372,-0.3979499936103821,0.7960079908370972,-3.103332042694092
1781031024906458000,21.8484580078125,-0.0628599971532821,0.8182340264320374,-2.835222005844116
1781031024925984300,21.867984375,0.2283190041780471,0.8381329774856567,-2.3005049228668213
1781031024945508600,21.887508544921875,0.4426519870758056,0.832099974155426,-0.6102719902992249
1781031024965029000,21.907029052734377,0.4843690097332001,0.7953979969024658,1.1735739707946775
1781031024984548400,21.92654833984375,0.4071570038795471,0.7407820224761963,1.535328030586243
1781031025004068900,21.94606884765625,0.3269230127334595,0.6353700160980225,2.023108959197998
1781031025023589600,21.965589599609373,0.3126290142536163,0.4677970111370086,2.416685104370117
1781031025043112700,21.98511279296875,0.4456279873847961,0.2202340066432953,2.6301069259643555
1781031025062642000,22.004641845703127,0.649914026260376,-0.0867530032992363,2.68721604347229
1781031025082168000,22.02416796875,0.8637419939041138,-0.3934879899024963,2.615880012512207
1781031025101689900,22.04368994140625,1.0811350345611572,-0.6064109802246094,2.42295503616333
1781031025121214000,22.0632138671875,1.2986539602279663,-0.7218520045280457,2.0421979427337646
1781031025140740600,22.08274072265625,1.4807709455490112,-0.7770289778709412,0.2120400071144104
1781031025160266800,22.102266845703124,1.6879409551620483,-0.824455976486206,-1.3236240148544312
1781031025179788300,22.121788330078125,2.065934896469116,-0.9027339816093444,-3.0468459129333496
1781031025199306500,22.14130639648437,2.6386890411376958,-1.0120890140533447,-3.5389790534973145
1781031025218829300,22.160829345703124,2.6386890411376958,-1.0120890140533447,-3.5389790534973145
1781031025238352000,22.180351806640623,4.228269100189209,-1.1333630084991455,-4.668295860290527
1781031025257874700,22.199874755859376,4.115553855895996,-1.0425390005111694,-4.779202938079834
1781031025277399600,22.219399658203123,3.688098907470703,-0.8574129939079285,-4.574790000915527
1781031025296923000,22.2389228515625,3.688098907470703,-0.8574129939079285,-4.574790000915527
1781031025316444700,22.258444580078127,2.81817889213562,-0.5382490158081055,-2.44486403465271
1781031025335967700,22.2779677734375,2.678126096725464,-0.5352479815483093,-2.1835830211639404
1781031025355491800,22.297491943359372,2.683258056640625,-0.6254240274429321,-1.717857003211975
1781031025375016700,22.3170166015625,2.727622985839844,-0.7324720025062561,-1.298264980316162
1781031025394541600,22.33654150390625,2.727622985839844,-0.7324720025062561,-1.298264980316162
1781031025414067500,22.3560673828125,2.649723052978516,-0.9332829713821412,-1.0056999921798706
1781031025433589000,22.375589111328125,2.330317974090576,-0.9673119783401488,-1.262794017791748
1781031025453103400,22.395103271484373,1.8903759717941284,-0.9765329957008362,-1.6240869760513306
1781031025472615400,22.414615478515625,1.3685519695281982,-0.9348300099372864,-1.9431610107421875
1781031025492127700,22.43412768554688,0.7738500237464905,-0.8472750186920166,-2.0382239818573
1781031025511641000,22.45364111328125,0.1563419997692108,-0.748088002204895,-1.8641120195388796
1781031025531155200,22.4731552734375,-0.4856199920177459,-0.618261992931366,-1.524459958076477
1781031025550672100,22.492672119140625,-1.0956039428710938,-0.4815689921379089,-1.1888320446014404
1781031025570190000,22.512190185546874,-1.6354999542236328,-0.3361510038375854,-0.948179006576538
1781031025589705200,22.531705322265623,-2.075537919998169,-0.1639530062675476,-0.7875400185585022
1781031025609220900,22.551220947265627,-2.4087839126586914,0.0305959992110729,-0.6683019995689392
1781031025628739000,22.57073901367188,-2.632951021194458,0.2169120013713836,-0.4991320073604584
1781031025648258800,22.5902587890625,-2.724123001098633,0.3744440078735351,-0.2918559908866882
1781031025667777500,22.609777587890623,-2.7395150661468506,0.5161139965057373,-0.182668998837471
1781031025687290000,22.6292900390625,-2.657658100128174,0.609358012676239,-0.3185819983482361
1781031025706803700,22.6488037109375,-2.418816089630127,0.6299890279769897,-0.7869920134544373
1781031025726321200,22.668321044921875,-2.117012023925781,0.617385983467102,-2.5020220279693604
1781031025745836000,22.6878359375,-1.8304380178451536,0.5766850113868713,-2.650765895843506
1781031025765350700,22.7073505859375,-1.6200710535049438,0.5280389785766602,-2.809938907623291
1781031025784868400,22.726868408203124,-1.5425959825515747,0.5254579782485962,-2.86086106300354
1781031025804388000,22.74638818359375,-1.5090270042419434,0.5550010204315186,-2.828141927719116
1781031025823914800,22.76591479492188,-1.4595810174942017,0.5692639946937561,-2.792318105697632
1781031025843439900,22.78543994140625,-1.3846689462661743,0.5976139903068542,-2.865657091140747
1781031025862960600,22.804960693359376,-1.335507035255432,0.6761389970779419,-3.014673948287964
1781031025882481400,22.8244814453125,-1.3459099531173706,0.7483530044555664,-3.1703550815582275
1781031025902003500,22.84400341796875,-1.3228310346603394,0.8179839849472046,-3.3039889335632324
1781031025921525000,22.86352490234375,-1.090309977531433,0.8562729954719543,-3.259476900100708
1781031025941045800,22.883045654296875,-0.5925890207290649,0.8394740223884583,-2.966578960418701
1781031025960566800,22.90256689453125,0.0747810006141662,0.7894920110702515,-2.4316089153289795
1781031025980088300,22.92208837890625,0.6827660202980042,0.7353670001029968,-0.815854012966156
1781031025999609900,22.94160986328125,1.0328049659729004,0.6674090027809143,0.9827430248260498
1781031026019132000,22.9611318359375,1.0328049659729004,0.6674090027809143,0.9827430248260498
1781031026038654700,22.98065478515625,0.9613149762153624,0.4226189851760864,1.9533209800720213
1781031026058177300,23.00017724609375,0.7977330088615417,0.266508013010025,2.474662065505981
1781031026077698600,23.019698486328124,0.6730239987373352,0.1308590024709701,2.814629077911377
1781031026097223200,23.03922314453125,0.6730239987373352,0.1308590024709701,2.814629077911377
1781031026116746000,23.05874609375,0.6054990291595459,-0.107914000749588,2.95934796333313
1781031026136265200,23.07826513671875,0.7802209854125977,-0.2498369961977005,2.725817918777466
1781031026155784400,23.097784423828124,0.7802209854125977,-0.2498369961977005,2.725817918777466
1781031026175302100,23.11730224609375,1.2816450595855713,-0.5035099983215332,0.4662289917469024
1781031026194820900,23.13682080078125,1.670809984207153,-0.6070700287818909,-1.70659601688385
1781031026214340900,23.1563408203125,1.670809984207153,-0.6070700287818909,-1.70659601688385
1781031026233860900,23.17586083984375,2.787580966949463,-0.7749940156936646,-3.608676910400391
1781031026253384700,23.195384765625,3.17887806892395,-0.9006850123405457,-3.864213943481445
1781031026272911000,23.2149111328125,3.122520923614502,-1.0060869455337524,-3.901798963546753
1781031026292439000,23.23443896484375,3.122520923614502,-1.0060869455337524,-3.901798963546753
1781031026311966000,23.253966064453124,2.760845899581909,-1.0910919904708862,-3.6894071102142334
1781031026331488500,23.273488525390626,2.746100902557373,-1.0465290546417236,-3.745009899139404
1781031026351007700,23.2930078125,3.014030933380127,-1.0388489961624146,-3.838035106658936
1781031026370527200,23.31252734375,3.350172996520996,-1.100932002067566,-3.739403963088989
1781031026390051000,23.332051025390623,3.5351779460906982,-1.2190430164337158,-3.3203680515289307
1781031026409578500,23.35157861328125,3.4907219409942627,-1.3253259658813477,-1.708475947380066
1781031026429099800,23.371099853515624,3.213239908218384,-1.3906660079956057,-1.4812170267105105
1781031026448618800,23.39061865234375,2.771250009536743,-1.405547022819519,-1.1825230121612549
1781031026468146000,23.41014599609375,2.2424120903015137,-1.3900920152664185,-0.965254008769989
1781031026487672800,23.4296728515625,1.6670570373535156,-1.3478670120239258,-0.7990180253982544
1781031026507199200,23.44919921875,1.0697829723358154,-1.271075963973999,-0.5902019739151001
1781031026526727400,23.4687275390625,0.3960849940776825,-1.1656019687652588,-0.2795020043849945
1781031026546251000,23.4882509765625,-0.3352710008621216,-0.9983019828796388,0.03541100025177
1781031026565775600,23.507775634765625,-1.0796539783477783,-0.7555480003356934,0.2383359968662262
1781031026585304000,23.527303955078125,-1.7432520389556885,-0.4158979952335357,0.2536759972572326
1781031026604832800,23.54683276367188,-2.1953330039978027,-0.0056210001930594,0.1086860001087188
1781031026624357600,23.566357666015627,-2.4641098976135254,0.3765330016613006,-0.0975940003991127
1781031026643875800,23.58587573242188,-2.5652260780334477,0.6865509748458862,-0.2772299945354461
1781031026663397000,23.605397216796877,-2.647891998291016,0.8907110095024109,-0.3183229863643646
1781031026682922800,23.6249228515625,-2.7509539127349854,1.0315150022506714,-0.283719003200531
1781031026702449000,23.64444897460937,-2.865323066711426,1.123468995094299,-0.366690993309021
1781031026721975600,23.6639755859375,-2.970344066619873,1.1637330055236816,-0.7618650197982788
1781031026741498000,23.683498046875,-2.9295101165771484,1.155606031417847,-2.506479024887085
1781031026761018600,23.7030185546875,-2.7903261184692383,1.003255009651184,-2.7243030071258545
1781031026780543000,23.72254296875,-2.5813090801239014,0.789247989654541,-2.9848439693450928
1781031026800069000,23.742069091796875,-2.243292093276977,0.5801990032196045,-3.104896068572998
1781031026819593200,23.76159326171875,-2.243292093276977,0.5801990032196045,-3.104896068572998
1781031026839112200,23.7811123046875,-1.2398220300674438,0.2632940113544464,-3.173724889755249
1781031026858628900,23.80062890625,-0.6845750212669373,0.1439819931983947,-3.216007947921753
1781031026878147300,23.82014721679688,-0.312050998210907,0.0208260007202625,-3.221843004226685
1781031026897670000,23.839669921875,-0.1111970022320747,-0.0283819995820522,-3.141223907470703
1781031026917194000,23.85919409179688,-0.1111970022320747,-0.0283819995820522,-3.141223907470703
1781031026936719400,23.87871923828125,0.0261359997093677,0.1902550011873245,-2.7706549167633057
1781031026956243200,23.8982431640625,0.2528490126132965,0.4218130111694336,-2.343177080154419
1781031026975761200,23.91776123046875,0.331492006778717,0.6135730147361755,-0.6457489728927612
1781031026995275300,23.93727514648437,0.2794300019741058,0.7450950145721436,-0.2666560113430023
1781031027014792400,23.95679248046875,0.1108589991927146,0.8191559910774231,1.508152961730957
1781031027034311400,23.9763115234375,0.1108589991927146,0.8191559910774231,1.508152961730957
1781031027053833200,23.99583325195313,-0.1477590054273605,0.9294779896736144,2.1645700931549072
1781031027073358300,24.0153583984375,-0.0620680004358291,0.9097099900245668,2.537949085235596
1781031027092880400,24.03488037109375,0.081396996974945,0.8122479915618896,2.8915131092071533
1781031027112400100,24.054400146484376,0.081396996974945,0.8122479915618896,2.8915131092071533
1781031027151441400,24.09344140625,0.2153110057115554,0.3134210109710693,2.9705710411071777
1781031027170961200,24.112961181640625,0.3777849972248077,0.1278550028800964,1.4467240571975708
1781031027190480000,24.13247998046875,0.6861870288848877,-0.0923769995570182,0.8985229730606079
1781031027210002000,24.152001953125,1.114529013633728,-0.3272500038146972,0.2679379880428314
1781031027229528300,24.1715283203125,1.5560070276260376,-0.5260779857635498,-0.2670780122280121
1781031027249050000,24.191050048828124,1.9773980379104612,-0.5990279912948608,-0.7155590057373047
1781031027268567000,24.210567138671877,2.260662078857422,-0.5145769715309143,-1.2875250577926636
1781031027288088300,24.23008837890625,2.266073942184448,-0.3654890060424804,-2.9168550968170166
1781031027307609600,24.249609619140625,1.9580919742584229,-0.2463610023260116,-3.4681880474090576
1781031027327127300,24.269127197265625,1.4544730186462402,-0.1654520034790039,-5.044870853424072
1781031027346644000,24.28864404296875,1.0299299955368042,-0.1273819953203201,-5.409313201904297
1781031027366160100,24.30816015625,0.9627349972724916,-0.1105690002441406,-5.651970863342285
1781031027385677000,24.327677001953123,1.2603440284729004,-0.1589650064706802,-5.449655055999756
1781031027405193200,24.347193115234376,1.6602129936218262,-0.3527930080890655,-3.910711050033569
1781031027424708900,24.366708984375,1.9971020221710205,-0.6682680249214172,-2.245163917541504
1781031027444226000,24.38622607421875,2.096163034439087,-1.044847011566162,-0.6589480042457581
1781031027463742000,24.405741943359374,2.0271880626678467,-1.342481017112732,-0.1760569959878921
1781031027483256800,24.4252568359375,1.891563057899475,-1.5109310150146484,0.1804410070180893
1781031027502772000,24.44477197265625,1.6533420085906982,-1.570180058479309,0.3888199925422668
1781031027522286800,24.46428686523437,1.3531479835510254,-1.5074429512023926,0.4757559895515442
1781031027541803800,24.4838037109375,0.887952983379364,-1.344459056854248,0.5586879849433899
1781031027561320000,24.50331982421875,0.2945370078086853,-1.1251529455184937,0.7179110050201416
1781031027580837000,24.522837158203124,-0.3082410097122192,-0.8580690026283264,0.9073500037193298
1781031027600351700,24.542351806640625,-0.8562340140342712,-0.6159890294075012,1.0915290117263794
1781031027619865900,24.56186596679688,-0.8562340140342712,-0.6159890294075012,1.0915290117263794
1781031027639381800,24.5813818359375,-1.4616739749908447,-0.2497009932994842,1.3543809652328491
1781031027658899200,24.600899169921878,-1.576024055480957,-0.162213996052742,1.4224350452423096
1781031027678417400,24.62041748046875,-1.6522150039672852,-0.0861700028181076,1.440214991569519
1781031027697932800,24.639932861328123,-1.717218995094299,-0.0008490000036545,1.3488589525222778
1781031027717448000,24.659447998046875,-1.752606987953186,0.0894099995493888,1.0480120182037354
1781031027736965600,24.67896557617188,-1.752606987953186,0.0894099995493888,1.0480120182037354
1781031027756482800,24.69848291015625,-1.6945650577545166,0.3527820110321045,-2.822475910186768
1781031027775997400,24.71799755859375,-1.624822020530701,0.463340014219284,-3.254196882247925
1781031027795517700,24.737517578125,-1.6209139823913574,0.5588290095329285,-3.7590761184692383
1781031027815042800,24.757042724609374,-1.645419955253601,0.6300079822540283,-4.0379838943481445
1781031027834569500,24.776569580078124,-1.645419955253601,0.6300079822540283,-4.0379838943481445
1781031027854091300,24.79609130859375,-1.7319509983062744,0.808597981929779,-3.904778957366944
1781031027873605000,24.81560522460937,-1.769476056098938,0.9129639863967896,-3.838366031646729
1781031027893118500,24.83511840820313,-1.88607394695282,0.995980978012085,-3.823841094970703
1781031027912633300,24.85463330078125,-2.070791006088257,1.044247031211853,-3.7357470989227295
1781031027932149200,24.874149169921875,-2.148797035217285,1.025887966156006,-3.4751501083374023
1781031027951667200,24.893667236328124,-1.908511996269226,0.9871950149536132,-3.085913896560669
1781031027971182000,24.91318212890625,-1.2826780080795288,0.9483060240745544,-2.529752016067505
1781031027990696700,24.93269677734375,0.4287039935588836,0.9052460193634032,-1.011592984199524
1781031028010210300,24.952210205078124,0.9086880087852478,0.8599380254745483,-0.6258140206336975
1781031028029725200,24.97172509765625,1.2148189544677734,0.7862409949302673,-0.1128270030021667
1781031028049245200,24.9912451171875,1.1266460418701172,0.7404159903526306,1.5541579723358154
1781031028068766000,25.010765869140624,0.6127179861068726,0.7670350074768066,1.8330440521240237
1781031028088286500,25.030286376953125,-0.9850429892539978,0.8023790121078491,2.312201976776123
1781031028107805200,25.04980517578125,-1.1998430490493774,0.8124799728393555,2.823367118835449
1781031028127323400,25.069323486328123,-1.3464430570602417,0.7427430152893066,3.2279748916625977
1781031028146839800,25.08883984375,-1.1842490434646606,0.5569739937782288,3.382106065750122
1781031028166354200,25.10835424804688,-0.7219190001487732,0.2898240089416504,3.212739944458008
1781031028185872000,25.12787182617188,-0.0898069962859153,0.018435999751091,2.7429099082946777
1781031028205392000,25.14739184570313,1.6455509662628174,-0.2437600046396255,1.2802790403366089
1781031028224914200,25.1669140625,1.9327460527420044,-0.4861910045146942,0.7509549856185913
1781031028244443000,25.18644287109375,2.3068389892578125,-0.6492059826850891,-0.8897519707679749
1781031028263967200,25.20596728515625,2.69148588180542,-0.7332820296287537,-1.3496719598770142
1781031028283486500,25.225486572265623,2.950767993927002,-0.7491099834442139,-1.864667057991028
1781031028303003100,25.245003173828124,2.962310075759888,-0.6920480132102966,-2.2935969829559326
1781031028322520300,25.26452026367188,2.665682077407837,-0.5625609755516052,-2.601739883422852
1781031028342040600,25.28404052734375,2.117048978805542,-0.3806830048561096,-2.8827641010284424
1781031028361557800,25.303557861328127,1.6426939964294434,-0.186051994562149,-3.311379909515381
1781031028381077200,25.3230771484375,1.4445209503173828,-0.019540999084711,-3.796247959136963
1781031028400597800,25.34259765625,1.6830209493637085,0.0368660017848014,-4.22935676574707
1781031028420118800,25.362118896484372,1.6830209493637085,0.0368660017848014,-4.22935676574707
1781031028439643400,25.381643310546878,3.5544400215148926,-0.222008004784584,-4.070653915405273
1781031028459165000,25.4011650390625,3.640829086303711,-0.4923770129680633,-2.190999984741211
1781031028478679000,25.420678955078124,3.497299909591675,-0.7660989761352539,-0.5882019996643066
1781031028498191000,25.44019116210937,3.1389389038085938,-1.012073993682861,0.006705000065267
1781031028517707800,25.45970776367188,2.6783111095428467,-1.183303952217102,0.5051119923591614
1781031028537227800,25.479227783203125,2.6783111095428467,-1.183303952217102,0.5051119923591614
1781031028556744200,25.498744140625,1.7319380044937134,-1.2776470184326172,0.8580849766731262
1781031028576260000,25.518260009765623,0.8969129920005798,-1.1378649473190308,0.9097560048103333
1781031028595780400,25.5377802734375,0.8969129920005798,-1.1378649473190308,0.9097560048103333
1781031028615299800,25.5572998046875,-0.5323330163955688,-0.8028479814529419,1.0694700479507446
1781031028634824000,25.576823974609376,-1.1026489734649658,-0.5679360032081604,1.1020430326461792
1781031028654348800,25.59634887695313,-1.1026489734649658,-0.5679360032081604,1.1020430326461792
1781031028673870000,25.6158701171875,-1.8387659788131716,-0.1473149955272674,1.0508160591125488
1781031028693395700,25.635395751953126,-2.0207109451293945,0.0523900017142295,1.006872057914734
1781031028712925700,25.65492578125,-2.113542079925537,0.180976003408432,0.914601981639862
1781031028732455000,25.67445483398437,-2.153801918029785,0.2570089995861053,0.7657309770584106
1781031028751978200,25.693978271484376,-2.1824519634246826,0.3118259906768799,0.5220900177955627
1781031028771496700,25.71349658203125,-2.189361095428467,0.3477329909801483,0.0882079973816871
1781031028791012000,25.73301220703125,-2.113920927047729,0.3520770072937011,-1.585216045379639
1781031028810527500,25.752527587890626,-1.8622440099716189,0.3043639957904815,-1.9990899562835691
1781031028830051000,25.772051025390624,-1.4618890285491943,0.2480259984731674,-3.555335998535156
1781031028849578200,25.791578125,-1.0484360456466677,0.20660300552845,-4.087539196014404
1781031028869101300,25.811101318359373,-0.821943998336792,0.2246699929237365,-4.619929790496826
1781031028888624000,25.8306240234375,-0.92672997713089,0.3369669914245605,-4.904854774475098
1781031028908148700,25.850148681640626,-2.444978952407837,0.5841450095176697,-4.972734928131104
