time,seconds_elapsed,z,y,x
1780563831721037600,0.66603759765625,-26.08125114440918,-35.98125076293945,-10.987500190734863
1780563831741034000,0.686033935546875,-23.100000381469727,-36.76875305175781,-10.668750762939453
1780563831761030700,0.70603076171875,-23.568750381469727,-36.375,-10.631250381469727
1780563831781035000,0.726034912109375,-24.281251907348633,-36.22500228881836,-11.4375
1780563831801024000,0.74602392578125,-25.875001907348633,-36.431251525878906,-11.86875057220459
1780563831821020700,0.766020751953125,-25.33125114440918,-35.306251525878906,-14.86875057220459
1780563831841025000,0.78602490234375,-22.200000762939453,-35.26875305175781,-16.575000762939453
1780563831861021700,0.806021728515625,-24.243751525878906,-33.41250228881836,-15.093750953674316
1780563831881018000,0.82601806640625,-28.443750381469727,-29.287500381469727,-14.606250762939453
1780563831901022500,0.8460224609375,-31.781251907348633,-27.11250114440918,-17.043750762939453
1780563831921019100,0.86601904296875,-32.775001525878906,-25.856250762939453,-18.356250762939453
1780563831941015600,0.886015625,-33,-23.17500114440918,-15.768750190734863
1780563831961020000,0.90602001953125,-33.1875,-22.293750762939453,-14.21250057220459
1780563831981016600,0.9260166015625,-33.69375228881836,-22.762500762939453,-15.506250381469727
1780563832001021000,0.94602099609375,-34.95000076293945,-20.981250762939453,-17.8125
1780563832021025000,0.96602490234375,-34.275001525878906,-21.431251525878906,-18.48750114440918
1780563832041021700,0.986021728515625,-33.09375,-22.575000762939453,-18.20625114440918
1780563832061025800,1.00602587890625,-31.500001907348633,-22.40625,-18.1875
1780563832081022500,1.0260224609375,-31.293750762939453,-23.287500381469727,-19.743751525878906
1780563832101019100,1.04601904296875,-31.556251525878906,-23.381250381469727,-21.225000381469727
1780563832121023500,1.0660234375,-30.20625114440918,-23.83125114440918,-21.693750381469727
1780563832141020200,1.086020263671875,-28.406251907348633,-23.887500762939453,-22.350000381469727
1780563832161016600,1.1060166015625,-26.83125114440918,-23.381250381469727,-23.137500762939453
1780563832181021000,1.12602099609375,-28.462501525878906,-22.80000114440918,-23.26875114440918
1780563832201025300,1.146025390625,-29.137500762939453,-21.975000381469727,-22.537500381469727
1780563832221029600,1.166029541015625,-28.42500114440918,-22.5,-21.76875114440918
1780563832241034000,1.186033935546875,-28.89375114440918,-24.39375114440918,-24.056251525878906
1780563832261030400,1.206030517578125,-28.087501525878906,-24.037500381469727,-27.150001525878906
1780563832281027000,1.226027099609375,-26.45625114440918,-24.168750762939453,-25.931251525878906
1780563832301023700,1.246023681640625,-25.087501525878906,-24,-25.931251525878906
1780563832321020400,1.2660205078125,-27.618751525878906,-23.606250762939453,-26.493751525878906
1780563832341024800,1.286024658203125,-29.662500381469727,-24.76875114440918,-26.793750762939453
1780563832361021400,1.306021484375,-27.937501907348633,-22.96875,-28.068750381469727
1780563832381018000,1.32601806640625,-29.568750381469727,-21.600000381469727,-28.125001907348633
1780563832401022200,1.346022216796875,-30.975000381469727,-21.693750381469727,-29.775001525878906
1780563832421019000,1.366018798828125,-28.725000381469727,-21.168750762939453,-29.962501525878906
1780563832441015600,1.386015625,-29.64375114440918,-20.568750381469727,-29.681251525878906
1780563832461020000,1.40602001953125,-28.968751907348633,-19.80000114440918,-29.587501525878906
1780563832481024300,1.426024169921875,-28.350000381469727,-18.30000114440918,-30.056251525878906
1780563832500998000,1.445997802734375,-30.918750762939453,-16.98750114440918,-30.937501907348633
1780563832520864800,1.46586474609375,-32.79375076293945,-16.03125,-31.443750381469727
1780563832540664000,1.4856640625,-32.868751525878906,-14.362500190734863,-32.306251525878906
1780563832580726000,1.52572607421875,-29.92500114440918,-15.075000762939453,-33.65625
1780563832600860000,1.54585986328125,-27.412500381469727,-14.943750381469727,-33.86250305175781
1780563832621061600,1.5660615234375,-28.350000381469727,-13.950000762939453,-33.54375076293945
1780563832641020200,1.586020263671875,-29.08125114440918,-12.99375057220459,-33.84375
1780563832661016600,1.6060166015625,-29.83125114440918,-11.887500762939453,-34.76250076293945
1780563832681021000,1.62602099609375,-28.031251907348633,-11.58750057220459,-35.587501525878906
1780563832701017600,1.646017578125,-28.462501525878906,-11.90625,-34.78125
1780563832721022000,1.66602197265625,-29.587501525878906,-12.093750953674316,-34.78125
1780563832741026300,1.6860263671875,-30.056251525878906,-12.506250381469727,-35.25
1780563832761023000,1.70602294921875,-29.100000381469727,-13.237500190734863,-34.70625305175781
1780563832781027000,1.726027099609375,-27.431251525878906,-14.325000762939453,-33.39375305175781
1780563832801023700,1.746023681640625,-27.67500114440918,-15.600000381469727,-35.19375228881836
1780563832821020400,1.7660205078125,-27.993751525878906,-16.200000762939453,-38.38125228881836
1780563832841024800,1.786024658203125,-28.631250381469727,-16.51875114440918,-37.35000228881836
1780563832861021400,1.806021484375,-28.05000114440918,-18.48750114440918,-35.28750228881836
1780563832881018000,1.82601806640625,-26.681251525878906,-18.918750762939453,-35.775001525878906
1780563832901022200,1.846022216796875,-27.506250381469727,-16.537500381469727,-37.57500076293945
1780563832921019000,1.866018798828125,-27.281251907348633,-16.162500381469727,-37.76250076293945
1780563832941023200,1.886023193359375,-26.118751525878906,-16.350000381469727,-37.368751525878906
1780563832961027600,1.906027587890625,-29.850000381469727,-15.412500381469727,-38.26875305175781
1780563832981024300,1.926024169921875,-30.525001525878906,-16.012500762939453,-38.75625228881836
1780563833001028600,1.946028564453125,-27.11250114440918,-16.5,-39.65625
1780563833041021700,1.986021728515625,-24.20625114440918,-16.42500114440918,-40.72500228881836
1780563833061026000,2.006026123046875,-24.48750114440918,-14.718750953674316,-41.15625
1780563833081022700,2.026022705078125,-26.212501525878906,-13.36875057220459,-44.118751525878906
1780563833101019400,2.046019287109375,-24.39375114440918,-14.812500953674316,-45.13125228881836
1780563833121023700,2.066023681640625,-23.043750762939453,-13.875000953674316,-45.243751525878906
1780563833141027800,2.08602783203125,-23.55000114440918,-13.968750953674316,-46.70625305175781
1780563833161024500,2.1060244140625,-22.59375,-15.71250057220459,-46.70625305175781
1780563833181028900,2.12602880859375,-20.325000762939453,-15.356250762939453,-46.6875
1780563833201025500,2.146025634765625,-20.625,-12.693750381469727,-47.00625228881836
1780563833221022000,2.16602197265625,-21.5625,-11.943750381469727,-47.34375
1780563833241026300,2.1860263671875,-17.868751525878906,-12.468750953674316,-45.97500228881836
1780563833261023000,2.20602294921875,-18.543750762939453,-12.05625057220459,-45.712501525878906
1780563833281027300,2.22602734375,-22.012500762939453,-11.86875057220459,-46.5
1780563833301031400,2.246031494140625,-21.09375,-11.25,-45.806251525878906
1780563833320944000,2.265944091796875,-17.962501525878906,-11.4375,-47.94375228881836
1780563833340804600,2.2858046875,-17.118751525878906,-10.425000190734863,-49.500003814697266
1780563833360565000,2.30556494140625,-17.775001525878906,-8.512500762939453,-47.00625228881836
1780563833400642300,2.345642333984375,-14.531250953674316,-9.65625,-46.53750228881836
1780563833420782800,2.365782958984375,-15.281250953674316,-8.175000190734863,-47.19375228881836
1780563833441015600,2.386015625,-15.393750190734863,-7.387500286102295,-49.81875228881836
1780563833461020000,2.40602001953125,-14.456250190734863,-6.506250381469727,-48.056251525878906
1780563833481016300,2.426016357421875,-13.031250953674316,-6.431250095367432,-46.61250305175781
1780563833501020700,2.446020751953125,-13.068750381469727,-6.093750476837158,-47.400001525878906
1780563833521025000,2.46602490234375,-14.006250381469727,-4.912500381469727,-47.0625
1780563833541021400,2.486021484375,-11.49375057220459,-5.15625,-47.306251525878906
1780563833561025800,2.50602587890625,-9.225000381469727,-6.262500286102295,-48.91875076293945
1780563833581022500,2.5260224609375,-10.143750190734863,-5.587500095367432,-48
1780563833601026800,2.54602685546875,-11.268750190734863,-5.362500190734863,-47.55000305175781
1780563833621031200,2.56603125,-11.943750381469727,-5.925000190734863,-47.60625076293945
1780563833641027600,2.586027587890625,-10.5,-5.793750286102295,-45.31875228881836
1780563833661024300,2.606024169921875,-10.950000762939453,-5.775000095367432,-45.30000305175781
1780563833681021000,2.62602099609375,-11.231250762939453,-5.700000286102295,-46.96875
1780563833701017600,2.646017578125,-10.125,-7.200000286102295,-48.806251525878906
1780563833721022000,2.66602197265625,-8.71875,-7.537500381469727,-48.01875305175781
1780563833741026300,2.6860263671875,-8.737500190734863,-5.550000190734863,-46.96875
1780563833761022700,2.706022705078125,-8.0625,-5.568750381469727,-47.19375228881836
1780563833781027000,2.726027099609375,-8.418750762939453,-6.975000381469727,-45.45000076293945
1780563833801023700,2.746023681640625,-9.131250381469727,-7.650000095367432,-46.98750305175781
1780563833821020400,2.7660205078125,-6.206250190734863,-7.593750476837158,-48.26250076293945
1780563833841024800,2.786024658203125,-4.368750095367432,-5.15625,-45.91875076293945
1780563833861021400,2.806021484375,-2.4000000953674316,-3.5062501430511475,-46.80000305175781
1780563833881018000,2.82601806640625,-3.1125001907348633,-3.187500238418579,-47.8125
1780563833901022200,2.846022216796875,-5.175000190734863,-1.9500000476837158,-47.025001525878906
1780563833921019000,2.866018798828125,-2.9625000953674316,-1.1062500476837158,-48.20625305175781
1780563833941023200,2.886023193359375,-3.6750001907348633,-0.9187500476837158,-48.60000228881836
1780563833961027300,2.90602734375,-3.8812501430511475,0.5250000357627869,-47.19375228881836
1780563833981024000,2.92602392578125,-2.512500047683716,0.30000001192092896,-47.23125076293945
1780563834001028400,2.9460283203125,-2.043750047683716,-1.068750023841858,-47.587501525878906
1780563834021025000,2.96602490234375,0.675000011920929,-0.5437500476837158,-47.75625228881836
1780563834041021700,2.986021728515625,-0.03750000149011612,-0.1875,-48.337501525878906
1780563834061025800,3.00602587890625,-0.7312500476837158,0.6187500357627869,-47.83125305175781
1780563834081022500,3.0260224609375,-0.75,1.40625,-47.73750305175781
1780563834101026800,3.04602685546875,-0.48750001192092896,0.8250000476837158,-47.8125
1780563834121015800,3.066015869140625,0.8437500596046448,1.7437500953674316,-47.92500305175781
1780563834140890400,3.085890380859375,0.9937500357627869,3.6187500953674316,-48.562503814697266
1780563834160697300,3.105697265625,2.5875000953674316,4.21875,-48.093753814697266
1780563834200744000,3.145743896484375,2.8500001430511475,2.8312501907348633,-48.656253814697266
1780563834220870400,3.165870361328125,0.3187500238418579,4.256250381469727,-47.868751525878906
1780563834241064200,3.186064208984375,1.4812500476837158,2.8687500953674316,-48.45000076293945
1780563834261023000,3.20602294921875,0.862500011920929,0.13125000894069672,-48.937503814697266
1780563834281027000,3.226027099609375,-0.28125,0.581250011920929,-48.26250076293945
1780563834301023700,3.246023681640625,0.6187500357627869,2.1750001907348633,-47.47500228881836
1780563834321020400,3.2660205078125,0.675000011920929,0.9000000357627869,-46.57500076293945
1780563834341024800,3.286024658203125,-1.9875000715255737,-0.768750011920929,-46.087501525878906
1780563834361021400,3.306021484375,-3.6750001907348633,0.9000000357627869,-47.13750076293945
1780563834381018000,3.32601806640625,-2.793750047683716,1.21875,-47.94375228881836
1780563834401022500,3.3460224609375,-3.187500238418579,0.13125000894069672,-47.025001525878906
1780563834421019000,3.366018798828125,-6.356250286102295,0.4312500059604645,-46.125
1780563834441015600,3.386015625,-9.28125,0.375,-44.868751525878906
1780563834461020000,3.40602001953125,-8.30625057220459,-0.9375000596046448,-44.17500305175781
1780563834481016600,3.4260166015625,-6.468750476837158,-1.9500000476837158,-44.51250076293945
1780563834501021000,3.44602099609375,-7.818750381469727,-3.5062501430511475,-45.09375
1780563834521025000,3.46602490234375,-9.43125057220459,-3.6937501430511475,-45.50625228881836
1780563834541021700,3.486021728515625,-7.143750190734863,-3.5250000953674316,-45.30000305175781
1780563834561026000,3.506026123046875,-8.006250381469727,-4.40625,-44.34375
1780563834581022500,3.5260224609375,-9.80625057220459,-3.9562501907348633,-43.875
1780563834601026800,3.54602685546875,-8.475000381469727,-3.6187500953674316,-44.26875305175781
1780563834621031000,3.566031005859375,-9.825000762939453,-3.7875001430511475,-44.0625
1780563834641027600,3.586027587890625,-10.987500190734863,-2.981250047683716,-43.76250076293945
1780563834661024300,3.606024169921875,-11.700000762939453,-2.418750047683716,-44.10000228881836
1780563834681021000,3.62602099609375,-13.500000953674316,-3.168750047683716,-44.17500305175781
1780563834701017600,3.646017578125,-13.912500381469727,-3.6750001907348633,-43.181251525878906
1780563834721022000,3.66602197265625,-10.96875,-3.9750001430511475,-44.26875305175781
1780563834741026300,3.6860263671875,-8.943750381469727,-3.656250238418579,-44.88750076293945
1780563834761022700,3.706022705078125,-10.350000381469727,-1.4625000953674316,-43.80000305175781
1780563834781027000,3.726027099609375,-8.981250762939453,0.3187500238418579,-42.78750228881836
1780563834801023700,3.746023681640625,-8.550000190734863,0.65625,-43.38750076293945
1780563834821020400,3.7660205078125,-9.543750762939453,1.125,-45.20625305175781
1780563834841024800,3.786024658203125,-6.281250476837158,-1.03125,-45.03750228881836
1780563834861021400,3.806021484375,-6.750000476837158,-1.0125000476837158,-45.03750228881836
1780563834881017900,3.826017822265625,-8.40000057220459,-0.5250000357627869,-46.42500305175781
1780563834901022200,3.846022216796875,-6.787500381469727,-1.5,-46.556251525878906
1780563834921026300,3.8660263671875,-8.77500057220459,-1.9500000476837158,-45.11250305175781
1780563834941000200,3.886000244140625,-9.43125057220459,-2.4937500953674316,-44.55000305175781
1780563834960874800,3.905874755859375,-8.081250190734863,-2.15625,-45.150001525878906
1780563834980666400,3.925666259765625,-7.350000381469727,-2.25,-43.70625305175781
1780563835020705500,3.96570556640625,-10.818750381469727,-3.356250047683716,-46.087501525878906
1780563835040831700,3.985831787109375,-8.287500381469727,-3.3187501430511475,-45.28125
1780563835061041200,4.006041259765625,-7.406250476837158,-1.162500023841858,-44.41875076293945
1780563835081022500,4.0260224609375,-9.90000057220459,-1.3125,-44.41875076293945
1780563835101019100,4.04601904296875,-11.643750190734863,-1.7062500715255737,-42.150001525878906
1780563835121023500,4.0660234375,-10.96875,-0.7125000357627869,-41.625
1780563835141020000,4.08602001953125,-10.537500381469727,-1.9875000715255737,-43.23750305175781
1780563835161016600,4.1060166015625,-7.800000190734863,-2.887500047683716,-44.400001525878906
1780563835181021000,4.12602099609375,-7.387500286102295,-2.137500047683716,-44.73750305175781
1780563835201017600,4.146017578125,-8.943750381469727,-2.0250000953674316,-43.462501525878906
1780563835221022000,4.16602197265625,-9.5625,-2.0625,-41.38125228881836
1780563835241026300,4.1860263671875,-10.5,-1.5187500715255737,-41.92500305175781
1780563835261023000,4.20602294921875,-12.787500381469727,-2.700000047683716,-42.86250305175781
1780563835281027300,4.22602734375,-13.687500953674316,-3.262500047683716,-42.73125076293945
1780563835301023700,4.246023681640625,-10.950000762939453,-2.6812500953674316,-42.26250076293945
1780563835321020400,4.2660205078125,-11.606250762939453,-3.637500047683716,-42.35625076293945
1780563835341024800,4.286024658203125,-11.831250190734863,-4.050000190734863,-42.618751525878906
1780563835361021400,4.306021484375,-10.725000381469727,-3.7125000953674316,-43.21875
1780563835381018000,4.32601806640625,-8.86875057220459,-5.118750095367432,-43.80000305175781
1780563835401022200,4.346022216796875,-6.243750095367432,-7.575000286102295,-42.63750076293945
1780563835421019000,4.366018798828125,-8.11875057220459,-5.587500095367432,-41.98125076293945
1780563835441015600,4.386015625,-8.381250381469727,-4.650000095367432,-42.30000305175781
1780563835461020000,4.40602001953125,-6.787500381469727,-6.937500476837158,-44.64375305175781
1780563835481016600,4.4260166015625,-7.256250381469727,-7.762500286102295,-45.5625
1780563835501020700,4.446020751953125,-7.931250095367432,-8.925000190734863,-45.88125228881836
1780563835521025000,4.46602490234375,-9.506250381469727,-9.318750381469727,-46.125
1780563835541021700,4.486021728515625,-8.362500190734863,-8.71875,-45.65625
1780563835561026000,4.506026123046875,-7.012500286102295,-9.168750762939453,-46.33125305175781
1780563835581022700,4.526022705078125,-8.137500762939453,-9.918750762939453,-46.20000076293945
1780563835601026800,4.54602685546875,-6.712500095367432,-10.612500190734863,-45.03750228881836
1780563835621031200,4.56603125,-5.53125,-10.762500762939453,-44.23125076293945
1780563835641027800,4.58602783203125,-6.918750286102295,-11.006250381469727,-45.28125
1780563835661024500,4.6060244140625,-9.637500762939453,-11.550000190734863,-45.11250305175781
1780563835681021000,4.62602099609375,-9.61875057220459,-12.093750953674316,-44.75625228881836
1780563835701017600,4.646017578125,-7.837500095367432,-12.412500381469727,-46.25625228881836
1780563835721022000,4.66602197265625,-8.475000381469727,-12.71250057220459,-45.243751525878906
1780563835741026300,4.6860263671875,-8.68125057220459,-13.050000190734863,-44.45625305175781
1780563835760977200,4.70597705078125,-7.912500381469727,-14.531250953674316,-43.57500076293945
1780563835780844000,4.725843994140625,-7.875000476837158,-15.656250953674316,-43.29375076293945
1780563835800612900,4.74561279296875,-7.837500095367432,-17.212501525878906,-43.462501525878906
1780563835840667100,4.785667236328125,-11.475000381469727,-15.90000057220459,-42.03750228881836
1780563835860801300,4.80580126953125,-12.356250762939453,-16.012500762939453,-41.00625228881836
1780563835881025800,4.82602587890625,-11.90625,-16.650001525878906,-41.70000076293945
1780563835901022200,4.846022216796875,-8.231250762939453,-17.043750762939453,-41.15625
1780563835921019000,4.866018798828125,-8.49375057220459,-15.71250057220459,-41.41875076293945
1780563835941015600,4.886015625,-11.02500057220459,-15.543750762939453,-42.20625305175781
1780563835961020000,4.90602001953125,-11.325000762939453,-14.625000953674316,-42.9375
1780563835981016600,4.9260166015625,-10.818750381469727,-15.356250762939453,-42.1875
1780563836001021000,4.94602099609375,-10.050000190734863,-16.387500762939453,-40.42500305175781
1780563836021025000,4.96602490234375,-11.21250057220459,-14.418750762939453,-39.78750228881836
1780563836041021700,4.986021728515625,-12.825000762939453,-13.987500190734863,-39.525001525878906
1780563836061025800,5.00602587890625,-12.637500762939453,-14.325000762939453,-41.4375
1780563836081022500,5.0260224609375,-13.331250190734863,-14.737500190734863,-41.88750076293945
1780563836101019100,5.04601904296875,-14.906250953674316,-15.05625057220459,-41.28750228881836
1780563836121023500,5.0660234375,-13.312500953674316,-14.287500381469727,-41.00625228881836
1780563836141020000,5.08602001953125,-13.350000381469727,-12.318750381469727,-40.368751525878906
1780563836161016600,5.1060166015625,-15.731250762939453,-10.875,-42.28125
1780563836181021000,5.12602099609375,-18.65625,-11.175000190734863,-41.45625305175781
1780563836201017600,5.146017578125,-18.337501525878906,-11.362500190734863,-38.56875228881836
1780563836221022000,5.16602197265625,-17.493751525878906,-9.450000762939453,-38.775001525878906
1780563836241026300,5.1860263671875,-16.631250381469727,-7.181250095367432,-38.962501525878906
1780563836261023000,5.20602294921875,-13.443750381469727,-6.806250095367432,-38.53125
1780563836281027300,5.22602734375,-17.306251525878906,-6.506250381469727,-37.837501525878906
1780563836301024000,5.24602392578125,-22.537500381469727,-6.225000381469727,-37.33125305175781
1780563836321020400,5.2660205078125,-22.556251525878906,-5.625,-37.06875228881836
1780563836341024800,5.286024658203125,-22.762500762939453,-5.175000190734863,-36.1875
1780563836361021400,5.306021484375,-21.86250114440918,-2.5500001907348633,-34.23750305175781
1780563836381018000,5.32601806640625,-20.71875,-0.5437500476837158,-32.775001525878906
1780563836401022200,5.346022216796875,-21.881250381469727,-1.162500023841858,-33.45000076293945
1780563836421019000,5.366018798828125,-24.656251907348633,0.20625001192092896,-33.712501525878906
1780563836441023200,5.386023193359375,-26.868751525878906,0.5625,-31.781251907348633
1780563836461027300,5.40602734375,-27.562501907348633,0.6000000238418579,-31.556251525878906
1780563836481024300,5.426024169921875,-29.36250114440918,0.862500011920929,-30.881250381469727
1780563836501028600,5.446028564453125,-29.287500381469727,0.8437500596046448,-28.387500762939453
1780563836521025300,5.466025390625,-28.387500762939453,2.418750047683716,-27.600000381469727
1780563836541022000,5.48602197265625,-29.36250114440918,3.5062501430511475,-28.725000381469727
1780563836561026000,5.506026123046875,-31.42500114440918,2.325000047683716,-29.45625114440918
1780563836580984600,5.525984619140625,-30.243751525878906,1.5562500953674316,-29.343751907348633
1780563836600851500,5.5458515625,-28.631250381469727,1.8000000715255737,-28.293750762939453
1780563836620643000,5.56564306640625,-28.33125114440918,1.7062500715255737,-26.850000381469727
1780563836660712700,5.605712646484375,-33.88125228881836,2.4375,-28.387500762939453
1780563836680846600,5.6258466796875,-34.16250228881836,2.7375001907348633,-29.606250762939453
1780563836701056000,5.646055908203125,-31.650001525878906,2.1187500953674316,-29.681251525878906
1780563836721022000,5.66602197265625,-31.14375114440918,2.625,-27.975000381469727
1780563836741026300,5.6860263671875,-30.431251525878906,2.887500047683716,-26.700000762939453
1780563836761022700,5.706022705078125,-29.287500381469727,1.631250023841858,-27.881250381469727
1780563836781027000,5.726027099609375,-28.668750762939453,2.1000001430511475,-29.512500762939453
1780563836801023700,5.746023681640625,-27.543750762939453,2.8500001430511475,-29.437501907348633
1780563836821020400,5.7660205078125,-27.712501525878906,0.956250011920929,-29.006250381469727
1780563836841024800,5.786024658203125,-28.406251907348633,-0.5062500238418579,-30.825000762939453
1780563836861021400,5.806021484375,-27.543750762939453,-0.20625001192092896,-32.0625
1780563836881018000,5.82601806640625,-27.318750381469727,0.8062500357627869,-31.106250762939453
1780563836901022200,5.846022216796875,-27.075000762939453,0.01875000074505806,-31.406251907348633
1780563836921019000,5.866018798828125,-26.025001525878906,-0.1875,-34.16250228881836
1780563836941015600,5.886015625,-23.962501525878906,-0.1875,-33.75
1780563836961019600,5.90601953125,-25.968751907348633,-2.1187500953674316,-34.368751525878906
1780563836981016300,5.926016357421875,-28.537500381469727,-2.8125,-36.50625228881836
1780563837001020700,5.946020751953125,-26.437501907348633,-3.1500000953674316,-35.51250076293945
1780563837021025000,5.96602490234375,-24.356250762939453,-4.931250095367432,-35.71875
1780563837041021700,5.986021728515625,-21.84375,-6,-36.69375228881836
1780563837061026000,6.006026123046875,-21.637500762939453,-6.243750095367432,-37.556251525878906
1780563837081022700,6.026022705078125,-21.168750762939453,-7.650000095367432,-38.34375
1780563837101019100,6.04601904296875,-20.193750381469727,-8.737500190734863,-37.21875
1780563837121023500,6.0660234375,-19.51875114440918,-8.34375,-36.97500228881836
1780563837141020200,6.086020263671875,-17.92500114440918,-9.018750190734863,-38.10000228881836
1780563837161016600,6.1060166015625,-18.787500381469727,-10.5,-37.42500305175781
1780563837181021000,6.12602099609375,-18.787500381469727,-10.5,-37.42500305175781
1780563837201017600,6.146017578125,-18.787500381469727,-10.5,-37.42500305175781
1780563837221022000,6.16602197265625,-13.818750381469727,-9.09375,-38.36250305175781
1780563837241026300,6.1860263671875,-16.837501525878906,-8.943750381469727,-39.5625
1780563837261023000,6.20602294921875,-18.375,-12.468750953674316,-40.76250076293945
1780563837281027000,6.226027099609375,-15.787500381469727,-14.58750057220459,-40.38750076293945
1780563837301023700,6.246023681640625,-14.02500057220459,-13.706250190734863,-41.36250305175781
1780563837321020400,6.2660205078125,-13.068750381469727,-13.012500762939453,-39.41250228881836
1780563837341024800,6.286024658203125,-11.231250762939453,-13.200000762939453,-38.83125305175781
1780563837361021400,6.306021484375,-11.02500057220459,-13.481250762939453,-40.10625076293945
1780563837381025500,6.326025634765625,-11.21250057220459,-13.987500190734863,-39.337501525878906
1780563837400976600,6.3459765625,-10.08750057220459,-14.02500057220459,-39.54375076293945
1780563837420835800,6.3658359375,-10.74375057220459,-14.77500057220459,-39.41250228881836
1780563837440604700,6.385604736328125,-10.74375057220459,-14.77500057220459,-39.41250228881836
1780563837480666600,6.42566650390625,-12.450000762939453,-13.575000762939453,-41.775001525878906
1780563837500808200,6.44580810546875,-9.918750762939453,-14.77500057220459,-41.92500305175781
1780563837521040400,6.466040283203125,-9.206250190734863,-14.943750381469727,-41.53125
1780563837541021700,6.486021728515625,-11.043750762939453,-13.93125057220459,-41.19375228881836
1780563837561026000,6.506026123046875,-10.350000381469727,-14.30625057220459,-40.837501525878906
1780563837581022500,6.5260224609375,-10.818750381469727,-14.137500762939453,-41.4375
1780563837601026800,6.54602685546875,-11.100000381469727,-13.256250381469727,-42.375
1780563837621031000,6.566031005859375,-10.65000057220459,-13.46250057220459,-42.618751525878906
1780563837641027600,6.586027587890625,-11.550000190734863,-13.012500762939453,-41.71875
1780563837661024300,6.606024169921875,-12.450000762939453,-12.581250190734863,-41.25
1780563837681021000,6.62602099609375,-12,-12.375000953674316,-41.025001525878906
1780563837701017600,6.646017578125,-10.40625,-12.600000381469727,-41.0625
1780563837721021700,6.666021728515625,-10.21875,-11.081250190734863,-41.306251525878906
1780563837741026000,6.686026123046875,-10.256250381469727,-9.956250190734863,-41.60625076293945
1780563837761022700,6.706022705078125,-10.293750762939453,-11.02500057220459,-43.38750076293945
1780563837781027000,6.726027099609375,-12.393750190734863,-10.106250762939453,-44.10000228881836
1780563837801023700,6.746023681640625,-12.131250381469727,-10.65000057220459,-43.743751525878906
1780563837821020200,6.766020263671875,-9.84375,-12.281250953674316,-44.775001525878906
1780563837841024500,6.7860244140625,-9.581250190734863,-12.225000381469727,-43.931251525878906
1780563837861021200,6.806021240234375,-10.518750190734863,-11.21250057220459,-43.20000076293945
1780563837881017900,6.826017822265625,-9.225000381469727,-10.575000762939453,-45.01875305175781
1780563837901022200,6.846022216796875,-7.425000190734863,-9.675000190734863,-45.5625
1780563837921018600,6.8660185546875,-9,-8.381250381469727,-43.743751525878906
1780563837941015300,6.886015380859375,-9.956250190734863,-7.218750476837158,-43.59375
1780563837961019600,6.90601953125,-8.40000057220459,-6.318750381469727,-44.34375
1780563837981016300,6.926016357421875,-6.581250190734863,-6.768750190734863,-44.83125305175781
1780563838001020400,6.9460205078125,-5.475000381469727,-7.275000095367432,-46.35000228881836
1780563838021024800,6.966024658203125,-3.4125001430511475,-6.450000286102295,-45.243751525878906
1780563838041021200,6.986021240234375,-3.8812501430511475,-5.456250190734863,-44.92500305175781
1780563838061025300,7.006025390625,-7.556250095367432,-5.0625,-45.26250076293945
1780563838081022200,7.026022216796875,-7.537500381469727,-5.25,-45.28125
1780563838101018600,7.0460185546875,-6.150000095367432,-5.418750286102295,-44.681251525878906
1780563838121023000,7.06602294921875,-5.662500381469727,-4.537500381469727,-42.9375
1780563838141019600,7.08601953125,-6.356250286102295,-3.937500238418579,-42.86250305175781
1780563838161024000,7.10602392578125,-9.300000190734863,-3.825000047683716,-41.775001525878906
1780563838181028400,7.1260283203125,-10.950000762939453,-3.731250047683716,-43.42500305175781
1780563838201025000,7.14602490234375,-9.15000057220459,-4.21875,-44.53125
1780563838220930000,7.165929931640625,-5.643750190734863,-5.737500190734863,-43.6875
1780563838240775200,7.185775146484375,-4.725000381469727,-5.90625,-43.29375076293945
1780563838260536600,7.20553662109375,-8.40000057220459,-5.306250095367432,-43.61250305175781
1780563838300636700,7.24563671875,-7.743750095367432,-4.575000286102295,-43.96875
1780563838320785000,7.265784912109375,-7.687500476837158,-6.056250095367432,-43.275001525878906
1780563838341024800,7.286024658203125,-7.950000286102295,-5.306250095367432,-43.40625
1780563838361021400,7.306021484375,-6.393750190734863,-4.21875,-44.13750076293945
1780563838381018000,7.32601806640625,-7.012500286102295,-5.681250095367432,-43.25625228881836
1780563838401022200,7.346022216796875,-9.225000381469727,-6.712500095367432,-41.88750076293945
1780563838421019000,7.366018798828125,-10.387500762939453,-6.975000381469727,-43.16250228881836
1780563838441015600,7.386015625,-8.15625,-6.712500095367432,-44.19375228881836
1780563838461019600,7.40601953125,-8.34375,-7.237500190734863,-43.61250305175781
1780563838481016300,7.426016357421875,-10.350000381469727,-7.275000095367432,-41.94375228881836
1780563838501020700,7.446020751953125,-9.225000381469727,-4.875,-40.44375228881836
1780563838521024800,7.466024658203125,-10.893750190734863,-4.612500190734863,-42.26250076293945
1780563838541021400,7.486021484375,-13.612500190734863,-6.562500476837158,-43.275001525878906
1780563838561025800,7.50602587890625,-11.081250190734863,-6.150000095367432,-42.431251525878906
1780563838581022500,7.5260224609375,-9.506250381469727,-5.606250286102295,-42.60000228881836
1780563838601019100,7.54601904296875,-10.162500381469727,-6.975000381469727,-43.16250228881836
1780563838621023500,7.5660234375,-8.77500057220459,-7.968750476837158,-43.275001525878906
1780563838641020000,7.58602001953125,-6.937500476837158,-8.175000190734863,-43.10625076293945
1780563838661016600,7.6060166015625,-7.200000286102295,-7.631250381469727,-43.462501525878906
1780563838681021000,7.62602099609375,-9.450000762939453,-9.168750762939453,-44.025001525878906
1780563838701017600,7.646017578125,-9.862500190734863,-10.256250381469727,-43.3125
1780563838721021700,7.666021728515625,-9,-8.77500057220459,-43.98750305175781
1780563838741026000,7.686026123046875,-9.65625,-9.112500190734863,-43.40625
1780563838761022700,7.706022705078125,-9.787500381469727,-10.3125,-41.4375
1780563838781027000,7.726027099609375,-10.518750190734863,-11.21250057220459,-43.40625
1780563838801023700,7.746023681640625,-11.4375,-11.418750762939453,-43.63125228881836
1780563838821020400,7.7660205078125,-10.6875,-12.300000190734863,-42.48750305175781
1780563838841024500,7.7860244140625,-8.625,-13.331250190734863,-43.03125
1780563838861021200,7.806021240234375,-6.300000190734863,-13.893750190734863,-42.48750305175781
1780563838881017900,7.826017822265625,-8.34375,-13.856250762939453,-42.243751525878906
1780563838901022200,7.846022216796875,-12.037500381469727,-13.687500953674316,-43.23750305175781
1780563838921019000,7.866018798828125,-12.075000762939453,-12.15000057220459,-43.275001525878906
1780563838941023200,7.886023193359375,-9.05625057220459,-12.262500762939453,-41.66250228881836
1780563838961027600,7.906027587890625,-9.71250057220459,-13.218750953674316,-41.55000305175781
1780563838981031700,7.92603173828125,-12.487500190734863,-12.24375057220459,-42.03750228881836
1780563839001036000,7.9460361328125,-12.05625057220459,-12.71250057220459,-42.91875076293945
1780563839021032400,7.966032470703125,-11.137500762939453,-12.112500190734863,-42.67500305175781
1780563839040922400,7.98592236328125,-10.65000057220459,-12.24375057220459,-41.64375305175781
1780563839060744400,8.005744384765626,-10.875,-11.625,-40.95000076293945
1780563839080505600,8.025505615234374,-11.11875057220459,-10.443750381469727,-40.61250305175781
1780563839100502300,8.045502197265625,-9.33750057220459,-10.350000381469727,-41.66250228881836
1780563839120613400,8.06561328125,-10.875,-9.975000381469727,-39.31875228881836
1780563839140784400,8.085784423828125,-14.77500057220459,-8.96250057220459,-39.375
1780563839161016600,8.1060166015625,-14.625000953674316,-8.11875057220459,-40.95000076293945
1780563839181020700,8.126020751953124,-14.625000953674316,-7.481250286102295,-40.25625228881836
1780563839201017300,8.146017333984375,-13.687500953674316,-7.275000095367432,-39.618751525878906
1780563839221021700,8.166021728515625,-13.443750381469727,-8.02500057220459,-39.48750305175781
1780563839241026000,8.186026123046876,-14.58750057220459,-5.587500095367432,-37.76250076293945
1780563839261022700,8.206022705078125,-15.956250190734863,-3.937500238418579,-36.525001525878906
1780563839281026800,8.22602685546875,-15.600000381469727,-2.9250001907348633,-38.28750228881836
1780563839301023500,8.2460234375,-14.043750762939453,-1.6500000953674316,-39
1780563839321020200,8.266020263671875,-14.418750762939453,-2.8687500953674316,-37.25625228881836
1780563839341024500,8.2860244140625,-16.668750762939453,-2.5500001907348633,-35.94375228881836
1780563839361021200,8.306021240234376,-17.568750381469727,-2.512500047683716,-35.53125
1780563839381017900,8.326017822265625,-15.487500190734863,-2.231250047683716,-34.05000305175781
1780563839401022000,8.34602197265625,-16.181251525878906,-1.03125,-33.50625228881836
1780563839421018600,8.3660185546875,-20.73750114440918,-0.35625001788139343,-32.98125076293945
1780563839441023000,8.38602294921875,-22.80000114440918,0.65625,-32.41875076293945
1780563839461027000,8.406027099609375,-24.262500762939453,2.1187500953674316,-33.712501525878906
1780563839481023700,8.426023681640626,-24.750001907348633,2.6625001430511475,-34.275001525878906
1780563839501028000,8.446028076171874,-23.53125,3.4125001430511475,-31.70625114440918
1780563839521024800,8.466024658203125,-24.187501907348633,3.3000001907348633,-30.67500114440918
1780563839541021400,8.486021484375,-27.150001525878906,4.125,-30.337501525878906
1780563839561025500,8.506025634765624,-26.943750381469727,6.150000095367432,-28.875001907348633
1780563839581022500,8.5260224609375,-25.743751525878906,6.075000286102295,-27.01875114440918
1780563839601026600,8.546026611328125,-27.318750381469727,6.525000095367432,-26.343751907348633
1780563839621031000,8.566031005859376,-28.012500762939453,6.112500190734863,-27.000001907348633
1780563839641027600,8.586027587890625,-27.975000381469727,4.800000190734863,-26.512500762939453
1780563839661024300,8.606024169921875,-27.48750114440918,5.0625,-25.462501525878906
1780563839681021000,8.62602099609375,-29.325000762939453,5.625,-25.781251907348633
1780563839701017300,8.646017333984375,-30.262500762939453,6.637500286102295,-25.462501525878906
1780563839721021700,8.666021728515625,-29.55000114440918,7.706250190734863,-23.681251525878906
1780563839741026000,8.686026123046876,-31.781251907348633,7.425000190734863,-22.650001525878906
1780563839761022700,8.706022705078125,-32.212501525878906,7.500000476837158,-21.600000381469727
1780563839781026800,8.72602685546875,-31.068750381469727,6.862500190734863,-22.293750762939453
1780563839801023700,8.746023681640626,-31.368751525878906,7.350000381469727,-23.493751525878906
1780563839821020200,8.766020263671875,-29.568750381469727,9.300000190734863,-22.89375114440918
1780563839840994000,8.785994140625,-26.568750381469727,8.325000762939453,-22.61250114440918
1780563839860861000,8.80586083984375,-25.80000114440918,6.450000286102295,-21.76875114440918
1780563839880652500,8.825652587890625,-29.418750762939453,6.356250286102295,-20.92500114440918
1780563839920706800,8.865706787109374,-28.218751907348633,6.975000381469727,-25.650001525878906
1780563839940833300,8.885833251953125,-27.750001907348633,6.393750190734863,-25.500001907348633
1780563839961042700,8.906042724609375,-28.406251907348633,6.450000286102295,-24.881250381469727
1780563839981016300,8.926016357421876,-27.76875114440918,6.562500476837158,-25.912500381469727
1780563840001020700,8.946020751953125,-26.812501907348633,5.400000095367432,-25.837501525878906
1780563840021025000,8.96602490234375,-27.76875114440918,6.131250381469727,-26.568750381469727
1780563840041021700,8.986021728515626,-29.437501907348633,7.012500286102295,-27.918750762939453
1780563840061025800,9.00602587890625,-28.05000114440918,6.243750095367432,-27.600000381469727
1780563840081022500,9.0260224609375,-25.312501907348633,5.606250286102295,-28.125001907348633
1780563840101019100,9.04601904296875,-24.468751907348633,5.25,-30.243751525878906
1780563840121023200,9.066023193359374,-25.668750762939453,5.737500190734863,-31.837501525878906
1780563840141020000,9.08602001953125,-23.137500762939453,5.53125,-31.481250762939453
1780563840161016600,9.1060166015625,-23.962501525878906,2.0625,-31.856250762939453
1780563840181020700,9.126020751953124,-24.48750114440918,1.9312500953674316,-33.73125076293945
1780563840201017300,9.146017333984375,-22.931251525878906,3.0375001430511475,-34.23750305175781
1780563840221021700,9.166021728515625,-24.262500762939453,2.4937500953674316,-33.88125228881836
1780563840241026000,9.186026123046876,-23.83125114440918,1.21875,-35.47500228881836
1780563840261022700,9.206022705078125,-21.11250114440918,-0.26250001788139343,-36.91875076293945
1780563840281027000,9.226027099609375,-22.42500114440918,-0.11250000447034836,-35.23125076293945
1780563840301023700,9.246023681640626,-22.42500114440918,0.6937500238418579,-34.70625305175781
1780563840321020200,9.266020263671875,-19.481250762939453,-0.24375000596046448,-36.50625228881836
1780563840341024500,9.2860244140625,-17.64375114440918,-1.631250023841858,-36.88125228881836
1780563840361021200,9.306021240234376,-14.96250057220459,-1.3875000476837158,-38.34375
1780563840381017900,9.326017822265625,-14.531250953674316,-2.0812501907348633,-39.88125228881836
1780563840401022200,9.346022216796875,-17.193750381469727,-4.725000381469727,-39.73125076293945
1780563840421019000,9.366018798828126,-18.037500381469727,-6.018750190734863,-39.22500228881836
1780563840441023000,9.38602294921875,-16.23750114440918,-6.506250381469727,-40.14375305175781
1780563840461027300,9.40602734375,-14.68125057220459,-7.237500190734863,-42.30000305175781
1780563840481024000,9.42602392578125,-14.268750190734863,-6.900000095367432,-42.900001525878906
1780563840501028400,9.4460283203125,-15.33750057220459,-7.987500190734863,-41.962501525878906
1780563840521025000,9.46602490234375,-16.462501525878906,-9.15000057220459,-42.30000305175781
1780563840541021400,9.486021484375,-15.281250953674316,-10.08750057220459,-41.775001525878906
1780563840561025800,9.50602587890625,-13.65000057220459,-10.83750057220459,-41.25
1780563840581022500,9.5260224609375,-11.137500762939453,-11.512500762939453,-42.1875
1780563840601026600,9.546026611328125,-10.27500057220459,-11.21250057220459,-43.20000076293945
1780563840621031000,9.566031005859376,-12.61875057220459,-9.28125,-43.38750076293945
1780563840641035000,9.586034912109374,-13.706250190734863,-9.731250762939453,-41.962501525878906
1780563840660970800,9.605970703125,-12.487500190734863,-12.24375057220459,-41.83125305175781
1780563840680846300,9.625846435546874,-9.731250762939453,-13.237500190734863,-41.98125076293945
1780563840700607700,9.645607666015625,-11.40000057220459,-11.362500190734863,-42.78750228881836
1780563840740670000,9.685669921875,-11.15625,-11.756250381469727,-42.82500076293945
1780563840760787500,9.705787353515625,-10.893750190734863,-13.08750057220459,-42.5625
1780563840781027000,9.726027099609375,-12.037500381469727,-12.862500190734863,-42.525001525878906
1780563840801023700,9.746023681640626,-10.668750762939453,-12.05625057220459,-41.83125305175781
1780563840821020400,9.7660205078125,-10.6875,-12.131250381469727,-42.67500305175781
1780563840841024800,9.786024658203125,-10.55625057220459,-12.112500190734863,-45.16875076293945
1780563840861021400,9.806021484375,-9.206250190734863,-11.756250381469727,-45.35625076293945
1780563840881018000,9.82601806640625,-9.61875057220459,-11.512500762939453,-44.493751525878906
1780563840901022200,9.846022216796875,-10.96875,-10.612500190734863,-43.125
1780563840921019000,9.866018798828126,-9.131250381469727,-11.02500057220459,-42.97500228881836
1780563840941015600,9.886015625,-8.925000190734863,-11.49375057220459,-44.28750228881836
1780563840961020000,9.90602001953125,-10.575000762939453,-10.74375057220459,-44.8125
1780563840981016600,9.9260166015625,-9.46875,-9.1875,-44.45625305175781
1780563841001020700,9.946020751953125,-7.612500190734863,-9.1875,-44.04375076293945
1780563841021025000,9.96602490234375,-7.612500190734863,-9.168750762939453,-43.61250305175781
1780563841041021700,9.986021728515626,-9.037500381469727,-7.837500095367432,-44.306251525878906
1780563841061025800,10.00602587890625,-8.625,-8.325000762939453,-45.60000228881836
1780563841081022500,10.0260224609375,-6.975000381469727,-8.662500381469727,-44.60625076293945
1780563841101019100,10.04601904296875,-8.8125,-7.856250286102295,-44.51250076293945
1780563841121023500,10.0660234375,-8.381250381469727,-8.53125,-45.618751525878906
1780563841141020200,10.086020263671875,-6.731250286102295,-9.65625,-44.92500305175781
1780563841161016600,10.1060166015625,-7.181250095367432,-8.8125,-44.00625228881836
1780563841181021000,10.12602099609375,-6.675000190734863,-9.131250381469727,-43.01250076293945
1780563841201017600,10.146017578125,-6.018750190734863,-8.58750057220459,-43.368751525878906
1780563841221021700,10.166021728515625,-7.237500190734863,-7.912500381469727,-44.94375228881836
1780563841241026000,10.186026123046876,-10.46250057220459,-7.162500381469727,-45.67500305175781
1780563841261022700,10.206022705078125,-10.03125,-5.550000190734863,-44.66250228881836
1780563841281026800,10.22602685546875,-7.425000190734863,-5.981250286102295,-42.03750228881836
1780563841301023500,10.2460234375,-6.506250381469727,-6.993750095367432,-42.76875305175781
1780563841321020200,10.266020263671875,-7.050000190734863,-5.362500190734863,-44.04375076293945
1780563841341024500,10.2860244140625,-8.700000762939453,-3.4125001430511475,-44.025001525878906
1780563841361021000,10.30602099609375,-9.84375,-4.03125,-44.92500305175781
1780563841381017600,10.326017578125,-8.887500762939453,-3.5250000953674316,-42.993751525878906
1780563841401022000,10.34602197265625,-8.68125057220459,-1.537500023841858,-41.94375228881836
1780563841421018400,10.366018310546876,-8.043750762939453,-2.043750047683716,-43.48125076293945
1780563841441022700,10.386022705078124,-8.756250381469727,-1.7062500715255737,-44.26875305175781
1780563841461027000,10.406027099609375,-10.143750190734863,-1.725000023841858,-44.868751525878906
1780563841480917000,10.4259169921875,-11.456250190734863,-1.3875000476837158,-42.95625305175781
1780563841500739000,10.445739013671876,-9.206250190734863,-0.26250001788139343,-42.84375
1780563841520500200,10.465500244140625,-8.02500057220459,-1.631250023841858,-43.01250076293945
1780563841540497000,10.485496826171875,-9.61875057220459,-1.3687500953674316,-42.337501525878906
1780563841560608000,10.50560791015625,-10.818750381469727,-0.24375000596046448,-43.05000305175781
1780563841580787000,10.525786865234375,-9.65625,-0.03750000149011612,-42.618751525878906
1780563841601026600,10.546026611328125,-8.90625,-0.9187500476837158,-41.26875305175781
1780563841621031000,10.566031005859376,-11.86875057220459,-1.7062500715255737,-42.150001525878906
1780563841641027600,10.586027587890625,-11.943750381469727,-1.2375000715255737,-43.556251525878906
1780563841661024300,10.606024169921875,-10.106250762939453,-2.0250000953674316,-43.66875076293945
1780563841681020700,10.626020751953124,-10.575000762939453,-2.4937500953674316,-44.75625228881836
1780563841701017300,10.646017333984375,-7.837500095367432,-2.34375,-44.962501525878906
1780563841721021400,10.666021484375,-6.862500190734863,-3.2250001430511475,-43.61250305175781
1780563841741025800,10.68602587890625,-11.831250190734863,-4.050000190734863,-42.618751525878906
1780563841761022500,10.7060224609375,-13.668750762939453,-5.0625,-43.743751525878906
1780563841781026800,10.72602685546875,-9.28125,-6.862500190734863,-43.98750305175781
1780563841801031000,10.746031005859376,-6.093750476837158,-6.693750381469727,-43.78125
1780563841821027600,10.766027587890624,-9.037500381469727,-7.837500095367432,-44.10000228881836
1780563841841032000,10.786031982421875,-11.287500381469727,-8.568750381469727,-43.95000076293945
1780563841861028600,10.806028564453126,-10.875,-7.443750381469727,-44.4375
1780563841881017900,10.826017822265625,-9.506250381469727,-8.043750762939453,-44.53125
1780563841901022000,10.84602197265625,-8.756250381469727,-8.550000190734863,-43.35000228881836
1780563841921018600,10.8660185546875,-9.1875,-8.887500762939453,-42.75
1780563841941023000,10.88602294921875,-10.518750190734863,-9.412500381469727,-42.16875076293945
1780563841961027000,10.906027099609375,-10.575000762939453,-9.318750381469727,-43.61250305175781
1780563841981023700,10.926023681640626,-9.46875,-10.443750381469727,-45.82500076293945
1780563842001028000,10.946028076171874,-11.887500762939453,-12.037500381469727,-44.306251525878906
1780563842021024800,10.966024658203125,-10.256250381469727,-12.393750190734863,-43.743751525878906
1780563842041021400,10.986021484375,-8.25,-10.875,-43.59375
1780563842061025500,11.006025634765624,-9.825000762939453,-11.21250057220459,-43.20000076293945
1780563842081022500,11.0260224609375,-10.912500381469727,-13.537500381469727,-43.650001525878906
1780563842101019000,11.046018798828126,-10.950000762939453,-13.818750381469727,-44.94375228881836
1780563842121023200,11.066023193359374,-9.581250190734863,-13.668750762939453,-45.13125228881836
1780563842141027600,11.086027587890625,-8.175000190734863,-14.381250381469727,-44.17500305175781
1780563842161024000,11.10602392578125,-7.668750286102295,-14.700000762939453,-43.181251525878906
1780563842181028400,11.1260283203125,-9.52500057220459,-13.106250762939453,-42.58125305175781
1780563842201025000,11.14602490234375,-9.46875,-13.800000190734863,-41.83125305175781
1780563842221014000,11.166013916015626,-9.881250381469727,-14.887500762939453,-40.89375305175781
1780563842241018400,11.186018310546874,-13.08750057220459,-13.256250381469727,-40.06875228881836
1780563842261015000,11.20601513671875,-12.356250762939453,-14.58750057220459,-39.806251525878906
1780563842280988700,11.22598876953125,-10.725000381469727,-15.581250190734863,-39.91875076293945
1780563842300863500,11.245863525390625,-13.293750762939453,-14.231250762939453,-40.16250228881836
1780563842320655000,11.265655029296875,-14.456250190734863,-13.237500190734863,-40.05000305175781
1780563842360747500,11.30574755859375,-14.21250057220459,-13.200000762939453,-39.431251525878906
1780563842380873700,11.325873779296876,-13.762500762939453,-11.418750762939453,-38.60625076293945
1780563842401083000,11.346082763671875,-15.375000953674316,-10.78125,-38.118751525878906
1780563842421018600,11.3660185546875,-17.943750381469727,-9.862500190734863,-39.243751525878906
1780563842441022700,11.386022705078124,-18.356250762939453,-9.375,-37.72500228881836
1780563842461027300,11.40602734375,-18.5625,-9.112500190734863,-36.86250305175781
1780563842481023700,11.426023681640626,-19.293750762939453,-8.193750381469727,-37.57500076293945
1780563842501028000,11.446028076171874,-18.337501525878906,-7.687500476837158,-35.45625305175781
1780563842521024800,11.466024658203125,-19.481250762939453,-6.431250095367432,-34.25625228881836
1780563842541021400,11.486021484375,-21.337501525878906,-5.90625,-35.23125076293945
1780563842561025500,11.506025634765624,-21.28125,-6.375000476837158,-33.82500076293945
1780563842581022200,11.526022216796875,-22.21875,-6.187500476837158,-34.21875
1780563842601026600,11.546026611328125,-22.96875,-5.512500286102295,-35.587501525878906
1780563842621031000,11.566031005859376,-22.462501525878906,-4.200000286102295,-33.16875076293945
1780563842641027600,11.586027587890625,-21.825000762939453,-1.6500000953674316,-32.26875305175781
1780563842661024300,11.606024169921875,-22.556251525878906,-0.13125000894069672,-32.71875
1780563842681021000,11.62602099609375,-25.725000381469727,0.1875,-31.61250114440918
1780563842701017600,11.646017578125,-26.381250381469727,0.8250000476837158,-30.712501525878906
1780563842721021700,11.666021728515625,-27.356250762939453,1.725000023841858,-31.650001525878906
1780563842741026000,11.686026123046876,-29.887500762939453,2.34375,-31.556251525878906
1780563842761022500,11.7060224609375,-27.76875114440918,2.043750047683716,-30.150001525878906
1780563842781026800,11.72602685546875,-28.668750762939453,3.1125001907348633,-28.575000762939453
1780563842801023500,11.7460234375,-28.218751907348633,4.106250286102295,-28.05000114440918
1780563842821020200,11.766020263671875,-25.068750381469727,3.0187501907348633,-29.437501907348633
1780563842841024500,11.7860244140625,-28.012500762939453,3.0562500953674316,-29.418750762939453
1780563842861021200,11.806021240234376,-31.181251525878906,4.762500286102295,-27.525001525878906
1780563842881017900,11.826017822265625,-29.100000381469727,5.4375,-25.80000114440918
1780563842901022200,11.846022216796875,-27.056251525878906,5.793750286102295,-25.781251907348633
1780563842921019000,11.866018798828126,-26.868751525878906,5.700000286102295,-27.056251525878906
1780563842941015300,11.886015380859375,-26.662500381469727,5.868750095367432,-27.450000762939453
1780563842961019600,11.90601953125,-28.256250381469727,6.093750476837158,-27.20625114440918
1780563842981016000,11.92601611328125,-28.275001525878906,4.631250381469727,-29.025001525878906
1780563843001020400,11.9460205078125,-27.337501525878906,4.256250381469727,-28.650001525878906
1780563843021024800,11.966024658203125,-27.806251525878906,4.800000190734863,-29.006250381469727
1780563843041021400,11.986021484375,-27.375001907348633,3.937500238418579,-30.356250762939453
1780563843061025500,12.006025634765624,-27.806251525878906,3.5812501907348633,-29.981250762939453
1780563843081022200,12.026022216796875,-27.412500381469727,2.8500001430511475,-32.13750076293945
1780563843100980700,12.045980712890625,-25.781251907348633,1.912500023841858,-31.631250381469727
1780563843120847600,12.06584765625,-25.087501525878906,1.725000023841858,-31.23750114440918
1780563843140624000,12.085623779296874,-26.26875114440918,1.5750000476837158,-33.54375076293945
1780563843180693500,12.125693603515625,-25.106250762939453,-1.8000000715255737,-35.17500305175781
1780563843200827400,12.145827392578125,-23.8125,-1.1437500715255737,-36.5625
1780563843221052200,12.16605224609375,-20.83125114440918,-1.818750023841858,-37.087501525878906
1780563843241025800,12.18602587890625,-19.61250114440918,-3.6750001907348633,-36.26250076293945
1780563843261022700,12.206022705078125,-19.856250762939453,-3.7125000953674316,-36.67500305175781
1780563843281026800,12.22602685546875,-20.36250114440918,-3.2062501907348633,-37.85625076293945
1780563843301023500,12.2460234375,-21.01875114440918,-5.362500190734863,-38.51250076293945
1780563843321020000,12.26602001953125,-18.67500114440918,-8.96250057220459,-39.95625305175781
1780563843341024300,12.286024169921875,-18,-8.793750762939453,-40.368751525878906
1780563843361020700,12.306020751953126,-17.756250381469727,-8.96250057220459,-39.97500228881836
1780563843381017600,12.326017578125,-17.287500381469727,-9.131250381469727,-39.58125305175781
1780563843401022000,12.34602197265625,-19.106250762939453,-9.300000190734863,-39.375
1780563843421018400,12.366018310546876,-18.67500114440918,-8.737500190734863,-39.73125076293945
1780563843441022700,12.386022705078124,-16.125,-9.112500190734863,-38.962501525878906
1780563843461027000,12.406027099609375,-15.637500762939453,-11.475000381469727,-39.84375
1780563843481023700,12.426023681640626,-16.5,-11.981250762939453,-38.85000228881836
1780563843501028000,12.446028076171874,-15.562500953674316,-12.131250381469727,-38.25
1780563843521024800,12.466024658203125,-16.51875114440918,-12,-39.28125
1780563843541021400,12.486021484375,-17.64375114440918,-10.74375057220459,-38.08125305175781
1780563843561025500,12.506025634765624,-16.96875,-10.96875,-38.32500076293945
1780563843581022500,12.5260224609375,-15.412500381469727,-11.475000381469727,-39.63750076293945
1780563843601026600,12.546026611328125,-13.83750057220459,-10.55625057220459,-39.97500228881836
1780563843621031000,12.566031005859376,-14.49375057220459,-10.068750381469727,-38.868751525878906
1780563843641027600,12.586027587890625,-14.006250381469727,-11.606250762939453,-38.625
1780563843661024300,12.606024169921875,-14.231250762939453,-12.843750953674316,-39.806251525878906
1780563843681021000,12.62602099609375,-14.49375057220459,-12.918750762939453,-40.85625076293945
1780563843701017600,12.646017578125,-15.168750762939453,-12.881250381469727,-40.63125228881836
1780563843721021700,12.666021728515625,-14.700000762939453,-12.262500762939453,-39.9375
1780563843741026000,12.686026123046876,-13.143750190734863,-12.581250190734863,-41.23125076293945
1780563843761022700,12.706022705078125,-15.843750953674316,-13.068750381469727,-40.650001525878906
1780563843781026800,12.72602685546875,-16.462501525878906,-14.531250953674316,-39.76875305175781
1780563843801023500,12.7460234375,-13.293750762939453,-15.05625057220459,-41.10000228881836
1780563843821020200,12.766020263671875,-12.90000057220459,-13.781250953674316,-42
1780563843841024300,12.786024169921875,-12.937500953674316,-12.825000762939453,-42.09375
1780563843861021000,12.80602099609375,-12,-13.818750381469727,-42.431251525878906
1780563843881025300,12.826025390625,-12.656250953674316,-13.725000381469727,-41.36250305175781
1780563843901029600,12.846029541015625,-12.468750953674316,-13.012500762939453,-41.92500305175781
1780563843920965400,12.86596533203125,-15.037500381469727,-12.90000057220459,-43.556251525878906
1780563843940848600,12.8858486328125,-15.750000953674316,-10.706250190734863,-42.46875
1780563843960609800,12.90560986328125,-13.200000762939453,-11.287500381469727,-42.13125228881836
1780563844000694500,12.945694580078126,-13.912500381469727,-10.518750190734863,-42.26250076293945
1780563844020812000,12.96581201171875,-14.40000057220459,-11.175000190734863,-43.368751525878906
1780563844041044200,12.986044189453125,-10.331250190734863,-9.300000190734863,-43.40625
1780563844061025500,13.006025634765624,-10.125,-8.30625057220459,-42.88125228881836
1780563844081022200,13.026022216796875,-11.02500057220459,-8.081250190734863,-42.63750076293945
1780563844101019000,13.046018798828126,-8.96250057220459,-9.318750381469727,-43.42500305175781
1780563844121023200,13.066023193359374,-8.793750762939453,-9.037500381469727,-44.64375305175781
1780563844141020000,13.08602001953125,-9.487500190734863,-7.837500095367432,-44.306251525878906
1780563844161016600,13.1060166015625,-10.912500381469727,-7.293750286102295,-45.056251525878906
1780563844181021000,13.12602099609375,-9.375,-6.225000381469727,-45.78750228881836
1780563844201025000,13.14602490234375,-6.318750381469727,-7.537500381469727,-44.92500305175781
1780563844221029000,13.166029052734375,-6.318750381469727,-7.537500381469727,-44.92500305175781
1780563844241033500,13.186033447265626,-6.318750381469727,-7.537500381469727,-44.92500305175781
1780563844261030100,13.206030029296874,-6.318750381469727,-7.537500381469727,-44.92500305175781
1780563844281026800,13.22602685546875,-5.268750190734863,-3.843750238418579,-44.10000228881836
1780563844301023200,13.246023193359376,-6.918750286102295,-3.1500000953674316,-45.26250076293945
1780563844321020200,13.266020263671875,-8.25,-3.8625001907348633,-44.92500305175781
1780563844341024500,13.2860244140625,-5.643750190734863,-5.700000286102295,-43.25625228881836
1780563844361021000,13.30602099609375,-4.462500095367432,-5.606250286102295,-41.60625076293945
1780563844381017600,13.326017578125,-6.768750190734863,-4.650000095367432,-42.09375
1780563844401021700,13.346021728515625,-7.518750190734863,-4.350000381469727,-43.51875305175781
1780563844421018400,13.366018310546876,-6.375000476837158,-4.387500286102295,-43.743751525878906
1780563844441022700,13.386022705078124,-7.293750286102295,-4.762500286102295,-43.78125
1780563844461027000,13.406027099609375,-8.850000381469727,-5.493750095367432,-43.63125228881836
1780563844481023700,13.426023681640626,-8.625,-4.875,-42.73125076293945
1780563844501027800,13.44602783203125,-8.850000381469727,-3.656250238418579,-41.962501525878906
1780563844521024500,13.4660244140625,-10.668750762939453,-5.025000095367432,-42.73125076293945
1780563844541028900,13.48602880859375,-11.77500057220459,-5.962500095367432,-42.618751525878906
1780563844561033200,13.506033203125,-12.450000762939453,-5.737500190734863,-42.16875076293945
1780563844581030100,13.526030029296875,-12.61875057220459,-6.806250095367432,-41.25
1780563844601034200,13.5460341796875,-11.90625,-7.575000286102295,-41.118751525878906
1780563844621031000,13.566031005859376,-12.61875057220459,-7.031250476837158,-41.47500228881836
1780563844641027300,13.58602734375,-10.818750381469727,-6.300000190734863,-41.83125305175781
1780563844661024300,13.606024169921875,-10.612500190734863,-6.525000095367432,-42.056251525878906
1780563844681021000,13.62602099609375,-11.700000762939453,-6.393750190734863,-40.57500076293945
1780563844701025300,13.646025390625,-11.925000190734863,-7.425000190734863,-41.51250076293945
1780563844721029400,13.666029296875,-12.862500190734863,-6.468750476837158,-41.625
1780563844740995300,13.685995361328125,-11.550000190734863,-4.125,-40.96875
1780563844760862500,13.705862548828126,-9.28125,-5.025000095367432,-42.31875228881836
1780563844780639000,13.725638916015624,-9.05625057220459,-5.043750286102295,-42.75
1780563844820693200,13.765693359375,-13.312500953674316,-5.418750286102295,-40.66875076293945
1780563844840827100,13.7858271484375,-13.518750190734863,-7.575000286102295,-41.32500076293945
1780563844861044000,13.8060439453125,-13.781250953674316,-7.668750286102295,-42.78750228881836
1780563844881017900,13.826017822265625,-16.537500381469727,-5.850000381469727,-41.94375228881836
1780563844901022200,13.846022216796875,-16.05000114440918,-6.787500381469727,-41.41875076293945
1780563844921019000,13.866018798828126,-11.90625,-9.412500381469727,-42.5625
1780563844941015600,13.886015625,-11.625,-9.300000190734863,-40.89375305175781
1780563844961019600,13.90601953125,-12.731250762939453,-9.43125057220459,-40.06875228881836
1780563844981016300,13.926016357421876,-14.625000953674316,-9.581250190734863,-42.5625
1780563845001020700,13.946020751953125,-14.86875057220459,-9.975000381469727,-42.806251525878906
1780563845021024800,13.966024658203125,-13.425000190734863,-11.268750190734863,-41.92500305175781
1780563845041021400,13.986021484375,-12.05625057220459,-11.287500381469727,-41.94375228881836
1780563845061025500,14.006025634765624,-12.262500762939453,-11.831250190734863,-41.38125228881836
1780563845081022200,14.026022216796875,-12.037500381469727,-12.24375057220459,-41.85000228881836
1780563845101019000,14.046018798828126,-10.6875,-12.543750762939453,-43.125
1780563845121023200,14.066023193359374,-9.975000381469727,-12.881250381469727,-42.337501525878906
1780563845141020000,14.08602001953125,-9.581250190734863,-11.40000057220459,-43.01250076293945
1780563845161016300,14.106016357421876,-9.84375,-10.631250381469727,-43.14375305175781
1780563845181020700,14.126020751953124,-10.706250190734863,-10.93125057220459,-41.90625
1780563845201017300,14.146017333984375,-10.950000762939453,-10.55625057220459,-42.07500076293945
1780563845221021700,14.166021728515625,-8.90625,-10.612500190734863,-42.525001525878906
1780563845241026000,14.186026123046876,-10.03125,-11.15625,-42.35625076293945
1780563845261022700,14.206022705078125,-11.850000381469727,-11.550000190734863,-42.806251525878906
1780563845281027000,14.226027099609375,-12.543750762939453,-10.950000762939453,-42.525001525878906
1780563845301023500,14.2460234375,-13.200000762939453,-9.450000762939453,-40.48125076293945
1780563845321020200,14.266020263671875,-14.568750381469727,-7.593750476837158,-39.01875305175781
1780563845341024300,14.286024169921875,-16.462501525878906,-7.068750381469727,-40.20000076293945
1780563845361021000,14.30602099609375,-15.768750190734863,-8.737500190734863,-41.83125305175781
1780563845381017600,14.326017578125,-17.118751525878906,-8.831250190734863,-40.80000305175781
1780563845401022000,14.34602197265625,-17.83125114440918,-5.4375,-38.962501525878906
1780563845421018600,14.3660185546875,-18.01875114440918,-5.15625,-37.89375305175781
1780563845441022700,14.386022705078124,-20.45625114440918,-5.15625,-35.587501525878906
1780563845461027000,14.406027099609375,-20.981250762939453,-2.2125000953674316,-34.63125228881836
1780563845481023700,14.426023681640626,-22.387500762939453,-0.45000001788139343,-34.42500305175781
1780563845501028000,14.446028076171874,-21.65625,0.07500000298023224,-32.493751525878906
1780563845521024800,14.466024658203125,-23.212501525878906,-0.22500000894069672,-31.481250762939453
1780563845541021400,14.486021484375,-27.58125114440918,0.5437500476837158,-32.400001525878906
1780563845560964600,14.505964599609374,-26.212501525878906,0.9375000596046448,-31.950000762939453
1780563845580824000,14.525823974609375,-23.700000762939453,1.537500023841858,-31.068750381469727
1780563845600585200,14.545585205078124,-23.25,2.9250001907348633,-30.30000114440918
1780563845640647200,14.585647216796875,-25.500001907348633,3.2437500953674316,-28.98750114440918
1780563845660781000,14.605781005859376,-28.70625114440918,5.100000381469727,-27.937501907348633
1780563845681020700,14.626020751953124,-30.76875114440918,5.71875,-27.637500762939453
1780563845701017300,14.646017333984375,-31.23750114440918,6.262500286102295,-27.993751525878906
1780563845721021700,14.666021728515625,-30.750001907348633,4.331250190734863,-28.200000762939453
1780563845741026000,14.686026123046876,-29.531251907348633,1.0125000476837158,-28.575000762939453
1780563845761022700,14.706022705078125,-29.718751907348633,2.1000001430511475,-27.000001907348633
1780563845801031200,14.74603125,-29.100000381469727,3.7875001430511475,-27.450000762939453
1780563845821027800,14.76602783203125,-32.10000228881836,5.193750381469727,-27.056251525878906
1780563845841032200,14.7860322265625,-29.55000114440918,5.025000095367432,-26.26875114440918
1780563845861028900,14.80602880859375,-28.387500762939453,4.875,-25.462501525878906
1780563845881017900,14.826017822265625,-28.856250762939453,5.887500286102295,-24.712501525878906
1780563845901022000,14.84602197265625,-29.118751525878906,6.412500381469727,-25.500001907348633
1780563845921018600,14.8660185546875,-30.76875114440918,6.937500476837158,-26.662500381469727
1780563845941023000,14.88602294921875,-30.01875114440918,7.275000095367432,-24.356250762939453
1780563845961027000,14.906027099609375,-29.025001525878906,6.843750476837158,-22.33125114440918
1780563845981023700,14.926023681640626,-29.73750114440918,5.737500190734863,-24.318750381469727
1780563846001027800,14.94602783203125,-28.912500381469727,5.962500095367432,-26.381250381469727
1780563846021024500,14.9660244140625,-26.887500762939453,6.243750095367432,-27.39375114440918
1780563846041021200,14.986021240234376,-26.193750381469727,7.106250286102295,-26.08125114440918
1780563846061025500,15.006025634765624,-27.58125114440918,8.90625,-25.443750381469727
1780563846081022200,15.026022216796875,-28.537500381469727,10.21875,-25.931251525878906
1780563846101018600,15.0460185546875,-26.73750114440918,8.925000190734863,-27.525001525878906
1780563846121023000,15.06602294921875,-24.168750762939453,6.187500476837158,-27.86250114440918
1780563846141027300,15.08602734375,-24.67500114440918,6.525000095367432,-28.650001525878906
1780563846161024000,15.10602392578125,-23.418750762939453,5.643750190734863,-32.70000076293945
1780563846181028400,15.1260283203125,-20.006250381469727,4.743750095367432,-33.88125228881836
1780563846201025000,15.14602490234375,-19.78125,4.143750190734863,-34.368751525878906
1780563846221021400,15.166021484375,-20.26875114440918,4.650000095367432,-35.34375
1780563846241025800,15.18602587890625,-19.162500381469727,4.78125,-35.962501525878906
1780563846261022500,15.2060224609375,-19.59375,3.2062501907348633,-36.54375076293945
1780563846281026800,15.22602685546875,-19.350000381469727,1.9875000715255737,-37.3125
1780563846301023500,15.2460234375,-17.775001525878906,1.5187500715255737,-38.212501525878906
1780563846321027800,15.26602783203125,-18.20625114440918,1.350000023841858,-38.00625228881836
1780563846341032000,15.286031982421875,-19.98750114440918,-0.3187500238418579,-37.556251525878906
1780563846361028600,15.306028564453126,-18.1875,-1.631250023841858,-39.60000228881836
1780563846380926200,15.32592626953125,-17.53125,-1.912500023841858,-40.66875076293945
1780563846400756000,15.345755859375,-19.087501525878906,-3.2062501907348633,-40.368751525878906
1780563846420517000,15.36551708984375,-17.043750762939453,-3.468750238418579,-40.837501525878906
1780563846460617000,15.405616943359375,-14.68125057220459,-5.606250286102295,-40.89375305175781
1780563846480780800,15.42578076171875,-14.268750190734863,-5.868750095367432,-41.75625228881836
1780563846501020400,15.4460205078125,-14.006250381469727,-4.181250095367432,-39.48750305175781
1780563846521024800,15.466024658203125,-12.168750762939453,-5.606250286102295,-40.275001525878906
1780563846541021400,15.486021484375,-14.662500381469727,-8.21250057220459,-42.41250228881836
1780563846561025500,15.506025634765624,-16.931251525878906,-8.96250057220459,-42.46875
1780563846581022200,15.526022216796875,-15.093750953674316,-8.756250381469727,-42.056251525878906
1780563846601019000,15.546018798828126,-13.256250381469727,-8.96250057220459,-41.88750076293945
1780563846621023000,15.56602294921875,-12.487500190734863,-10.612500190734863,-40.61250305175781
1780563846641019600,15.58601953125,-11.568750381469727,-11.4375,-41.13750076293945
1780563846661016300,15.606016357421876,-13.237500190734863,-10.162500381469727,-42.431251525878906
1780563846681020700,15.626020751953124,-15.750000953674316,-9.90000057220459,-41.962501525878906
1780563846701017300,15.646017333984375,-13.237500190734863,-10.125,-42.01875305175781
1780563846721021400,15.666021484375,-11.193750381469727,-10.818750381469727,-43.35000228881836
1780563846741025800,15.68602587890625,-9.825000762939453,-11.193750381469727,-42.993751525878906
1780563846761022500,15.7060224609375,-9.131250381469727,-10.59375,-42.525001525878906
1780563846781026800,15.72602685546875,-10.518750190734863,-10.800000190734863,-42.9375
1780563846801023500,15.7460234375,-8.643750190734863,-10.74375057220459,-41.71875
1780563846821020200,15.766020263671875,-8.625,-10.875,-40.89375305175781
1780563846841024500,15.7860244140625,-9.787500381469727,-10.518750190734863,-41.47500228881836
1780563846861021200,15.806021240234376,-10.74375057220459,-9.99375057220459,-42.22500228881836
1780563846881017600,15.826017578125,-12.05625057220459,-11.475000381469727,-41.962501525878906
1780563846901022000,15.84602197265625,-10.65000057220459,-12.450000762939453,-41.88750076293945
1780563846921018600,15.8660185546875,-8.90625,-11.02500057220459,-42.97500228881836
1780563846941015300,15.886015380859375,-8.512500762939453,-10.950000762939453,-44.64375305175781
1780563846961019400,15.906019287109375,-9.90000057220459,-11.362500190734863,-45.30000305175781
1780563846981016000,15.92601611328125,-9.225000381469727,-10.200000762939453,-44.962501525878906
1780563847001020200,15.946020263671874,-8.49375057220459,-11.11875057220459,-44.25
1780563847021024500,15.9660244140625,-9.131250381469727,-11.193750381469727,-42.78750228881836
1780563847041021200,15.986021240234376,-9.43125057220459,-9.918750762939453,-43.89375305175781
1780563847061025500,16.006025634765624,-8.8125,-10.106250762939453,-46.21875
1780563847081022200,16.026022216796875,-9.487500190734863,-9.675000190734863,-45.75
1780563847101018600,16.0460185546875,-9.918750762939453,-9.375,-44.25
1780563847121023000,16.06602294921875,-7.387500286102295,-10.612500190734863,-45.03750228881836
1780563847141019600,16.08601953125,-5.306250095367432,-11.606250762939453,-45.16875076293945
1780563847161023700,16.106023681640625,-6.918750286102295,-10.78125,-44.64375305175781
1780563847181020400,16.1260205078125,-7.387500286102295,-9.581250190734863,-44.08125305175781
1780563847200902700,16.145902587890625,-7.387500286102295,-8.381250381469727,-43.33125305175781
1780563847220725000,16.16572509765625,-7.912500381469727,-7.050000190734863,-43.81875228881836
1780563847240790300,16.185790283203126,-7.031250476837158,-6.375000476837158,-44.79375076293945
1780563847260794600,16.205794677734374,-7.500000476837158,-5.756250381469727,-44.28750228881836
1780563847280913200,16.2259130859375,-7.050000190734863,-4.96875,-43.80000305175781
1780563847301092000,16.246092041015626,-5.53125,-3.918750047683716,-45.150001525878906
1780563847321020200,16.266020263671876,-5.756250381469727,-3.5250000953674316,-44.90625
1780563847341024300,16.286024169921873,-3.6750001907348633,-2.4562501907348633,-43.14375305175781
1780563847361021000,16.30602099609375,-4.650000095367432,-1.9687501192092896,-44.53125
1780563847381017600,16.326017578125,-8.550000190734863,-2.3812501430511475,-45.58125305175781
1780563847401022000,16.34602197265625,-7.143750190734863,-2.9437501430511475,-45.03750228881836
1780563847421018600,16.3660185546875,-7.087500095367432,-3.6187500953674316,-43.85625076293945
1780563847441015000,16.38601513671875,-7.706250190734863,-4.275000095367432,-42.46875
1780563847461019400,16.406019287109373,-9.768750190734863,-4.6875,-43.33125305175781
1780563847481016000,16.42601611328125,-11.86875057220459,-3.1312501430511475,-43.14375305175781
1780563847501020400,16.4460205078125,-10.5,-2.34375,-42.65625
1780563847521024800,16.466024658203125,-9.581250190734863,-2.9250001907348633,-42.73125076293945
1780563847541021400,16.486021484375,-9.318750381469727,-4.087500095367432,-42.63750076293945
1780563847561025500,16.506025634765624,-10.725000381469727,-4.96875,-44.60625076293945
1780563847581022200,16.526022216796875,-11.193750381469727,-4.59375,-44.75625228881836
1780563847601026300,16.5460263671875,-9.28125,-5.025000095367432,-42.31875228881836
1780563847621030700,16.56603076171875,-10.18125057220459,-5.400000095367432,-42.35625076293945
1780563847641027300,16.58602734375,-10.668750762939453,-6.656250476837158,-43.95000076293945
1780563847661024000,16.60602392578125,-9.71250057220459,-7.593750476837158,-43.650001525878906
1780563847681020700,16.626020751953124,-10.36875057220459,-6.525000095367432,-42.07500076293945
1780563847701017300,16.646017333984375,-9.9375,-6.375000476837158,-42.67500305175781
1780563847721021700,16.666021728515624,-9.768750190734863,-5.925000190734863,-44.28750228881836
1780563847741025800,16.68602587890625,-10.443750381469727,-5.643750190734863,-43.42500305175781
1780563847761022500,16.7060224609375,-8.606250762939453,-5.456250190734863,-43.01250076293945
1780563847781026800,16.72602685546875,-7.987500190734863,-5.175000190734863,-44.4375
1780563847801023500,16.7460234375,-10.443750381469727,-6.300000190734863,-44.32500076293945
1780563847821020200,16.766020263671876,-11.11875057220459,-6.037500381469727,-43.462501525878906
1780563847841024300,16.786024169921873,-8.362500190734863,-6.262500286102295,-43.51875305175781
1780563847861021000,16.80602099609375,-5.175000190734863,-8.34375,-45.22500228881836
1780563847881017600,16.826017578125,-6.131250381469727,-8.25,-46.650001525878906
1780563847901022000,16.84602197265625,-9.356250762939453,-6.393750190734863,-45.39375305175781
1780563847921018600,16.8660185546875,-8.756250381469727,-7.950000286102295,-42.86250305175781
1780563847941023000,16.88602294921875,-7.068750381469727,-10.012500762939453,-41.85000228881836
1780563847961027000,16.906027099609375,-6.225000381469727,-8.96250057220459,-43.20000076293945
1780563847981023700,16.926023681640626,-7.181250095367432,-8.21250057220459,-43.72500228881836
1780563848001028000,16.946028076171874,-6.243750095367432,-8.756250381469727,-43.181251525878906
1780563848020917800,16.965917724609376,-5.981250286102295,-9.487500190734863,-42.63750076293945
1780563848040755200,16.985755126953126,-8.25,-9.28125,-42.58125305175781
1780563848060652500,17.005652587890626,-9.1875,-10.725000381469727,-44.19375228881836
1780563848080649200,17.025649169921873,-8.662500381469727,-13.237500190734863,-44.26875305175781
1780563848100752600,17.045752685546876,-9.075000762939453,-14.343750953674316,-43.76250076293945
1780563848120916200,17.065916259765626,-8.8125,-15.506250381469727,-43.89375305175781
1780563848141019600,17.08601953125,-9.675000190734863,-16.78125,-43.181251525878906
1780563848161016300,17.106016357421876,-8.831250190734863,-14.925000190734863,-43.81875228881836
1780563848181021000,17.12602099609375,-5.8125,-15.262500762939453,-42.63750076293945
1780563848201017600,17.146017578125,-8.231250762939453,-17.043750762939453,-41.15625
1780563848221022000,17.16602197265625,-9.393750190734863,-16.6875,-41.71875
1780563848241026000,17.186026123046876,-8.006250381469727,-16.856250762939453,-41.13750076293945
1780563848261022500,17.2060224609375,-7.331250190734863,-17.325000762939453,-42.22500228881836
1780563848281026800,17.22602685546875,-8.793750762939453,-16.5,-44.400001525878906
1780563848301023500,17.2460234375,-8.793750762939453,-15.468750953674316,-43.462501525878906
1780563848321020200,17.266020263671876,-10.631250381469727,-14.456250190734863,-42.91875076293945
1780563848341024500,17.2860244140625,-12.468750953674316,-13.612500190734863,-42.39375305175781
1780563848361021000,17.30602099609375,-11.081250190734863,-12.99375057220459,-41.306251525878906
1780563848381017600,17.326017578125,-12.637500762939453,-13.46250057220459,-40.29375076293945
1780563848401022000,17.34602197265625,-11.006250381469727,-14.287500381469727,-40.61250305175781
1780563848421018600,17.3660185546875,-9.46875,-13.406250953674316,-41.56875228881836
1780563848441015000,17.38601513671875,-13.125000953674316,-12.750000953674316,-41.04375076293945
1780563848461019400,17.406019287109373,-13.575000762939453,-12.112500190734863,-40.35000228881836
1780563848481016000,17.42601611328125,-14.550000190734863,-11.02500057220459,-41.47500228881836
1780563848501020400,17.4460205078125,-15.05625057220459,-10.068750381469727,-41.587501525878906
1780563848521024800,17.466024658203125,-13.387500762939453,-10.143750190734863,-39.525001525878906
1780563848541021200,17.486021240234376,-15.675000190734863,-8.925000190734863,-38.94375228881836
1780563848561025500,17.506025634765624,-19.387500762939453,-6.750000476837158,-38.88750076293945
1780563848581022200,17.526022216796875,-20.26875114440918,-6.468750476837158,-37.80000305175781
1780563848601026600,17.546026611328124,-18.67500114440918,-6.300000190734863,-37.80000305175781
1780563848621030700,17.56603076171875,-17.756250381469727,-5.081250190734863,-36.63750076293945
1780563848641027300,17.58602734375,-18.65625,-3.5812501907348633,-34.59375
1780563848661024000,17.60602392578125,-20.71875,-2.15625,-33.993751525878906
1780563848681020700,17.626020751953124,-23.700000762939453,-1.7062500715255737,-33.50625228881836
1780563848701017300,17.646017333984375,-25.462501525878906,-3.0187501907348633,-33.431251525878906
1780563848721021700,17.666021728515624,-24.787500381469727,-2.418750047683716,-32.94375228881836
1780563848741025800,17.68602587890625,-26.64375114440918,-0.8437500596046448,-32.75625228881836
1780563848761022500,17.7060224609375,-28.275001525878906,1.3312500715255737,-32.08125305175781
1780563848781026600,17.726026611328123,-28.725000381469727,3,-30.243751525878906
1780563848801023200,17.746023193359374,-25.89375114440918,2.9625000953674316,-27.562501907348633
1780563848821020000,17.76602001953125,-27.000001907348633,4.087500095367432,-25.556251525878906
1780563848840917500,17.78591748046875,-30.67500114440918,4.068750381469727,-26.36250114440918
1780563848860754700,17.805754638671875,-30.67500114440918,4.275000095367432,-26.137500762939453
1780563848880516000,17.82551611328125,-30.881250381469727,4.556250095367432,-25.05000114440918
1780563848920623600,17.86562353515625,-32.45625305175781,6.656250476837158,-22.725000381469727
1780563848940779500,17.885779541015626,-32.212501525878906,5.475000381469727,-23.287500381469727
1780563848961019400,17.906019287109373,-32.587501525878906,4.425000190734863,-21.712501525878906
1780563848981016000,17.92601611328125,-34.61250305175781,3.918750047683716,-21.131250381469727
1780563849001020400,17.9460205078125,-34.16250228881836,4.087500095367432,-21.337501525878906
1780563849021024500,17.9660244140625,-31.462501525878906,4.78125,-21.900001525878906
1780563849041021200,17.986021240234376,-32.60625076293945,4.200000286102295,-22.162500381469727
1780563849061025500,18.006025634765624,-33.67500305175781,3.1125001907348633,-21.450000762939453
1780563849081022200,18.026022216796875,-32.55000305175781,2.4750001430511475,-22.14375114440918
1780563849101019000,18.046018798828126,-31.012500762939453,2.9250001907348633,-23.568750381469727
1780563849121023200,18.066023193359374,-31.23750114440918,4.78125,-21.900001525878906
1780563849141020000,18.08602001953125,-31.912500381469727,5.212500095367432,-21.431251525878906
1780563849161016300,18.106016357421876,-31.687501907348633,4.162500381469727,-22.59375
1780563849181020700,18.126020751953124,-31.05000114440918,5.100000381469727,-22.912500381469727
1780563849201017300,18.146017333984375,-30.412500381469727,6.187500476837158,-23.418750762939453
1780563849221021400,18.166021484375,-28.556251525878906,4.40625,-23.850000381469727
1780563849241025800,18.18602587890625,-29.212501525878906,4.256250381469727,-23.4375
1780563849261022200,18.206022216796875,-30.975000381469727,6.375000476837158,-26.512500762939453
1780563849281026600,18.226026611328123,-29.418750762939453,6.075000286102295,-27.825000762939453
1780563849301023200,18.246023193359374,-28.593751907348633,3.9000000953674316,-25.575000762939453
1780563849321020000,18.26602001953125,-28.575000762939453,2.3062500953674316,-26.568750381469727
1780563849341024300,18.286024169921873,-28.443750381469727,1.6875001192092896,-29.756250381469727
1780563849361021200,18.306021240234376,-26.212501525878906,2.5687501430511475,-30.525001525878906
1780563849381017900,18.326017822265626,-26.418750762939453,1.5750000476837158,-31.031251907348633
1780563849401022000,18.34602197265625,-27.806251525878906,1.1437500715255737,-31.912500381469727
1780563849421018600,18.3660185546875,-28.500001907348633,1.3125,-32.306251525878906
1780563849441015300,18.386015380859376,-26.437501907348633,-0.7125000357627869,-33.58125305175781
1780563849461019600,18.40601953125,-24.618751525878906,-2.3625001907348633,-34.81875228881836
1780563849481016300,18.426016357421876,-25.33125114440918,-2.0250000953674316,-35.400001525878906
1780563849501020700,18.446020751953125,-24.67500114440918,-1.443750023841858,-35.34375
1780563849521024800,18.466024658203125,-23.681251525878906,-2.6812500953674316,-33.82500076293945
1780563849541021400,18.486021484375,-21.58125114440918,-4.275000095367432,-34.01250076293945
1780563849561025800,18.50602587890625,-22.762500762939453,-4.950000286102295,-35.73750305175781
1780563849581022500,18.5260224609375,-26.156251907348633,-4.6875,-35.26875305175781
1780563849601026600,18.546026611328124,-25.500001907348633,-5.15625,-36.35625076293945
1780563849621031000,18.566031005859376,-22.33125114440918,-5.850000381469727,-37.5
1780563849641027600,18.586027587890626,-20.493751525878906,-6.262500286102295,-37.57500076293945
1780563849660925000,18.605925048828126,-21.412500381469727,-6.862500190734863,-38.25
1780563849680754700,18.625754638671875,-22.33125114440918,-7.256250381469727,-38.28750228881836
1780563849700515800,18.645515869140624,-20.756250381469727,-6.525000095367432,-38.64375305175781
1780563849740654000,18.685654052734375,-19.087501525878906,-9.05625057220459,-38.92500305175781
1780563849760817700,18.705817626953124,-17.943750381469727,-9.90000057220459,-39.65625
1780563849781057300,18.726057373046874,-18.600000381469727,-10.387500762939453,-38.66250228881836
1780563849801023500,18.7460234375,-17.212501525878906,-11.40000057220459,-39
1780563849821020200,18.766020263671876,-16.556251525878906,-11.512500762939453,-40.462501525878906
1780563849841024300,18.786024169921873,-16.78125,-10.856250762939453,-39.35625076293945
1780563849861021000,18.80602099609375,-17.45625114440918,-10.200000762939453,-38.45625305175781
1780563849881017600,18.826017578125,-17.043750762939453,-9.71250057220459,-39.431251525878906
1780563849901021700,18.846021728515623,-16.80000114440918,-10.875,-39.76875305175781
1780563849921018400,18.866018310546874,-15.168750762939453,-11.86875057220459,-39.900001525878906
1780563849941015000,18.88601513671875,-14.02500057220459,-11.86875057220459,-39.69375228881836
1780563849961019400,18.906019287109373,-14.981250762939453,-11.943750381469727,-40.95000076293945
1780563849981016000,18.92601611328125,-14.77500057220459,-11.606250762939453,-41.53125
1780563850001020200,18.946020263671876,-14.343750953674316,-11.043750762939453,-41.70000076293945
1780563850021024500,18.9660244140625,-15.262500762939453,-10.856250762939453,-41.868751525878906
1780563850041021200,18.986021240234376,-13.593750953674316,-13.162500381469727,-41.51250076293945
1780563850061025300,19.006025390625,-13.575000762939453,-15.543750762939453,-42.806251525878906
1780563850081022000,19.02602197265625,-12.90000057220459,-15.018750190734863,-43.16250228881836
1780563850101018600,19.0460185546875,-12.225000381469727,-13.593750953674316,-41.98125076293945
1780563850121023000,19.06602294921875,-11.381250381469727,-12.112500190734863,-42.67500305175781
1780563850141019600,19.08601953125,-9.80625057220459,-12.581250190734863,-43.556251525878906
1780563850161016300,19.106016357421876,-11.8125,-13.293750762939453,-42.993751525878906
1780563850181020400,19.1260205078125,-11.100000381469727,-12.656250953674316,-42.09375
1780563850201017000,19.14601708984375,-10.21875,-11.49375057220459,-41.775001525878906
1780563850221021400,19.166021484375,-12.506250381469727,-11.081250190734863,-41.71875
1780563850241025800,19.18602587890625,-12.731250762939453,-12.281250953674316,-42.46875
1780563850261022500,19.2060224609375,-11.15625,-11.925000190734863,-42.65625
1780563850281026600,19.226026611328123,-10.950000762939453,-11.362500190734863,-42.78750228881836
1780563850301023200,19.246023193359374,-11.231250762939453,-11.081250190734863,-44.212501525878906
1780563850321020000,19.26602001953125,-10.068750381469727,-11.887500762939453,-44.53125
1780563850341024300,19.286024169921873,-8.90625,-12.637500762939453,-44.19375228881836
1780563850361021000,19.30602099609375,-11.625,-11.96250057220459,-43.275001525878906
1780563850381017600,19.326017578125,-11.418750762939453,-10.78125,-42.9375
1780563850401022000,19.34602197265625,-10.143750190734863,-8.568750381469727,-43.743751525878906
1780563850421018400,19.366018310546874,-11.456250190734863,-8.606250762939453,-42.07500076293945
1780563850441022700,19.386022705078126,-11.15625,-9.90000057220459,-41.17500305175781
1780563850461027000,19.406027099609375,-8.737500190734863,-8.925000190734863,-43.181251525878906
1780563850480909300,19.425909423828124,-7.275000095367432,-7.181250095367432,-45.48750305175781
1780563850500731400,19.4457314453125,-6.131250381469727,-7.181250095367432,-45.30000305175781
1780563850520781600,19.465781494140625,-6.056250095367432,-7.256250381469727,-43.42500305175781
1780563850540778200,19.4857783203125,-6.337500095367432,-5.53125,-43.650001525878906
1780563850560896800,19.505896728515626,-6.843750476837158,-5.006250381469727,-44.41875076293945
1780563850581075500,19.526075439453123,-10.012500762939453,-6.112500190734863,-44.306251525878906
1780563850601026300,19.5460263671875,-9.600000381469727,-5.212500095367432,-45.056251525878906
1780563850621030700,19.56603076171875,-8.456250190734863,-4.21875,-44.32500076293945
1780563850641027300,19.58602734375,-9.375,-3.562500238418579,-43.63125228881836
1780563850661024000,19.60602392578125,-8.231250762939453,-4.012500286102295,-44.306251525878906
1780563850681020700,19.626020751953124,-6.206250190734863,-3.3000001907348633,-44.45625305175781
1780563850701017300,19.646017333984375,-7.143750190734863,-1.912500023841858,-44.306251525878906
1780563850721021700,19.666021728515624,-10.27500057220459,-2.9437501430511475,-43.125
1780563850741026000,19.686026123046876,-10.800000190734863,-2.4750001430511475,-44.53125
1780563850761022700,19.706022705078126,-9.037500381469727,-0.6187500357627869,-45.1875
1780563850781027000,19.726027099609375,-6.262500286102295,-0.5437500476837158,-43.743751525878906
1780563850801031200,19.74603125,-6.225000381469727,-2.2875001430511475,-43.931251525878906
1780563850821027800,19.76602783203125,-9.61875057220459,-3.4312500953674316,-44.4375
1780563850841032000,19.786031982421875,-10.55625057220459,-3.6937501430511475,-45.50625228881836
1780563850861028600,19.806028564453126,-11.737500190734863,-2.71875,-45.60000228881836
1780563850881017600,19.826017578125,-13.725000381469727,-2.7750000953674316,-43.91250228881836
1780563850901021700,19.846021728515623,-11.15625,-3.450000047683716,-42.337501525878906
1780563850921018400,19.866018310546874,-10.443750381469727,-4.050000190734863,-42.41250228881836
1780563850941022700,19.886022705078126,-12.468750953674316,-3.9562501907348633,-41.34375
1780563850961027300,19.90602734375,-13.406250953674316,-4.59375,-42.45000076293945
1780563850981024000,19.92602392578125,-11.8125,-6.037500381469727,-43.66875076293945
1780563851001028000,19.946028076171874,-11.325000762939453,-5.400000095367432,-42.5625
1780563851021024800,19.966024658203125,-9.99375057220459,-4.650000095367432,-42.69375228881836
1780563851041021400,19.986021484375,-8.58750057220459,-5.606250286102295,-42.39375305175781
1780563851061025500,20.006025634765624,-11.15625,-6.131250381469727,-44.92500305175781
1780563851081022200,20.026022216796875,-12.075000762939453,-6.337500095367432,-45.150001525878906
1780563851101019000,20.046018798828126,-10.425000190734863,-6.825000286102295,-43.76250076293945
1780563851121023000,20.06602294921875,-8.175000190734863,-5.925000190734863,-44.10000228881836
1780563851141019600,20.08601953125,-10.5,-5.15625,-44.625
1780563851161016300,20.106016357421876,-10.5,-5.15625,-44.625
1780563851181020700,20.126020751953124,-10.5,-5.15625,-44.625
1780563851201017300,20.146017333984375,-10.5,-5.15625,-44.625
1780563851221021400,20.166021484375,-5.118750095367432,-9.43125057220459,-44.10000228881836
1780563851241025800,20.18602587890625,-6.937500476837158,-10.856250762939453,-45.69375228881836
1780563851261022500,20.2060224609375,-8.11875057220459,-10.08750057220459,-46.01250076293945
1780563851280996000,20.22599609375,-5.8125,-10.668750762939453,-45.67500305175781
1780563851300863000,20.245863037109373,-5.8125,-10.668750762939453,-45.67500305175781
1780563851320654800,20.26565478515625,-7.350000381469727,-10.74375057220459,-44.212501525878906
1780563851360716800,20.305716796875,-5.25,-14.11875057220459,-45.431251525878906
1780563851380843000,20.325843017578126,-5.212500095367432,-15.450000762939453,-45.16875076293945
1780563851401052400,20.346052490234374,-6.581250190734863,-14.006250381469727,-44.15625
1780563851421018600,20.3660185546875,-9.28125,-14.718750953674316,-43.80000305175781
1780563851441022700,20.386022705078126,-9.956250190734863,-14.887500762939453,-43.38750076293945
1780563851461027000,20.406027099609375,-8.981250762939453,-15.168750762939453,-41.775001525878906
1780563851481023700,20.426023681640626,-9.206250190734863,-15.543750762939453,-42.01875305175781
1780563851501027800,20.44602783203125,-9.28125,-14.49375057220459,-43.35000228881836
1780563851521024500,20.4660244140625,-9.225000381469727,-14.381250381469727,-41.681251525878906
1780563851541021200,20.486021240234376,-8.268750190734863,-14.49375057220459,-40.44375228881836
1780563851561025500,20.506025634765624,-10.59375,-15.562500953674316,-42.41250228881836
1780563851581022000,20.52602197265625,-11.943750381469727,-15.90000057220459,-42.03750228881836
1780563851601026300,20.5460263671875,-11.568750381469727,-16.21875,-38.32500076293945
1780563851621030700,20.56603076171875,-12.937500953674316,-16.59375,-38.34375
1780563851641027300,20.58602734375,-11.96250057220459,-13.912500381469727,-40.98750305175781
1780563851661023700,20.606023681640625,-13.125000953674316,-11.943750381469727,-40.556251525878906
1780563851681020400,20.6260205078125,-15.862500190734863,-11.456250190734863,-39.63750076293945
1780563851701017000,20.64601708984375,-14.043750762939453,-9.262500762939453,-37.95000076293945
1780563851721021400,20.666021484375,-13.593750953674316,-7.650000095367432,-36.95625305175781
1780563851741025800,20.68602587890625,-14.30625057220459,-8.11875057220459,-38.25
1780563851761022500,20.7060224609375,-15.918750762939453,-7.931250095367432,-38.625
1780563851781026800,20.72602685546875,-17.53125,-6.506250381469727,-37.837501525878906
1780563851801023500,20.7460234375,-17.756250381469727,-5.456250190734863,-36.67500305175781
1780563851821020200,20.766020263671876,-21.806251525878906,-5.925000190734863,-35.64375305175781
1780563851841024300,20.786024169921873,-23.418750762939453,-6.112500190734863,-35.868751525878906
1780563851861021000,20.80602099609375,-23.45625114440918,-3.562500238418579,-35.17500305175781
1780563851881017300,20.826017333984375,-24.150001525878906,-3.9562501907348633,-35.41875076293945
1780563851901021700,20.846021728515623,-25.087501525878906,-2.5687501430511475,-35.04375076293945
1780563851921018400,20.866018310546874,-23.756250381469727,-0.4125000238418579,-34.20000076293945
1780563851941015000,20.88601513671875,-23.475000381469727,-0.5625,-33.375
1780563851961019100,20.90601904296875,-26.868751525878906,0.16875000298023224,-32.025001525878906
1780563851981015800,20.926015869140624,-27.750001907348633,1.4625000953674316,-30.000001907348633
1780563852001020200,20.946020263671876,-30.937501907348633,3.187500238418579,-28.125001907348633
1780563852021024500,20.9660244140625,-30.525001525878906,3.468750238418579,-29.55000114440918
1780563852041021200,20.986021240234376,-26.45625114440918,4.96875,-29.212501525878906
1780563852061025300,21.006025390625,-26.006250381469727,6.187500476837158,-28.256250381469727
1780563852081022000,21.02602197265625,-28.05000114440918,6.862500190734863,-27.131250381469727
1780563852100973000,21.04597314453125,-30.30000114440918,7.350000381469727,-26.006250381469727
1780563852120847400,21.065847412109374,-30.95625114440918,7.650000095367432,-24.712501525878906
1780563852140624000,21.085623779296874,-32.08125305175781,8.11875057220459,-23.83125114440918
1780563852180693500,21.125693603515625,-31.968751907348633,5.700000286102295,-22.631250381469727
1780563852200819700,21.14581982421875,-29.775001525878906,7.087500095367432,-24.375001907348633
1780563852221044200,21.166044189453125,-29.775001525878906,8.925000190734863,-22.725000381469727
1780563852241025800,21.18602587890625,-30.01875114440918,9.71250057220459,-22.42500114440918
1780563852261022500,21.2060224609375,-28.70625114440918,9.168750762939453,-24.356250762939453
1780563852281026600,21.226026611328123,-28.912500381469727,9.412500381469727,-23.92500114440918
1780563852301023200,21.246023193359374,-30.525001525878906,9.80625057220459,-24.075000762939453
1780563852321020000,21.26602001953125,-32.79375076293945,9.46875,-23.681251525878906
1780563852341024300,21.286024169921873,-29.775001525878906,8.925000190734863,-22.931251525878906
1780563852361021000,21.30602099609375,-29.325000762939453,8.11875057220459,-23.212501525878906
1780563852381017600,21.326017578125,-30.225000381469727,8.325000762939453,-23.193750381469727
1780563852401021700,21.346021728515623,-29.343751907348633,8.887500762939453,-23.137500762939453
1780563852421018400,21.366018310546874,-31.931251525878906,10.143750190734863,-24.86250114440918
1780563852441022700,21.386022705078126,-32.83125305175781,10.200000762939453,-24.431251525878906
1780563852461027000,21.406027099609375,-31.200000762939453,8.793750762939453,-24.806251525878906
1780563852481023700,21.426023681640626,-30.318750381469727,7.518750190734863,-26.400001525878906
1780563852501027800,21.44602783203125,-29.887500762939453,8.662500381469727,-26.493751525878906
1780563852521024500,21.4660244140625,-27.000001907348633,9.075000762939453,-28.350000381469727
1780563852541021200,21.486021240234376,-24.76875114440918,7.537500381469727,-30.618751525878906
1780563852561025500,21.506025634765624,-26.100000381469727,6.375000476837158,-30.937501907348633
1780563852581022200,21.526022216796875,-25.23750114440918,7.293750286102295,-31.462501525878906
1780563852601026300,21.5460263671875,-24.58125114440918,7.631250381469727,-31.856250762939453
1780563852621030400,21.566030517578124,-25.481250762939453,6.843750476837158,-32.36250305175781
1780563852641027000,21.586027099609375,-23.006250381469727,7.331250190734863,-33.150001525878906
1780563852661023700,21.606023681640625,-19.125,6.675000190734863,-33.46875
1780563852681020700,21.626020751953124,-19.14375114440918,5.606250286102295,-35.04375076293945
1780563852701017300,21.646017333984375,-22.350000381469727,4.837500095367432,-35.71875
1780563852721021400,21.666021484375,-21.20625114440918,4.200000286102295,-36.431251525878906
1780563852741025800,21.68602587890625,-18.525001525878906,4.481250286102295,-37.462501525878906
1780563852761022500,21.7060224609375,-17.137500762939453,3.2250001430511475,-38.4375
1780563852781026800,21.72602685546875,-17.100000381469727,1.725000023841858,-38.19375228881836
1780563852801023500,21.7460234375,-19.556251525878906,-0.6000000238418579,-38.625
1780563852821020000,21.76602001953125,-18.600000381469727,-2.3812501430511475,-39.243751525878906
1780563852841024300,21.786024169921873,-16.087501525878906,-1.8000000715255737,-38.79375076293945
1780563852861021000,21.80602099609375,-14.043750762939453,-2.625,-39.31875228881836
1780563852881017300,21.826017333984375,-14.68125057220459,-3.731250047683716,-38.8125
1780563852901021700,21.846021728515623,-16.012500762939453,-4.668750286102295,-38.681251525878906
1780563852920972500,21.86597265625,-15.131250381469727,-4.743750095367432,-39.54375076293945
1780563852940847000,21.88584716796875,-14.643750190734863,-6.112500190734863,-39.900001525878906
1780563852960631000,21.905631103515624,-14.40000057220459,-6.881250381469727,-39.76875305175781
1780563853000700700,21.94570068359375,-14.006250381469727,-6.450000286102295,-41.60625076293945
1780563853020827100,21.9658271484375,-16.51875114440918,-6.431250095367432,-41.79375076293945
1780563853041044000,21.9860439453125,-15.825000762939453,-7.012500286102295,-41.868751525878906
1780563853061025500,22.006025634765624,-13.537500381469727,-8.0625,-42.618751525878906
1780563853081022200,22.026022216796875,-10.050000190734863,-9.768750190734863,-41.79375076293945
1780563853101018600,22.0460185546875,-9.318750381469727,-9.262500762939453,-40.087501525878906
1780563853121023000,22.06602294921875,-12.562500953674316,-8.96250057220459,-41.681251525878906
1780563853141019600,22.08601953125,-11.21250057220459,-9.61875057220459,-42.60000228881836
1780563853161016300,22.106016357421876,-10.725000381469727,-10.78125,-42.73125076293945
1780563853181020700,22.126020751953124,-13.031250953674316,-10.200000762939453,-43.06875228881836
1780563853201024800,22.146024658203125,-11.86875057220459,-10.36875057220459,-42.46875
1780563853221029000,22.166029052734373,-10.5,-11.193750381469727,-42.97500228881836
1780563853241033200,22.186033203125,-11.68125057220459,-9.412500381469727,-42.5625
1780563853261030000,22.20602978515625,-11.925000190734863,-9.075000762939453,-43.16250228881836
1780563853281026600,22.226026611328123,-11.475000381469727,-8.887500762939453,-43.14375305175781
1780563853301023200,22.246023193359374,-11.49375057220459,-7.668750286102295,-42.1875
1780563853321020200,22.266020263671876,-12.637500762939453,-6.656250476837158,-41.64375305175781
1780563853341024300,22.286024169921873,-13.725000381469727,-6.956250190734863,-40.61250305175781
1780563853361021000,22.30602099609375,-12.131250381469727,-7.968750476837158,-41.17500305175781
1780563853381017600,22.326017578125,-12.375000953674316,-7.406250476837158,-41.306251525878906
1780563853401021700,22.346021728515623,-11.71875,-6.262500286102295,-41.400001525878906
1780563853421018400,22.366018310546874,-10.668750762939453,-6.056250095367432,-43.66875076293945
1780563853441015000,22.38601513671875,-10.65000057220459,-7.012500286102295,-43.78125
1780563853461019400,22.406019287109373,-8.325000762939453,-7.987500190734863,-43.48125076293945
1780563853481016000,22.42601611328125,-7.500000476837158,-7.200000286102295,-45.69375228881836
1780563853501020200,22.446020263671876,-7.968750476837158,-5.962500095367432,-44.51250076293945
1780563853521024500,22.4660244140625,-7.725000381469727,-5.325000286102295,-43.837501525878906
1780563853541021200,22.486021240234376,-8.193750381469727,-5.362500190734863,-44.45625305175781
1780563853561025300,22.506025390625,-8.193750381469727,-5.362500190734863,-44.25
1780563853581022200,22.526022216796875,-8.90625,-5.606250286102295,-45.11250305175781
1780563853601026300,22.5460263671875,-12.543750762939453,-5.550000190734863,-45.056251525878906
1780563853621030700,22.56603076171875,-10.93125057220459,-4.5,-43.29375076293945
1780563853641027300,22.58602734375,-6.825000286102295,-4.143750190734863,-43.087501525878906
1780563853661023700,22.606023681640625,-6.618750095367432,-3.5812501907348633,-43.23750305175781
1780563853681020400,22.6260205078125,-6.675000190734863,-2.2687501907348633,-43.72500228881836
1780563853701017000,22.64601708984375,-7.593750476837158,-1.4625000953674316,-43.20000076293945
1780563853721021400,22.666021484375,-9.393750190734863,-1.5937501192092896,-42.78750228881836
1780563853741002800,22.686002685546875,-9.90000057220459,-0.9000000357627869,-43.95000076293945
1780563853760870000,22.705869873046876,-9.693750381469727,-0.11250000447034836,-43.650001525878906
1780563853780676600,22.725676513671875,-10.83750057220459,0.30000001192092896,-43.40625
1780563853800726800,22.745726806640626,-12.018750190734863,0.6375000476837158,-44.400001525878906
1780563853820746200,22.765746337890626,-11.550000190734863,-0.16875000298023224,-44.90625
1780563853840880000,22.785880126953124,-11.100000381469727,-0.1875,-45.11250305175781
1780563853861074200,22.80607421875,-11.287500381469727,-0.5062500238418579,-44.10000228881836
1780563853881017300,22.826017333984375,-12.881250381469727,0.11250000447034836,-43.81875228881836
1780563853901021700,22.846021728515623,-12.656250953674316,-0.07500000298023224,-43.63125228881836
1780563853921018400,22.866018310546874,-11.662500381469727,-1.9500000476837158,-42.806251525878906
1780563853941022500,22.8860224609375,-12.52500057220459,-2.6625001430511475,-42.03750228881836
1780563853961026800,22.90602685546875,-13.725000381469727,-1.1062500476837158,-42.28125
1780563853981023500,22.9260234375,-14.906250953674316,-0.39375001192092896,-43.23750305175781
1780563854001027800,22.94602783203125,-12.318750381469727,-1.068750023841858,-41.25
1780563854021024500,22.9660244140625,-12.506250381469727,-0.5437500476837158,-39.525001525878906
1780563854041021200,22.986021240234376,-13.687500953674316,-1.443750023841858,-41.47500228881836
1780563854061025500,23.006025634765624,-12.075000762939453,-2.0625,-41.775001525878906
1780563854081022200,23.026022216796875,-12.768750190734863,-1.03125,-40.81875228881836
1780563854101018600,23.0460185546875,-12.037500381469727,-1.1812500953674316,-40.01250076293945
1780563854121023000,23.06602294921875,-11.30625057220459,-3.1125001907348633,-40.21875
1780563854141019600,23.08601953125,-12.018750190734863,-4.368750095367432,-41.8125
1780563854161016300,23.106016357421876,-12.693750381469727,-4.762500286102295,-42.056251525878906
1780563854181020400,23.1260205078125,-14.250000953674316,-5.831250190734863,-41.32500076293945
1780563854201017000,23.14601708984375,-14.437500953674316,-6.187500476837158,-40.743751525878906
1780563854221021400,23.166021484375,-15.112500190734863,-6.356250286102295,-40.53750228881836
1780563854241025800,23.18602587890625,-15.768750190734863,-7.312500476837158,-40.650001525878906
1780563854261022500,23.2060224609375,-14.456250190734863,-6.618750095367432,-41.400001525878906
1780563854281026600,23.226026611328123,-13.762500762939453,-6.225000381469727,-41.17500305175781
1780563854301023200,23.246023193359374,-12.393750190734863,-6.431250095367432,-40.98750305175781
1780563854321020200,23.266020263671876,-11.981250762939453,-6.525000095367432,-42.46875
1780563854341024300,23.286024169921873,-11.756250381469727,-7.968750476837158,-43.875
1780563854361021000,23.30602099609375,-12.881250381469727,-7.893750190734863,-43.03125
1780563854381017600,23.326017578125,-15.61875057220459,-7.050000190734863,-42.48750305175781
1780563854401021700,23.346021728515623,-16.51875114440918,-7.631250381469727,-42.54375076293945
1780563854421018400,23.366018310546874,-13.968750953674316,-9.018750190734863,-42.712501525878906
1780563854441015000,23.38601513671875,-11.4375,-9.600000381469727,-42.39375305175781
1780563854461019400,23.406019287109373,-11.643750190734863,-9.131250381469727,-41.306251525878906
1780563854481016000,23.42601611328125,-11.58750057220459,-10.237500190734863,-40.59375
1780563854501020400,23.4460205078125,-9.99375057220459,-10.46250057220459,-40.63125228881836
1780563854521024800,23.466024658203125,-8.175000190734863,-11.96250057220459,-42.67500305175781
1780563854541021200,23.486021240234376,-9.787500381469727,-13.36875057220459,-43.85625076293945
1780563854561010200,23.50601025390625,-10.068750381469727,-11.456250190734863,-43.85625076293945
1780563854580885000,23.525885009765624,-11.418750762939453,-10.387500762939453,-42.67500305175781
1780563854600699400,23.545699462890624,-14.100000381469727,-11.643750190734863,-41.962501525878906
1780563854620468200,23.56546826171875,-14.531250953674316,-12.825000762939453,-42.30000305175781
1780563854640480300,23.585480224609373,-14.043750762939453,-12.318750381469727,-40.57500076293945
1780563854660598800,23.605598876953124,-12.656250953674316,-12.487500190734863,-39.97500228881836
1780563854680785200,23.62578515625,-11.71875,-13.312500953674316,-40.5
1780563854701017300,23.646017333984375,-13.331250190734863,-12.05625057220459,-39.30000305175781
1780563854721021400,23.666021484375,-13.068750381469727,-10.575000762939453,-37.48125076293945
1780563854741025800,23.68602587890625,-14.250000953674316,-9.412500381469727,-37.556251525878906
1780563854761022500,23.7060224609375,-16.40625,-9.018750190734863,-40.40625
1780563854781026600,23.726026611328123,-16.368751525878906,-11.193750381469727,-41.26875305175781
1780563854801023200,23.746023193359374,-14.662500381469727,-10.950000762939453,-37.70625305175781
1780563854821020000,23.76602001953125,-15.356250762939453,-9.543750762939453,-36.73125076293945
1780563854841024300,23.786024169921873,-19.087501525878906,-7.200000286102295,-37.06875228881836
1780563854861021000,23.80602099609375,-18.450000762939453,-5.868750095367432,-37.125
1780563854881017600,23.826017578125,-19.78125,-6.806250095367432,-37.01250076293945
1780563854901021700,23.846021728515623,-19.837501525878906,-3.468750238418579,-36.01875305175781
1780563854921018400,23.866018310546874,-22.087501525878906,-2.5687501430511475,-34.44375228881836
1780563854941015000,23.88601513671875,-25.42500114440918,-3.3375000953674316,-32.41875076293945
1780563854961019400,23.906019287109373,-22.293750762939453,-0.03750000149011612,-31.256250381469727
1780563854981016000,23.92601611328125,-21.46875,1.8000000715255737,-32.306251525878906
1780563855001020200,23.946020263671876,-25.312501907348633,0.9187500476837158,-31.968751907348633
1780563855021024500,23.9660244140625,-27.075000762939453,0.4312500059604645,-30.95625114440918
1780563855041021200,23.986021240234376,-24.900001525878906,1.8375000953674316,-32.493751525878906
1780563855061025300,24.006025390625,-22.631250381469727,1.9500000476837158,-33.11250305175781
1780563855081022000,24.02602197265625,-23.043750762939453,1.256250023841858,-32.13750076293945
1780563855101018600,24.0460185546875,-25.687501907348633,1.6875001192092896,-29.36250114440918
1780563855121023000,24.06602294921875,-27.318750381469727,3.281250238418579,-28.762500762939453
1780563855141019600,24.08601953125,-28.106250762939453,5.71875,-29.73750114440918
1780563855161016000,24.10601611328125,-29.681251525878906,5.962500095367432,-29.287500381469727
1780563855181020400,24.1260205078125,-30.806251525878906,6.018750190734863,-28.650001525878906
1780563855201017000,24.14601708984375,-28.218751907348633,5.943750381469727,-26.587501525878906
1780563855221021400,24.166021484375,-29.100000381469727,4.21875,-26.775001525878906
1780563855241025500,24.186025634765624,-31.61250114440918,3.4312500953674316,-27.468751907348633
1780563855261022200,24.206022216796875,-29.08125114440918,3.843750238418579,-26.606250762939453
1780563855281026600,24.226026611328123,-28.368751525878906,4.893750190734863,-25.256250381469727
1780563855301023200,24.246023193359374,-29.025001525878906,5.606250286102295,-23.493751525878906
1780563855321020000,24.26602001953125,-31.500001907348633,4.275000095367432,-23.625
1780563855341024300,24.286024169921873,-31.70625114440918,3.918750047683716,-23.25
1780563855361020700,24.306020751953124,-29.662500381469727,4.481250286102295,-22.98750114440918
1780563855381025000,24.32602490234375,-32.00625228881836,5.4375,-23.700000762939453
1780563855400953000,24.345953125,-30.656251907348633,5.962500095367432,-24.075000762939453
1780563855420813300,24.365813232421875,-29.437501907348633,4.256250381469727,-23.4375
1780563855440574000,24.385573974609375,-31.481250762939453,3.6937501430511475,-23.681251525878906
1780563855480651300,24.4256513671875,-30.168750762939453,6.450000286102295,-22.556251525878906
1780563855500791800,24.445791748046876,-31.33125114440918,7.031250476837158,-22.70625114440918
1780563855521032200,24.4660322265625,-31.275001525878906,4.3125,-23.212501525878906
1780563855541021200,24.486021240234376,-30.375001907348633,3.8062500953674316,-24.525001525878906
1780563855561025300,24.506025390625,-29.062501907348633,5.493750095367432,-24.975000381469727
1780563855581022000,24.52602197265625,-29.718751907348633,5.400000095367432,-23.71875
1780563855601026300,24.5460263671875,-28.575000762939453,4.96875,-24.20625114440918
1780563855621030700,24.56603076171875,-27.750001907348633,5.175000190734863,-26.681251525878906
1780563855641027300,24.58602734375,-27.806251525878906,5.043750286102295,-28.368751525878906
1780563855661024000,24.60602392578125,-28.031251907348633,5.043750286102295,-28.556251525878906
1780563855681020700,24.626020751953124,-26.193750381469727,4.03125,-28.89375114440918
1780563855701017300,24.646017333984375,-28.462501525878906,2.4375,-30.093751907348633
1780563855721021400,24.666021484375,-31.012500762939453,1.5937501192092896,-31.631250381469727
1780563855741025800,24.68602587890625,-28.275001525878906,1.9312500953674316,-31.818750381469727
1780563855761022500,24.7060224609375,-24.806251525878906,1.2000000476837158,-30.468751907348633
1780563855781026600,24.726026611328123,-24.30000114440918,-0.6937500238418579,-30.262500762939453
1780563855801023200,24.746023193359374,-24.787500381469727,-1.1812500953674316,-31.781251907348633
1780563855821020000,24.76602001953125,-25.05000114440918,-1.2375000715255737,-32.60625076293945
1780563855841024300,24.786024169921873,-26.83125114440918,-0.35625001788139343,-31.23750114440918
1780563855861021000,24.80602099609375,-26.83125114440918,-0.768750011920929,-31.70625114440918
1780563855881017300,24.826017333984375,-23.962501525878906,-2.4000000953674316,-35.25
1780563855901021700,24.846021728515623,-22.350000381469727,-4.012500286102295,-36.056251525878906
1780563855921018400,24.866018310546874,-22.106250762939453,-5.025000095367432,-36.806251525878906
1780563855941014800,24.886014892578125,-19.61250114440918,-4.6875,-36.78750228881836
1780563855961019100,24.90601904296875,-19.575000762939453,-4.987500190734863,-35.775001525878906
1780563855981016000,24.92601611328125,-18.243751525878906,-5.53125,-37.72500228881836
1780563856001020200,24.946020263671876,-15.33750057220459,-5.925000190734863,-39.88125228881836
1780563856021024500,24.9660244140625,-16.293750762939453,-5.568750381469727,-40.650001525878906
1780563856041021200,24.986021240234376,-16.5,-4.556250095367432,-39.712501525878906
1780563856061025300,25.006025390625,-17.606250762939453,-6.037500381469727,-39.243751525878906
1780563856081022000,25.02602197265625,-18.01875114440918,-7.612500190734863,-39.82500076293945
1780563856101018600,25.0460185546875,-18.075000762939453,-7.312500476837158,-41.04375076293945
1780563856121023000,25.06602294921875,-19.200000762939453,-7.068750381469727,-40.57500076293945
1780563856141019600,25.08601953125,-16.181251525878906,-8.40000057220459,-39.91875076293945
1780563856161016000,25.10601611328125,-15.450000762939453,-11.756250381469727,-41.13750076293945
1780563856181020400,25.1260205078125,-17.0625,-10.987500190734863,-41.23125076293945
1780563856201017000,25.14601708984375,-15.956250190734863,-8.21250057220459,-39.900001525878906
1780563856220975600,25.1659755859375,-15.000000953674316,-9.543750762939453,-39.431251525878906
1780563856240842500,25.185842529296874,-12.90000057220459,-10.5,-39.150001525878906
1780563856260626700,25.205626708984376,-12.262500762939453,-9.600000381469727,-39.88125228881836
1780563856280653800,25.22565380859375,-13.218750953674316,-9.90000057220459,-41.587501525878906
1780563856300696300,25.2456962890625,-14.081250190734863,-9.5625,-39.65625
1780563856320830200,25.265830322265625,-15.412500381469727,-9.675000190734863,-38.60625076293945
1780563856341047300,25.28604736328125,-14.325000762939453,-9.99375057220459,-40.33125305175781
1780563856361021000,25.30602099609375,-14.568750381469727,-10.012500762939453,-40.743751525878906
1780563856381017600,25.326017578125,-16.631250381469727,-10.21875,-41.15625
1780563856401021700,25.346021728515623,-15.262500762939453,-9.84375,-41.13750076293945
1780563856421018400,25.366018310546874,-11.15625,-10.537500381469727,-41.868751525878906
1780563856441015000,25.38601513671875,-12.356250762939453,-9.412500381469727,-42.5625
1780563856461019100,25.40601904296875,-15.581250190734863,-8.58750057220459,-42.45000076293945
1780563856481015800,25.426015869140624,-15.562500953674316,-9.787500381469727,-42.993751525878906
1780563856501020200,25.446020263671876,-14.418750762939453,-9.61875057220459,-43.20000076293945
1780563856521024300,25.466024169921877,-13.518750190734863,-9.225000381469727,-42.75
1780563856541021000,25.48602099609375,-12.543750762939453,-10.537500381469727,-42.28125
1780563856561025300,25.506025390625,-12.037500381469727,-11.850000381469727,-41.79375076293945
1780563856581022000,25.52602197265625,-11.362500190734863,-10.65000057220459,-41.04375076293945
1780563856601018600,25.5460185546875,-13.725000381469727,-9.206250190734863,-42.525001525878906
1780563856621023000,25.56602294921875,-13.706250190734863,-9.731250762939453,-41.962501525878906
1780563856641019600,25.58601953125,-12.52500057220459,-9.28125,-40.89375305175781
1780563856661016300,25.606016357421876,-13.518750190734863,-7.781250476837158,-41.34375
1780563856681021000,25.62602099609375,-13.74375057220459,-8.831250190734863,-42.69375228881836
1780563856701017600,25.646017578125,-12.168750762939453,-9.487500190734863,-43.61250305175781
1780563856721021700,25.666021728515624,-12.393750190734863,-8.887500762939453,-43.35000228881836
1780563856741026000,25.686026123046876,-13.125000953674316,-8.550000190734863,-44.13750076293945
1780563856761022500,25.7060224609375,-13.350000381469727,-8.77500057220459,-44.56875228881836
1780563856781026600,25.726026611328123,-13.331250190734863,-8.137500762939453,-43.66875076293945
1780563856801023200,25.746023193359374,-9.487500190734863,-8.4375,-44.56875228881836
1780563856821020000,25.76602001953125,-8.30625057220459,-9.1875,-44.04375076293945
1780563856841024300,25.786024169921873,-10.83750057220459,-7.743750095367432,-43.23750305175781
1780563856861021000,25.80602099609375,-10.200000762939453,-6.843750476837158,-43.76250076293945
1780563856881017600,25.826017578125,-10.912500381469727,-6.075000286102295,-44.10000228881836
1780563856901021700,25.846021728515623,-11.625,-5.943750381469727,-44.90625
1780563856921018400,25.866018310546874,-8.625,-7.537500381469727,-45.31875228881836
1780563856941022700,25.886022705078126,-8.86875057220459,-5.962500095367432,-44.71875
1780563856961027000,25.906027099609375,-10.668750762939453,-6.243750095367432,-43.6875
1780563856981023700,25.926023681640626,-10.631250381469727,-6.187500476837158,-42.86250305175781
1780563857001028000,25.946028076171874,-10.3125,-2.418750047683716,-43.70625305175781
1780563857021024800,25.966024658203125,-11.737500190734863,-1.912500023841858,-45.09375
1780563857040990700,25.98599072265625,-11.49375057220459,-3.3000001907348633,-45.65625
1780563857060865300,26.005865234375,-10.143750190734863,-2.34375,-45.35625076293945
1780563857080649500,26.0256494140625,-11.475000381469727,-1.8562500476837158,-44.25
1780563857120703700,26.065703857421877,-10.800000190734863,-1.8750001192092896,-44.25
1780563857140830000,26.085829833984373,-10.818750381469727,-0.03750000149011612,-42.806251525878906
1780563857161039400,26.106039306640625,-10.55625057220459,-0.4312500059604645,-42.86250305175781
1780563857181020700,26.126020751953124,-11.49375057220459,-1.2750000953674316,-44.19375228881836
1780563857201025000,26.14602490234375,-9.65625,-1.256250023841858,-43.57500076293945
1780563857221029400,26.166029296875,-11.25,-1.443750023841858,-43.59375
1780563857241033700,26.18603369140625,-12.52500057220459,-3.075000047683716,-42.50625228881836
1780563857261030400,26.206030517578125,-12.318750381469727,-3.6937501430511475,-43.20000076293945
1780563857281027000,26.226027099609375,-11.643750190734863,-3.356250047683716,-43.57500076293945
1780563857301023500,26.2460234375,-10.93125057220459,-4.293750286102295,-43.275001525878906
1780563857321020200,26.266020263671876,-12.300000190734863,-4.668750286102295,-43.29375076293945
1780563857341024300,26.286024169921873,-13.406250953674316,-3.375000238418579,-41.70000076293945
1780563857361021000,26.30602099609375,-11.77500057220459,-4.350000381469727,-41.400001525878906
1780563857381017600,26.326017578125,-9.28125,-4.59375,-41.868751525878906
1780563857401022000,26.34602197265625,-9.318750381469727,-1.8000000715255737,-40.3125
1780563857421018400,26.366018310546874,-9.975000381469727,-2.793750047683716,-40.837501525878906
1780563857441015000,26.38601513671875,-12.300000190734863,-4.668750286102295,-43.29375076293945
1780563857461019400,26.406019287109373,-14.325000762939453,-4.181250095367432,-42.39375305175781
1780563857481016000,26.42601611328125,-11.568750381469727,-3.1500000953674316,-40.85625076293945
1780563857501020400,26.4460205078125,-11.11875057220459,-2.15625,-40.125
1780563857521024800,26.466024658203125,-14.081250190734863,-1.5,-39.618751525878906
1780563857541021200,26.486021240234376,-16.818750381469727,-2.4750001430511475,-40.3125
1780563857561025500,26.506025634765624,-17.92500114440918,-4.237500190734863,-41.118751525878906
1780563857581022200,26.526022216796875,-17.025001525878906,-4.068750381469727,-41.10000228881836
1780563857601026300,26.5460263671875,-16.087501525878906,-4.012500286102295,-40.275001525878906
1780563857621030700,26.56603076171875,-13.575000762939453,-4.837500095367432,-40.61250305175781
1780563857641027300,26.58602734375,-12.43125057220459,-6.112500190734863,-42
1780563857661024000,26.60602392578125,-13.781250953674316,-6.637500286102295,-41.625
1780563857681020700,26.626020751953124,-13.55625057220459,-7.050000190734863,-41.88750076293945
1780563857701017300,26.646017333984375,-11.512500762939453,-7.518750190734863,-42.78750228881836
1780563857721021700,26.666021728515624,-12.393750190734863,-8.0625,-42.618751525878906
1780563857741025800,26.68602587890625,-13.350000381469727,-8.137500762939453,-43.875
1780563857761022500,26.7060224609375,-9.75,-8.71875,-45.84375
1780563857781026800,26.72602685546875,-7.668750286102295,-10.106250762939453,-46.21875
1780563857801023500,26.7460234375,-7.593750476837158,-10.78125,-44.83125305175781
1780563857821020200,26.766020263671876,-6.675000190734863,-10.518750190734863,-43.78125
1780563857841024500,26.7860244140625,-6.881250381469727,-11.11875057220459,-44.04375076293945
1780563857860990500,26.805990478515625,-7.087500095367432,-11.231250762939453,-43.01250076293945
1780563857880865000,26.825864990234376,-7.537500381469727,-11.25,-43.21875
1780563857900656600,26.84565673828125,-8.700000762939453,-11.86875057220459,-44.118751525878906
1780563857940703200,26.885703125,-9.15000057220459,-10.83750057220459,-43.16250228881836
1780563857960829400,26.905829345703125,-10.03125,-10.125,-41.41875076293945
1780563857981038800,26.926038818359373,-7.781250476837158,-10.443750381469727,-42.9375
1780563858001020200,26.946020263671876,-9.84375,-10.21875,-42.67500305175781
1780563858021024500,26.9660244140625,-12.093750953674316,-9.33750057220459,-41.53125
1780563858041021200,26.986021240234376,-11.268750190734863,-8.30625057220459,-43.087501525878906
1780563858061025500,27.006025634765624,-11.71875,-8.512500762939453,-43.3125
1780563858081022000,27.02602197265625,-11.418750762939453,-8.53125,-40.81875228881836
1780563858101018600,27.0460185546875,-11.418750762939453,-8.53125,-40.81875228881836
1780563858121023000,27.06602294921875,-11.418750762939453,-8.53125,-40.81875228881836
1780563858141019600,27.08601953125,-19.80000114440918,-2.6625001430511475,-40.72500228881836
1780563858161016300,27.106016357421876,-21.58125114440918,-1.350000023841858,-38.90625
1780563858181020400,27.1260205078125,-21.731250762939453,-1.1437500715255737,-36.16875076293945
1780563858201024800,27.146024658203125,-23.287500381469727,-2.4562501907348633,-35.88750076293945
1780563858221029000,27.166029052734373,-22.21875,-0.4125000238418579,-36.50625228881836
1780563858241033500,27.186033447265626,-21.337501525878906,1.1812500953674316,-35.71875
1780563858261030100,27.206030029296876,-23.775001525878906,1.3875000476837158,-33.16875076293945
1780563858281026800,27.22602685546875,-23.100000381469727,4.612500190734863,-30.95625114440918
1780563858301023200,27.246023193359374,-23.36250114440918,5.737500190734863,-31.23750114440918
1780563858321020000,27.26602001953125,-24.712501525878906,5.193750381469727,-31.087501525878906
1780563858341024300,27.286024169921873,-24.056251525878906,7.387500286102295,-29.812501907348633
1780563858361021000,27.30602099609375,-24.262500762939453,8.418750762939453,-28.856250762939453
1780563858381017600,27.326017578125,-26.73750114440918,7.706250190734863,-28.500001907348633
1780563858401021700,27.346021728515623,-29.45625114440918,7.387500286102295,-28.087501525878906
1780563858421018400,27.366018310546874,-29.92500114440918,9.206250190734863,-26.850000381469727
