time,seconds_elapsed,z,y,x
1780563831777798400,0.72279833984375,3.214050054550171,2.419950008392334,7.4599504470825195
1780563831787553000,0.732552978515625,3.1519501209259033,2.1850500106811523,7.474050521850586
1780563831807060500,0.752060546875,2.896050214767456,1.8690000772476196,7.53000020980835
1780563831826568700,0.771568603515625,2.4060001373291016,1.64205002784729,7.689000129699707
1780563831846084400,0.79108447265625,0.9550500512123108,1.5090000629425049,7.876950263977051
1780563831865604900,0.81060498046875,0.5470499992370605,1.4170501232147217,8.032050132751465
1780563831885123600,0.83012353515625,0.24195000529289246,1.26705002784729,8.067000389099121
1780563831904640300,0.84964013671875,0.5179499983787537,0.9949500560760498,7.831050395965576
1780563831924153900,0.86915380859375,2.584050178527832,0.48405003547668457,7.507050514221191
1780563831943667200,0.888667236328125,5.038950443267822,-1.024049997329712,7.335000514984131
1780563831963184600,0.9081845703125,6.933000564575195,-1.4329500198364258,7.348950386047363
1780563831982701600,0.92770166015625,7.285950183868408,-1.8480000495910645,7.489050388336182
1780563832002217000,0.947217041015625,7.252050399780273,-2.07705020904541,7.6459503173828125
1780563832021731300,0.9667314453125,6.829950332641602,-2.118000030517578,7.768950462341309
1780563832041245200,0.9862451171875,6.261000156402588,-2.098050117492676,7.923000335693359
1780563832060765200,1.00576513671875,4.792050361633301,-2.026050090789795,8.080050468444824
1780563832080292600,1.025292724609375,4.4920501708984375,-1.9150501489639282,8.166000366210938
1780563832099818800,1.04481884765625,4.156949996948242,-1.7920501232147217,8.154000282287598
1780563832119341300,1.06434130859375,4.014000415802002,-1.6710001230239868,8.002050399780273
1780563832138861800,1.08386181640625,4.0759501457214355,-1.6710001230239868,7.869000434875488
1780563832158387500,1.103387451171875,4.2619500160217285,-1.7910001277923584,7.777950286865234
1780563832177909500,1.122909423828125,4.486050128936768,-1.9729501008987427,7.723950386047363
1780563832197421000,1.142421142578125,4.729950428009033,-2.1250500679016113,7.744950294494629
1780563832216928800,1.1619287109375,5.140050411224365,-2.212050199508667,7.768050193786621
1780563832236444000,1.18144384765625,5.502000331878662,-2.260050058364868,7.803000450134277
1780563832255962400,1.20096240234375,5.550000190734863,-2.202000141143799,7.821000576019287
1780563832275473400,1.220473388671875,5.323050022125244,-2.0590500831604004,7.7659502029418945
1780563832294986500,1.239986572265625,5.032950401306152,-1.7770501375198364,7.64400053024292
1780563832314501000,1.259501220703125,4.459050178527832,-1.4329500198364258,7.570050239562988
1780563832334011400,1.279011474609375,4.04295015335083,-1.287000060081482,7.615950584411621
1780563832353527600,1.298527587890625,4.05495023727417,-1.3180500268936157,7.711050510406494
1780563832373052400,1.318052490234375,4.189050197601318,-1.4980500936508179,7.729050159454346
1780563832392576500,1.337576416015625,4.606950283050537,-1.752000093460083,7.698000431060791
1780563832412101000,1.35710107421875,4.933950424194336,-1.852950096130371,7.573050498962402
1780563832431624200,1.376624267578125,4.777950286865234,-1.8360000848770142,7.474050521850586
1780563832451145200,1.396145263671875,4.333950042724609,-1.831950068473816,7.5610504150390625
1780563832470665000,1.4156650390625,3.9840002059936523,-1.894950032234192,7.69605016708374
1780563832490183700,1.43518359375,4.003950119018555,-2.1090002059936523,7.813050270080566
1780563832509702400,1.454702392578125,4.314000129699707,-2.4180002212524414,7.870950222015381
1780563832529224200,1.47422412109375,4.635000228881836,-2.7690000534057617,7.8349504470825195
1780563832548749300,1.493749267578125,4.795950412750244,-3.1020002365112305,7.702950477600098
1780563832568268300,1.513268310546875,4.708950042724609,-3.258000135421753,7.561950206756592
1780563832587782100,1.5327822265625,4.318950176239014,-3.325050115585327,7.480050563812256
1780563832607301400,1.55230126953125,3.709050178527832,-3.3520500659942627,7.371000289916992
1780563832626822400,1.571822509765625,3.06000018119812,-3.4560000896453857,7.195950508117676
1780563832646339800,1.59133984375,2.632050037384033,-3.652050256729126,7.045950412750244
1780563832665854700,1.610854736328125,2.6989500522613525,-3.759000062942505,6.9940505027771
1780563832685367300,1.6303671875,3.223050117492676,-3.7129502296447754,7.018950462341309
1780563832704888600,1.649888671875,4.830000400543213,-3.4960501194000244,7.300050258636475
1780563832724413000,1.669412841796875,4.966050148010254,-3.2410502433776855,7.729950428009033
1780563832743929900,1.688929931640625,4.7059502601623535,-3.114000082015991,8.134050369262695
1780563832763446500,1.708446533203125,4.171050071716309,-3.1740002632141113,8.479050636291504
1780563832782960400,1.72796044921875,3.775050163269043,-3.2560501098632812,8.625
1780563832802472200,1.74747216796875,3.7009501457214355,-3.364950180053711,8.700000762939453
1780563832821992400,1.766992431640625,3.8970000743865967,-3.4870500564575195,8.743950843811035
1780563832841517800,1.786517822265625,4.225950241088867,-3.3330001831054688,8.812950134277344
1780563832861041400,1.80604150390625,4.408950328826904,-2.955000162124634,9.025050163269043
1780563832880567800,1.82556787109375,4.387950420379639,-1.276050090789795,9.19005012512207
1780563832900096800,1.8450966796875,4.1670002937316895,-0.9520500302314758,9.156000137329102
1780563832919623200,1.864623046875,3.829050064086914,-0.6540000438690186,8.817000389099121
1780563832939147800,1.884147705078125,3.384000062942505,-0.5410500168800354,7.023000240325928
1780563832958673200,1.903673095703125,2.9539501667022705,-0.7180500626564026,6.724950313568115
1780563832978199600,1.923199462890625,2.6430001258850098,-1.0489500761032104,6.460050106048584
1780563832997719600,1.942719482421875,2.3449501991271973,-1.4179500341415405,6.520050525665283
1780563833017234200,1.962234130859375,2.1889500617980957,-1.7850000858306885,6.8610005378723145
1780563833036744200,1.981744140625,2.30400013923645,-2.1310501098632812,7.237050533294678
1780563833056246500,2.00124658203125,2.6460001468658447,-2.5230000019073486,7.4410505294799805
1780563833075751400,2.02075146484375,3.040950059890747,-2.952000141143799,7.53795051574707
1780563833095263500,2.040263427734375,3.1440000534057617,-3.3480000495910645,7.678050518035889
1780563833114775800,2.05977587890625,2.760000228881836,-3.693000078201294,7.929000377655029
1780563833134288400,2.079288330078125,2.1100502014160156,-3.8419501781463623,8.256000518798828
1780563833153802800,2.098802734375,1.5319501161575317,-3.7849502563476562,8.563950538635254
1780563833173314300,2.118314208984375,1.1779500246047974,-3.66795015335083,8.781000137329102
1780563833192829400,2.137829345703125,0.9000000357627869,-3.457050085067749,8.8410005569458
1780563833212347100,2.15734716796875,0.6949500441551208,-3.498000144958496,8.740050315856934
1780563833231862500,2.176862548828125,0.8700000643730164,-3.697050094604492,8.646000862121582
1780563833251381200,2.19638134765625,1.4380500316619873,-3.802950143814087,8.443050384521484
1780563833270901000,2.21590087890625,2.8849501609802246,-3.9340500831604004,8.25195026397705
1780563833290421000,2.2354208984375,2.968950033187866,-3.9150002002716064,8.317950248718262
1780563833309940200,2.254940185546875,2.6020500659942627,-3.8740501403808594,8.439000129699707
1780563833329458700,2.274458740234375,1.1239500045776367,-4.009050369262695,8.605950355529785
1780563833348977400,2.293977294921875,0.9120000600814819,-4.177950382232666,8.772000312805176
1780563833368495600,2.31349560546875,0.8620500564575195,-4.2709503173828125,8.772000312805176
1780563833388018200,2.33301806640625,0.76500004529953,-4.3470001220703125,8.64900016784668
1780563833407543300,2.352543212890625,0.5140500068664551,-4.522050380706787,8.695950508117676
1780563833427066000,2.372066162109375,0.25394999980926514,-4.753950119018555,8.670000076293945
1780563833446589000,2.3915888671875,0.17400000989437103,-5.059950351715088,8.577000617980957
1780563833466112000,2.411112060546875,0.38700002431869507,-5.203050136566162,8.542950630187988
1780563833485627600,2.430627685546875,0.6310500502586365,-5.038950443267822,8.33595085144043
1780563833505144600,2.45014453125,0.42900002002716064,-4.743000030517578,8.109000205993652
1780563833524665000,2.4696650390625,-1.3590000867843628,-4.186950206756592,7.783050537109375
1780563833544182800,2.489182861328125,-1.6470000743865967,-2.6290500164031982,7.309050559997559
1780563833563700000,2.508699951171875,-2.056950092315674,-2.3149502277374268,6.759000301361084
1780563833583219500,2.528219482421875,-2.0500500202178955,-2.0059502124786377,6.259950160980225
1780563833602740200,2.547740234375,-1.5520501136779785,-2.064000129699707,5.977950096130371
1780563833622262800,2.5672626953125,0.022950001060962677,-2.565000057220459,5.887050151824951
1780563833641782800,2.58678271484375,1.9500000476837158,-4.0219502449035645,6.066000461578369
1780563833661297700,2.606297607421875,2.4000000953674316,-4.297950267791748,6.334050178527832
1780563833680815400,2.6258154296875,2.845050096511841,-4.420050144195557,6.529050350189209
1780563833700338000,2.645337890625,2.902050256729126,-4.237950325012207,6.741000175476074
1780563833719862300,2.6648623046875,2.725950241088867,-3.838050127029419,7.035000324249268
1780563833739380500,2.68438037109375,2.4439501762390137,-3.4270501136779785,7.285050392150879
1780563833758891300,2.703891357421875,2.187000036239624,-3.1549501419067383,7.564950466156006
1780563833778400800,2.72340087890625,2.1630001068115234,-3.1680002212524414,7.812000274658203
1780563833797918200,2.742918212890625,2.3650500774383545,-3.375000238418579,7.828050136566162
1780563833817441300,2.762441162109375,2.445000171661377,-3.6600000858306885,7.924050331115723
1780563833836962300,2.78196240234375,2.2890000343322754,-3.928950071334839,7.999950408935547
1780563833856484400,2.801484375,1.897050142288208,-4.266000270843506,8.017050743103027
1780563833876006400,2.82100634765625,0.13005000352859497,-4.656000137329102,8.08395004272461
1780563833895529000,2.840529052734375,-0.06495000422000885,-4.999050140380859,8.04900074005127
1780563833915052800,2.860052734375,-0.28095000982284546,-5.343000411987305,7.978050231933594
1780563833934576600,2.87957666015625,-0.6030000448226929,-5.5909504890441895,7.845000267028809
1780563833954096000,2.89909619140625,-0.9630000591278076,-5.6449503898620605,7.680000305175781
1780563833973613300,2.91861328125,-1.3840500116348267,-5.668950080871582,7.558950424194336
1780563833993133600,2.938133544921875,-1.7950501441955566,-5.758950233459473,7.527000427246094
1780563834012657400,2.957657470703125,-1.8130500316619873,-5.946000099182129,7.576050281524658
1780563834032184600,2.9771845703125,-1.675950050354004,-6.348000526428223,7.62000036239624
1780563834051707100,2.99670703125,-1.1440500020980835,-6.684000492095947,7.795050144195557
1780563834071220700,3.016220703125,-0.7230000495910645,-6.889050483703613,8.086050033569336
1780563834090729700,3.035729736328125,-0.6949500441551208,-6.930000305175781,8.484000205993652
1780563834110240300,3.055240234375,-0.9829500317573547,-6.886950492858887,9.039000511169434
1780563834129750500,3.07475048828125,-1.5540000200271606,-7.009950160980225,9.63900089263916
1780563834149261600,3.094261474609375,-1.6150500774383545,-7.231950283050537,10.176000595092773
1780563834168778000,3.113778076171875,-1.2550500631332397,-7.539000511169434,10.54800033569336
1780563834188301800,3.1333017578125,-0.7120500206947327,-8.008950233459473,10.468050956726074
1780563834207826700,3.15282666015625,-0.3040500283241272,-8.479050636291504,9.970050811767578
1780563834227346700,3.1723466796875,-0.15000000596046448,-8.824049949645996,9.37695026397705
1780563834246866700,3.19186669921875,-0.2050500065088272,-9.069000244140625,8.82194995880127
1780563834266389000,3.211388916015625,-0.5320500135421753,-9.1399507522583,8.403000831604004
1780563834285908700,3.23090869140625,-2.2420501708984375,-9.160950660705566,8.1670503616333
1780563834305432300,3.250432373046875,-2.6359500885009766,-9.076950073242188,7.993050575256348
1780563834324959200,3.269959228515625,-3.0520501136779785,-8.68695068359375,7.747950553894043
1780563834344483300,3.2894833984375,-3.5929501056671143,-7.003050327301025,7.630050182342529
1780563834364010500,3.309010498046875,-3.9600002765655518,-6.6820502281188965,7.567950248718262
1780563834383540000,3.3285400390625,-4.000050067901611,-6.075000286102295,7.276050567626953
1780563834403063800,3.348063720703125,-4.033950328826904,-5.545950412750244,7.152000427246094
1780563834422579700,3.367579833984375,-3.58305025100708,-5.061000347137451,7.200000286102295
1780563834442098200,3.38709814453125,-1.7200500965118408,-4.5859503746032715,7.303950309753418
1780563834461621500,3.40662158203125,0.2639999985694885,-4.223999977111816,7.593000411987305
1780563834481138200,3.42613818359375,2.2390501499176025,-3.9370501041412354,7.738950252532959
1780563834500655000,3.445655029296875,4.2330002784729,-3.6379501819610596,7.6020002365112305
1780563834520179500,3.465179443359375,4.497000217437744,-3.3070502281188965,7.423050403594971
1780563834539702000,3.484701904296875,4.668000221252441,-2.931000232696533,7.33905029296875
1780563834559220200,3.50422021484375,4.561950206756592,-2.5260000228881836,7.300950527191162
1780563834578740200,3.523740234375,4.23105001449585,-2.218950033187866,7.353000164031982
1780563834598260700,3.5432607421875,4.074000358581543,-2.1160500049591064,7.426050186157227
1780563834617782800,3.56278271484375,4.213950157165527,-2.2740001678466797,7.45395040512085
1780563834637303600,3.582303466796875,4.699050426483154,-2.63700008392334,7.527000427246094
1780563834656827100,3.6018271484375,6.451050281524658,-4.267050266265869,7.672050476074219
1780563834676355000,3.62135498046875,6.669000148773193,-4.573050022125244,7.825050354003906
1780563834695879400,3.64087939453125,6.87000036239624,-5.014050006866455,7.858950138092041
1780563834715403000,3.660403076171875,6.601950168609619,-5.373000144958496,7.843950271606445
1780563834734924000,3.679924072265625,4.795950412750244,-5.350050449371338,7.812000274658203
1780563834754446300,3.6994462890625,2.7229502201080322,-4.963050365447998,7.743000507354736
1780563834773976300,3.718976318359375,1.0260000228881836,-4.413000106811523,7.70205020904541
1780563834793507600,3.738507568359375,0.6169500350952148,-3.9529502391815186,7.698000431060791
1780563834813031400,3.758031494140625,0.31005001068115234,-3.81600022315979,7.720950603485107
1780563834832553500,3.777553466796875,0.1189500093460083,-3.95805025100708,7.759950160980225
1780563834852071000,3.79707080078125,-0.10005000233650208,-4.267050266265869,7.8100504875183105
1780563834871586300,3.81658642578125,-0.4350000321865082,-4.579950332641602,7.780050277709961
1780563834891110400,3.8361103515625,-0.781950056552887,-4.831050395965576,7.597050189971924
1780563834910635500,3.855635498046875,-1.0639500617980957,-5.062950134277344,7.309950351715088
1780563834930158000,3.875157958984375,-1.2580500841140747,-5.239950180053711,7.026000499725342
1780563834949678300,3.89467822265625,-1.4419500827789307,-5.3710503578186035,6.790950298309326
1780563834969196300,3.9141962890625,-1.612950086593628,-5.4910502433776855,6.645000457763672
1780563834988714500,3.933714599609375,-1.7149500846862793,-5.484000205993652,6.6499505043029785
1780563835008230100,3.953230224609375,-1.6410000324249268,-5.467050075531006,6.8020501136779785
1780563835027747300,3.972747314453125,-1.270050048828125,-5.520000457763672,7.0489501953125
1780563835047268000,3.99226806640625,-0.6630000472068787,-5.575050354003906,7.309050559997559
1780563835066790100,4.0117900390625,0.8440500497817993,-5.701050281524658,7.5319504737854
1780563835086310000,4.031309814453125,1.1830500364303589,-5.842950344085693,7.624950408935547
1780563835105826300,4.050826416015625,1.582050085067749,-5.872950077056885,7.65000057220459
1780563835125346600,4.0703466796875,1.9240500926971436,-5.820000171661377,7.663950443267822
1780563835144869000,4.089869140625,2.179949998855591,-5.7109503746032715,7.651050567626953
1780563835164390400,4.109390380859375,2.4469501972198486,-5.602050304412842,7.6620001792907715
1780563835183913700,4.128913818359375,2.734950065612793,-5.539950370788574,7.759950160980225
1780563835203437300,4.148437255859375,3.1270501613616943,-5.613000392913818,7.9710001945495605
1780563835222962700,4.167962646484375,3.712050199508667,-5.772000312805176,8.247000694274902
1780563835242491600,4.18749169921875,5.170050144195557,-5.926950454711914,8.451000213623047
1780563835262018600,4.2070185546875,5.293950080871582,-6.0319504737854,8.482950210571289
1780563835281542400,4.22654248046875,5.131050109863281,-5.920050144195557,8.367000579833984
1780563835301064200,4.246064208984375,4.630050182342529,-5.665050506591797,8.176050186157227
1780563835320583700,4.265583740234375,3.1630501747131348,-5.3110504150390625,7.969050407409668
1780563835340105500,4.28510546875,2.8000500202178955,-4.885950088500977,7.833000183105469
1780563835359628500,4.304628662109375,2.5129501819610596,-4.572000026702881,7.783050537109375
1780563835379152600,4.324152587890625,2.3770501613616943,-4.2460503578186035,7.713000297546387
1780563835398677200,4.34367724609375,2.0940001010894775,-3.9280502796173096,7.656000137329102
1780563835418200000,4.363199951171875,0.40095001459121704,-3.5850002765655518,7.521000385284424
1780563835437723600,4.3827236328125,-0.04005000367760658,-3.118950128555298,7.2109503746032715
1780563835457248500,4.40224853515625,-1.5490500926971436,-2.682000160217285,6.930000305175781
1780563835476771000,4.42177099609375,-1.527000069618225,-2.3809502124786377,6.789000511169434
1780563835496295400,4.44129541015625,0.13095000386238098,-2.293950080871582,6.784950256347656
1780563835515823000,4.460822998046875,0.4410000145435333,-2.4660000801086426,6.934950351715088
1780563835535349200,4.480349365234375,0.7540500164031982,-2.7490501403808594,7.027950286865234
1780563835554875400,4.49987548828125,0.6330000162124634,-2.940000057220459,6.916950225830078
1780563835574399700,4.519399658203125,0.04200000315904617,-2.9850001335144043,6.783000469207764
1780563835593915600,4.53891552734375,-1.3920000791549683,-2.82705020904541,6.682950496673584
1780563835613425400,4.55842529296875,-1.5580500364303589,-2.635050058364868,6.723000526428223
1780563835632937000,4.57793701171875,-1.6300500631332397,-2.5500001907348633,6.906000137329102
1780563835652454000,4.597453857421875,-1.3189500570297241,-2.584050178527832,7.1770501136779785
1780563835671975400,4.616975341796875,0.364050030708313,-2.7229502201080322,7.467000484466553
1780563835691503400,4.63650341796875,0.5920500159263611,-2.845050096511841,7.669950485229492
1780563835711028500,4.656028564453125,0.8940000534057617,-2.845950126647949,7.753950595855713
1780563835730550800,4.67555078125,1.0320000648498535,-2.7079501152038574,7.771050453186035
1780563835750080800,4.695080810546875,1.0639500617980957,-2.4529500007629395,7.82895040512085
1780563835769604900,4.71460498046875,1.2400500774383545,-2.1289501190185547,7.878000259399414
1780563835789124600,4.73412451171875,1.5510001182556152,-1.897050142288208,7.8510003089904785
1780563835808650000,4.75364990234375,1.9369500875473022,-1.6549500226974487,7.80495023727417
1780563835828180000,4.773179931640625,2.2320001125335693,-1.4080500602722168,7.891050338745117
1780563835847707600,4.792707763671875,2.4840002059936523,-1.1320500373840332,8.03700065612793
1780563835867233000,4.81223291015625,2.6200501918792725,-0.8670000433921814,8.22705078125
1780563835886763300,4.83176318359375,2.6490001678466797,-0.6799500584602356,8.437950134277344
1780563835906293500,4.85129345703125,2.7019500732421875,-0.5410500168800354,8.545050621032715
1780563835925820400,4.8708203125,2.77905011177063,-0.6270000338554382,8.485050201416016
1780563835945343700,4.89034375,3.0490500926971436,-0.7429500222206116,8.419950485229492
1780563835964865000,4.909864990234375,3.2530500888824463,-0.8089500665664673,8.421000480651855
1780563835984387000,4.929386962890625,3.4200000762939453,-0.9690000414848328,8.323050498962402
1780563836003910400,4.948910400390625,3.642000198364258,-1.024049997329712,8.229000091552734
1780563836023433500,4.96843359375,3.8310000896453857,-0.9109500646591187,8.23905086517334
1780563836042956000,4.9879560546875,3.9600002765655518,-0.8700000643730164,8.233050346374512
1780563836062480000,5.00747998046875,4.023000240325928,-0.8440500497817993,8.086950302124023
1780563836082006500,5.027006591796875,3.8580002784729004,-0.7780500650405884,7.9110002517700195
1780563836101534000,5.046533935546875,3.6319501399993896,-0.7729500532150269,7.773000240325928
1780563836121059600,5.0660595703125,3.592050075531006,-0.7999500632286072,7.639050483703613
1780563836140584700,5.085584716796875,3.721050262451172,-0.8350500464439392,7.582950592041016
1780563836160105000,5.10510498046875,4.050000190734863,-0.9070500135421753,7.62600040435791
1780563836179626800,5.124626708984375,4.4160003662109375,-1.0549499988555908,7.6110005378723145
1780563836199150300,5.144150390625,4.813050270080566,-1.2130500078201294,7.582050323486328
1780563836218675000,5.163675048828125,5.272950172424316,-1.2880500555038452,7.558950424194336
1780563836238205000,5.183204833984375,5.728050231933594,-1.3489500284194946,7.446000576019287
1780563836257734400,5.202734375,6.169950485229492,-1.4700000286102295,7.342950344085693
1780563836277263400,5.222263427734375,6.57105016708374,-1.6050000190734863,7.183950424194336
1780563836296789800,5.241789794921875,6.7920002937316895,-1.7310000658035278,7.062000274658203
1780563836316317200,5.261317138671875,6.822000503540039,-1.974000096321106,7.123050212860107
1780563836335841000,5.280841064453125,6.87000036239624,-2.244000196456909,7.105950355529785
1780563836355359700,5.30035986328125,6.8959503173828125,-2.4750001430511475,6.9150004386901855
1780563836374882600,5.319882568359375,7.045950412750244,-2.697000026702881,6.838050365447998
1780563836394404400,5.339404296875,7.209000110626221,-2.991000175476074,6.9150004386901855
1780563836413924900,5.3589248046875,7.369950294494629,-3.265050172805786,6.96405029296875
1780563836433446400,5.3784462890625,7.635000228881836,-3.4900500774383545,7.1010003089904785
1780563836452966000,5.3979658203125,7.981050491333008,-3.7830002307891846,7.086000442504883
1780563836472490800,5.41749072265625,8.410050392150879,-3.9690001010894775,6.867000102996826
1780563836492016600,5.4370166015625,8.766000747680664,-4.102950096130371,6.826050281524658
1780563836511540500,5.45654052734375,9.093000411987305,-4.159950256347656,6.835050106048584
1780563836531066000,5.476066162109375,9.270000457763672,-4.120050430297852,6.8020501136779785
1780563836550591700,5.495591796875,9.348000526428223,-3.994950294494629,6.655950546264648
1780563836570117000,5.5151171875,9.486000061035156,-3.8800501823425293,6.384000301361084
1780563836589645000,5.53464501953125,9.589950561523438,-3.8749501705169678,6.057000160217285
1780563836609172200,5.554172119140625,9.735000610351562,-3.933000087738037,5.715000152587891
1780563836628699000,5.573698974609375,9.841950416564941,-3.961050271987915,5.410050392150879
1780563836648224000,5.59322412109375,9.781949996948242,-3.9760501384735107,5.103000164031982
1780563836667743200,5.6127431640625,9.730950355529785,-4.003950119018555,4.8259501457214355
1780563836687258600,5.632258544921875,9.705000877380371,-3.967050075531006,4.534049987792969
1780563836706781200,5.65178125,9.748950004577637,-3.954000234603882,4.33905029296875
1780563836726304800,5.6713046875,9.877950668334961,-3.9210002422332764,4.2430500984191895
1780563836745829600,5.69082958984375,9.9660005569458,-3.8460001945495605,4.183950424194336
1780563836765356000,5.71035595703125,9.972000122070312,-3.807000160217285,4.258950233459473
1780563836784881000,5.729880859375,9.87405014038086,-3.8299500942230225,4.345950126647949
1780563836804407300,5.7494072265625,9.772950172424316,-3.825000286102295,4.44195032119751
1780563836823929300,5.768929443359375,9.712050437927246,-3.8149502277374268,4.603050231933594
1780563836843452400,5.788452392578125,9.624000549316406,-3.873000144958496,4.777050018310547
1780563836862978300,5.807978271484375,9.481950759887695,-3.9600002765655518,4.948950290679932
1780563836882509000,5.827509033203125,9.43695068359375,-3.9340500831604004,5.224050045013428
1780563836902041900,5.847041748046875,9.276000022888184,-3.807000160217285,5.698950290679932
1780563836921568000,5.866568115234375,9.016950607299805,-3.696000099182129,7.3660502433776855
1780563836941090600,5.886090576171875,8.904000282287598,-3.6000001430511475,7.780050277709961
1780563836960612900,5.90561279296875,8.82194995880127,-3.514050245285034,8.188050270080566
1780563836980137200,5.92513720703125,8.86305046081543,-3.4200000762939453,8.278050422668457
1780563836999660500,5.94466064453125,8.893950462341309,-3.2530500888824463,8.065950393676758
1780563837019179300,5.96417919921875,8.610000610351562,-3.009000062942505,7.557000160217285
1780563837038702600,5.98370263671875,8.095050811767578,-2.7580502033233643,6.985950469970703
1780563837058225700,6.0032255859375,6.528000354766846,-2.5279500484466553,6.5460004806518555
1780563837077747700,6.022747802734375,6.1120500564575195,-2.142000198364258,6.133050441741943
1780563837097273000,6.042273193359375,5.883000373840332,-1.7100000381469727,5.683050155639648
1780563837116795600,6.061795654296875,5.767050266265869,-1.3060500621795654,5.5159502029418945
1780563837136315000,6.08131494140625,5.737950325012207,-0.9810000658035278,5.544000148773193
1780563837155831300,6.100831298828125,5.809950351715088,-0.7990500330924988,5.503950119018555
1780563837175345700,6.120345703125,5.7300004959106445,-0.8149500489234924,5.608950138092041
1780563837194861800,6.13986181640625,5.392050266265869,-1.0360500812530518,5.967000484466553
1780563837214379300,6.159379150390625,5.041050434112549,-1.1809500455856323,6.276000499725342
1780563837233895400,6.1788955078125,4.565999984741211,-1.2859500646591187,6.4960503578186035
1780563837253410600,6.19841064453125,3.0510001182556152,-1.4470500946044922,6.877050399780273
1780563837272931600,6.217931640625,2.830050230026245,-1.4590500593185425,7.1670002937316895
1780563837292455700,6.23745556640625,2.7300000190734863,-1.4220000505447388,7.420950412750244
1780563837311975400,6.256975341796875,2.725950241088867,-1.5150001049041748,7.803000450134277
1780563837331494100,6.276494140625,2.7660000324249268,-1.6090500354766846,7.975050449371338
1780563837351015200,6.29601513671875,2.808000087738037,-1.5220500230789185,7.933050155639648
1780563837370535200,6.31553515625,2.728950023651123,-1.4500501155853271,7.7749505043029785
1780563837390057000,6.335056884765625,2.6509501934051514,-1.384950041770935,7.815000534057617
1780563837409579300,6.354579345703125,2.7529501914978027,-1.125,7.788000583648682
1780563837429099300,6.374099365234375,2.8159501552581787,-0.9289500713348389,7.669950485229492
1780563837448621800,6.393621826171875,2.7910501956939697,-0.8190000653266907,7.600050449371338
1780563837468147500,6.4131474609375,2.7960002422332764,-0.673050045967102,7.711050510406494
1780563837487671300,6.43267138671875,2.9629502296447754,-0.5700000524520874,8.029050827026367
1780563837507188000,6.45218798828125,3.2119500637054443,-0.5269500017166138,8.353950500488281
1780563837526701600,6.47170166015625,3.3930001258850098,-0.5239500403404236,8.830050468444824
1780563837546215400,6.49121533203125,3.334050178527832,-0.5610000491142273,9.21405029296875
1780563837565732400,6.510732421875,3.1909501552581787,-0.5910000205039978,9.367050170898438
1780563837585252600,6.530252685546875,3.049950122833252,-0.6720000505447388,9.34695053100586
1780563837604770600,6.5497705078125,2.8219501972198486,-0.820050060749054,9.265950202941895
1780563837624287500,6.56928759765625,2.7679500579833984,-0.9900000691413879,9.148950576782227
1780563837643805700,6.5888056640625,2.8429501056671143,-1.2079501152038574,9.027000427246094
1780563837663325700,6.60832568359375,2.968950033187866,-1.4520000219345093,8.914950370788574
1780563837682849800,6.627849853515625,3.0580501556396484,-1.8000000715255737,8.617950439453125
1780563837702375400,6.64737548828125,3.063000202178955,-2.2129499912261963,8.203949928283691
1780563837721896400,6.666896484375,2.986950159072876,-2.518050193786621,7.82295036315918
1780563837741415000,6.686414794921875,2.6899502277374268,-2.794950246810913,7.561950206756592
1780563837760934700,6.7059345703125,2.4370501041412354,-2.8759500980377197,7.371000289916992
1780563837780453400,6.725453369140625,2.0689501762390137,-2.83305025100708,7.32705020904541
1780563837799974100,6.74497412109375,1.5319501161575317,-2.7870001792907715,7.44795036315918
1780563837819497000,6.7644970703125,1.1759999990463257,-2.737950086593628,7.618050575256348
1780563837839013400,6.784013427734375,1.024049997329712,-2.788950204849243,7.79295015335083
1780563837858527000,6.80352685546875,1.0830000638961792,-2.8120501041412354,7.878000259399414
1780563837878045400,6.82304541015625,1.144950032234192,-2.7850501537323,7.884000301361084
1780563837897567500,6.8425673828125,0.9790500402450562,-2.7810001373291016,7.863000392913818
1780563837917086500,6.86208642578125,0.5959500074386597,-2.7739500999450684,7.908000469207764
1780563837936608000,6.88160791015625,0.1860000044107437,-2.6989500522613525,7.890000343322754
1780563837956127500,6.90112744140625,-0.08295000344514847,-2.656050205230713,7.849050521850586
1780563837975644400,6.92064453125,-0.17100000381469727,-2.677950143814087,7.864950180053711
1780563837995166000,6.940166015625,-0.14100000262260437,-2.791950225830078,7.91895055770874
1780563838014684200,6.95968408203125,-0.07695000618696213,-3.1300501823425293,8.0110502243042
1780563838034200600,6.97920068359375,0.05205000191926956,-3.6739501953125,8.098950386047363
1780563838053722600,6.99872265625,0.2460000067949295,-4.264950275421143,8.155050277709961
1780563838073243400,7.018243408203125,0.4549500346183777,-4.7820000648498535,8.100000381469727
1780563838092759600,7.037759521484375,0.5629500150680542,-5.125050067901611,8.020950317382812
1780563838112279600,7.057279541015625,0.5149500370025635,-5.259000301361084,7.951950550079346
1780563838131801000,7.076801025390625,0.37095001339912415,-5.245050430297852,7.879050254821777
1780563838151322400,7.096322265625,0.26205000281333923,-5.1739501953125,7.854000568389893
1780563838170848000,7.115847900390625,0.24105000495910645,-5.0970001220703125,7.845000267028809
1780563838190370800,7.135370849609375,0.3840000033378601,-5.005950450897217,7.858050346374512
1780563838209893600,7.1548935546875,0.6379500031471252,-4.947000026702881,7.878000259399414
1780563838229414400,7.174414306640625,0.8580000400543213,-4.804050445556641,7.882050514221191
1780563838248934400,7.193934326171875,1.0060499906539917,-4.5859503746032715,7.902000427246094
1780563838268460000,7.2134599609375,1.0840500593185425,-4.32705020904541,7.909950256347656
1780563838287982300,7.232982421875,1.1869500875473022,-4.062000274658203,7.923000335693359
1780563838307503600,7.252503662109375,1.371000051498413,-3.8110501766204834,7.91895055770874
1780563838327025000,7.27202490234375,1.6519501209259033,-3.613950252532959,7.908000469207764
1780563838346544600,7.291544677734375,1.9150501489639282,-3.4930500984191895,7.884000301361084
1780563838366065700,7.311065673828125,2.1190500259399414,-3.376950263977051,7.897050380706787
1780563838385589200,7.33058935546875,2.311950206756592,-3.3100502490997314,7.92495059967041
1780563838405113300,7.35011328125,2.371950149536133,-3.2659502029418945,7.921050548553467
1780563838424637200,7.36963720703125,2.2960500717163086,-3.2430002689361572,7.9009504318237305
1780563838444161000,7.3891611328125,2.1540000438690186,-3.3379502296447754,7.7500505447387695
1780563838463683300,7.408683349609375,1.960050106048584,-3.4420502185821533,7.5199503898620605
1780563838483196400,7.428196533203125,1.7310000658035278,-3.4870500564575195,7.369950294494629
1780563838502707200,7.447707275390625,1.6170001029968262,-3.4990501403808594,7.387050151824951
1780563838522224000,7.46722412109375,1.5810000896453857,-3.373950242996216,7.551000595092773
1780563838541747200,7.486747314453125,1.5520501136779785,-3.2440502643585205,7.798050403594971
1780563838561270500,7.5062705078125,1.5619500875473022,-3.1270501613616943,7.924050331115723
1780563838580794000,7.525794189453125,1.4269500970840454,-3.01200008392334,7.846950531005859
1780563838600317200,7.545317138671875,1.180050015449524,-2.9419500827789307,7.71405029296875
1780563838619838200,7.564838134765625,0.8989500403404236,-2.8980002403259277,7.5319504737854
1780563838639358500,7.5843583984375,0.690000057220459,-2.940000057220459,7.419000148773193
1780563838658880000,7.6038798828125,0.6760500073432922,-2.952000141143799,7.300050258636475
1780563838678403000,7.623403076171875,0.6910500526428223,-2.968050241470337,7.165050506591797
1780563838697924900,7.6429248046875,0.675000011920929,-3.040950059890747,7.111050128936768
1780563838717447400,7.662447509765625,0.6499500274658203,-3.118950128555298,7.081050395965576
1780563838736971000,7.681970947265625,0.6340500116348267,-3.232950210571289,7.16295051574707
1780563838756496600,7.70149658203125,0.6600000262260437,-3.3169500827789307,7.2109503746032715
1780563838776022000,7.72102197265625,0.6460500359535217,-3.289950132369995,7.215000152587891
1780563838795545300,7.74054541015625,0.6340500116348267,-3.2410502433776855,7.387950420379639
1780563838815069400,7.7600693359375,0.7189500331878662,-3.1180500984191895,7.507050514221191
1780563838834594600,7.779594482421875,0.7890000343322754,-2.8759500980377197,7.624050140380859
1780563838854117000,7.7991171875,0.8290500640869141,-2.6710500717163086,7.91895055770874
1780563838873637600,7.8186376953125,0.8740500211715698,-2.4619500637054443,8.035050392150879
1780563838893158700,7.83815869140625,0.9420000314712524,-2.221950054168701,7.948050498962402
1780563838912683800,7.857683837890625,1.0200001001358032,-2.01104998588562,7.807950496673584
1780563838932210700,7.877210693359375,1.1830500364303589,-1.8049501180648804,7.629000186920166
1780563838951732200,7.896732177734375,1.3699500560760498,-1.6909500360488892,7.5450005531311035
1780563838971254300,7.916254150390625,1.5289500951766968,-1.6110000610351562,7.615950584411621
1780563838990776600,7.935776611328125,1.7440500259399414,-1.6900501251220703,7.885050296783447
1780563839010298000,7.955298095703125,2.0410501956939697,-1.8540000915527344,8.173049926757812
1780563839029825800,7.97482568359375,2.5000500679016113,-1.91100013256073,8.34000015258789
1780563839049350400,7.994350341796875,2.950050115585327,-2.0220000743865967,8.451000213623047
1780563839068873200,8.013873291015624,3.3540000915527344,-2.110949993133545,8.559000015258789
1780563839088398300,8.0333984375,3.7230002880096436,-2.133000135421753,8.604000091552734
1780563839107923700,8.052923828125,3.985950231552124,-2.1040501594543457,8.638050079345703
1780563839127451400,8.072451416015625,4.192950248718262,-2.1310501098632812,8.728950500488281
1780563839146978600,8.091978515625,4.231950283050537,-2.205000162124634,8.716050148010254
1780563839166503000,8.1115029296875,4.204050064086914,-2.2350001335144043,8.677950859069824
1780563839186024000,8.13102392578125,4.111050128936768,-2.3449501991271973,8.719050407409668
1780563839205543000,8.15054296875,4.0980000495910645,-2.427000045776367,8.71500015258789
1780563839225064400,8.170064453125,4.219950199127197,-2.413950204849243,8.640000343322754
1780563839244583000,8.1895830078125,4.494000434875488,-2.335050106048584,8.437950134277344
1780563839264101600,8.2091015625,4.8480000495910645,-2.245950222015381,8.236050605773926
1780563839283626200,8.228626220703125,5.1220502853393555,-2.124000072479248,8.190000534057617
1780563839303147300,8.248147216796875,5.397000312805176,-2.0280001163482666,8.224050521850586
1780563839322665000,8.2676650390625,5.553000450134277,-2.053950071334839,8.212950706481934
1780563839342184200,8.28718408203125,5.593950271606445,-2.0809500217437744,8.0110502243042
1780563839361700000,8.3067001953125,5.416950225830078,-2.1630001068115234,7.684050559997559
1780563839381213200,8.326213134765625,5.211000442504883,-2.2510499954223633,7.366950511932373
1780563839400731600,8.345731689453125,5.046000003814697,-2.4439501762390137,7.102950572967529
1780563839420249600,8.36524951171875,4.984050273895264,-2.6100001335144043,6.730950355529785
1780563839439766500,8.3847666015625,5.199000358581543,-2.7799501419067383,6.288000106811523
1780563839459288600,8.40428857421875,5.644050121307373,-3.0550501346588135,5.86305046081543
1780563839478810000,8.42381005859375,6.196950435638428,-3.3379502296447754,5.509950160980225
1780563839498327800,8.443327880859375,6.759000301361084,-3.744000196456909,5.26800012588501
1780563839517849000,8.46284912109375,7.237050533294678,-4.204050064086914,5.076000213623047
1780563839537373700,8.482373779296875,7.576950550079346,-4.660950183868408,4.869000434875488
1780563839556895000,8.50189501953125,7.845000267028809,-5.038050174713135,4.578000068664551
1780563839576416300,8.521416259765624,8.067000389099121,-5.263950347900391,4.338000297546387
1780563839595939600,8.540939697265625,8.398050308227539,-5.392950057983398,4.165050029754639
1780563839615458000,8.5604580078125,8.847000122070312,-5.461950302124023,4.129950046539307
1780563839634974200,8.57997412109375,9.214950561523438,-5.37000036239624,4.122000217437744
1780563839654493400,8.599493408203125,9.475950241088867,-5.269050121307373,4.222949981689453
1780563839674014500,8.619014404296875,9.445950508117676,-5.161050319671631,4.2870001792907715
1780563839693534200,8.6385341796875,9.307950019836426,-5.020050048828125,4.129950046539307
1780563839713052200,8.65805224609375,9.270000457763672,-4.984050273895264,4.027950286865234
1780563839732571000,8.67757080078125,9.355950355529785,-4.953000068664551,3.8359501361846924
1780563839752091000,8.6970908203125,9.56505012512207,-4.972050189971924,3.6529502868652344
1780563839771610600,8.716610595703125,9.667950630187988,-4.978950023651123,3.5190000534057617
1780563839791128300,8.73612841796875,9.697050094604492,-4.951050281524658,3.38700008392334
1780563839810642400,8.755642333984374,9.670950889587402,-4.947000026702881,3.3100502490997314
1780563839830156000,8.775156005859374,9.661050796508789,-4.9110002517700195,3.2130000591278076
1780563839849671000,8.7946708984375,9.73905086517334,-4.885050296783447,3.0580501556396484
1780563839869185000,8.81418505859375,9.862950325012207,-4.882050037384033,2.905050039291382
1780563839888703700,8.833703857421876,9.985050201416016,-4.891050338745117,2.7960002422332764
1780563839908227000,8.85322705078125,10.092000007629395,-4.927950382232666,2.9110500812530518
1780563839927748900,8.872748779296876,10.189950942993164,-4.930050373077393,3.201000213623047
1780563839947272000,8.89227197265625,10.218000411987305,-4.909950256347656,3.484950065612793
1780563839966792400,8.91179248046875,10.177950859069824,-4.888050079345703,3.715050220489502
1780563839986310100,8.93131005859375,10.021950721740723,-4.921050071716309,3.9280502796173096
1780563840005829600,8.95082958984375,9.81705093383789,-5.034000396728516,4.1509504318237305
1780563840025349400,8.970349365234375,9.718050003051758,-5.085000038146973,4.39394998550415
1780563840044867800,8.989867919921876,9.586050033569336,-4.966950416564941,4.7029500007629395
1780563840064388900,9.009388916015626,9.3589506149292,-4.777950286865234,4.924950122833252
1780563840083910700,9.02891064453125,8.866050720214844,-4.510950088500977,5.07105016708374
1780563840103426300,9.04842626953125,8.224950790405273,-4.3660502433776855,5.134950160980225
1780563840122943200,9.067943115234375,7.657950401306152,-4.461000442504883,5.142000198364258
1780563840142465500,9.087465576171875,7.360050201416016,-4.513950347900391,5.073000431060791
1780563840161989000,9.106989013671875,7.330050468444824,-4.495050430297852,4.965000152587891
1780563840181513000,9.126512939453125,7.186950206756592,-4.405050277709961,4.9009504318237305
1780563840201035300,9.14603515625,6.979950428009033,-4.15500020980835,4.9360504150390625
1780563840220556000,9.16555615234375,6.717000484466553,-3.873000144958496,5.050950050354004
1780563840240076300,9.185076171875,6.508050441741943,-3.5910000801086426,5.191050052642822
1780563840259596300,9.20459619140625,6.598950386047363,-3.325050115585327,5.322000026702881
1780563840279117000,9.224116943359375,6.831000328063965,-3.204000234603882,5.449050426483154
1780563840298638600,9.243638671875,7.104000568389893,-3.2089500427246094,5.820000171661377
1780563840318163000,9.263162841796875,7.32105016708374,-3.29295015335083,6.262050151824951
1780563840337683700,9.28268359375,7.285050392150879,-3.3040502071380615,6.660000324249268
1780563840357201200,9.302201171875,6.838950157165527,-3.2320501804351807,7.051950454711914
1780563840376724500,9.321724365234376,5.16795015335083,-3.1939501762390137,7.234950542449951
1780563840396245200,9.341245361328125,4.8949503898620605,-3.1020002365112305,7.288950443267822
1780563840415762400,9.360762451171874,4.390050411224365,-3.0270001888275146,7.402050495147705
1780563840435282400,9.380282470703126,3.928950071334839,-2.8660502433776855,7.4659504890441895
1780563840454801400,9.399801513671875,3.5190000534057617,-2.628000020980835,7.3999505043029785
1780563840474321000,9.41932080078125,3.0430500507354736,-2.514000177383423,7.4350504875183105
1780563840493846800,9.4388466796875,2.7019500732421875,-2.382000207901001,7.392000198364258
1780563840513371100,9.45837109375,2.5320000648498535,-2.2609500885009766,7.31505012512207
1780563840532891400,9.477891357421875,2.308950185775757,-2.095050096511841,7.387050151824951
1780563840552409000,9.4974091796875,2.1700501441955566,-1.9339500665664673,7.498050212860107
1780563840571928800,9.5169287109375,2.0530500411987305,-1.821000099182129,7.653000354766846
1780563840591449000,9.536448974609375,2.004000186920166,-1.7170500755310059,7.819050312042236
1780563840610973200,9.55597314453125,2.0440499782562256,-1.6150500774383545,7.909050464630127
1780563840630499300,9.575499267578126,2.0310001373291016,-1.5360000133514404,7.966050148010254
1780563840650020400,9.595020263671875,2.014050006866455,-1.549950122833252,8.011950492858887
1780563840669541400,9.614541259765625,2.01104998588562,-1.6309500932693481,7.930050373077393
1780563840689060400,9.634060302734374,2.0350501537323,-1.7620500326156616,7.8349504470825195
1780563840708574000,9.653573974609374,2.182950019836426,-1.8570001125335693,7.813950538635254
1780563840728084700,9.673084716796875,2.281050205230713,-1.8790501356124878,7.872000217437744
1780563840747598600,9.6925986328125,2.3140501976013184,-1.8660000562667847,8.038949966430664
1780563840767112400,9.712112548828125,2.2039501667022705,-1.8690000772476196,8.266050338745117
1780563840786626600,9.73162646484375,2.067000150680542,-1.8690000772476196,8.493000030517578
1780563840806142200,9.75114208984375,1.9639500379562378,-1.8019500970840454,8.657999992370605
1780563840825663200,9.770663330078126,1.8349500894546509,-1.7779500484466553,8.835000038146973
1780563840845184800,9.790184814453125,1.738050103187561,-1.76295006275177,9.072000503540039
1780563840864696600,9.809696533203125,1.749000072479248,-1.7269500494003296,9.181950569152832
1780563840884206000,9.8292060546875,1.7940000295639038,-1.7680500745773315,9.259950637817383
1780563840903725300,9.848725341796875,1.6270500421524048,-1.9140000343322754,9.340950012207031
1780563840923249000,9.868248779296875,1.240950107574463,-2.07705020904541,9.451050758361816
1780563840942771200,9.887771240234375,0.7849500179290771,-2.241000175476074,9.594000816345215
1780563840962292500,9.90729248046875,0.5389500260353088,-2.4340500831604004,9.700050354003906
1780563840981816000,9.926816162109375,0.6400500535964966,-2.54295015335083,9.583050727844238
1780563841001338400,9.94633837890625,0.9490500688552856,-2.5890002250671387,9.256050109863281
1780563841020855600,9.96585546875,1.1040000915527344,-2.719050168991089,8.93595027923584
1780563841040371200,9.98537109375,0.9100500345230103,-2.854950189590454,8.682000160217285
1780563841059888400,10.004888427734375,0.5850000381469727,-2.980950117111206,8.604000091552734
1780563841079408600,10.02440869140625,0.38805001974105835,-3.1369502544403076,8.619000434875488
1780563841098928400,10.043928466796874,0.34005001187324524,-3.1270501613616943,8.607000350952148
1780563841118449400,10.063449462890626,0.322050005197525,-3.082050085067749,8.602950096130371
1780563841137971500,10.082971435546876,0.1870500147342682,-3.0420000553131104,8.568000793457031
1780563841157495800,10.102495849609374,-0.17205001413822174,-2.9059500694274902,8.529000282287598
1780563841177020400,10.1220205078125,-0.6370500326156616,-2.860950231552124,8.542950630187988
1780563841196542200,10.141542236328124,-0.9600000381469727,-2.836050033569336,8.580000877380371
1780563841216060700,10.161060791015625,-0.9709500670433044,-2.794950246810913,8.695950508117676
1780563841235578000,10.180578125,-0.7429500222206116,-2.823000192642212,8.736000061035156
1780563841255099000,10.200098876953126,-0.5089499950408936,-2.8789501190185547,8.677050590515137
1780563841274617900,10.219617919921875,-0.3769500255584717,-3.025050163269043,8.68005084991455
1780563841294136600,10.239136474609374,-0.34095001220703125,-3.280050039291382,8.674050331115723
1780563841313653500,10.258653564453125,-0.25005000829696655,-3.595950126647949,8.657999992370605
1780563841333167600,10.278167724609375,-0.07500000298023224,-3.8740501403808594,8.659049987792969
1780563841352684000,10.29768408203125,0.04905000329017639,-4.090950012207031,8.622000694274902
1780563841372202800,10.31720263671875,0.09405000507831573,-4.300950050354004,8.545050621032715
1780563841391723800,10.336723876953124,0.15105000138282776,-4.4730000495910645,8.47095012664795
1780563841411246800,10.356246826171875,0.29295000433921814,-4.606950283050537,8.281050682067871
1780563841430769000,10.375768798828124,0.3750000298023224,-4.720950126647949,7.942050457000732
1780563841450288000,10.3952880859375,0.3349500298500061,-4.767000198364258,7.630950450897217
1780563841469807400,10.414807373046875,0.17595000565052032,-4.695000171661377,7.354050159454346
1780563841489323800,10.43432373046875,0.013050000183284283,-4.597050189971924,7.198950290679932
1780563841508841000,10.453841064453124,0.028950002044439316,-4.491000175476074,7.158000469207764
1780563841528362800,10.47336279296875,0.16995000839233398,-4.384050369262695,7.045050144195557
1780563841547884000,10.492884033203126,0.30000001192092896,-4.438050270080566,6.8710503578186035
1780563841567406000,10.512406005859376,0.40905001759529114,-4.5520501136779785,6.682950496673584
1780563841586926000,10.531926025390625,0.4710000157356262,-4.6180500984191895,6.531000137329102
1780563841606444800,10.55144482421875,0.47700002789497375,-4.654950141906738,6.544050216674805
1780563841625967000,10.570967041015624,0.46995002031326294,-4.6020002365112305,6.678000450134277
1780563841645486600,10.590486572265625,0.49500003457069397,-4.528050422668457,6.8520002365112305
1780563841665005300,10.61000537109375,0.6070500016212463,-4.44195032119751,7.024050235748291
1780563841684527000,10.629527099609374,0.6970500349998474,-4.3560004234313965,7.159050464630127
1780563841704047400,10.64904736328125,0.7540500164031982,-4.282050132751465,7.332000255584717
1780563841723567900,10.66856787109375,0.7320000529289246,-4.171050071716309,7.522050380706787
1780563841743091700,10.688091796875,0.703950047492981,-4.059000015258789,7.65000057220459
1780563841762612200,10.7076123046875,0.7129500508308411,-3.9060001373291016,7.7440505027771
1780563841782128400,10.72712841796875,0.7279500365257263,-3.697050094604492,7.783050537109375
1780563841801649200,10.746649169921875,0.7440000176429749,-3.4669501781463623,7.807950496673584
1780563841821169700,10.766169677734375,0.778950035572052,-3.3520500659942627,7.912050247192383
1780563841840688600,10.785688720703124,0.8689500689506531,-3.265050172805786,7.984950542449951
1780563841860207900,10.805207763671875,0.9979500770568848,-3.1060502529144287,7.861950397491455
1780563841879723500,10.8247236328125,1.002000093460083,-2.8189501762390137,7.528950214385986
1780563841899244500,10.84424462890625,0.690000057220459,-2.388000011444092,7.07205057144165
1780563841918772200,10.863772216796875,0.18300001323223114,-2.064000129699707,6.616950511932373
1780563841938292000,10.8832919921875,-0.31995001435279846,-1.9950001239776611,6.277050495147705
1780563841957807600,10.9028076171875,-0.5779500007629395,-2.247000217437744,6.151950359344482
1780563841977325600,10.92232568359375,-0.27195000648498535,-2.6329500675201416,6.135000228881836
1780563841996843000,10.941843017578124,1.2850500345230103,-2.868000030517578,6.142950057983398
1780563842016360400,10.9613603515625,1.6429500579833984,-2.9629502296447754,6.285000324249268
1780563842035876900,10.980876953125,1.7569501399993896,-2.977950096130371,6.598050117492676
1780563842055394600,11.00039453125,1.5250500440597534,-2.940000057220459,7.026000499725342
1780563842074915600,11.01991552734375,1.1509500741958618,-2.8849501609802246,7.4569501876831055
1780563842094439200,11.039439208984374,0.8740500211715698,-2.760000228881836,7.82295036315918
1780563842113964000,11.058964111328125,0.8730000257492065,-2.5920000076293945,8.098050117492676
1780563842133487400,11.0784873046875,0.9790500402450562,-2.434950113296509,8.304000854492188
1780563842153008600,11.098008544921875,1.1820000410079956,-2.278050184249878,8.533950805664062
1780563842172533500,11.117533447265625,1.4440500736236572,-2.2290000915527344,8.746950149536133
1780563842192059600,11.1370595703125,1.7329500913619995,-2.1780002117156982,8.70300006866455
1780563842211583700,11.156583740234375,1.968000054359436,-1.974000096321106,8.517000198364258
1780563842231108600,11.176108642578125,2.1030001640319824,-1.8550500869750977,8.559000015258789
1780563842250632000,11.1956318359375,2.3299500942230225,-1.6630500555038452,8.56605052947998
1780563842270152000,11.21515185546875,2.704050064086914,-1.371000051498413,8.55405044555664
1780563842289674000,11.234674072265625,3.207000255584717,-1.1430000066757202,8.550000190734863
1780563842309198800,11.25419873046875,3.573000192642212,-0.8740500211715698,8.449049949645996
1780563842328721700,11.2737216796875,3.8650500774383545,-0.6919500231742859,8.269050598144531
1780563842348244500,11.293244384765625,4.165950298309326,-0.5860500335693359,7.908000469207764
1780563842367765800,11.312765869140625,4.3909502029418945,-0.5539500117301941,7.519050121307373
1780563842387288300,11.332288330078125,4.660950183868408,-0.5820000171661377,7.128000259399414
1780563842406809300,11.351809326171875,4.939050197601318,-0.6640500426292419,6.8610005378723145
1780563842426327800,11.371327880859376,5.238000392913818,-0.8719500303268433,6.832950115203857
1780563842445851400,11.390851318359376,5.707050323486328,-1.002000093460083,6.832950115203857
1780563842465379600,11.410379638671875,6.204000473022461,-1.1340000629425049,6.723000526428223
1780563842484906500,11.429906494140624,6.61305046081543,-1.2780001163482666,6.670050144195557
1780563842504424700,11.4494248046875,6.874050140380859,-1.38795006275177,6.7819504737854
1780563842523945500,11.468945556640625,7.07205057144165,-1.6140000820159912,6.871950149536133
1780563842543470300,11.48847021484375,7.320000171661377,-1.8199501037597656,6.837000370025635
1780563842562992400,11.507992431640625,7.495950222015381,-1.9900500774383545,6.712950229644775
1780563842582515500,11.527515380859375,7.510050296783447,-2.2200000286102295,6.642000198364258
1780563842602039000,11.5470390625,7.486050128936768,-2.4370501041412354,6.751950263977051
1780563842621560300,11.566560302734375,7.498050212860107,-2.628000020980835,6.8959503173828125
1780563842641078800,11.586078857421874,7.5319504737854,-2.8159501552581787,7.032000541687012
1780563842660603400,11.605603271484375,7.590000152587891,-3.040950059890747,7.0909504890441895
1780563842680131000,11.625131103515624,7.528950214385986,-3.372000217437744,7.021050453186035
1780563842699655700,11.64465576171875,7.3750505447387695,-3.807000160217285,7.051950454711914
1780563842719180800,11.664180908203125,7.44195032119751,-4.293000221252441,7.069950103759766
1780563842738702800,11.683702880859375,7.635000228881836,-4.746000289916992,7.005000114440918
1780563842758224400,11.703224365234375,7.939050197601318,-5.16195011138916,7.011000156402588
1780563842777748000,11.722748046875,8.332050323486328,-5.550000190734863,7.087950229644775
1780563842797269000,11.74226904296875,8.66100025177002,-5.794050216674805,7.114950180053711
1780563842816788000,11.7617880859375,8.9170503616333,-5.920950412750244,6.979050159454346
1780563842836313300,11.781313232421875,9.09000015258789,-5.9070000648498535,6.598050117492676
1780563842855841000,11.800841064453126,9.127950668334961,-5.773950099945068,6.004050254821777
1780563842875361500,11.820361572265625,9.124950408935547,-5.589000225067139,5.449950218200684
1780563842894882800,11.8398828125,9.190950393676758,-5.413950443267822,5.052000045776367
1780563842914406000,11.859406005859375,9.334050178527832,-5.2669501304626465,4.827000141143799
1780563842933928700,11.8789287109375,9.538050651550293,-5.134950160980225,4.654050350189209
1780563842953452500,11.89845263671875,9.592950820922852,-5.086950302124023,4.537950038909912
1780563842972971300,11.91797119140625,9.610950469970703,-5.118000030517578,4.522950172424316
1780563842992490500,11.937490478515626,9.630000114440918,-5.143050193786621,4.537950038909912
1780563843012014600,11.9570146484375,9.652050018310547,-5.1160502433776855,4.588950157165527
1780563843031541200,11.976541259765625,9.75195026397705,-5.0530500411987305,4.720950126647949
1780563843051059200,11.99605908203125,9.772050857543945,-5.028000354766846,5.046000003814697
1780563843070573800,12.01557373046875,9.721050262451172,-4.98900032043457,5.446950435638428
1780563843090098200,12.03509814453125,9.580950736999512,-4.8670501708984375,5.835000514984131
1780563843109625900,12.0546259765625,9.33495044708252,-4.711950302124023,6.217950344085693
1780563843129150000,12.07414990234375,9.028950691223145,-4.4599504470825195,6.430050373077393
1780563843148671700,12.093671630859374,8.619000434875488,-4.213050365447998,6.517950534820557
1780563843168194600,12.113194580078124,8.121000289916992,-4.075050354003906,6.6160502433776855
1780563843187717000,12.132717041015624,7.633950233459473,-3.89805006980896,6.585000514984131
1780563843207238700,12.15223876953125,7.137000560760498,-3.7230002880096436,6.51900053024292
1780563843226760400,12.171760498046876,6.643050193786621,-3.526050090789795,6.6250505447387695
1780563843246278400,12.1912783203125,6.207000255584717,-3.277050256729126,6.732000350952148
1780563843265794600,12.210794677734375,5.724000453948975,-3.1309502124786377,6.895050525665283
1780563843285314000,12.23031396484375,5.320950031280518,-2.959050178527832,7.102950572967529
1780563843304834000,12.249833984375,4.852950096130371,-2.7940502166748047,7.174050331115723
1780563843324358000,12.26935791015625,4.380000114440918,-2.76705002784729,7.279050350189209
1780563843343879700,12.288879638671874,4.033050060272217,-2.628000020980835,7.348050117492676
1780563843363397400,12.3083974609375,3.5869500637054443,-2.427000045776367,7.369950294494629
1780563843382921700,12.327921630859375,3.1470000743865967,-2.158050060272217,7.492950439453125
1780563843402451200,12.347451171875,2.9130001068115234,-1.7670000791549683,7.627050399780273
1780563843421975600,12.3669755859375,2.884050130844116,-1.5220500230789185,7.7560505867004395
1780563843441494300,12.386494384765625,3.0919501781463623,-1.5070500373840332,7.80495023727417
1780563843461014500,12.4060146484375,3.4590001106262207,-1.5180001258850098,7.705050468444824
1780563843480537000,12.425537109375,3.7900502681732178,-1.5139501094818115,7.543050289154053
1780563843500055800,12.445055908203125,3.922950267791748,-1.6180500984191895,7.483950138092041
1780563843519576000,12.464576171875,4.147950172424316,-1.6050000190734863,7.408050537109375
1780563843539093800,12.48409375,4.4760003089904785,-1.4959501028060913,7.261050224304199
1780563843558607400,12.503607421875,4.594050407409668,-1.6000500917434692,7.195950508117676
1780563843578122800,12.523122802734376,4.771050453186035,-1.7560501098632812,7.195050239562988
1780563843597642800,12.542642822265625,4.978050231933594,-1.8460501432418823,7.159050464630127
1780563843617166800,12.562166748046875,5.19795036315918,-2.004000186920166,7.1610002517700195
1780563843636689400,12.581689453125,5.473050117492676,-2.182950019836426,7.279950141906738
1780563843656214800,12.60121484375,5.545050144195557,-2.2069501876831055,7.341000556945801
1780563843675743700,12.62074365234375,5.260050296783447,-2.1090002059936523,7.471950531005859
1780563843695269000,12.64026904296875,4.744950294494629,-2.001000165939331,7.765050411224365
1780563843714792400,12.65979248046875,4.1449503898620605,-1.8540000915527344,8.128050804138184
1780563843734316800,12.67931689453125,3.6559500694274902,-1.6290000677108765,8.480999946594238
1780563843753843500,12.698843505859376,3.3000001907348633,-1.3759500980377197,8.920950889587402
1780563843773365800,12.71836572265625,2.9790000915527344,-1.1389501094818115,9.486000061035156
1780563843792883700,12.7378837890625,2.682000160217285,-0.9130500555038452,9.882000923156738
1780563843812403700,12.75740380859375,2.5600500106811523,-0.6670500040054321,10.144950866699219
1780563843831924700,12.7769248046875,2.533050060272217,-0.6280500292778015,10.297050476074219
1780563843851446500,12.796446533203126,2.574000120162964,-0.8629500269889832,10.213950157165527
1780563843870972400,12.815972412109375,2.9260501861572266,-1.1470500230789185,9.82395076751709
1780563843890504200,12.835504150390625,3.29295015335083,-1.5420000553131104,9.270000457763672
1780563843910034700,12.85503466796875,3.5500502586364746,-1.9429501295089722,7.740000247955322
1780563843929560800,12.874560791015625,3.826050281524658,-2.182950019836426,6.061950206756592
1780563843949086000,12.8940859375,3.703050136566162,-2.379000186920166,5.850000381469727
1780563843968614100,12.9136142578125,3.223950147628784,-2.5030500888824463,5.670000076293945
1780563843988143900,12.933143798828125,2.7900002002716064,-2.6230502128601074,5.697000503540039
1780563844007666400,12.95266650390625,2.3610000610351562,-2.770050048828125,5.974050521850586
1780563844027188000,12.97218798828125,2.0380501747131348,-2.91195011138916,6.445950508117676
1780563844046712800,12.991712890625,1.897050142288208,-3.0430500507354736,6.910050392150879
1780563844066242800,13.011242919921875,1.6500000953674316,-3.1080000400543213,7.183050155639648
1780563844085773300,13.030773193359375,1.1050500869750977,-3.1560001373291016,7.363950252532959
1780563844105299200,13.05029931640625,-0.34095001220703125,-3.1090500354766846,7.4320502281188965
1780563844124827100,13.0698271484375,-0.6799500584602356,-3.019050121307373,7.369950294494629
1780563844144353000,13.08935302734375,-1.0699501037597656,-2.9670002460479736,7.348050117492676
1780563844163874300,13.108874267578125,-1.300950050354004,-2.965050220489502,7.329000473022461
1780563844183394800,13.128394775390625,-1.4059500694274902,-3.115950107574463,7.291950225830078
1780563844202918400,13.14791845703125,-1.5070500373840332,-3.388050079345703,7.351950168609619
1780563844222447000,13.167447021484374,-1.5430500507354736,-3.6499502658843994,7.486950397491455
1780563844241976800,13.186976806640626,-1.5259500741958618,-3.8419501781463623,7.6210503578186035
1780563844261502000,13.206501953125,-1.5010501146316528,-3.9679501056671143,7.735950469970703
1780563844281023500,13.2260234375,-1.4530500173568726,-4.084949970245361,7.759950160980225
1780563844300546000,13.245546142578124,-1.3410000801086426,-4.183950424194336,7.627950191497803
1780563844320067300,13.2650673828125,-1.1590501070022583,-4.311000347137451,7.470000267028809
1780563844339591400,13.28459130859375,-0.7909500598907471,-4.468050003051758,7.338000297546387
1780563844359123000,13.304123046875,-0.2179500162601471,-4.594050407409668,7.201050281524658
1780563844378657500,13.323657470703125,0.4339500069618225,-4.81695032119751,7.141050338745117
1780563844398187800,13.343187744140625,1.8460501432418823,-5.029050350189209,7.156050205230713
1780563844417709300,13.362709228515625,2.0719501972198486,-5.1570000648498535,7.174050331115723
1780563844437229800,13.382229736328124,2.25,-5.197050094604492,7.240050315856934
1780563844456756200,13.401756103515625,2.3610000610351562,-5.125050067901611,7.353000164031982
1780563844476286500,13.421286376953125,2.511000156402588,-5.014950275421143,7.540950298309326
1780563844495816000,13.44081591796875,2.7300000190734863,-4.870950222015381,7.804050445556641
1780563844515340500,13.460340576171875,3.075000047683716,-4.764000415802002,8.050950050354004
1780563844534863000,13.479863037109375,3.433950185775757,-4.600050449371338,8.214000701904297
1780563844554390300,13.499390380859374,3.6570000648498535,-4.402950286865234,8.19105052947998
1780563844573920800,13.518920654296876,3.670950174331665,-4.197000026702881,8.113950729370117
1780563844593447400,13.538447509765625,3.5050501823425293,-3.8959500789642334,8.059050559997559
1780563844612973000,13.55797314453125,3.2749502658843994,-3.538950204849243,8.119950294494629
1780563844632501200,13.577501220703125,2.9950501918792725,-3.1909501552581787,8.289000511169434
1780563844652027000,13.59702685546875,2.659950017929077,-2.9380500316619873,8.245950698852539
1780563844671552500,13.616552490234374,2.1910500526428223,-2.8660502433776855,8.044950485229492
1780563844691077600,13.63607763671875,1.6080000400543213,-2.9860501289367676,7.740000247955322
1780563844710601200,13.655601318359375,1.2000000476837158,-3.0949501991271973,7.419000148773193
1780563844730122000,13.6751220703125,1.0800000429153442,-3.0949501991271973,7.335000514984131
1780563844749643500,13.6946435546875,1.1329500675201416,-3.0480000972747803,7.366950511932373
1780563844769166300,13.714166259765625,1.3240500688552856,-2.9539501667022705,7.294050216674805
1780563844788692200,13.733692138671875,1.4209500551223755,-2.9059500694274902,6.963000297546387
1780563844808218600,13.753218505859374,1.3260000944137573,-3.028050184249878,6.49500036239624
1780563844827743700,13.77274365234375,1.128000020980835,-3.1330502033233643,6.048000335693359
1780563844847268400,13.792268310546875,0.8410500288009644,-3.2100000381469727,5.7430500984191895
1780563844866796500,13.811796630859375,0.5610000491142273,-3.2820000648498535,5.683050155639648
1780563844886323000,13.831322998046875,0.45000001788139343,-3.2160000801086426,5.719050407409668
1780563844905841400,13.85084130859375,0.598050057888031,-3.0870001316070557,5.799000263214111
1780563844925360400,13.8703603515625,0.9910500645637512,-3.003000259399414,6.007050514221191
1780563844944882000,13.8898818359375,1.5280500650405884,-2.914950132369995,6.32895040512085
1780563844964401200,13.909401123046875,2.0680501461029053,-2.770050048828125,6.715050220489502
1780563844983923000,13.9289228515625,2.4409501552581787,-2.665950059890747,7.192050457000732
1780563845003446800,13.94844677734375,2.530050039291382,-2.580000162124634,7.701000213623047
1780563845022971100,13.96797119140625,2.5219500064849854,-2.4600000381469727,8.131050109863281
1780563845042491400,13.987491455078125,2.442000150680542,-2.388000011444092,8.53695011138916
1780563845062008800,14.0070087890625,2.313000202178955,-2.25600004196167,8.874000549316406
1780563845081534000,14.026533935546874,2.2770001888275146,-2.1349501609802246,9.11400032043457
1780563845101059000,14.04605908203125,2.184000015258789,-2.107950210571289,9.247050285339355
1780563845120577800,14.065577880859376,2.11395001411438,-2.1130499839782715,9.189000129699707
1780563845140096300,14.08509619140625,2.137050151824951,-2.1640501022338867,9.034950256347656
1780563845159615000,14.104614990234374,2.2170000076293945,-2.1919500827789307,8.83905029296875
1780563845179135200,14.12413525390625,2.30400013923645,-2.2609500885009766,8.646000862121582
1780563845198656800,14.14365673828125,2.2860000133514404,-2.3299500942230225,8.496000289916992
1780563845218176000,14.163176025390625,2.0850000381469727,-2.3710501194000244,8.36400032043457
1780563845237694000,14.18269384765625,1.7899501323699951,-2.350950002670288,8.232000350952148
1780563845257212200,14.202212158203125,1.4269500970840454,-2.2129499912261963,8.092050552368164
1780563845276730000,14.221730224609376,1.0360500812530518,-2.1349501609802246,7.975050449371338
1780563845296252400,14.24125244140625,0.7330500483512878,-2.0850000381469727,7.801950454711914
1780563845315778300,14.2607783203125,0.6000000238418579,-2.0350501537323,7.543050289154053
1780563845335301000,14.280301025390624,0.7879500389099121,-1.977000117301941,7.342050552368164
1780563845354823400,14.299823486328124,1.2090001106262207,-1.9320000410079956,7.323000431060791
1780563845374349000,14.31934912109375,2.9290502071380615,-2.0250000953674316,7.446000576019287
1780563845393876000,14.3388759765625,3.2500500679016113,-2.199000120162964,7.567950248718262
1780563845413400800,14.35840087890625,3.7920002937316895,-2.4469501972198486,7.615050315856934
1780563845432923100,14.377923095703125,5.52495002746582,-2.820000171661377,7.522050380706787
1780563845452446000,14.397446044921875,5.949000358581543,-3.2350502014160156,7.354050159454346
1780563845471970300,14.41697021484375,6.427950382232666,-3.658050060272217,7.261950492858887
1780563845491486000,14.43648583984375,6.853050231933594,-4.0980000495910645,7.389000415802002
1780563845510999300,14.455999267578125,7.201950550079346,-4.427999973297119,7.539000511169434
1780563845530519300,14.475519287109375,7.663950443267822,-4.581000328063965,7.615050315856934
1780563845550041900,14.495041748046875,8.122950553894043,-4.641000270843506,7.591950416564941
1780563845569562600,14.514562744140624,8.59005069732666,-4.692000389099121,7.255050182342529
1780563845589080300,14.534080322265625,8.967000007629395,-4.729950428009033,6.798000335693359
1780563845608595200,14.55359521484375,9.16200065612793,-4.777050018310547,6.441000461578369
1780563845628115200,14.573115234375,9.262950897216797,-4.876950263977051,6.2440505027771
1780563845647637000,14.592636962890625,9.445950508117676,-4.8480000495910645,6.13800048828125
1780563845667158800,14.61215869140625,9.730050086975098,-4.681950092315674,5.955000400543213
1780563845686679600,14.631679443359374,9.991950035095215,-4.543050289154053,5.619000434875488
1780563845706199600,14.651199462890625,10.243950843811035,-4.288949966430664,5.308950424194336
1780563845725722000,14.67072216796875,10.207050323486328,-3.9630002975463867,5.11305046081543
1780563845745242400,14.690242431640625,9.826050758361816,-3.5749502182006836,4.813950061798096
1780563845784285400,14.729285400390625,7.504050254821777,-2.7199501991271973,2.710050106048584
1780563845803808300,14.748808349609375,7.350000381469727,-2.533950090408325,2.4679501056671143
1780563845823322600,14.768322509765625,7.128000259399414,-2.650050163269043,2.3800501823425293
1780563845842835000,14.7878349609375,7.044000148773193,-2.9410500526428223,2.49495005607605
1780563845862353700,14.807353759765626,7.120050430297852,-3.2370002269744873,2.5320000648498535
1780563845881870800,14.826870849609374,7.413000583648682,-3.681000232696533,2.700000047683716
1780563845901388000,14.846387939453125,7.843950271606445,-4.183950424194336,2.952000141143799
1780563845920907500,14.865907470703124,8.268000602722168,-4.701000213623047,3.277050256729126
1780563845940428300,14.88542822265625,8.701050758361816,-5.283000469207764,3.7960500717163086
1780563845959947500,14.904947509765625,9.01395034790039,-5.766000270843506,4.200000286102295
1780563845979468500,14.924468505859375,9.25200080871582,-6.115950107574463,4.459050178527832
1780563845998991400,14.943991455078125,9.47700023651123,-6.322050094604492,4.606950283050537
1780563846018512000,14.963511962890625,9.68595027923584,-6.475050449371338,4.684950351715088
1780563846038029300,14.983029296875,9.829950332641602,-6.5809502601623535,4.759050369262695
1780563846057547000,15.002547119140624,9.898050308227539,-6.586050510406494,4.735050201416016
1780563846077069000,15.022069091796874,9.87405014038086,-6.457050323486328,4.573050022125244
1780563846096590000,15.041590087890626,9.754950523376465,-6.13800048828125,4.465050220489502
1780563846116110000,15.061110107421875,9.469950675964355,-5.75700044631958,4.510050296783447
1780563846135627500,15.08062744140625,9.09000015258789,-5.463000297546387,4.824000358581543
1780563846155142000,15.100141845703124,8.776050567626953,-5.155050277709961,5.278050422668457
1780563846174657300,15.1196572265625,8.414999961853027,-4.906949996948242,5.63100004196167
1780563846194174000,15.139174072265625,8.107049942016602,-4.756050109863281,5.898000240325928
1780563846213689900,15.15868994140625,7.866000175476074,-4.612950325012207,6.061950206756592
1780563846233208600,15.17820849609375,7.438050270080566,-4.615950107574463,6.244950294494629
1780563846252729300,15.197729248046874,6.874950408935547,-4.630050182342529,6.609000205993652
1780563846272251000,15.2172509765625,6.39900016784668,-4.548000335693359,6.960000514984131
1780563846291773000,15.23677294921875,5.860050201416016,-4.50600004196167,7.255050182342529
1780563846311291000,15.256290771484375,5.386050224304199,-4.3470001220703125,7.45395040512085
1780563846330808000,15.27580810546875,4.966950416564941,-4.147950172424316,7.512000560760498
1780563846350328300,15.295328369140625,4.486050128936768,-4.0320000648498535,7.591050148010254
1780563846369846800,15.3148466796875,4.159950256347656,-3.799950122833252,7.70805025100708
1780563846389363500,15.334363525390625,3.9589502811431885,-3.5940001010894775,7.819050312042236
1780563846408881700,15.353881591796876,3.8590502738952637,-3.496950149536133,7.8349504470825195
1780563846428400400,15.373400390625,3.9300003051757812,-3.309000253677368,7.747950553894043
1780563846447922700,15.392922607421875,3.916950225830078,-3.184950113296509,7.636950492858887
1780563846467446300,15.4124462890625,3.8419501781463623,-3.2160000801086426,7.552950382232666
1780563846486968600,15.431968505859375,3.8010001182556152,-3.241950035095215,7.509000301361084
1780563846506492400,15.451492431640625,3.6949501037597656,-3.2530500888824463,7.507050514221191
1780563846526011000,15.471010986328125,3.630000114440918,-3.232950210571289,7.546950340270996
1780563846545531400,15.490531494140624,3.5530502796173096,-3.1110000610351562,7.570950508117676
1780563846565054500,15.510054443359374,3.4210500717163086,-2.7870001792907715,7.573950290679932
1780563846584577300,15.529577392578124,3.06600022315979,-2.515050172805786,7.653000354766846
1780563846604102000,15.549101806640625,2.6770501136779785,-2.266050100326538,7.7149505615234375
1780563846623623200,15.568623046875,2.4079501628875732,-1.998000144958496,7.756950378417969
1780563846643140600,15.588140625,2.299950122833252,-1.821000099182129,7.864950180053711
1780563846662659600,15.60765966796875,2.4400501251220703,-1.6819500923156738,7.966050148010254
1780563846682181600,15.627181640625,2.6680500507354736,-1.5690001249313354,8.092950820922852
1780563846701703200,15.646703125,2.871000051498413,-1.4149500131607056,8.190000534057617
1780563846721223700,15.6662236328125,2.9059500694274902,-1.4040000438690186,8.320050239562988
1780563846740743200,15.6857431640625,2.751000165939331,-1.440000057220459,8.383950233459473
1780563846760260900,15.7052607421875,2.5660500526428223,-1.4160000085830688,8.407950401306152
1780563846779777300,15.72477734375,2.3800501823425293,-1.4800500869750977,8.54699993133545
1780563846799294500,15.74429443359375,2.2789502143859863,-1.5709500312805176,8.640000343322754
1780563846818816000,15.76381591796875,2.2870500087738037,-1.662000060081482,8.713050842285156
1780563846838339300,15.78333935546875,2.3299500942230225,-1.7640000581741333,8.815950393676758
1780563846857856800,15.802856689453124,2.3620500564575195,-1.8229501247406006,8.884950637817383
1780563846877374700,15.822374755859375,2.3530499935150146,-1.8490500450134277,8.938050270080566
1780563846896898300,15.841898193359375,2.2740001678466797,-1.8900001049041748,8.929950714111328
1780563846916421400,15.86142138671875,2.070000171661377,-2.053950071334839,8.893950462341309
1780563846935944400,15.8809443359375,1.8270001411437988,-2.2800002098083496,8.922000885009766
1780563846955466200,15.90046630859375,1.755000114440918,-2.5189502239227295,8.88705062866211
1780563846974986800,15.91998681640625,1.8979500532150269,-2.571000099182129,8.694000244140625
1780563846994515000,15.939514892578124,2.0050501823425293,-2.4210000038146973,8.394000053405762
1780563847014044000,15.9590439453125,1.8709501028060913,-2.3530499935150146,8.089950561523438
1780563847033569000,15.978569091796874,1.588050127029419,-2.2110002040863037,7.765050411224365
1780563847053092600,15.998092529296875,1.1350500583648682,-2.158050060272217,7.61400032043457
1780563847072621000,16.01762109375,0.6930000185966492,-2.320050001144409,7.707000255584717
1780563847092153900,16.03715380859375,0.5010000467300415,-2.3929500579833984,7.843050479888916
1780563847111677700,16.056677734375,0.43695002794265747,-2.515050172805786,8.097000122070312
1780563847131198200,16.0761982421875,0.44895002245903015,-2.677950143814087,8.404950141906738
1780563847150721500,16.095721435546874,0.49695003032684326,-2.77905011177063,8.689050674438477
1780563847170246400,16.115246337890625,0.5190000534057617,-2.91195011138916,8.977950096130371
1780563847189773000,16.13477294921875,0.32100000977516174,-3.1999502182006836,9.253950119018555
1780563847209299000,16.154298828125,0.04605000093579292,-3.5460002422332764,9.403050422668457
1780563847228826400,16.173826416015626,-0.16500000655651093,-3.7950000762939453,9.22095012664795
1780563847248360200,16.193360107421874,-0.42795002460479736,-4.042050361633301,8.797950744628906
1780563847267891500,16.212891357421874,-0.7350000143051147,-4.150050163269043,8.290950775146484
1780563847287414800,16.232414794921876,-1.1069999933242798,-4.213950157165527,7.81695032119751
1780563847306939600,16.251939697265627,-1.492050051689148,-4.3279500007629395,7.546050548553467
1780563847326463200,16.271463134765625,-1.711050033569336,-4.458000183105469,7.504950523376465
1780563847345983700,16.290983642578126,-1.6789500713348389,-4.641000270843506,7.558950424194336
1780563847365505300,16.31050537109375,-1.4479501247406006,-4.7820000648498535,7.590000152587891
1780563847385029000,16.330029052734375,-1.0960500240325928,-4.821000099182129,7.552050590515137
1780563847404553200,16.34955322265625,-0.7699500322341919,-4.747950077056885,7.4160003662109375
1780563847424075300,16.3690751953125,-0.5809500217437744,-4.489950180053711,7.240050315856934
1780563847443596500,16.388596435546877,-0.5490000247955322,-4.0980000495910645,7.045050144195557
1780563847463117800,16.408117919921875,-0.6300000548362732,-3.652050256729126,6.820950508117676
1780563847482643000,16.427642822265625,-0.6960000395774841,-3.241950035095215,6.613950252532959
1780563847502170600,16.447170654296876,-0.5359500050544739,-3.052950143814087,6.511950492858887
1780563847521697500,16.466697509765623,-0.06599999964237213,-3.0870001316070557,6.538050174713135
1780563847541224400,16.486224365234374,1.6810500621795654,-3.325050115585327,6.68595027923584
1780563847560750600,16.50575048828125,1.9380000829696655,-3.574050188064575,6.949950218200684
1780563847580277000,16.525277099609376,2.2069501876831055,-3.6730501651763916,7.179000377655029
1780563847599803600,16.5448037109375,2.3170502185821533,-3.6640501022338867,7.467000484466553
1780563847619331000,16.5643310546875,2.2639501094818115,-3.579000234603882,7.7910003662109375
1780563847638858000,16.58385791015625,2.1250500679016113,-3.582000255584717,8.038050651550293
1780563847658384600,16.603384521484376,2.0680501461029053,-3.6820502281188965,8.218050003051758
1780563847677909800,16.62290966796875,2.2230000495910645,-3.8110501766204834,8.275050163269043
1780563847697436400,16.6424365234375,2.5660500526428223,-3.9750001430511475,8.25
1780563847716967200,16.66196728515625,2.943000078201294,-4.084949970245361,8.266950607299805
1780563847736498000,16.681497802734373,3.2130000591278076,-4.185000419616699,8.30505084991455
1780563847756027600,16.701027587890625,3.2940001487731934,-4.222949981689453,8.331000328063965
1780563847775556600,16.720556640625,3.180000066757202,-4.170000076293945,8.325000762939453
1780563847795086000,16.740086181640624,2.9320502281188965,-4.044000148773193,8.257050514221191
1780563847814611700,16.75961181640625,2.734950065612793,-3.844050168991089,8.292000770568848
1780563847834135000,16.779135009765625,2.719050168991089,-3.6570000648498535,8.634000778198242
1780563847853658000,16.798658203125,2.808000087738037,-3.4840502738952637,9.164999961853027
1780563847873182000,16.818181884765625,2.9850001335144043,-3.28695011138916,9.442950248718262
1780563847892708600,16.83770849609375,2.9140501022338867,-3.235950231552124,9.300000190734863
1780563847912237800,16.85723779296875,1.1479500532150269,-3.136050224304199,7.5010504722595215
1780563847931763500,16.876763427734375,0.6850500106811523,-2.9860501289367676,7.063950538635254
1780563847951285200,16.89628515625,-1.0270500183105469,-2.9100000858306885,6.634950160980225
1780563847970809600,16.9158095703125,-1.423050045967102,-2.7370500564575195,6.303000450134277
1780563847990332700,16.935332763671877,-1.5630000829696655,-2.7559502124786377,6.0859503746032715
1780563848009855200,16.954855224609375,-1.4719500541687012,-2.9110500812530518,5.952000141143799
1780563848029379600,16.974379638671873,-1.207050085067749,-3.0709500312805176,5.838000297546387
1780563848048901000,16.993901123046875,-0.8580000400543213,-3.28695011138916,5.781000137329102
1780563848068423700,17.013423583984373,-0.5520000457763672,-3.3979501724243164,5.82105016708374
1780563848087949300,17.03294921875,-0.23205001652240753,-3.4240500926971436,6.025050163269043
1780563848107479300,17.052479248046875,0.11400000751018524,-3.3379502296447754,6.223050117492676
1780563848127007700,17.0720078125,0.34200000762939453,-3.0420000553131104,6.388050079345703
1780563848146532900,17.091532958984374,0.4639500081539154,-2.587050199508667,6.687000274658203
1780563848166058200,17.111058349609376,0.3960000276565552,-2.101950168609619,7.183050155639648
1780563848185580800,17.130580810546874,0.2550000250339508,-1.615950107574463,7.770000457763672
1780563848205100300,17.150100341796875,0.3930000066757202,-1.1599500179290771,8.188050270080566
1780563848224617500,17.169617431640624,0.7780500650405884,-0.9510000348091125,8.419050216674805
1780563848244137200,17.18913720703125,1.3510500192642212,-0.7680000066757202,8.460000038146973
1780563848263659000,17.208658935546875,1.9290001392364502,-0.7590000629425049,8.32395076751709
1780563848283180500,17.2281806640625,2.521050214767456,-0.973050057888031,8.245950698852539
1780563848302702800,17.247702880859375,3.0139501094818115,-1.0930500030517578,8.230050086975098
1780563848322226400,17.267226318359373,3.4519500732421875,-1.210050106048584,8.229000091552734
1780563848341753600,17.286753662109376,3.8389501571655273,-1.224000096321106,8.235000610351562
1780563848361280800,17.30628076171875,4.13100004196167,-1.1569499969482422,8.241000175476074
1780563848380804600,17.3258046875,4.254000186920166,-1.0939500331878662,8.200050354003906
1780563848400332000,17.34533203125,4.132950305938721,-1.1160000562667847,8.143050193786621
1780563848419859500,17.364859375,4.008000373840332,-1.0969500541687012,8.068950653076172
1780563848439379700,17.384379638671874,3.7770001888275146,-1.0279500484466553,8.059950828552246
1780563848478426000,17.423426025390626,3.807000160217285,-0.9499500393867493,8.032950401306152
1780563848497954000,17.4429541015625,3.951000213623047,-1.0630500316619873,8.128950119018555
1780563848517480700,17.462480712890624,4.038000106811523,-1.2130500078201294,8.344950675964355
1780563848537003000,17.4820029296875,4.197000026702881,-1.363050103187561,8.497050285339355
1780563848556524000,17.50152392578125,4.386000156402588,-1.672950029373169,8.4660005569458
1780563848576046300,17.52104638671875,4.684950351715088,-2.104950189590454,8.29995059967041
1780563848595567900,17.54056787109375,5.151000022888184,-2.439000129699707,7.990050315856934
1780563848615087400,17.56008740234375,5.530050277709961,-2.6989500522613525,7.735050201416016
1780563848634609400,17.579609375,5.911050319671631,-2.9260501861572266,7.6459503173828125
1780563848654130400,17.59913037109375,6.334050178527832,-3.0349502563476562,7.5360002517700195
1780563848673648600,17.618648681640625,6.670050144195557,-3.0810000896453857,7.2709503173828125
1780563848693168600,17.638168701171875,6.949050426483154,-3.0139501094818115,6.859950542449951
1780563848712688600,17.657688720703124,7.027950286865234,-2.887050151824951,6.453000068664551
1780563848732210700,17.677210693359374,7.011000156402588,-2.943000078201294,6.1870503425598145
1780563848751739600,17.69673974609375,7.15500020980835,-3.0709500312805176,6.078000068664551
1780563848771264800,17.7162646484375,7.513050556182861,-3.2059502601623535,5.898000240325928
1780563848790786600,17.73578662109375,8.006999969482422,-3.3490500450134277,5.45805025100708
1780563848810314800,17.755314697265625,8.445000648498535,-3.5299501419067383,4.965000152587891
1780563848829845800,17.774845703125,8.860950469970703,-3.825000286102295,4.587000370025635
1780563848849373700,17.794373779296876,9.403050422668457,-4.174950122833252,4.354050159454346
1780563848868902000,17.81390185546875,9.969000816345215,-4.420050144195557,4.141050338745117
1780563848888430000,17.83343017578125,10.587000846862793,-4.5169501304626465,3.8209502696990967
1780563848907955700,17.852955810546874,10.906050682067871,-4.618950366973877,3.514050245285034
1780563848927481900,17.87248193359375,10.954050064086914,-4.846950054168701,3.3570001125335693
1780563848947011800,17.89201171875,10.888050079345703,-4.962000370025635,3.3420002460479736
1780563848966544600,17.911544677734376,10.693050384521484,-4.935000419616699,3.412050247192383
1780563848986072800,17.93107275390625,10.44795036315918,-4.857000350952148,3.3700501918792725
1780563849005597400,17.950597412109374,10.141950607299805,-4.809000015258789,3.085050106048584
1780563849025121800,17.970121826171876,9.874950408935547,-4.843950271606445,2.739000082015991
1780563849044643600,17.9896435546875,9.733050346374512,-4.861950397491455,2.482950210571289
1780563849064167700,18.009167724609377,9.741000175476074,-4.786050319671631,2.395050048828125
1780563849083685400,18.028685302734374,9.744000434875488,-4.669950008392334,2.4690001010894775
1780563849103201800,18.048201904296874,9.718950271606445,-4.561950206756592,2.505000114440918
1780563849122718500,18.067718505859375,9.68595027923584,-4.486050128936768,2.48895001411438
1780563849142235100,18.087235107421876,9.700050354003906,-4.507950305938721,2.416950225830078
1780563849161754000,18.106754150390625,9.778950691223145,-4.576050281524658,2.3080501556396484
1780563849181271000,18.12627099609375,9.82395076751709,-4.70205020904541,2.2129499912261963
1780563849200789000,18.1457890625,9.850950241088867,-4.780050277709961,2.0850000381469727
1780563849220310300,18.165310302734376,9.868950843811035,-4.804050445556641,2.026050090789795
1780563849239837700,18.184837646484375,9.985950469970703,-4.660050392150879,2.2210500240325928
1780563849259367200,18.2043671875,10.212000846862793,-4.345950126647949,2.6640000343322754
1780563849278896000,18.223896240234374,10.332000732421875,-4.066050052642822,3.1909501552581787
1780563849298422500,18.243422607421873,10.27695083618164,-3.8899502754211426,3.684000253677368
1780563849317945600,18.262945556640624,10.000950813293457,-3.829050064086914,4.0980000495910645
1780563849337468200,18.28246826171875,9.676950454711914,-3.9280502796173096,4.452000141143799
1780563849356992500,18.301992431640624,9.492000579833984,-4.033050060272217,4.7719502449035645
1780563849376519400,18.32151953125,9.379950523376465,-4.014000415802002,5.095950126647949
1780563849396046300,18.34104638671875,9.280950546264648,-4.009050369262695,5.445000171661377
1780563849415568600,18.360568603515624,8.98905086517334,-3.991950273513794,5.710050106048584
1780563849435087000,18.380087158203125,8.485050201416016,-3.9160501956939697,5.851950168609619
1780563849454606300,18.3996064453125,7.836000442504883,-3.826050281524658,5.919000148773193
1780563849474129200,18.419129150390624,6.361950397491455,-3.6310501098632812,5.883000373840332
1780563849493653200,18.4386533203125,6.0610504150390625,-3.4009501934051514,5.82705020904541
1780563849513182000,18.458181884765626,5.754000186920166,-3.204000234603882,5.740950107574463
1780563849532710000,18.4777099609375,5.553000450134277,-2.9449501037597656,5.671050071716309
1780563849552229000,18.49722900390625,5.602950096130371,-2.632050037384033,5.512950420379639
1780563849571749600,18.51674951171875,5.836950302124023,-2.530050039291382,5.365050315856934
1780563849591271200,18.536271240234374,6.12600040435791,-2.5260000228881836,5.335050106048584
1780563849610791700,18.555791748046875,6.370050430297852,-2.4790501594543457,5.266050338745117
1780563849630316800,18.57531689453125,6.214950084686279,-2.622000217437744,5.250000476837158
1780563849649840000,18.594840087890624,5.889000415802002,-2.69100022315979,5.302950382232666
1780563849669359400,18.614359375,5.476950168609619,-2.577000141143799,5.37000036239624
1780563849688881400,18.63388134765625,5.00700044631958,-2.5200002193450928,5.617950439453125
1780563849708404200,18.653404296875,4.588050365447998,-2.449050188064575,6.115050315856934
1780563849727921700,18.672921630859374,4.269000053405762,-2.1880500316619873,6.5970001220703125
1780563849747437600,18.6924375,4.06695032119751,-1.921950101852417,6.918000221252441
1780563849766958800,18.711958740234376,3.841050148010254,-1.7650500535964966,7.213050365447998
1780563849786482400,18.731482421875,3.7110002040863037,-1.5730500221252441,7.3690505027771
1780563849806004500,18.75100439453125,3.5869500637054443,-1.5360000133514404,7.507050514221191
1780563849825526300,18.7705263671875,3.5850002765655518,-1.6230000257492065,7.695000171661377
1780563849845047300,18.79004736328125,3.745950222015381,-1.7070001363754272,7.717050552368164
1780563849864568000,18.809568115234374,3.81600022315979,-1.8610501289367676,7.753950595855713
1780563849884087800,18.829087890625,3.8310000896453857,-1.9390500783920288,7.7470502853393555
1780563849903608800,18.84860888671875,3.7540502548217773,-2.0380501747131348,7.858050346374512
1780563849923131000,18.868130859375,3.684000253677368,-2.1100502014160156,7.957950592041016
1780563849942655500,18.887655517578125,3.6559500694274902,-2.1289501190185547,7.963950157165527
1780563849962181600,18.907181640625,3.4650001525878906,-2.080049991607666,8.094000816345215
1780563849981707000,18.92670703125,3.139050245285034,-1.9920001029968262,8.33595085144043
1780563850001230800,18.94623095703125,2.829000234603882,-1.8709501028060913,8.67495059967041
1780563850020756700,18.9657568359375,2.746950149536133,-1.7070001363754272,8.96505069732666
1780563850040282400,18.985282470703126,2.809950113296509,-1.596000075340271,9.256950378417969
1780563850059807500,19.004807373046877,2.7589502334594727,-1.3750500679016113,9.504000663757324
1780563850079331300,19.024331298828123,2.5159502029418945,-1.2510000467300415,9.805950164794922
1780563850098852400,19.043852294921876,2.287950038909912,-1.1160000562667847,9.973050117492676
1780563850118370300,19.063370361328126,2.1379501819610596,-1.0999500751495361,9.90195083618164
1780563850137887700,19.0828876953125,2.1229500770568848,-1.2439500093460083,9.733050346374512
1780563850157411600,19.10241162109375,2.184000015258789,-1.3090500831604004,9.499950408935547
1780563850176938000,19.12193798828125,2.164950132369995,-1.4580000638961792,9.32805061340332
1780563850196461000,19.1414609375,2.25600004196167,-1.50600004196167,9.08595085144043
1780563850215980300,19.160980224609375,2.3839499950408936,-1.5529500246047974,8.776050567626953
1780563850235505000,19.1805048828125,2.4120001792907715,-1.7850000858306885,8.506050109863281
1780563850255031600,19.200031494140624,2.338050127029419,-1.9960501194000244,8.434950828552246
1780563850274554000,19.21955419921875,2.1610500812530518,-2.164950132369995,8.47095012664795
1780563850294078700,19.23907861328125,2.014050006866455,-2.287950038909912,8.538000106811523
1780563850313607700,19.258607666015624,1.927950143814087,-2.3389501571655273,8.52405071258545
1780563850333136100,19.27813623046875,1.7269500494003296,-2.379000186920166,8.493000030517578
1780563850352659200,19.2976591796875,1.4530500173568726,-2.4690001010894775,8.569050788879395
1780563850372179200,19.31717919921875,1.3309500217437744,-2.580000162124634,8.571000099182129
1780563850391697400,19.336697509765624,1.3519500494003296,-2.611950159072876,8.442000389099121
1780563850411219000,19.356218994140626,1.3950001001358032,-2.719050168991089,8.214000701904297
1780563850430743600,19.37574365234375,1.3350000381469727,-2.8660502433776855,7.981050491333008
1780563850450267400,19.395267333984375,1.1500500440597534,-2.9770500659942627,7.800000190734863
1780563850469792500,19.41479248046875,0.9760500192642212,-3.1600501537323,7.728000164031982
1780563850489316400,19.43431640625,0.8809500336647034,-3.2560501098632812,7.627050399780273
1780563850508838400,19.45383837890625,0.8160000443458557,-3.3670501708984375,7.4569501876831055
1780563850528359400,19.473359375,0.7129500508308411,-3.6040501594543457,7.381950378417969
1780563850547881000,19.492880859375,0.62295001745224,-3.828000068664551,7.392000198364258
1780563850567403000,19.512403076171875,0.6640500426292419,-3.9910502433776855,7.425000190734863
1780563850586925600,19.531925537109377,0.753000020980835,-4.090050220489502,7.552950382232666
1780563850606449000,19.551448974609375,0.7120500206947327,-4.197000026702881,7.678050518035889
1780563850625974000,19.57097412109375,0.5659500360488892,-4.335000038146973,7.7059502601623535
1780563850645499600,19.590499755859376,0.34200000762939453,-4.545000076293945,7.663050174713135
1780563850665025800,19.61002587890625,0.07500000298023224,-4.783950328826904,7.507950305938721
1780563850684554000,19.629553955078126,-0.1270500123500824,-4.939050197601318,7.326000213623047
1780563850704078300,19.649078369140625,-0.22395001351833344,-5.041950225830078,7.180950164794922
1780563850723598000,19.66859814453125,-0.19200000166893005,-5.104950428009033,7.093950271606445
1780563850743114800,19.68811474609375,-0.04605000093579292,-5.124000072479248,7.0249505043029785
1780563850762630100,19.707630126953124,0.12600000202655792,-5.155050277709961,6.993000507354736
1780563850782151700,19.727151611328125,0.28005000948905945,-5.17995023727417,6.997950553894043
1780563850801675800,19.74667578125,0.4410000145435333,-5.167050361633301,7.014000415802002
1780563850821196000,19.766196044921877,0.5560500025749207,-5.079000473022461,7.078050136566162
1780563850840716800,19.785716796875,0.6529500484466553,-4.888050079345703,7.177950382232666
1780563850860235000,19.805235107421876,0.8020500540733337,-4.576050281524658,7.303950309753418
1780563850879750400,19.82475048828125,0.9160500168800354,-4.258950233459473,7.44705057144165
1780563850899272000,19.84427197265625,1.0459500551223755,-3.9589502811431885,7.567950248718262
1780563850918797000,19.863797119140624,1.1950500011444092,-3.715050220489502,7.704000473022461
1780563850938317000,19.883317138671874,1.2529500722885132,-3.6000001430511475,7.82895040512085
1780563850957832000,19.90283203125,1.3320000171661377,-3.516000270843506,7.902000427246094
1780563850977348600,19.9223486328125,1.4940000772476196,-3.4009501934051514,7.921050548553467
1780563850996869600,19.94186962890625,1.6540501117706299,-3.2599501609802246,7.833000183105469
1780563851016391200,19.96139111328125,1.6909500360488892,-3.0990002155303955,7.73205041885376
1780563851035910000,19.980909912109375,1.5730500221252441,-2.9850001335144043,7.678050518035889
1780563851055428600,20.0004287109375,1.377000093460083,-2.991000175476074,7.642950534820557
1780563851074948400,20.0199482421875,1.3459500074386597,-3.132000207901001,7.669050216674805
1780563851094466600,20.039466552734375,1.6200001239776611,-3.376950263977051,7.651950359344482
1780563851113982000,20.05898193359375,2.083050012588501,-3.592050075531006,7.584000587463379
1780563851133500000,20.0785,2.4820501804351807,-3.736950159072876,7.6050004959106445
1780563851153020000,20.09802001953125,2.5380001068115234,-3.76200008392334,7.681950569152832
1780563851172542000,20.1175419921875,2.2170000076293945,-3.5719501972198486,7.762050151824951
1780563851192066800,20.13706689453125,0.5550000071525574,-3.268050193786621,7.8160505294799805
1780563851211588400,20.15658837890625,0.2530499994754791,-2.932950258255005,7.7910003662109375
1780563851231111200,20.176111083984374,-0.11205000430345535,-2.6989500522613525,7.750950336456299
1780563851250636000,20.195635986328124,-0.33900001645088196,-2.6290500164031982,7.7059502601623535
1780563851270156500,20.215156494140626,-0.3840000033378601,-2.659950017929077,7.588050365447998
1780563851289675300,20.23467529296875,-0.21300001442432404,-2.760000228881836,7.483950138092041
1780563851309197800,20.25419775390625,-0.018000001087784767,-2.8219501972198486,7.504950523376465
1780563851328721400,20.273721435546875,0.1080000028014183,-2.7930002212524414,7.672050476074219
1780563851348242700,20.29324267578125,0.07800000160932541,-2.7360000610351562,7.866000175476074
1780563851367764000,20.312763916015626,-0.06195000186562538,-2.5729501247406006,7.9069504737854
1780563851387285800,20.33228564453125,-0.23205001652240753,-2.3419501781463623,7.792050361633301
1780563851406808600,20.35180859375,-0.505050003528595,-2.182950019836426,7.672050476074219
1780563851426330600,20.37133056640625,-0.6049500107765198,-1.968000054359436,7.579050540924072
1780563851445850600,20.3908505859375,-0.51705002784729,-1.8499500751495361,7.558950424194336
1780563851465371400,20.410371337890624,-0.3550500273704529,-1.828950047492981,7.599000453948975
1780563851484893700,20.429893798828125,0.034050002694129944,-1.741050124168396,7.725000381469727
1780563851504419000,20.449419189453124,0.5470499992370605,-1.6789500713348389,7.8259501457214355
1780563851523944200,20.468944091796875,1.0870500802993774,-1.5610500574111938,7.855950355529785
1780563851543471000,20.48847119140625,1.6530001163482666,-1.453950047492981,7.929000377655029
1780563851563003000,20.5080029296875,2.133000135421753,-1.3350000381469727,7.9170002937316895
1780563851582528800,20.52752880859375,2.5099501609802246,-1.1869500875473022,7.921050548553467
1780563851602051800,20.5470517578125,2.8950002193450928,-1.1269500255584717,8.083050727844238
1780563851621572000,20.566572021484376,3.249000072479248,-1.078950047492981,8.142000198364258
1780563851641088000,20.586087890625,3.550950050354004,-1.0360500812530518,8.098950386047363
1780563851660604700,20.605604736328125,3.871950149536133,-1.0600500106811523,8.038949966430664
1780563851680124700,20.625124755859375,4.182000160217285,-1.0800000429153442,7.9110002517700195
1780563851699650800,20.64465087890625,4.567950248718262,-1.1190000772476196,7.848000526428223
1780563851719177700,20.664177734375,5.109000205993652,-1.2310500144958496,7.80495023727417
1780563851738702800,20.683702880859375,5.518950462341309,-1.4389500617980957,7.8070502281188965
1780563851758228000,20.70322802734375,5.820000171661377,-1.6660500764846802,7.81695032119751
1780563851777749500,20.72274951171875,6.058950424194336,-1.8139500617980957,7.738950252532959
1780563851797267500,20.742267333984376,6.19605016708374,-2.009999990463257,7.597050189971924
1780563851816783600,20.76178369140625,6.32895040512085,-2.1780002117156982,7.477050304412842
1780563851836301800,20.7813017578125,6.366000175476074,-2.313000202178955,7.375950336456299
1780563851855821300,20.8008212890625,6.388950347900391,-2.4250500202178955,7.225950241088867
1780563851875340500,20.820340576171876,6.426000118255615,-2.470950126647949,7.138950347900391
1780563851894858500,20.8398583984375,6.538050174713135,-2.533950090408325,7.071000099182129
1780563851914377700,20.859377685546875,6.642000198364258,-2.617950201034546,6.961950302124023
1780563851933902000,20.878902099609373,6.7510504722595215,-2.728950023651123,6.817050457000732
1780563851953428200,20.89842822265625,6.850050449371338,-2.91795015335083,6.6160502433776855
1780563851972954000,20.9179541015625,7.003950119018555,-3.1600501537323,6.361050128936768
1780563851992480800,20.937480712890626,7.383000373840332,-3.370950222015381,6.076050281524658
1780563852012004600,20.957004638671876,7.630050182342529,-3.664950132369995,5.707950115203857
1780563852031527000,20.97652685546875,7.654950141906738,-4.096050262451172,5.380050182342529
1780563852051050200,20.99605029296875,7.582050323486328,-4.633950233459473,5.3580002784729
1780563852070574000,21.015573974609374,7.558950424194336,-5.20395040512085,5.295000076293945
1780563852090096000,21.03509619140625,7.884000301361084,-5.577000141143799,5.104050159454346
1780563852109613300,21.05461328125,8.461950302124023,-5.7460503578186035,4.777050018310547
1780563852129130200,21.074130126953126,9.054000854492188,-5.776050090789795,4.213050365447998
1780563852148648400,21.0936484375,9.325950622558594,-5.74500036239624,3.7219502925872803
1780563852168169000,21.1131689453125,9.30405044555664,-5.665950298309326,3.4710001945495605
1780563852187694800,21.13269482421875,9.120000839233398,-5.563950061798096,3.4260001182556152
1780563852207221200,21.15222119140625,8.92905044555664,-5.398050308227539,3.265050172805786
1780563852226744800,21.171744873046876,8.89905071258545,-5.2420501708984375,3.0330002307891846
1780563852246269000,21.19126904296875,9.015000343322754,-5.242950439453125,2.947050094604492
1780563852265797000,21.210797119140626,9.2920503616333,-5.334000110626221,2.983950138092041
1780563852285327000,21.2303271484375,9.541950225830078,-5.491950035095215,3.184950113296509
1780563852304856600,21.249856689453125,9.655050277709961,-5.7270002365112305,3.526050090789795
1780563852324383500,21.269383544921876,9.604950904846191,-5.95395040512085,3.8050501346588135
1780563852343913200,21.288913330078124,9.520950317382812,-6.097950458526611,3.876000165939331
1780563852363441000,21.30844091796875,9.454950332641602,-6.240000247955322,3.8650500774383545
1780563852382966300,21.32796630859375,9.352950096130371,-6.370050430297852,3.7669501304626465
1780563852402491600,21.34749169921875,9.147000312805176,-6.592950344085693,3.6660001277923584
1780563852422013700,21.367013671875,8.952000617980957,-6.76800012588501,3.6030001640319824
1780563852441533400,21.386533447265624,8.844000816345215,-6.721050262451172,3.513000249862671
1780563852461052000,21.406052001953125,8.761950492858887,-6.544950485229492,3.4590001106262207
1780563852480570400,21.4255703125,8.736000061035156,-6.277950286865234,3.3490500450134277
1780563852500084700,21.445084716796874,8.520000457763672,-5.971950054168701,3.078000068664551
1780563852519600600,21.4646005859375,6.871950149536133,-5.845950126647949,2.68500018119812
1780563852539128000,21.484128173828125,6.733950138092041,-5.7460503578186035,2.4940500259399414
1780563852558657800,21.50365771484375,6.754950523376465,-5.386050224304199,2.6740500926971436
1780563852578179000,21.523178955078127,6.886950492858887,-5.013000011444092,3.214050054550171
1780563852597702100,21.5427021484375,7.1449503898620605,-4.668000221252441,4.741950035095215
1780563852617231400,21.5622314453125,7.255950450897217,-4.464000225067139,5.005050182342529
1780563852636755200,21.581755126953126,6.991950511932373,-4.578000068664551,5.247000217437744
1780563852656274400,21.6012744140625,6.702000141143799,-4.788000106811523,5.671050071716309
1780563852675797000,21.620796875,6.601950168609619,-5.020050048828125,7.498950481414795
1780563852695319300,21.6403193359375,6.59505033493042,-5.218050479888916,7.741950511932373
1780563852714840800,21.6598408203125,6.550050258636475,-5.4340500831604,7.941000461578369
1780563852734367000,21.679366943359376,6.277050495147705,-5.586000442504883,8.068050384521484
1780563852753891600,21.6988916015625,5.878950119018555,-5.4970502853393555,8.28600025177002
1780563852773414100,21.7184140625,5.602050304412842,-5.295000076293945,8.767050743103027
1780563852792938800,21.737938720703124,5.487000465393066,-4.9770002365112305,9.367050170898438
1780563852812462300,21.75746240234375,5.466000080108643,-4.603050231933594,9.658950805664062
1780563852831990300,21.776990234375,5.55495023727417,-4.240950107574463,9.56505012512207
1780563852851518200,21.796518310546876,5.466000080108643,-3.81600022315979,9.192000389099121
1780563852871041800,21.816041748046874,5.245950222015381,-3.5560500621795654,8.742000579833984
1780563852890567400,21.8355673828125,5.061000347137451,-3.43500018119812,8.278050422668457
1780563852910094800,21.8550947265625,4.8480000495910645,-3.3139500617980957,7.734000205993652
1780563852929622300,21.874622314453124,4.779000282287598,-3.271050214767456,7.129050254821777
1780563852949150200,21.894150146484375,4.743000030517578,-3.2059502601623535,6.751950263977051
1780563852968682000,21.913681884765627,4.623000144958496,-3.0709500312805176,6.6469502449035645
1780563852988215600,21.933215576171875,4.504050254821777,-2.893050193786621,6.679050445556641
1780563853007740200,21.952740234375,4.255949974060059,-2.7910501956939697,6.676950454711914
1780563853027267000,21.97226708984375,3.931950092315674,-2.7529501914978027,6.658050537109375
1780563853046797600,21.991797607421876,3.5970001220703125,-2.7460501194000244,6.6850504875183105
1780563853066326500,22.011326416015624,3.2089500427246094,-2.7799501419067383,6.718050479888916
1780563853085856000,22.03085595703125,2.839050054550171,-2.7649500370025635,6.790050506591797
1780563853105385700,22.0503857421875,2.49495005607605,-2.6800501346588135,6.804000377655029
1780563853124916200,22.069916259765623,2.241000175476074,-2.6040000915527344,6.712950229644775
1780563853144444200,22.089444091796874,2.0209500789642334,-2.593050241470337,6.826050281524658
1780563853163974100,22.10897412109375,1.7830500602722168,-2.445000171661377,7.174050331115723
1780563853183502000,22.128502197265625,1.5649501085281372,-2.347050189971924,7.6080002784729
1780563853203028200,22.1480283203125,1.3639500141143799,-2.2489500045776367,8.004000663757324
1780563853222552600,22.167552490234375,1.2580500841140747,-2.2510499954223633,8.22705078125
1780563853242073300,22.1870732421875,1.3780500888824463,-2.514000177383423,8.41604995727539
1780563853261596700,22.2065966796875,1.6900501251220703,-2.5909500122070312,8.527950286865234
1780563853281120000,22.2261201171875,2.0209500789642334,-2.599950075149536,8.635050773620605
1780563853300643800,22.245643798828127,2.209050178527832,-2.674950122833252,8.770050048828125
1780563853320167700,22.265167724609373,2.31000018119812,-2.6760001182556152,8.719950675964355
1780563853339693600,22.284693603515624,2.2579500675201416,-2.734950065612793,8.583000183105469
1780563853359224300,22.304224365234376,2.1409502029418945,-2.8650002479553223,8.442000389099121
1780563853378755000,22.323755126953124,1.960050106048584,-2.8620002269744873,8.280000686645508
1780563853398281200,22.34328125,1.7320500612258911,-2.7960002422332764,8.152050018310547
1780563853417805600,22.3628056640625,1.4310001134872437,-2.7550501823425293,8.130000114440918
1780563853437326000,22.382326171875,1.1100000143051147,-2.6700000762939453,8.0910005569458
1780563853456845300,22.40184521484375,0.7909500598907471,-2.559000015258789,8.0110502243042
1780563853476367600,22.42136767578125,0.28995001316070557,-2.5249500274658203,8.035050392150879
1780563853495890000,22.440889892578124,-0.1279500126838684,-2.593050241470337,8.059050559997559
1780563853515410400,22.460410400390625,-0.43800002336502075,-2.68500018119812,8.047050476074219
1780563853534934000,22.47993408203125,-0.7849500179290771,-2.8000500202178955,8.140950202941895
1780563853554457900,22.499457763671874,-0.9790500402450562,-2.932950258255005,8.311050415039062
1780563853573978400,22.518978271484375,-1.1320500373840332,-2.91795015335083,8.421000480651855
1780563853593500200,22.538500244140625,-1.2390000820159912,-2.806950092315674,8.536050796508789
1780563853613021700,22.558021728515627,-1.2090001106262207,-2.76705002784729,8.587950706481934
1780563853632546000,22.577546142578125,-1.218000054359436,-2.7340500354766846,8.398050308227539
1780563853652075000,22.597074951171876,-1.2460500001907349,-2.8180501461029053,8.12700080871582
1780563853671605800,22.616605712890625,-1.1869500875473022,-3.1780500411987305,7.884000301361084
1780563853691135000,22.636135009765624,-0.9690000414848328,-3.724050283432007,7.657950401306152
1780563853710662700,22.65566259765625,-0.5719500184059143,-4.350000381469727,7.426050186157227
1780563853730189000,22.67518896484375,-0.1080000028014183,-4.999950408935547,7.197000503540039
1780563853749715200,22.694715087890625,0.2050500065088272,-5.551950454711914,7.008000373840332
1780563853769241300,22.714241455078124,0.4120500087738037,-5.896050453186035,6.841050148010254
1780563853788768000,22.73376806640625,0.43995001912117004,-6.000000476837158,6.760950088500977
1780563853808295700,22.753295654296874,0.36195001006126404,-5.90595006942749,6.763950347900391
1780563853827820500,22.772820556640625,0.29205000400543213,-5.716950416564941,6.784950256347656
1780563853847343000,22.792343017578126,0.24795001745224,-5.5570502281188965,6.796950340270996
1780563853866867500,22.811867431640625,0.37605002522468567,-5.503950119018555,6.828000545501709
1780563853886391800,22.831391845703124,0.6049500107765198,-5.485950469970703,6.871950149536133
1780563853905914000,22.8509140625,0.8800500631332397,-5.511000156402588,6.937950134277344
1780563853925434400,22.870434326171875,1.1160000562667847,-5.490000247955322,7.032000541687012
1780563853944954000,22.8899541015625,1.231950044631958,-5.36400032043457,7.141050338745117
1780563853964472600,22.90947265625,1.2300000190734863,-5.199000358581543,7.224000453948975
1780563853983990800,22.92899072265625,1.1899501085281372,-4.965000152587891,7.282950401306152
1780563854003512000,22.948511962890624,1.2250500917434692,-4.714950084686279,7.332000255584717
1780563854023034600,22.96803466796875,1.3669500350952148,-4.515000343322754,7.399050235748291
1780563854042558200,22.98755810546875,1.5889500379562378,-4.3279500007629395,7.528050422668457
1780563854062080000,23.007080078125,1.758000135421753,-4.219050407409668,7.804050445556641
1780563854081597400,23.026597412109375,1.8259501457214355,-4.207950115203857,8.1670503616333
1780563854101117200,23.0461171875,1.8400501012802124,-4.267050266265869,8.428950309753418
1780563854120639700,23.0656396484375,2.013000011444092,-4.440000057220459,8.496000289916992
1780563854140163000,23.0851630859375,2.058000087738037,-4.498050212860107,8.138999938964844
1780563854159684400,23.104684326171874,1.8270001411437988,-4.413000106811523,7.597950458526611
1780563854179209700,23.124209716796877,1.3380000591278076,-4.185000419616699,7.222050189971924
1780563854198739500,23.143739501953124,0.7810500264167786,-3.7920002937316895,6.975000381469727
1780563854218267000,23.163266845703124,0.6349500417709351,-3.3540000915527344,6.814950466156006
1780563854237793800,23.182793701171875,0.7900500297546387,-2.896050214767456,6.631950378417969
1780563854257318000,23.20231787109375,1.054050087928772,-2.568000078201294,6.409950256347656
1780563854276844800,23.2218447265625,1.2460500001907349,-2.3970000743865967,6.28695011138916
1780563854296375000,23.241375,1.2520500421524048,-2.323050022125244,6.348000526428223
1780563854315903000,23.260903076171875,1.2570000886917114,-2.3800501823425293,6.463950157165527
1780563854335429600,23.2804296875,1.4119501113891602,-2.5609500408172607,6.574950218200684
1780563854354952700,23.29995263671875,1.6639500856399536,-2.805000066757202,6.720000267028809
1780563854374474000,23.319473876953126,2.0299501419067383,-3.109950065612793,6.955050468444824
1780563854393996500,23.33899658203125,2.3680500984191895,-3.4069502353668213,7.255950450897217
1780563854413521000,23.35852099609375,2.48895001411438,-3.558000087738037,7.4569501876831055
1780563854433045500,23.37804541015625,2.39205002784729,-3.574050188064575,7.566000461578369
1780563854452571600,23.397571533203124,1.9420500993728638,-3.4330501556396484,7.606050491333008
1780563854472101600,23.4171015625,1.297950029373169,-3.2500500679016113,7.654050350189209
1780563854491629300,23.43662939453125,0.6739500164985657,-3.135000228881836,7.770000457763672
1780563854511155200,23.4561552734375,0.13695000112056732,-3.05400013923645,8.035950660705566
1780563854530684000,23.475683837890625,-0.3160500228404999,-2.9260501861572266,8.470050811767578
1780563854550215700,23.495215576171876,-0.49800002574920654,-2.6989500522613525,8.862000465393066
1780563854569746700,23.51474658203125,-0.4600500166416168,-2.4430501461029053,9.072000503540039
1780563854589276700,23.534276611328124,-0.1770000010728836,-2.1940500736236572,8.926050186157227
1780563854608805000,23.55380517578125,1.6660500764846802,-2.0710501670837402,8.45895004272461
1780563854628337200,23.573337158203124,1.8960001468658447,-2.0680501461029053,7.867950439453125
1780563854647871500,23.59287158203125,2.325000047683716,-1.9690500497817993,7.302000522613525
1780563854667403800,23.61240380859375,2.704050064086914,-1.8360000848770142,6.865950107574463
1780563854686930700,23.6319306640625,2.8159501552581787,-1.6900501251220703,6.664950370788574
1780563854706459100,23.651459228515623,3.0109500885009766,-1.4140501022338867,6.658950328826904
1780563854725990400,23.670990478515623,3.340050220489502,-1.1730000972747803,6.757950305938721
1780563854745518000,23.69051806640625,3.6100502014160156,-0.9439500570297241,6.909000396728516
1780563854765044200,23.710044189453125,3.955050230026245,-0.8740500211715698,7.1010003089904785
1780563854784576300,23.729576171875,4.43595027923584,-0.9799500703811646,7.350000381469727
1780563854804111600,23.749111572265626,4.858950138092041,-1.128000020980835,7.6080002784729
1780563854823642000,23.76864208984375,5.323050022125244,-1.3240500688552856,7.8600006103515625
1780563854843168800,23.788168701171877,5.788950443267822,-1.5870001316070557,8.03700065612793
1780563854862697500,23.807697509765624,6.115050315856934,-1.9549500942230225,8.038050651550293
1780563854882226400,23.827226318359376,6.48900032043457,-2.2789502143859863,7.864950180053711
1780563854901758500,23.846758544921876,6.86400032043457,-2.6040000915527344,7.6620001792907715
1780563854921290500,23.86629052734375,7.153050422668457,-2.877000093460083,7.438050270080566
1780563854940817700,23.885817626953123,7.414050579071045,-3.043950080871582,7.180950164794922
1780563854960346600,23.9053466796875,7.657950401306152,-3.214050054550171,6.9970502853393555
1780563854979876000,23.9248759765625,7.998000144958496,-3.3169500827789307,6.804000377655029
1780563854999404500,23.944404541015626,8.42400074005127,-3.3289501667022705,6.589950084686279
1780563855018933200,23.963933349609373,8.677950859069824,-3.385050058364868,6.56505012512207
1780563855038463500,23.98346337890625,8.779950141906738,-3.498000144958496,6.631050109863281
1780563855057993500,24.002993408203125,8.680950164794922,-3.697050094604492,6.708000183105469
1780563855077522700,24.022522705078124,8.314949989318848,-3.9240002632141113,6.7950005531311035
1780563855097052400,24.042052490234376,7.8349504470825195,-4.179000377655029,6.8359503746032715
1780563855116583400,24.06158349609375,7.31505012512207,-4.471050262451172,6.829950332641602
1780563855136114000,24.081114013671876,6.859950542449951,-4.839000225067139,6.775050163269043
1780563855155639300,24.100639404296874,6.66795015335083,-5.3460001945495605,6.78000020980835
1780563855175165400,24.12016552734375,6.739950180053711,-5.818950176239014,6.732000350952148
1780563855194699000,24.139698974609374,7.044000148773193,-6.1020002365112305,6.538050174713135
1780563855214226700,24.159226806640625,7.456050395965576,-6.072000503540039,6.402000427246094
1780563855233750800,24.178750732421875,7.657950401306152,-5.85705041885376,6.241950511932373
1780563855253278500,24.198278564453126,7.6870503425598145,-5.517000198364258,5.824950218200684
1780563855272805600,24.2178056640625,7.654050350189209,-5.1060004234313965,4.110000133514404
1780563855292330000,24.237330078125,7.717950344085693,-4.717950344085693,3.68595027923584
1780563855311855400,24.25685546875,8.12505054473877,-4.354050159454346,3.118950128555298
1780563855331380700,24.276380615234373,9.546000480651855,-4.102950096130371,2.7330000400543213
1780563855350908200,24.295908203125,9.87600040435791,-3.954000234603882,2.4190502166748047
1780563855370436400,24.315436279296875,10.216050148010254,-3.9210002422332764,2.1529500484466553
1780563855389964000,24.334964111328127,10.396950721740723,-3.8959500789642334,1.8000000715255737
1780563855409490700,24.35449072265625,10.423050880432129,-3.825000286102295,1.4830501079559326
1780563855429017600,24.374017578125,10.320000648498535,-3.868950128555298,1.440000057220459
1780563855448545800,24.3935458984375,10.177950859069824,-3.89805006980896,1.4970000982284546
1780563855468077600,24.41307763671875,10.152000427246094,-3.9090001583099365,1.5390000343322754
1780563855487602200,24.432602294921875,10.165050506591797,-3.973950147628784,1.6549500226974487
1780563855507127000,24.452126953125,10.186050415039062,-4.108950138092041,1.908000111579895
1780563855526658000,24.471657958984373,10.134000778198242,-4.326000213623047,2.218950033187866
1780563855546185000,24.49118505859375,9.997050285339355,-4.5960001945495605,2.5609500408172607
1780563855565710600,24.510710693359375,9.784950256347656,-4.818000316619873,2.9320502281188965
1780563855585238000,24.530238037109374,9.495000839233398,-5.014950275421143,3.3919501304626465
1780563855604767000,24.54976708984375,9.052950859069824,-5.227050304412842,3.9760501384735107
1780563855624297700,24.569297607421873,8.593050003051758,-5.323950290679932,4.627050399780273
1780563855643830000,24.588830078125,8.19795036315918,-5.392050266265869,5.16195011138916
1780563855663361300,24.608361328125,8.059050559997559,-5.338950157165527,5.401950359344482
1780563855682892800,24.627892822265625,8.233050346374512,-5.209050178527832,5.416950225830078
1780563855702426600,24.647426513671874,8.506950378417969,-5.08305025100708,5.254050254821777
1780563855721957000,24.66695703125,8.848050117492676,-4.873950004577637,5.08305025100708
1780563855741484300,24.686484375,9.046050071716309,-4.561950206756592,5.0560503005981445
1780563855761015000,24.70601513671875,9.045000076293945,-4.1509504318237305,5.209050178527832
1780563855780543000,24.72554296875,8.941950798034668,-3.756000280380249,5.404950141906738
1780563855800070100,24.745070068359375,8.746950149536133,-3.453000068664551,5.497950077056885
1780563855819602700,24.764602783203124,8.707950592041016,-3.1489500999450684,5.491950035095215
1780563855839132700,24.784132568359375,8.81505012512207,-2.8939502239227295,5.45205020904541
1780563855858657500,24.803657470703126,8.88900089263916,-2.761050224304199,5.467050075531006
1780563855878180400,24.823180419921876,8.904000282287598,-2.6760001182556152,5.556000232696533
1780563855897705200,24.842705322265626,8.52405071258545,-2.686950206756592,5.6170501708984375
1780563855917233000,24.86223291015625,6.975000381469727,-2.694000244140625,5.608050346374512
1780563855936761300,24.88176123046875,6.502050399780273,-2.6449501514434814,5.5759501457214355
1780563855956288000,24.9012880859375,5.914950370788574,-2.5039501190185547,5.406000137329102
1780563855975812600,24.9208125,4.504950046539307,-2.3959500789642334,5.308950424194336
1780563855995336400,24.94033642578125,4.180950164794922,-2.5060501098632812,5.416950225830078
1780563856014856700,24.959856689453126,3.7380001544952393,-2.7049500942230225,5.454000473022461
1780563856034380300,24.97938037109375,3.2629501819610596,-2.908050060272217,5.386950492858887
1780563856053906400,24.998906494140623,2.9280002117156982,-3.0229501724243164,5.374950408935547
1780563856073426400,25.018426513671876,2.6299500465393066,-3.0259501934051514,5.518050193786621
1780563856092944000,25.03794384765625,2.3490002155303955,-2.9220001697540283,5.925000190734863
1780563856112467500,25.057467529296876,2.2699501514434814,-2.7169501781463623,6.390000343322754
1780563856131993600,25.07699365234375,2.284950017929077,-2.54295015335083,6.670050144195557
1780563856151520500,25.0965205078125,2.5290000438690186,-2.3050501346588135,6.798000335693359
1780563856171048700,25.116048583984377,2.7690000534057617,-2.020050048828125,6.903000354766846
1780563856190576400,25.135576416015624,2.899050235748291,-1.8460501432418823,7.248000144958496
1780563856210101800,25.155101806640626,3.0049500465393066,-1.6150500774383545,7.689000129699707
1780563856229629200,25.174629150390626,3.106950044631958,-1.3819500207901,8.011950492858887
1780563856249155600,25.194155517578125,3.2790000438690186,-1.2720000743865967,8.290050506591797
1780563856268682800,25.213682861328124,3.391050100326538,-1.2619500160217285,8.521950721740723
1780563856288208100,25.2332080078125,3.5310001373291016,-1.4140501022338867,8.769000053405762
1780563856307732000,25.25273193359375,3.702000141143799,-1.6600500345230103,9.02400016784668
1780563856327259600,25.272259765625,3.799950122833252,-1.8570001125335693,9.133950233459473
1780563856346782500,25.291782470703126,3.826050281524658,-2.0190000534057617,9.109050750732422
1780563856366304000,25.311303955078124,3.7350001335144043,-2.212050199508667,9.088050842285156
1780563856385831700,25.330831787109375,3.5400002002716064,-2.347050189971924,9.058050155639648
1780563856405358600,25.350358642578126,3.337050199508667,-2.4409501552581787,9.010950088500977
1780563856424886000,25.369885986328125,3.151050090789795,-2.545950174331665,8.96505069732666
1780563856444413700,25.38941357421875,2.9580001831054688,-2.659050226211548,8.893950462341309
1780563856463933000,25.408932861328125,2.8219501972198486,-2.742000102996826,8.716950416564941
1780563856483452000,25.428451904296875,2.6569502353668213,-2.8279502391815186,8.556000709533691
1780563856502973700,25.4479736328125,2.4379501342773438,-2.937000036239624,8.493000030517578
1780563856522496500,25.46749658203125,2.3269500732421875,-2.9479501247406006,8.44005012512207
1780563856542016800,25.487016845703124,2.244000196456909,-2.968050241470337,8.463000297546387
1780563856561536000,25.506535888671873,2.263050079345703,-2.962050199508667,8.590950012207031
1780563856581061000,25.52606103515625,2.39805006980896,-2.8249502182006836,8.683950424194336
1780563856600588300,25.54558837890625,2.4100501537323,-2.7229502201080322,8.839950561523438
1780563856620110600,25.565110595703125,2.245950222015381,-2.590050220489502,8.916000366210938
1780563856639635500,25.584635498046875,2.0460000038146973,-2.4649500846862793,8.827950477600098
1780563856659164700,25.60416455078125,1.8379501104354858,-2.40405011177063,8.722949981689453
1780563856678688000,25.62368798828125,1.665000081062317,-2.335050106048584,8.556000709533691
1780563856698208800,25.643208740234375,1.5349500179290771,-2.395050048828125,8.425950050354004
1780563856717736000,25.66273583984375,1.53000009059906,-2.490000009536743,8.341950416564941
1780563856737261300,25.68226123046875,1.6030501127243042,-2.593950033187866,8.214000701904297
1780563856756785000,25.701784912109375,1.6470000743865967,-2.7109501361846924,8.11500072479248
1780563856776315100,25.721315185546874,1.6549500226974487,-2.811000108718872,8.109000205993652
1780563856795846000,25.740845947265626,1.519950032234192,-2.9760000705718994,8.191950798034668
1780563856815372500,25.76037255859375,1.3639500141143799,-3.160950183868408,8.368950843811035
