time,seconds_elapsed,z,y,x
1781031482070569000,0.15956884765625,9.467561721801758,2.226655960083008,-1.2030359506607056
1781031482393624000,0.4826240234375,9.42385482788086,2.4150800704956055,-1.1825129985809326
1781031482403375600,0.492375732421875,9.417699813842773,2.4320030212402344,-1.1967819929122925
1781031482422876200,0.511876220703125,9.41627311706543,2.4257349967956543,-1.220499038696289
1781031482442378500,0.53137841796875,9.419185638427734,2.3985700607299805,-1.2513200044631958
1781031482461888500,0.550888427734375,9.423529624938965,2.3666179180145264,-1.2791420221328735
1781031482481395000,0.57039501953125,9.429224014282227,2.3314249515533447,-1.301609992980957
1781031482500898300,0.589898193359375,9.436253547668457,2.293837070465088,-1.3173600435256958
1781031482520405800,0.60940576171875,9.444402694702148,2.254767894744873,-1.3263779878616333
1781031482539909000,0.6289091796875,9.453042984008789,2.215698003768921,-1.330657958984375
1781031482559409400,0.648409423828125,9.461289405822754,2.178502082824707,-1.3334660530090332
1781031482578910500,0.667910400390625,9.468429565429688,2.1446919441223145,-1.337581992149353
1781031482598415400,0.687415283203125,9.474089622497559,2.1146810054779053,-1.3452650308609009
1781031482617920800,0.706920654296875,9.478328704833984,2.087747097015381,-1.357424020767212
1781031482637424400,0.72642431640625,9.481721878051758,2.061379909515381,-1.3739229440689087
1781031482656931300,0.745931396484375,9.48521614074707,2.0320119857788086,-1.3934110403060913
1781031482676440000,0.765440185546875,9.49032211303711,1.9937260150909424,-1.4137979745864868
1781031482695945500,0.784945556640625,9.497776985168457,1.9425400495529175,-1.4348399639129639
1781031482715448000,0.804447998046875,9.507959365844727,1.8765939474105835,-1.4550260305404663
1781031482734951000,0.823950927734375,9.520529747009277,1.7965389490127563,-1.4737590551376343
1781031482754456000,0.8434560546875,9.534344673156738,1.706272006034851,-1.4916130304336548
1781031482773965600,0.862965576171875,9.547896385192871,1.610901951789856,-1.510848045349121
1781031482793476900,0.882476806640625,9.56001091003418,1.5139390230178833,-1.5343350172042847
1781031482812985000,0.901985107421875,9.570075988769531,1.4171949625015259,-1.5637129545211792
1781031482832490500,0.921490478515625,9.577751159667969,1.3209940195083618,-1.600517988204956
1781031482851999000,0.9409990234375,9.582809448242188,1.2256180047988892,-1.6454819440841675
1781031482871506200,0.960506103515625,9.585256576538086,1.1319899559020996,-1.6974869966506958
1781031482891009500,0.980009521484375,9.585670471191406,1.0409560203552246,-1.752524971961975
1781031482910516700,0.999516845703125,9.58459186553955,0.953827977180481,-1.807157039642334
1781031482930024000,1.01902392578125,9.582662582397461,0.8849719762802124,-1.8518630266189575
1781031482949528800,1.03852880859375,9.580479621887207,0.8345119953155518,-1.8862659931182861
1781031482969034000,1.058033935546875,9.578315734863281,0.8012599945068359,-1.9115040302276611
1781031482988538600,1.07753857421875,9.576126098632812,0.7828350067138672,-1.9300220012664795
1781031483008039200,1.0970390625,9.57363510131836,0.7753180265426636,-1.9453489780426025
1781031483027538700,1.11653857421875,9.570533752441406,0.7740579843521118,-1.96104896068573
1781031483047044000,1.136044189453125,9.570533752441406,0.7740579843521118,-1.96104896068573
1781031483066549800,1.1555498046875,9.560930252075195,0.7277650237083435,-2.0245890617370605
1781031483086049300,1.17504931640625,9.560930252075195,0.7277650237083435,-2.0245890617370605
1781031483105548800,1.194548828125,9.553720474243164,0.6819000244140625,-2.073992967605591
1781031483125052400,1.214052490234375,9.54461669921875,0.6229910254478455,-2.1335790157318115
1781031483144558300,1.233558349609375,9.533705711364746,0.5545809864997864,-2.2002029418945312
1781031483164070700,1.253070556640625,9.533705711364746,0.5545809864997864,-2.2002029418945312
1781031483183585500,1.27258544921875,9.508337020874023,0.4114049971103668,-2.3371500968933105
1781031483203097900,1.292097900390625,9.49532699584961,0.3421509861946106,-2.4003520011901855
1781031483222607000,1.311607177734375,9.483237266540527,0.2785109877586365,-2.4557371139526367
1781031483242116000,1.3311162109375,9.472800254821777,0.2231069952249527,-2.5012528896331787
1781031483261623300,1.350623291015625,9.464200973510742,0.17907799780368805,-2.5370869636535645
1781031483281129000,1.37012890625,9.456615447998047,0.14920000731945038,-2.5671310424804688
1781031483300636700,1.38963671875,9.449387550354004,0.13968800008296967,-2.594136953353882
1781031483320146400,1.409146484375,9.441584587097168,0.1531669944524765,-2.62164306640625
1781031483339658800,1.42865869140625,9.432679176330566,0.1879110038280487,-2.651273012161255
1781031483359174000,1.448173828125,9.423127174377441,0.23656399548053741,-2.681178092956543
1781031483378686000,1.46768603515625,9.414460182189941,0.2854340076446533,-2.706744909286499
1781031483398191600,1.487191650390625,9.408340454101562,0.3263860046863556,-2.723349094390869
1781031483417698600,1.506698486328125,9.405927658081055,0.35173299908638,-2.7285170555114746
1781031483437206500,1.52620654296875,9.407453536987305,0.35596999526023865,-2.7226970195770264
1781031483456713500,1.54571337890625,9.412948608398438,0.3361150026321411,-2.706181049346924
1781031483476221000,1.565220947265625,9.421285629272461,0.2920919954776764,-2.68217396736145
1781031483495727400,1.584727294921875,9.430073738098145,0.231330007314682,-2.6571030616760254
1781031483515235000,1.604235107421875,9.4375638961792,0.1579809933900833,-2.6357970237731934
1781031483534743300,1.623743408203125,9.442437171936035,0.08427999913692474,-2.621695041656494
1781031483554246100,1.64324609375,9.444911003112793,0.014654000289738178,-2.6140849590301514
1781031483573746200,1.66274609375,9.445289611816406,-0.04399200156331062,-2.6123878955841064
1781031483593248500,1.68224853515625,9.444201469421387,-0.08554799854755402,-2.615293025970459
1781031483612759000,1.701759033203125,9.443175315856934,-0.10658200085163116,-2.6182210445404053
1781031483632273700,1.721273681640625,9.443129539489746,-0.10730999708175659,-2.6183578968048096
1781031483651787300,1.740787353515625,9.444891929626465,-0.0940139964222908,-2.612504005432129
1781031483671297500,1.760297607421875,9.449256896972656,-0.07208999991416931,-2.59737491607666
1781031483690807600,1.7798076171875,9.45541763305664,-0.045483000576496124,-2.5754621028900146
1781031483710313700,1.799313720703125,9.4633150100708,-0.01995600014925003,-2.5466179847717285
1781031483729812500,1.8188125,9.472311973571777,-0.00024500000290572643,-2.5130250453948975
1781031483749313000,1.83831298828125,9.482422828674316,0.009349999949336052,-2.474586009979248
1781031483768818000,1.85781787109375,9.493538856506348,0.00748400017619133,-2.4315950870513916
1781031483788327400,1.877327392578125,9.504476547241211,-0.0007939999923110008,-2.388498067855835
1781031483807839700,1.89683984375,9.514862060546875,-0.013775999657809734,-2.3467419147491455
1781031483827352000,1.91635205078125,9.523609161376953,-0.028558000922203064,-2.310854911804199
1781031483846865200,1.935865234375,9.523609161376953,-0.028558000922203064,-2.310854911804199
1781031483866373600,1.95537353515625,9.535731315612793,-0.06343600153923035,-2.259603977203369
1781031483885880600,1.974880615234375,9.535731315612793,-0.06343600153923035,-2.259603977203369
1781031483905391000,1.99439111328125,9.53969955444336,-0.09123700112104416,-2.241831064224243
1781031483924899300,2.0138994140625,9.543088912963867,-0.1334809958934784,-2.2252299785614014
1781031483944402000,2.03340185546875,9.546152114868164,-0.19135800004005432,-2.207797050476074
1781031483963904300,2.052904296875,9.548885345458984,-0.26074299216270447,-2.1887919902801514
1781031483983410700,2.07241064453125,9.55126953125,-0.32883399724960327,-2.169126033782959
1781031484002918400,2.09191845703125,9.553597450256348,-0.3889960050582886,-2.1488239765167236
1781031484022427000,2.111427001953125,9.5559663772583,-0.4328500032424927,-2.129822015762329
1781031484041937000,2.13093701171875,9.55910587310791,-0.4555310010910034,-2.1109189987182617
1781031484061446100,2.150446044921875,9.563238143920898,-0.45579999685287476,-2.0920610427856445
1781031484080956200,2.1699560546875,9.568829536437988,-0.4356679916381836,-2.070673942565918
1781031484100466400,2.189466552734375,9.576183319091797,-0.4040890038013458,-2.042897939682007
1781031484119970300,2.20897021484375,9.585714340209961,-0.3657990097999573,-2.005060911178589
1781031484139471600,2.2284716796875,9.597412109375,-0.33267900347709656,-1.9542239904403687
1781031484158975000,2.24797509765625,9.61104965209961,-0.3066459894180298,-1.890421986579895
1781031484178476500,2.2674765625,9.626605033874512,-0.2902500033378601,-1.8122409582138062
1781031484197978600,2.286978515625,9.64382266998291,-0.2852509915828705,-1.7191009521484375
1781031484217480200,2.306480224609375,9.66196346282959,-0.2915709912776947,-1.612908959388733
1781031484236985000,2.325985107421875,9.680542945861816,-0.3064720034599304,-1.494372010231018
1781031484256490800,2.34549072265625,9.699037551879883,-0.32014200091362,-1.366081953048706
1781031484275991600,2.364991455078125,9.71667766571045,-0.33128100633621216,-1.231434941291809
1781031484295489500,2.384489501953125,9.733222961425781,-0.3355720043182373,-1.091681957244873
1781031484314985500,2.4039853515625,9.748289108276367,-0.32902100682258606,-0.9500570297241211
1781031484334488000,2.423488037109375,9.761706352233887,-0.30853399634361267,-0.8086370229721069
1781031484353991000,2.442990966796875,9.773183822631836,-0.27336999773979187,-0.6709290146827698
1781031484373491200,2.4624912109375,9.782632827758789,-0.22474099695682526,-0.5381259918212891
1781031484392991700,2.48199169921875,9.790114402770996,-0.16491800546646118,-0.40800800919532776
1781031484412493800,2.501493896484375,9.795568466186523,-0.09866499900817871,-0.2776919901371002
1781031484431996700,2.52099658203125,9.798906326293945,-0.031197000294923782,-0.14307400584220886
1781031484451500000,2.5405,9.799943923950195,0.033204998821020126,-0.0017839999636635184
1781031484471002600,2.560002685546875,9.798445701599121,0.08936499804258347,0.14991900324821472
1781031484490501600,2.579501708984375,9.794045448303223,0.13711699843406677,0.312855988740921
1781031484510002000,2.599001953125,9.786282539367676,0.17726799845695496,0.4870550036430359
1781031484529505800,2.618505859375,9.77460765838623,0.21229200065135956,0.6722919940948486
1781031484549012700,2.6380126953125,9.758505821228027,0.24482500553131104,0.8669599890708923
1781031484568522200,2.657522216796875,9.73749828338623,0.277554988861084,1.0696179866790771
1781031484588030500,2.677030517578125,9.711226463317871,0.31590500473976135,1.2776110172271729
1781031484607536000,2.6965361328125,9.679278373718262,0.3681190013885498,1.4886360168457031
1781031484627038700,2.716038818359375,9.679278373718262,0.3681190013885498,1.4886360168457031
1781031484646541800,2.735541748046875,9.679278373718262,0.3681190013885498,1.4886360168457031
1781031484666044400,2.75504443359375,9.601539611816406,0.49769100546836853,1.8980950117111206
1781031484685545700,2.774545654296875,9.556659698486328,0.5668050050735474,2.09499192237854
1781031484705047000,2.794047119140625,9.50914478302002,0.6320520043373108,2.2840030193328857
1781031484724548900,2.813548828125,9.460794448852539,0.6880940198898315,2.4616849422454834
1781031484744053500,2.833053466796875,9.460794448852539,0.6880940198898315,2.4616849422454834
1781031484763559700,2.8525595703125,9.369161605834961,0.7418699860572815,2.7764079570770264
1781031484783065000,2.872065185546875,9.32733154296875,0.7411559820175171,2.914030075073242
1781031484802568000,2.89156787109375,9.289349555969238,0.7306640148162842,3.035475015640259
1781031484822067200,2.911067138671875,9.255355834960938,0.7140390276908875,3.1414220333099365
1781031484841566700,2.930566650390625,9.225116729736328,0.695052981376648,3.2332839965820312
1781031484861067500,2.950067626953125,9.198094367980957,0.6769289970397949,3.31312894821167
1781031484880566500,2.96956640625,9.175067901611328,0.6609519720077515,3.379538059234619
1781031484900063000,2.98906298828125,9.156497955322266,0.6465319991111755,3.4322779178619385
1781031484919559000,3.008558837890625,9.142773628234863,0.6305999755859375,3.4716029167175293
1781031484939057200,3.02805712890625,9.133986473083496,0.6075199842453003,3.4987449645996094
1781031484958557000,3.047556884765625,9.129822731018066,0.5712940096855164,3.5156729221343994
1781031484978061600,3.0670615234375,9.129718780517578,0.5171329975128174,3.524315118789673
1781031484997568000,3.086568115234375,9.133156776428223,0.44364699721336365,3.525424003601074
1781031485017074200,3.10607421875,9.139800071716309,0.3531250059604645,3.5184290409088135
1781031485036583700,3.125583740234375,9.149327278137207,0.2502700090408325,3.5024518966674805
1781031485056094500,3.145094482421875,9.162050247192383,0.1426060050725937,3.475126028060913
1781031485075605000,3.16460498046875,9.178507804870605,0.03856800124049187,3.4341681003570557
1781031485095110100,3.184110107421875,9.19904613494873,-0.05525700002908707,3.3785340785980225
1781031485114611000,3.20361083984375,9.223852157592773,-0.13691799342632294,3.30784010887146
1781031485134114600,3.223114501953125,9.252782821655273,-0.20852500200271606,3.2221949100494385
1781031485153620500,3.242620361328125,9.285966873168945,-0.27427101135253906,3.120189905166626
1781031485173128400,3.26212841796875,9.323317527770996,-0.3397510051727295,3.0000550746917725
1781031485192640300,3.28164013671875,9.364226341247559,-0.4103569984436035,2.8605730533599854
1781031485212151300,3.3011513671875,9.40714168548584,-0.4958359897136688,2.7018189430236816
1781031485231661300,3.320661376953125,9.449288368225098,-0.587365984916687,2.5309998989105225
1781031485251173600,3.340173583984375,9.489029884338379,-0.6835759878158569,2.3518118858337402
1781031485270688000,3.35968798828125,9.524903297424316,-0.7737060189247131,2.171999931335449
1781031485290202000,3.3792021484375,9.555522918701172,-0.8564749956130981,1.9996099472045898
1781031485309719300,3.39871923828125,9.581059455871582,-0.929610013961792,1.8382420539855957
1781031485329237200,3.4182373046875,9.602705001831055,-0.9854829907417297,1.6902320384979248
1781031485348750800,3.437750732421875,9.621620178222656,-1.0329129695892334,1.5483909845352173
1781031485368262100,3.45726220703125,9.638168334960938,-1.0723780393600464,1.4126980304718018
1781031485387773400,3.4767734375,9.638168334960938,-1.0723780393600464,1.4126980304718018
1781031485407285200,3.49628515625,9.651983261108398,-1.1142719984054565,1.2796950340270996
1781031485426798000,3.515798095703125,9.672840118408203,-1.2052650451660156,1.0116809606552124
1781031485446312700,3.535312744140625,9.672840118408203,-1.2052650451660156,1.0116809606552124
1781031485465827800,3.554827880859375,9.672840118408203,-1.2052650451660156,1.0116809606552124
1781031485485343700,3.57434375,9.683443069458008,-1.3117539882659912,0.7417790293693542
1781031485504860700,3.593860595703125,9.684612274169922,-1.3700369596481323,0.6093249917030334
1781031485524376800,3.613376953125,9.68336009979248,-1.4292969703674316,0.47920700907707214
1781031485543889000,3.632888916015625,9.680267333984375,-1.4861069917678833,0.35201799869537354
1781031485563400000,3.65239990234375,9.67590045928955,-1.5379619598388672,0.2272389978170395
1781031485582915300,3.671915283203125,9.671258926391602,-1.579774022102356,0.10515200346708298
1781031485602433000,3.69143310546875,9.66647720336914,-1.612131953239441,-0.01563199982047081
1781031485621947400,3.710947509765625,9.661616325378418,-1.635457992553711,-0.13577400147914886
1781031485641456000,3.7304560546875,9.656571388244629,-1.650823950767517,-0.2557629942893982
1781031485660964900,3.74996484375,9.650934219360352,-1.6608129739761353,-0.3757050037384033
1781031485680479200,3.769479248046875,9.644285202026367,-1.6678650379180908,-0.49597400426864624
1781031485699996400,3.788996337890625,9.636292457580566,-1.6737149953842163,-0.6169049739837646
1781031485719509500,3.808509521484375,9.626948356628418,-1.6781649589538574,-0.7386590242385864
1781031485739022300,3.828022216796875,9.61643123626709,-1.679705023765564,-0.8618879914283752
1781031485758532400,3.847532470703125,9.604869842529297,-1.6771559715270996,-0.9867209792137146
1781031485778037200,3.867037353515625,9.592207908630371,-1.6703399419784546,-1.113332986831665
1781031485797546500,3.88654638671875,9.578133583068848,-1.6608279943466187,-1.2413740158081055
1781031485817060600,3.906060546875,9.562365531921387,-1.6503549814224243,-1.370208978652954
1781031485836576300,3.925576171875,9.544767379760742,-1.6401499509811401,-1.4991110563278198
1781031485856086800,3.945086669921875,9.525634765625,-1.63018000125885,-1.6262799501419067
1781031485875598000,3.96459814453125,9.50563907623291,-1.6188759803771973,-1.7498760223388672
1781031485895111700,3.984111572265625,9.485699653625488,-1.6037060022354126,-1.8680529594421387
1781031485914625800,4.003625732421875,9.466718673706055,-1.582658052444458,-1.9789930582046509
1781031485934142500,4.023142578125,9.449264526367188,-1.5548330545425415,-2.0817949771881104
1781031485953658600,4.04265869140625,9.433666229248047,-1.5199559926986694,-2.176158905029297
1781031485973175800,4.06217578125,9.419976234436035,-1.478039026260376,-2.2626149654388428
1781031485992694800,4.08169482421875,9.408287048339844,-1.4288899898529053,-2.3414530754089355
1781031486012210000,4.1012099609375,9.398292541503906,-1.3730239868164062,-2.413891077041626
1781031486031717600,4.120717529296875,9.389350891113281,-1.3104079961776733,-2.4825239181518555
1781031486051230000,4.14022998046875,9.381388664245605,-1.2369240522384644,-2.549424886703491
1781031486070748200,4.159748046875,9.373693466186523,-1.1525379419326782,-2.616396903991699
1781031486090261000,4.179260986328125,9.365926742553711,-1.0568219423294067,-2.6837570667266846
1781031486109772800,4.198772705078125,9.357565879821777,-0.9511740207672119,-2.7515859603881836
1781031486129286400,4.218286376953125,9.348379135131836,-0.8373969793319702,-2.8189680576324463
1781031486148799500,4.237799560546875,9.338507652282715,-0.7166990041732788,-2.8841989040374756
1781031486168314000,4.257314208984375,9.338507652282715,-0.7166990041732788,-2.8841989040374756
1781031486187829500,4.27682958984375,9.317384719848633,-0.46939700841903687,-3.000999927520752
1781031486207345000,4.296344970703125,9.317384719848633,-0.46939700841903687,-3.000999927520752
1781031486226857000,4.31585693359375,9.30679702758789,-0.34540900588035583,-3.0502800941467285
1781031486246369300,4.335369384765625,9.285652160644531,-0.10376399755477905,-3.1314361095428467
1781031486265884000,4.3548837890625,9.285652160644531,-0.10376399755477905,-3.1314361095428467
1781031486285399000,4.37439892578125,9.27508544921875,0.011982000432908535,-3.164275884628296
1781031486304912000,4.393911865234375,9.26457405090332,0.12268699705600739,-3.192589044570923
1781031486324423000,4.4134228515625,9.254587173461914,0.22854000329971313,-3.2156479358673096
1781031486343932200,4.43293212890625,9.245444297790527,0.3287369906902313,-3.233215093612671
1781031486363440000,4.452440185546875,9.232029914855957,0.5128129720687866,-3.2475600242614746
1781031486382948400,4.4719482421875,9.232029914855957,0.5128129720687866,-3.2475600242614746
1781031486402455300,4.491455322265625,9.228163719177246,0.5972909927368164,-3.2441070079803467
1781031486421965000,4.510965087890625,9.225785255432129,0.6777899861335754,-3.2350380420684814
1781031486441479200,4.530479248046875,9.2244873046875,0.7546809911727905,-3.2216920852661133
1781031486460992300,4.5499921875,9.223740577697754,0.8277490139007568,-3.205843925476074
1781031486480503000,4.5695029296875,9.222966194152832,0.8960229754447937,-3.1896750926971436
1781031486500014600,4.5890146484375,9.221892356872559,0.9569119811058044,-3.175062894821167
1781031486519529000,4.608529052734375,9.219832420349121,1.0101079940795898,-3.164547920227051
1781031486539041500,4.62804150390625,9.216370582580566,1.0546339750289917,-3.1601040363311768
1781031486558551600,4.647551513671875,9.210871696472168,1.090453028678894,-3.1639790534973145
1781031486578062600,4.6670625,9.20258617401123,1.1178710460662842,-3.1784861087799072
1781031486597575000,4.686574951171875,9.190799713134766,1.1373629570007324,-3.2055580615997314
1781031486617087700,4.706087646484375,9.175226211547852,1.1493539810180664,-3.245642900466919
1781031486636603400,4.725603271484375,9.156225204467773,1.153372049331665,-3.2974660396575928
1781031486656120000,4.7451201171875,9.134467124938965,1.148803949356079,-3.3588340282440186
1781031486675636500,4.764636474609375,9.110602378845215,1.135414958000183,-3.4274981021881104
1781031486695152600,4.784152587890625,9.085042953491211,1.1134710311889648,-3.501737117767334
1781031486714667000,4.8036669921875,9.057867050170898,1.0841009616851807,-3.5804710388183594
1781031486734185700,4.823185791015625,9.02867603302002,1.0488539934158325,-3.6637299060821533
1781031486753705200,4.842705322265625,8.996801376342773,1.0088789463043213,-3.7522940635681152
1781031486773223200,4.86222314453125,8.961338996887207,0.9643359780311584,-3.8476579189300537
1781031486792740900,4.881740966796875,8.921330451965332,0.9160900115966797,-3.951030969619751
1781031486812255200,4.901255126953125,8.871960639953613,0.8651419878005981,-4.071835994720459
1781031486831771600,4.920771728515625,8.806995391845703,0.8153929710388184,-4.220420837402344
1781031486851288000,4.9402880859375,8.723645210266113,0.768913984298706,-4.398499011993408
1781031486870800400,4.95980029296875,8.62634563446045,0.7258960008621216,-4.593390941619873
1781031486890314500,4.979314453125,8.531312942504883,0.6760900020599365,-4.774892807006836
1781031486909827300,4.998827392578125,8.452202796936035,0.6081860065460205,-4.922436237335205
1781031486929340700,5.018340576171875,8.40530014038086,0.5184990167617798,-5.012193202972412
1781031486948856300,5.037856201171875,8.397619247436523,0.40503498911857605,-5.035468101501465
1781031486968373500,5.05737353515625,8.421236038208008,0.27770400047302246,-5.0045647621154785
1781031486987893000,5.07689306640625,8.46347427368164,0.1432799994945526,-4.938529014587402
1781031487007412000,5.096411865234375,8.46347427368164,0.1432799994945526,-4.938529014587402
1781031487026929700,5.1159296875,8.504741668701172,0.013939999975264072,-4.86920690536499
1781031487046448400,5.135448486328125,8.504741668701172,0.013939999975264072,-4.86920690536499
1781031487065964800,5.15496484375,8.548574447631836,-0.21329599618911743,-4.787105083465576
1781031487085479200,5.174479248046875,8.548074722290039,-0.31051498651504517,-4.7826762199401855
1781031487104993000,5.193992919921875,8.543466567993164,-0.40456900000572205,-4.783880233764648
1781031487124508000,5.2135078125,8.53807258605957,-0.497283011674881,-4.784770965576172
1781031487144020500,5.2330205078125,8.53807258605957,-0.497283011674881,-4.784770965576172
1781031487163535000,5.25253515625,8.53542709350586,-0.6708880066871643,-4.768270969390869
1781031487183050200,5.27205029296875,8.540851593017578,-0.7478160262107849,-4.747064113616943
1781031487202562800,5.291562744140625,8.5518798828125,-0.8201940059661865,-4.715149879455566
1781031487222077400,5.311077392578125,8.56857681274414,-0.889805018901825,-4.672016143798828
1781031487241595000,5.330594970703125,8.592763900756836,-0.9560930132865906,-4.614139080047607
1781031487261114000,5.350114013671875,8.6221923828125,-1.0185680389404297,-4.545361042022705
1781031487280626200,5.369626220703125,8.655983924865723,-1.076658010482788,-4.4670729637146
1781031487300137700,5.3891376953125,8.692244529724121,-1.1304329633712769,-4.382576942443848
1781031487319656700,5.40865673828125,8.731219291687012,-1.1801559925079346,-4.291044235229492
1781031487339175200,5.428175048828125,8.773192405700684,-1.2277990579605103,-4.190895080566406
1781031487358692000,5.447692138671875,8.817949295043945,-1.27510404586792,-4.081404209136963
1781031487378211600,5.467211669921875,8.865524291992188,-1.3227959871292114,-3.9614009857177734
1781031487397731800,5.48673193359375,8.916400909423828,-1.3703030347824097,-3.8288469314575195
1781031487417252600,5.506252685546875,8.973490715026855,-1.4168050289154053,-3.6754770278930664
1781031487436777500,5.525777587890625,9.039966583251953,-1.4612679481506348,-3.4905169010162354
1781031487456299500,5.545299560546875,9.114761352539062,-1.5019890069961548,-3.2718698978424072
1781031487475817200,5.564817138671875,9.190691947937012,-1.5364539623260498,-3.034878969192505
1781031487495334000,5.584333984375,9.257654190063477,-1.5561519861221313,-2.8132240772247314
1781031487514853000,5.60385302734375,9.311688423156738,-1.5563050508499146,-2.628757953643799
1781031487534374400,5.62337451171875,9.348766326904297,-1.5376360416412354,-2.505244016647339
1781031487553894700,5.642894775390625,9.3701171875,-1.5031850337982178,-2.4456748962402344
1781031487573415200,5.662415283203125,9.380073547363281,-1.4625999927520752,-2.432081937789917
1781031487592936000,5.68193603515625,9.384574890136719,-1.417551040649414,-2.4413740634918213
1781031487612457500,5.70145751953125,9.39244556427002,-1.3749289512634277,-2.4354751110076904
1781031487631978500,5.720978515625,9.409383773803711,-1.3355469703674316,-2.3916099071502686
1781031487651496000,5.740495849609375,9.44045352935791,-1.3006099462509155,-2.2860989570617676
1781031487671012900,5.760012939453125,9.481356620788574,-1.2686799764633179,-2.1293981075286865
1781031487690535700,5.77953564453125,9.525003433227539,-1.2314800024032593,-1.948788046836853
1781031487710059500,5.7990595703125,9.567462921142578,-1.188730001449585,-1.7580000162124634
1781031487729580000,5.818580078125,9.606013298034668,-1.142791986465454,-1.5679689645767212
1781031487749100800,5.838100830078125,9.63994026184082,-1.0967799425125122,-1.381525993347168
1781031487768623900,5.857623779296875,9.63994026184082,-1.0967799425125122,-1.381525993347168
1781031487788141800,5.877141845703125,9.692839622497559,-0.9943510293960571,-1.048872947692871
1781031487807654400,5.896654296875,9.692839622497559,-0.9943510293960571,-1.048872947692871
1781031487827173400,5.91617333984375,9.71424674987793,-0.932449996471405,-0.8966400027275085
1781031487846696700,5.93569677734375,9.750638008117676,-0.7843390107154846,-0.591500997543335
1781031487866218000,5.955218017578125,9.750638008117676,-0.7843390107154846,-0.591500997543335
1781031487885737700,5.97473779296875,9.76608657836914,-0.70032799243927,-0.4160439968109131
1781031487905259500,5.994259521484375,9.778318405151367,-0.6139910221099854,-0.21795299649238586
1781031487924782600,6.013782470703125,9.78586196899414,-0.5262079834938049,0.0040779998525977135
1781031487944303400,6.033303466796875,9.786938667297363,-0.43951499462127686,0.25030800700187683
1781031487963820300,6.0528203125,9.780011177062988,-0.35307300090789795,0.5164470076560974
1781031487983335000,6.0723349609375,9.763931274414062,-0.265857994556427,0.796845018863678
1781031488002852400,6.091852294921875,9.740670204162598,-0.16971300542354584,1.0632760524749756
1781031488022369500,6.11136962890625,9.71175479888916,-0.06661500036716461,1.310492992401123
1781031488041884700,6.130884765625,9.679230690002441,0.0425570011138916,1.5331950187683105
1781031488061401000,6.150401123046875,9.644669532775879,0.15713399648666382,1.7307970523834229
1781031488080915200,6.169915283203125,9.609057426452637,0.2755129933357239,1.9052850008010864
1781031488100429000,6.189428955078125,9.573127746582031,0.38819000124931335,2.060228109359741
1781031488119946200,6.2089462890625,9.535755157470703,0.4869289994239807,2.2073190212249756
1781031488139465200,6.22846533203125,9.497156143188477,0.5721549987792969,2.3487548828125
1781031488158980600,6.247980712890625,9.457012176513672,0.6452829837799072,2.4876790046691895
1781031488178494200,6.267494140625,9.415149688720703,0.7091289758682251,2.625278949737549
1781031488198006000,6.287006103515625,9.370770454406738,0.7683969736099243,2.763735055923462
1781031488217514800,6.3065146484375,9.32234001159668,0.8339210152626038,2.9049150943756104
1781031488237024500,6.3260244140625,9.26887321472168,0.9079409837722778,3.0501809120178223
1781031488256536600,6.34553662109375,9.212139129638672,0.9915300011634827,3.192702054977417
1781031488276050400,6.365050537109375,9.153411865234375,1.0829509496688843,3.329005002975464
1781031488295562000,6.38456201171875,9.094229698181152,1.1768720149993896,3.45687198638916
1781031488315074300,6.40407421875,9.037495613098145,1.264441967010498,3.5727930068969727
1781031488334589200,6.423589111328125,8.98757553100586,1.336303949356079,3.6712069511413574
1781031488354105000,6.44310498046875,8.947942733764648,1.3840949535369873,3.7494800090789795
1781031488373617400,6.462617431640625,8.922710418701172,1.3978379964828491,3.8041160106658936
1781031488393130500,6.482130615234375,8.912635803222656,1.378013014793396,3.834839105606079
1781031488412649000,6.50164892578125,8.918667793273926,1.3240079879760742,3.839840888977051
1781031488432170200,6.521170166015625,8.939475059509277,1.2422579526901245,3.8187150955200195
1781031488451688400,6.5406884765625,8.971456527709961,1.1403130292892456,3.775264024734497
1781031488471204000,6.5602041015625,9.017133712768555,1.026826024055481,3.698232889175415
1781031488490721500,6.579721435546875,9.07010269165039,0.9115750193595886,3.597533941268921
1781031488510237000,6.59923681640625,9.129169464111328,0.7962999939918518,3.473351001739502
1781031488529751300,6.618751220703125,9.191950798034668,0.6880260109901428,3.3278629779815674
1781031488549268200,6.638268310546875,9.256596565246582,0.5888640284538269,3.1636440753936768
1781031488568789500,6.65778955078125,9.322355270385742,0.49803298711776733,2.98088002204895
1781031488588308000,6.677307861328125,9.382672309875488,0.40408000349998474,2.8003900051116943
1781031488607825200,6.6968251953125,9.382672309875488,0.40408000349998474,2.8003900051116943
1781031488627341000,6.716341064453125,9.437301635742188,0.30156099796295166,2.6241939067840576
1781031488646852000,6.73585205078125,9.485921859741211,0.1857369989156723,2.4541380405426025
1781031488666365000,6.755364990234375,9.565583229064941,-0.10024300217628479,2.1282761096954346
1781031488685877500,6.77487744140625,9.565583229064941,-0.10024300217628479,2.1282761096954346
1781031488705389800,6.794389892578125,9.596571922302246,-0.2636370062828064,1.9688329696655273
1781031488724905200,6.8139052734375,9.623920440673828,-0.42719098925590515,1.7993489503860474
1781031488744419600,6.833419677734375,9.647738456726074,-0.5829499959945679,1.6190470457077026
1781031488763933000,6.852932861328125,9.668108940124512,-0.7247329950332642,1.4291330575942993
1781031488783445800,6.87244580078125,9.68480396270752,-0.8507789969444275,1.2331830263137817
1781031488802956800,6.891956787109375,9.697858810424805,-0.9630720019340515,1.0315159559249878
1781031488822464800,6.91146484375,9.706454277038574,-1.0675020217895508,0.8277609944343567
1781031488841972700,6.93097265625,9.710692405700684,-1.163761019706726,0.6229829788208008
1781031488861479400,6.9504794921875,9.71058177947998,-1.2528159618377686,0.4184049963951111
1781031488880992000,6.969991943359375,9.706165313720703,-1.3356590270996094,0.21536800265312195
1781031488900507000,6.9895068359375,9.698034286499023,-1.4099379777908325,0.014258000068366528
1781031488920021200,7.009021240234375,9.687017440795898,-1.4723089933395386,-0.1843400001525879
1781031488939533600,7.028533447265625,9.673844337463379,-1.5209619998931885,-0.3786799907684326
1781031488959047000,7.048046875,9.65903091430664,-1.555981993675232,-0.5674809813499451
1781031488978562600,7.0675625,9.642770767211914,-1.5792269706726074,-0.7503399848937988
1781031488998078700,7.08707861328125,9.62514591217041,-1.5923229455947876,-0.9279379844665527
1781031489017597400,7.106597412109375,9.606109619140625,-1.5968949794769287,-1.1011780500411987
1781031489037115400,7.126115478515625,9.585541725158691,-1.5948230028152466,-1.270401954650879
1781031489056633600,7.145633544921875,9.56338119506836,-1.587852954864502,-1.4354300498962402
1781031489076153300,7.1651533203125,9.539817810058594,-1.577286958694458,-1.5950069427490234
1781031489095673000,7.184673095703125,9.515307426452637,-1.562535047531128,-1.7485430240631104
1781031489115192600,7.204192626953125,9.4901762008667,-1.5434600114822388,-1.8958590030670166
1781031489134716700,7.223716552734375,9.46437931060791,-1.522400975227356,-2.03662109375
1781031489154239000,7.243239013671875,9.437600135803223,-1.5022469758987427,-2.1713991165161133
1781031489173760300,7.26276025390625,9.409651756286621,-1.4849610328674316,-2.300724983215332
1781031489193282800,7.28228271484375,9.38070011138916,-1.4699360132217407,-2.4252309799194336
1781031489212802300,7.30180224609375,9.351896286010742,-1.4534460306167603,-2.5435268878936768
1781031489232318500,7.321318359375,9.323738098144531,-1.4346129894256592,-2.655142068862915
1781031489251839000,7.3408388671875,9.296748161315918,-1.411579966545105,-2.760059118270874
1781031489271361800,7.36036181640625,9.271245956420898,-1.3826440572738647,-2.8587210178375244
1781031489290879000,7.37987890625,9.248431205749512,-1.3433510065078735,-2.9499011039733887
1781031489310399200,7.399399169921875,9.228677749633789,-1.2929589748382568,-3.0331099033355713
1781031489329924400,7.41892431640625,9.211057662963867,-1.235703945159912,-3.10957407951355
1781031489349448400,7.438448486328125,9.195091247558594,-1.175137996673584,-3.179521083831787
1781031489368971800,7.4579716796875,9.180354118347168,-1.1142189502716064,-3.2433929443359375
1781031489388491800,7.47749169921875,9.180354118347168,-1.1142189502716064,-3.2433929443359375
1781031489408012000,7.497011962890625,9.154324531555176,-0.996662974357605,-3.3533530235290527
1781031489427534300,7.516534423828125,9.142204284667969,-0.9445779919624329,-3.4011590480804443
1781031489447057400,7.536057373046875,9.142204284667969,-0.9445779919624329,-3.4011590480804443
1781031489466582800,7.555582763671875,9.120771408081055,-0.8492900133132935,-3.482846975326538
1781031489486103600,7.575103515625,9.120771408081055,-0.8492900133132935,-3.482846975326538
1781031489505617400,7.594617431640625,9.120771408081055,-0.8492900133132935,-3.482846975326538
1781031489525137400,7.614137451171875,9.10470199584961,-0.7575420141220093,-3.5454940795898438
1781031489544662500,7.63366259765625,9.098599433898926,-0.710972011089325,-3.5707149505615234
1781031489564187600,7.653187744140625,9.093918800354004,-0.6624580025672913,-3.591907024383545
1781031489583710700,7.672710693359375,9.090843200683594,-0.6116309762001038,-3.608668088912964
1781031489603233300,7.6922333984375,9.089937210083008,-0.5578330159187317,-3.6196489334106445
1781031489622758100,7.711758056640625,9.091002464294434,-0.5009350180625916,-3.6252949237823486
1781031489642282800,7.73128271484375,9.094145774841309,-0.44164198637008667,-3.625114917755127
1781031489661804800,7.7508046875,9.099056243896484,-0.38126900792121887,-3.6196401119232178
1781031489681328600,7.77032861328125,9.105087280273438,-0.32114899158477783,-3.6102969646453857
1781031489700850400,7.789850341796875,9.111617088317871,-0.2627210021018982,-3.5985300540924072
1781031489720372500,7.80937255859375,9.118165016174316,-0.20691899955272675,-3.5855600833892822
1781031489739892000,7.82889208984375,9.124678611755371,-0.15394200384616852,-3.571629047393799
1781031489759407600,7.84840771484375,9.131425857543945,-0.10347399860620499,-3.556169033050537
1781031489778923800,7.867923828125,9.13878059387207,-0.0553399994969368,-3.538306951522827
1781031489798435800,7.887435791015625,9.147008895874023,-0.009575000032782555,-3.5174028873443604
1781031489817948200,7.9069482421875,9.155970573425293,0.033861998468637466,-3.493860960006714
1781031489837460500,7.92646044921875,9.165420532226562,0.0754539966583252,-3.4683361053466797
1781031489856978000,7.94597802734375,9.174809455871582,0.1160380020737648,-3.4422969818115234
1781031489876497200,7.9654970703125,9.183564186096191,0.1562580019235611,-3.4172699451446533
1781031489896010800,7.9850107421875,9.191105842590332,0.19697000086307526,-3.3948159217834473
1781031489915528000,8.00452783203125,9.196858406066895,0.23864899575710297,-3.3765130043029785
1781031489935048000,8.0240478515625,9.20046329498291,0.2817299962043762,-3.363347053527832
1781031489954567400,8.0435673828125,9.201620101928711,0.3266499936580658,-3.356112003326416
1781031489974086000,8.0630859375,9.20020866394043,0.3727479875087738,-3.3551769256591797
1781031489993608000,8.08260791015625,9.196050643920898,0.41833099722862244,-3.361196994781494
1781031490013133800,8.1021337890625,9.189051628112793,0.4624370038509369,-3.3745319843292236
1781031490032656400,8.121656494140625,9.178980827331543,0.504052996635437,-3.3959128856658936
1781031490052172800,8.1411728515625,9.165346145629883,0.5425339937210083,-3.4266738891601562
1781031490071691300,8.160691162109375,9.14790153503418,0.5786600112915039,-3.4671359062194824
1781031490091213800,8.1802138671875,9.12601089477539,0.6133520007133484,-3.5184829235076904
1781031490110730200,8.199730224609375,9.099678039550781,0.6480159759521484,-3.579935073852539
1781031490130245400,8.219245361328126,9.068646430969238,0.6826720237731934,-3.651521921157837
1781031490149760500,8.238760498046876,9.0329008102417,0.7173410058021545,-3.7325780391693115
1781031490169277700,8.258277587890625,8.9927396774292,0.7519580125808716,-3.8216729164123535
1781031490188788500,8.27778857421875,8.948408126831055,0.7851719856262207,-3.91784405708313
1781031490208296400,8.29729638671875,8.900727272033691,0.8159549832344055,-4.018864154815674
1781031490227810600,8.316810546875,8.850043296813965,0.843675971031189,-4.123703956604004
1781031490247326200,8.336326171875,8.796775817871094,0.8685569763183594,-4.231115818023682
1781031490266837200,8.355837158203125,8.796775817871094,0.8685569763183594,-4.231115818023682
1781031490286350300,8.375350341796874,8.740547180175781,0.8911139965057373,-4.341512203216553
1781031490305871400,8.394871337890624,8.740547180175781,0.8911139965057373,-4.341512203216553
1781031490325392400,8.414392333984376,8.617050170898438,0.9323850274085999,-4.573522090911865
1781031490344912100,8.433912109375,8.549324989318848,0.951583981513977,-4.695052146911621
1781031490364431000,8.45343115234375,8.476516723632812,0.9687209725379944,-4.8218488693237305
1781031490383946500,8.472946533203125,8.395853996276855,0.9834290146827698,-4.958075046539307
1781031490403457000,8.49245703125,8.305280685424805,0.9975669980049133,-5.1055989265441895
1781031490422971600,8.5119716796875,8.217421531677246,1.0112639665603638,-5.243214130401611
1781031490442486800,8.53148681640625,8.145059585571289,1.0151640176773071,-5.354197025299072
1781031490461999900,8.550999755859374,8.0967435836792,0.9986640214920044,-5.430044174194336
1781031490501018600,8.5900185546875,8.11232852935791,0.8881679773330688,-5.425979137420654
1781031490520536000,8.6095361328125,8.169705390930176,0.8063899874687195,-5.352161884307861
1781031490540053200,8.62905322265625,8.240068435668945,0.723688006401062,-5.255238056182861
1781031490559569000,8.64856884765625,8.305761337280273,0.6595680117607117,-5.159389019012451
1781031490579083300,8.668083251953124,8.361186981201172,0.6251940131187439,-5.073428153991699
1781031490598594800,8.6875947265625,8.400816917419434,0.616021990776062,-5.008670806884766
1781031490618108000,8.70710791015625,8.427249908447266,0.6306959986686707,-4.962224960327148
1781031490637619700,8.72661962890625,8.456762313842773,0.6430960297584534,-4.910152912139893
1781031490657127000,8.746126953125,8.489889144897461,0.6401119828224182,-4.8530449867248535
1781031490676633300,8.76563330078125,8.528916358947754,0.610306978225708,-4.788015842437744
1781031490696143400,8.785143310546875,8.573738098144531,0.5516859889030457,-4.714515209197998
1781031490715655200,8.8046552734375,8.62239933013916,0.47365400195121765,-4.633562088012695
1781031490735169000,8.8241689453125,8.672125816345215,0.38586699962615967,-4.548114776611328
1781031490754684700,8.8436845703125,8.720579147338867,0.3079510033130646,-4.46056604385376
1781031490774195200,8.8631953125,8.769229888916016,0.24550999701023102,-4.36810302734375
1781031490793703400,8.882703369140625,8.820564270019531,0.2048649936914444,-4.265639781951904
1781031490813207600,8.90220751953125,8.875350952148438,0.18912099301815033,-4.151189804077148
1781031490832713200,8.921713134765625,8.934346199035645,0.19551199674606323,-4.022342205047607
1781031490852222200,8.94122216796875,8.997028350830078,0.2057649940252304,-3.8795809745788574
1781031490871727000,8.96072705078125,9.062837600708008,0.20668600499629974,-3.723205089569092
1781031490891228700,8.980228759765625,9.128767013549805,0.1940380036830902,-3.559209108352661
1781031490910731000,8.99973095703125,9.191354751586914,0.1656859964132309,-3.3958120346069336
1781031490930238000,9.019238037109375,9.249213218688965,0.12402500212192535,-3.236768960952759
1781031490949742800,9.038742919921875,9.302547454833984,0.07479999959468842,-3.081723928451538
1781031490969250000,9.05825,9.353157043457031,0.029346000403165817,-2.925337076187134
1781031490988762000,9.07776220703125,9.40180492401123,-0.009996999986469746,-2.7651350498199463
1781031491008273700,9.097273681640624,9.442917823791504,-0.03873800113797188,-2.6210289001464844
1781031491027782400,9.116782470703125,9.473016738891602,-0.04424300044775009,-2.509979009628296
1781031491047290600,9.13629052734375,9.473016738891602,-0.04424300044775009,-2.509979009628296
1781031491066800400,9.15580029296875,9.473016738891602,-0.04424300044775009,-2.509979009628296
1781031491086310400,9.175310302734376,9.50341796875,0.049619000405073166,-2.3921899795532227
1781031491105822200,9.194822265625,9.50341796875,0.049619000405073166,-2.3921899795532227
1781031491125331700,9.214331787109375,9.493294715881348,0.24921000003814697,-2.4197640419006348
1781031491144844500,9.233844482421874,9.48772144317627,0.349712997674942,-2.4291679859161377
1781031491164356000,9.253356201171876,9.490854263305664,0.42575201392173767,-2.4046640396118164
1781031491183864300,9.2728642578125,9.503005027770996,0.4647440016269684,-2.348810911178589
1781031491203376400,9.29237646484375,9.52586555480957,0.471233993768692,-2.252955913543701
1781031491222889500,9.311889404296876,9.557998657226562,0.44785600900650024,-2.117563009262085
1781031491242399500,9.3313994140625,9.589948654174805,0.42465999722480774,-1.9729540348052979
1781031491261906000,9.350906005859375,9.620174407958984,0.4184969961643219,-1.8212900161743164
1781031491281416700,9.370416748046875,9.647015571594238,0.4443109929561615,-1.6666409969329834
1781031491300926000,9.389926025390626,9.669573783874512,0.5054129958152771,-1.5112589597702026
1781031491320432400,9.409432373046876,9.687976837158203,0.5902659893035889,-1.3545069694519043
1781031491339941400,9.42894140625,9.703113555908203,0.68545001745224,-1.1915309429168701
1781031491359451400,9.448451416015626,9.717633247375488,0.7657439708709717,-1.0105639696121216
1781031491378962700,9.467962646484375,9.731590270996094,0.8246089816093445,-0.810030996799469
1781031491398473200,9.48747314453125,9.74466609954834,0.8585140109062195,-0.5868960022926331
1781031491417983000,9.50698291015625,9.754883766174316,0.8761929869651794,-0.3384320139884949
1781031491437496300,9.526496337890626,9.759618759155273,0.886368989944458,-0.06473600119352341
1781031491457010700,9.5460107421875,9.75415325164795,0.9180920124053955,0.23150500655174255
1781031491476529700,9.56552978515625,9.73510456085205,0.9883049726486206,0.5394399762153625
1781031491496048400,9.58504833984375,9.70042610168457,1.1008470058441162,0.8543149828910828
1781031491515566800,9.60456689453125,9.650420188903809,1.2443039417266846,1.1666630506515503
1781031491535084500,9.62408447265625,9.589000701904297,1.3937879800796509,1.4657440185546875
1781031491554596000,9.64359619140625,9.521385192871094,1.5350149869918823,1.739812970161438
1781031491574106400,9.6631064453125,9.457830429077148,1.641016960144043,1.9739539623260498
1781031491593617700,9.68261767578125,9.404899597167969,1.7029019594192505,2.165174961090088
1781031491613129700,9.702129638671876,9.364517211914062,1.7216039896011353,2.319891929626465
1781031491632642300,9.721642333984375,9.33458423614502,1.7091679573059082,2.4462809562683105
1781031491652158200,9.741158203125,9.3115234375,1.6782610416412354,2.5532259941101074
1781031491671673300,9.76067333984375,9.292882919311523,1.63441002368927,2.647834062576294
1781031491691186000,9.78018603515625,9.273747444152832,1.5845279693603516,2.7435131072998047
1781031491710697700,9.79969775390625,9.252269744873047,1.5324490070343018,2.843785047531128
1781031491730208500,9.81920849609375,9.228011131286621,1.4811029434204102,2.9479050636291504
1781031491749720600,9.838720458984374,9.201055526733398,1.432420015335083,3.054297924041748
1781031491769236500,9.858236572265625,9.173150062561035,1.3880720138549805,3.15698504447937
1781031491788749000,9.8777490234375,9.145849227905273,1.3491560220718384,3.2516469955444336
1781031491808257000,9.897257080078125,9.12126636505127,1.3132970333099365,3.3343288898468018
1781031491827770000,9.91677001953125,9.101223945617676,1.2764790058135986,3.402693033218384
1781031491847288600,9.93628857421875,9.101223945617676,1.2764790058135986,3.402693033218384
1781031491866805500,9.955805419921875,9.082826614379883,1.1761469841003418,3.4869658946990967
1781031491886321200,9.975321044921875,9.082826614379883,1.1761469841003418,3.4869658946990967
1781031491905836800,9.9948369140625,9.082826614379883,1.1761469841003418,3.4869658946990967
1781031491925349400,10.014349365234375,9.099678039550781,1.0214699506759644,3.4917690753936768
1781031491944860200,10.033860107421875,9.120742797851562,0.9252060055732727,3.4635300636291504
1781031491964371700,10.053371826171874,9.151376724243164,0.8211759924888611,3.4085140228271484
1781031491983884300,10.07288427734375,9.18968391418457,0.7139819860458374,3.3286540508270264
1781031492003399200,10.092399169921874,9.235372543334961,0.6020259857177734,3.222646951675415
1781031492022915600,10.11191552734375,9.286493301391602,0.4783490002155304,3.0939040184020996
1781031492042433000,10.13143310546875,9.341817855834961,0.3387489914894104,2.9420549869537354
1781031492061948700,10.15094873046875,9.398833274841309,0.17400899529457092,2.7697739601135254
1781031492081461500,10.17046142578125,9.452486991882324,-0.017835000529885292,2.586535930633545
1781031492100973800,10.189973876953125,9.50003719329834,-0.2352920025587082,2.3945610523223877
1781031492120490800,10.20949072265625,9.53911304473877,-0.46446099877357483,2.1976370811462402
1781031492140003800,10.22900390625,9.569107055664062,-0.6839249730110168,2.001110076904297
1781031492159516000,10.248515869140626,9.590136528015137,-0.8879240155220032,1.8113149404525757
1781031492179030300,10.2680302734375,9.603053092956543,-1.065830945968628,1.6387150287628174
1781031492198543000,10.287543212890625,9.610519409179688,-1.2147619724273682,1.484002947807312
1781031492218057000,10.307056884765625,9.614995956420898,-1.3338359594345093,1.346377968788147
1781031492237568000,10.326568115234375,9.617363929748535,-1.4320629835128784,1.2229089736938477
1781031492257074700,10.34607470703125,9.617904663085938,-1.518671989440918,1.108849048614502
1781031492276585500,10.36558544921875,9.61739730834961,-1.5964269638061523,0.9985420107841492
1781031492296104700,10.385104736328126,9.616776466369629,-1.6676260232925415,0.8812699913978577
1781031492315622400,10.404622314453125,9.615799903869629,-1.734071969985962,0.7545710206031799
1781031492335136500,10.424136474609375,9.613892555236816,-1.7974790334701538,0.6181610226631165
1781031492354647800,10.443647705078124,9.610252380371094,-1.859734058380127,0.4737510085105896
1781031492374160400,10.463160400390626,9.604140281677246,-1.922389030456543,0.3238840103149414
1781031492393680600,10.4826806640625,9.595236778259277,-1.98552405834198,0.1706400066614151
1781031492413201200,10.502201171875,9.583685874938965,-2.047616958618164,0.015522999688982964
1781031492432716300,10.52171630859375,9.570034980773926,-2.1058850288391113,-0.14027099311351776
1781031492452225800,10.541225830078124,9.555329322814941,-2.1561200618743896,-0.2946609854698181
1781031492471730700,10.560730712890624,9.539861679077148,-2.1978869438171387,-0.4475809931755066
1781031492491238400,10.58023828125,9.52458381652832,-2.2289860248565674,-0.5949109792709351
1781031492510754600,10.599754638671875,9.509620666503906,-2.2502100467681885,-0.7373369932174683
1781031492530274000,10.619274169921875,9.495122909545898,-2.2623019218444824,-0.874422013759613
1781031492549791000,10.638791015625,9.480952262878418,-2.266977071762085,-1.0061579942703247
1781031492569307100,10.65830712890625,9.46638298034668,-2.2676069736480713,-1.1338200569152832
1781031492588821800,10.67782177734375,9.451602935791016,-2.2642030715942383,-1.2572150230407715
1781031492608339000,10.6973388671875,9.451602935791016,-2.2642030715942383,-1.2572150230407715
1781031492627853600,10.716853515625,9.418144226074219,-2.2538650035858154,-1.5028820037841797
1781031492647367000,10.736366943359375,9.399453163146973,-2.2477331161499023,-1.6241849660873413
1781031492666882600,10.755882568359375,9.379403114318848,-2.24127197265625,-1.744562029838562
1781031492686394000,10.77539404296875,9.379403114318848,-2.24127197265625,-1.744562029838562
1781031492705910800,10.794910888671875,9.379403114318848,-2.24127197265625,-1.744562029838562
1781031492725434400,10.814434326171876,9.33781623840332,-2.2225329875946045,-1.9762450456619263
1781031492744952600,10.83395263671875,9.31737232208252,-2.208482027053833,-2.0854690074920654
1781031492764472000,10.85347216796875,9.298027992248535,-2.1890358924865723,-2.1897048950195312
1781031492783994600,10.87299462890625,9.280322074890137,-2.163079023361206,-2.2883849143981934
1781031492803515400,10.892515380859376,9.264599800109863,-2.1301519870758057,-2.3810999393463135
1781031492823037000,10.912036865234375,9.250389099121094,-2.0925118923187256,-2.4681339263916016
1781031492842559500,10.9315595703125,9.238009452819824,-2.0503740310668945,-2.5485570430755615
1781031492862083000,10.9510830078125,9.227352142333984,-2.0053749084472656,-2.6219139099121094
1781031492881605600,10.970605712890626,9.21858024597168,-1.9586310386657715,-2.687290906906128
1781031492901127200,10.990127197265625,9.211823463439941,-1.9107110500335693,-2.744357109069824
1781031492920648000,11.00964794921875,9.206961631774902,-1.86204195022583,-2.7936789989471436
1781031492940163800,11.029163818359375,9.203819274902344,-1.8119920492172241,-2.836617946624756
1781031492959681000,11.048680908203124,9.202131271362305,-1.7592430114746094,-2.8750360012054443
1781031492979199200,11.06819921875,9.201693534851074,-1.702625036239624,-2.9103078842163086
1781031492998716700,11.087716552734374,9.202187538146973,-1.6415770053863525,-2.9436299800872803
1781031493018232800,11.10723291015625,9.203272819519043,-1.5765570402145386,-2.975606918334961
1781031493037747500,11.12674755859375,9.204581260681152,-1.5085580348968506,-3.006648063659668
1781031493057263900,11.146263916015625,9.205805778503418,-1.4385950565338135,-3.0370380878448486
1781031493076781000,11.165781005859374,9.206865310668945,-1.3679649829864502,-3.066314935684204
1781031493096300000,11.185300048828125,9.20787239074707,-1.2977370023727417,-3.0936989784240723
1781031493115820500,11.204820556640625,9.209038734436035,-1.228531002998352,-3.118380069732666
1781031493135338500,11.22433837890625,9.210725784301758,-1.1602879762649536,-3.13946795463562
1781031493154850600,11.2438505859375,9.21338176727295,-1.0920209884643555,-3.1561169624328613
1781031493174361900,11.26336181640625,9.217277526855469,-1.0224440097808838,-3.168030023574829
1781031493193877500,11.28287744140625,9.22242546081543,-0.9501230120658875,-3.175555944442749
1781031493213399300,11.3023994140625,9.228836059570312,-0.8739320039749146,-3.1788079738616943
1781031493232922400,11.32192236328125,9.236072540283203,-0.793936014175415,-3.1787760257720947
1781031493252443000,11.34144287109375,9.243876457214355,-0.710752010345459,-3.1757800579071045
1781031493271957200,11.360957275390625,9.252118110656738,-0.6255900263786316,-3.169693946838379
1781031493291468800,11.38046875,9.260398864746094,-0.541458010673523,-3.16098690032959
1781031493310979800,11.399979736328126,9.268918991088867,-0.45934298634529114,-3.1489920616149902
1781031493330492000,11.419491943359375,9.277392387390137,-0.3819180130958557,-3.134342908859253
1781031493350007800,11.4390078125,9.285882949829102,-0.3106969892978668,-3.1170270442962646
1781031493369525500,11.458525390625,9.29432201385498,-0.24648000299930573,-3.0975489616394043
1781031493389042400,11.47804248046875,9.302586555480957,-0.18916800618171692,-3.0767009258270264
1781031493408558300,11.497558349609376,9.302586555480957,-0.18916800618171692,-3.0767009258270264
1781031493428077300,11.517077392578125,9.310795783996582,-0.13609600067138672,-3.054593086242676
1781031493447596000,11.536595947265624,9.325933456420898,-0.04085100069642067,-3.010864019393921
1781031493467108400,11.5561083984375,9.332754135131836,0.004056999925523996,-2.989931106567383
1781031493486623500,11.57562353515625,9.332754135131836,0.004056999925523996,-2.989931106567383
1781031493506139400,11.595139404296875,9.332754135131836,0.004056999925523996,-2.989931106567383
1781031493525655600,11.614655517578125,9.343132972717285,0.09029600024223328,-2.955962896347046
1781031493545173500,11.634173583984374,9.346738815307617,0.13032600283622742,-2.943042039871216
1781031493564694800,11.65369482421875,9.34930419921875,0.16690100729465485,-2.933029890060425
1781031493584215000,11.673215087890625,9.350669860839844,0.19984200596809387,-2.9266109466552734
1781031493603731700,11.692731689453124,9.350650787353516,0.22877700626850128,-2.924551010131836
1781031493623248000,11.712247802734375,9.349377632141113,0.25463300943374634,-2.926481008529663
1781031493642766600,11.7317666015625,9.346385955810547,0.2775479853153229,-2.933948040008545
1781031493662286000,11.7512861328125,9.341401100158691,0.2984670102596283,-2.9477341175079346
1781031493681800200,11.77080029296875,9.333879470825195,0.31837499141693115,-2.9693970680236816
1781031493701316400,11.79031640625,9.323152542114258,0.3379569947719574,-3.0007688999176025
1781031493720833300,11.809833251953124,9.308558464050293,0.35795098543167114,-3.043454885482788
1781031493740351700,11.829351806640625,9.289559364318848,0.3786729872226715,-3.098500967025757
1781031493759872000,11.8488720703125,9.265722274780273,0.4005089998245239,-3.1663830280303955
1781031493779390200,11.86839013671875,9.236821174621582,0.4235590100288391,-3.24680495262146
1781031493798907400,11.887907470703125,9.202811241149902,0.4478229880332947,-3.338819980621338
1781031493818425300,11.90742529296875,9.163590431213379,0.47325199842453003,-3.4416050910949707
1781031493837943000,11.926943115234375,9.119006156921387,0.499675989151001,-3.554440975189209
1781031493857462800,11.946462890625,9.06870174407959,0.527209997177124,-3.677048921585083
1781031493876983600,11.965983642578125,9.011993408203125,0.5564579963684082,-3.809770107269287
1781031493896498400,11.98549853515625,8.947958946228027,0.5878030061721802,-3.953291893005371
1781031493916012000,12.005011962890626,8.875672340393066,0.6206139922142029,-4.108194828033447
1781031493935530200,12.0245302734375,8.794486999511719,0.6537039875984192,-4.274302005767822
1781031493955048700,12.044048583984376,8.703746795654297,0.6850330233573914,-4.4514617919921875
1781031493974565600,12.063565673828125,8.602498054504395,0.7124649882316589,-4.639979839324951
1781031493994080800,12.083080810546875,8.490407943725586,0.7357339859008789,-4.83856201171875
1781031494013597000,12.102596923828125,8.377010345458984,0.7557070255279541,-5.029375076293945
1781031494033111800,12.12211181640625,8.280471801757812,0.7632160186767578,-5.185679912567139
1781031494052626700,12.141626708984376,8.210010528564453,0.7568809986114502,-5.2974371910095215
1781031494072145400,12.1611455078125,8.175358772277832,0.7290830016136169,-5.354617118835449
1781031494091662800,12.180662841796876,8.175146102905273,0.6801499724388123,-5.361378192901611
1781031494111180300,12.20018017578125,8.203030586242676,0.6220200061798096,-5.32572603225708
1781031494130700500,12.219700439453124,8.24398422241211,0.5565770268440247,-5.269434928894043
1781031494150219000,12.239218994140625,8.281637191772461,0.4954270124435425,-5.216227054595947
1781031494169734700,12.258734619140625,8.308914184570312,0.4400860071182251,-5.17766809463501
1781031494189249300,12.278249267578126,8.322431564331055,0.39706501364707947,-5.1594038009643555
1781031494208762600,12.2977626953125,8.328378677368164,0.36597099900245667,-5.152101993560791
1781031494228273700,12.317273681640625,8.334013938903809,0.33570900559425354,-5.145047187805176
1781031494247791600,12.33679150390625,8.344147682189941,0.30555298924446106,-5.130480766296387
1781031494267311900,12.356311767578125,8.358672142028809,0.2737720012664795,-5.108584880828857
1781031494286831900,12.375831787109375,8.358672142028809,0.2737720012664795,-5.108584880828857
1781031494306353400,12.395353515625,8.406596183776855,0.19798900187015533,-5.0328850746154785
1781031494325873400,12.414873291015626,8.406596183776855,0.19798900187015533,-5.0328850746154785
1781031494345392000,12.43439208984375,8.438977241516113,0.15588100254535675,-4.979897975921631
1781031494364915500,12.45391552734375,8.476524353027344,0.1109590008854866,-4.916933059692383
1781031494384442000,12.473442138671874,8.519180297851562,0.06278099864721298,-4.843512058258057
1781031494403965000,12.49296484375,8.519180297851562,0.06278099864721298,-4.843512058258057
1781031494423486500,12.512486572265624,8.619465827941895,-0.03804299980401993,-4.66297721862793
1781031494443008500,12.532008544921876,8.677577018737793,-0.08733099699020386,-4.553244113922119
1781031494462530600,12.551530517578126,8.740897178649902,-0.1354150027036667,-4.429263114929199
1781031494482053000,12.57105322265625,8.807852745056152,-0.18449099361896515,-4.2927470207214355
1781031494501574700,12.59057470703125,8.877203941345215,-0.23666399717330933,-4.144784927368164
1781031494521098800,12.6100986328125,8.947784423828125,-0.29182499647140503,-3.986475944519043
1781031494540623400,12.629623291015625,9.019850730895996,-0.3476110100746155,-3.815948009490967
1781031494560142600,12.649142578125,9.093390464782715,-0.40143200755119324,-3.631679058074951
1781031494579662600,12.66866259765625,9.16894245147705,-0.4527849853038788,-3.430083990097046
1781031494599183600,12.68818359375,9.24815845489502,-0.5090879797935486,-3.2019360065460205
1781031494618702000,12.7077021484375,9.32331657409668,-0.5795559883117676,-2.9630889892578125
1781031494638227200,12.727227294921875,9.384743690490723,-0.6560450196266174,-2.7452139854431152
1781031494657749200,12.746749267578124,9.430793762207031,-0.7389940023422241,-2.5600779056549072
1781031494677264100,12.76626416015625,9.461490631103516,-0.8202919960021973,-2.4181249141693115
1781031494696784400,12.785784423828124,9.482009887695312,-0.8885189890861511,-2.3112809658050537
1781031494716309000,12.80530908203125,9.495169639587402,-0.9476720094680786,-2.2324130535125732
1781031494735832600,12.82483251953125,9.508148193359375,-0.9809839725494385,-2.1616599559783936
1781031494755357400,12.844357421875,9.52534008026123,-0.9940729737281799,-2.0783910751342773
1781031494774887000,12.863886962890625,9.548047065734863,-0.9820029735565186,-1.9774889945983887
1781031494794413600,12.88341357421875,9.575117111206055,-0.9513189792633057,-1.8579879999160767
1781031494813937000,12.90293701171875,9.601995468139648,-0.9129030108451843,-1.7344410419464111
1781031494833459200,12.922459228515624,9.627217292785645,-0.8587070107460022,-1.618425965309143
1781031494852981200,12.941981201171876,9.649822235107422,-0.8010630011558533,-1.5097119808197021
1781031494872500700,12.961500732421875,9.67135238647461,-0.7435749769210815,-1.3971480131149292
1781031494892018000,12.981017822265626,9.693129539489746,-0.6877149939537048,-1.2689629793167114
1781031494911535900,13.000535888671875,9.715218544006348,-0.6356930136680603,-1.118224024772644
1781031494931055000,13.02005517578125,9.738000869750977,-0.5863980054855347,-0.9313809871673584
1781031494950573300,13.0395732421875,9.759997367858887,-0.5350480079650879,-0.7043949961662292
1781031494970091000,13.059091064453124,9.779035568237305,-0.47607800364494324,-0.4287559986114502
1781031494989611000,13.078611083984375,9.79102897644043,-0.40617600083351135,-0.10377000272274017
1781031495009134600,13.098134521484376,9.791387557983398,-0.31749698519706726,0.2606320083141327
1781031495028657000,13.117656982421876,9.791387557983398,-0.31749698519706726,0.2606320083141327
1781031495048177400,13.137177490234375,9.775824546813965,-0.2106969952583313,0.6548789739608765
1781031495067698200,13.1566982421875,9.690803527832031,0.045455001294612885,1.4581680297851562
1781031495087219000,13.176218994140624,9.690803527832031,0.045455001294612885,1.4581680297851562
1781031495106742000,13.195741943359375,9.554313659667969,0.2943210005760193,2.1606619358062744
1781031495126264000,13.21526416015625,9.554313659667969,0.2943210005760193,2.1606619358062744
1781031495145783300,13.234783203125,9.554313659667969,0.2943210005760193,2.1606619358062744
1781031495165303000,13.254302978515625,9.425552368164062,0.44587498903274536,2.6457810401916504
1781031495184823300,13.2738232421875,9.37710189819336,0.48110100626945496,2.8068668842315674
1781031495204344300,13.29334423828125,9.338655471801758,0.5009030103683472,2.928926944732666
1781031495223864300,13.3128642578125,9.304085731506348,0.5304149985313416,3.031938076019287
1781031495243381000,13.332381103515624,9.270247459411621,0.572924017906189,3.126383066177368
1781031495262899700,13.351899658203125,9.228772163391113,0.6370890140533447,3.2347919940948486
1781031495282419200,13.371419189453125,9.177153587341309,0.7231870293617249,3.3610780239105225
1781031495301933600,13.39093359375,9.113194465637207,0.8225849866867065,3.50899600982666
1781031495321452300,13.410452392578126,9.039907455444336,0.9234399795532227,3.669785976409912
1781031495340974800,13.429974853515626,8.963658332824707,1.0053019523620605,3.8317348957061768
1781031495360495000,13.4494951171875,8.889734268188477,1.0603410005569458,3.9860119819641113
1781031495380016400,13.469016357421875,8.823505401611328,1.0821759700775146,4.124882221221924
1781031495399539000,13.4885390625,8.769570350646973,1.0687689781188965,4.2417402267456055
1781031495438579200,13.5275791015625,8.70209789276123,0.9703549742698669,4.4013519287109375
1781031495458103800,13.547103759765625,8.685998916625977,0.9025909900665283,4.447332859039307
1781031495477623800,13.566623779296876,8.680098533630371,0.8318269848823547,4.472578048706055
1781031495497145000,13.58614501953125,8.68698501586914,0.7625259757041931,4.471560955047607
1781031495516670000,13.605669921875,8.70437240600586,0.6964219808578491,4.4484710693359375
1781031495536189700,13.625189697265625,8.733941078186035,0.6331210136413574,4.399707794189453
1781031495555703000,13.644703125,8.773841857910156,0.5696349740028381,4.328417778015137
1781031495575218400,13.664218505859376,8.825677871704102,0.5019509792327881,4.2303009033203125
1781031495594737000,13.68373681640625,8.888032913208008,0.42579901218414307,4.106283187866211
1781031495614253300,13.70325341796875,8.95755386352539,0.3285349905490875,3.9616029262542725
1781031495633768400,13.7227685546875,9.032132148742676,0.2086549997329712,3.7969789505004883
1781031495653281000,13.742281005859375,9.107590675354004,0.06649599969387054,3.617645025253296
1781031495672790000,13.7617900390625,9.183074951171875,-0.0963829979300499,3.4207959175109863
1781031495692301800,13.7813017578125,9.252591133117676,-0.2604849934577942,3.218959093093872
1781031495711816400,13.80081640625,9.315030097961426,-0.4216189980506897,3.015371084213257
1781031495731329000,13.8203291015625,9.366180419921875,-0.5602729916572571,2.8285601139068604
1781031495750842000,13.839842041015626,9.408432960510254,-0.6745790243148804,2.6582579612731934
1781031495770360600,13.859360595703125,9.443534851074219,-0.7645260095596313,2.5050270557403564
1781031495789879300,13.87887939453125,9.472657203674316,-0.8295919895172119,2.3707659244537354
1781031495809402600,13.898402587890626,9.497385025024414,-0.8877599835395813,2.247567892074585
1781031495828930000,13.917929931640625,9.518383026123047,-0.93989098072052,2.1347110271453857
1781031495848454100,13.9374541015625,9.518383026123047,-0.93989098072052,2.1347110271453857
1781031495867975000,13.956974853515625,9.559904098510742,-1.0474729537963867,1.8844159841537476
1781031495887496700,13.97649658203125,9.559904098510742,-1.0474729537963867,1.8844159841537476
1781031495907021600,13.996021484375,9.579915046691895,-1.106084942817688,1.7440789937973022
1781031495926546700,14.015546630859374,9.615987777709961,-1.2367080450057983,1.4294509887695312
1781031495946066200,14.035066162109375,9.615987777709961,-1.2367080450057983,1.4294509887695312
1781031495965584100,14.054584228515624,9.631250381469727,-1.3028359413146973,1.2576260566711426
1781031495985103400,14.074103271484375,9.644140243530273,-1.3652950525283813,1.0800559520721436
1781031496004619800,14.093619873046874,9.654402732849121,-1.4233360290527344,0.898114025592804
1781031496024136700,14.11313671875,9.654402732849121,-1.4233360290527344,0.898114025592804
1781031496043657500,14.132657470703125,9.66572093963623,-1.5257090330123901,0.534850001335144
1781031496063178200,14.15217822265625,9.666969299316406,-1.5691139698028564,0.35718899965286255
1781031496082697200,14.171697265625,9.665149688720703,-1.6095490455627441,0.18501800298690796
1781031496102221000,14.191220947265625,9.660330772399902,-1.6485430002212524,0.017976000905036926
1781031496121743400,14.210743408203125,9.652604103088379,-1.6870230436325073,-0.1455409973859787
1781031496141266700,14.2302666015625,9.642292976379395,-1.7239910364151,-0.30665698647499084
1781031496160789500,14.24978955078125,9.629352569580078,-1.7599869966506958,-0.46691399812698364
1781031496180308200,14.26930810546875,9.61397933959961,-1.7940089702606201,-0.6268439888954163
1781031496199827700,14.28882763671875,9.596600532531738,-1.8238780498504639,-0.7865869998931885
1781031496219349000,14.308348876953126,9.57790756225586,-1.8461869955062866,-0.9461920261383057
1781031496238871000,14.32787109375,9.558553695678711,-1.8583259582519531,-1.104835033416748
1781031496258392000,14.34739208984375,9.538920402526855,-1.8594540357589722,-1.2615150213241577
1781031496277912800,14.366912841796875,9.519047737121582,-1.850574016571045,-1.41531503200531
1781031496297435400,14.386435302734375,9.498767852783203,-1.8340610265731812,-1.5651240348815918
1781031496316961000,14.4059609375,9.477985382080078,-1.8124170303344727,-1.7096580266952515
1781031496336483300,14.4254833984375,9.456790924072266,-1.7881360054016113,-1.8470690250396729
1781031496356001800,14.445001708984375,9.435327529907227,-1.763551950454712,-1.9759769439697266
1781031496375520300,14.464520263671876,9.413846969604492,-1.739380955696106,-2.0961949825286865
1781031496395040300,14.484040283203125,9.392695426940918,-1.7148120403289795,-2.208322048187256
1781031496414557000,14.503556884765626,9.372069358825684,-1.6885329484939575,-2.3136909008026123
1781031496434072300,14.523072265625,9.352198600769043,-1.6592340469360352,-2.413156032562256
1781031496453589200,14.54258935546875,9.333377838134766,-1.6264020204544067,-2.5065650939941406
1781031496473108200,14.562108154296874,9.315342903137207,-1.58945894241333,-2.595763921737671
1781031496492629500,14.58162939453125,9.298236846923828,-1.5464260578155518,-2.6816680431365967
1781031496512146000,14.60114599609375,9.282108306884766,-1.4971009492874146,-2.764259099960327
1781031496531662000,14.620662109375,9.266562461853027,-1.4421169757843018,-2.8444900512695312
1781031496551182800,14.640182861328125,9.25153636932373,-1.3848789930343628,-2.9208199977874756
1781031496570706400,14.65970654296875,9.236433029174805,-1.3267539739608765,-2.994663953781128
1781031496590230500,14.67923046875,9.221444129943848,-1.2673120498657227,-3.0657598972320557
1781031496609751300,14.698751220703125,9.207047462463379,-1.205806016921997,-3.1330978870391846
1781031496629265000,14.718264892578125,9.193120956420898,-1.1422450542449951,-3.1971540451049805
1781031496648781300,14.73778125,9.180112838745117,-1.0766940116882324,-3.2567250728607178
1781031496668299500,14.757299560546874,9.167534828186035,-1.0070240497589111,-3.3139400482177734
1781031496687819300,14.7768193359375,9.155477523803711,-0.9326450228691101,-3.3685901165008545
1781031496707340000,14.796340087890625,9.155477523803711,-0.9326450228691101,-3.3685901165008545
1781031496726863600,14.815863525390625,9.144245147705078,-0.8540700078010559,-3.4195520877838135
1781031496746386400,14.835386474609376,9.123639106750488,-0.6926599740982056,-3.509903907775879
1781031496765907000,14.854906982421875,9.123639106750488,-0.6926599740982056,-3.509903907775879
1781031496785426700,14.8744267578125,9.114004135131836,-0.6121360063552856,-3.549678087234497
1781031496804943000,14.893943115234375,9.104544639587402,-0.5344610214233398,-3.5863099098205566
1781031496824462300,14.91346240234375,9.104544639587402,-0.5344610214233398,-3.5863099098205566
1781031496843986000,14.93298583984375,9.085930824279785,-0.39541399478912354,-3.6509599685668945
1781031496863510000,14.952510009765625,9.076613426208496,-0.3368389904499054,-3.6798949241638184
1781031496883030300,14.9720302734375,9.067156791687012,-0.2858380079269409,-3.7074201107025146
1781031496902547200,14.991547119140625,9.05749797821045,-0.24048100411891937,-3.7341530323028564
1781031496922064400,15.011064453125,9.047628402709961,-0.19843299686908722,-3.7604570388793945
1781031496941582300,15.030582275390625,9.037659645080566,-0.1580059975385666,-3.7862579822540283
1781031496961101000,15.05010107421875,9.027450561523438,-0.11782000213861465,-3.811988115310669
1781031496980617700,15.06961767578125,9.017420768737793,-0.07780399918556213,-3.836674928665161
1781031497000131000,15.089131103515625,9.00804615020752,-0.03846599906682968,-3.859225034713745
1781031497019649500,15.1086494140625,9.000116348266602,-0.0005039999959990382,-3.877872943878174
1781031497039171300,15.12817138671875,8.994190216064453,0.03523699939250946,-3.8914411067962646
1781031497058690600,15.147690673828125,8.990483283996582,0.06826400011777878,-3.899557113647461
1781031497078208800,15.167208740234376,8.989283561706543,0.0987119972705841,-3.9016709327697754
1781031497097729500,15.1867294921875,8.990487098693848,0.12714700400829315,-3.8980720043182373
1781031497117251600,15.20625146484375,8.993942260742188,0.15439000725746155,-3.8891079425811768
1781031497136775200,15.225775146484375,8.999456405639648,0.18115900456905365,-3.8751718997955322
1781031497156298800,15.245298828125,9.006800651550293,0.20780999958515167,-3.856726884841919
1781031497175825200,15.2648251953125,9.015869140625,0.23413799703121185,-3.833962917327881
1781031497195354000,15.28435400390625,9.02632999420166,0.2595219910144806,-3.8076250553131104
1781031497214878000,15.3038779296875,9.037766456604004,0.28321099281311035,-3.778700113296509
1781031497234398200,15.323398193359376,9.049687385559082,0.3041369915008545,-3.7484209537506104
1781031497253917400,15.34291748046875,9.061555862426758,0.3213919997215271,-3.7181830406188965
1781031497273439700,15.362439697265625,9.073088645935059,0.33424100279808044,-3.688812017440796
1781031497292962800,15.381962890625,9.083877563476562,0.34260499477386475,-3.661389112472534
1781031497312486700,15.401486572265625,9.093306541442871,0.34753599762916565,-3.6374430656433105
1781031497332008000,15.421008056640625,9.100884437561035,0.3506009876728058,-3.6181440353393555
1781031497351525600,15.440525634765624,9.10634994506836,0.3527199923992157,-3.6041600704193115
1781031497371044600,15.460044677734375,9.109606742858887,0.355322003364563,-3.59566593170166
1781031497390566000,15.47956591796875,9.110559463500977,0.3590889871120453,-3.592879056930542
1781031497410092500,15.499092529296876,9.109420776367188,0.3641040027141571,-3.5952579975128174
1781031497429623600,15.51862353515625,9.106337547302246,0.37022799253463745,-3.602437973022461
1781031497449151700,15.53815185546875,9.101595878601074,0.376691997051239,-3.6137330532073975
1781031497468673500,15.557673583984375,9.095186233520508,0.383201003074646,-3.6291520595550537
1781031497488195300,15.5771953125,9.095186233520508,0.383201003074646,-3.6291520595550537
1781031497507714000,15.596714111328126,9.074692726135254,0.39435499906539917,-3.678915023803711
1781031497527229000,15.61622900390625,9.059743881225586,0.4000310003757477,-3.714970111846924
1781031497546741500,15.635741455078126,9.059743881225586,0.4000310003757477,-3.714970111846924
1781031497566252300,15.655252197265625,9.059743881225586,0.4000310003757477,-3.714970111846924
1781031497585765600,15.674765625,9.009885787963867,0.41211599111557007,-3.8330299854278564
1781031497605279200,15.694279296875,8.973207473754883,0.418614000082016,-3.91743803024292
1781031497624790800,15.713790771484375,8.973207473754883,0.418614000082016,-3.91743803024292
1781031497644302300,15.73330224609375,8.867582321166992,0.43608400225639343,-4.149192810058594
1781031497663815000,15.75281494140625,8.797147750854492,0.44658100605010986,-4.295433044433594
1781031497683333400,15.77233349609375,8.715771675109863,0.4577139914035797,-4.457108020782471
1781031497702857000,15.79185693359375,8.622438430786133,0.46779000759124756,-4.634081840515137
1781031497722380500,15.811380615234375,8.515876770019531,0.47527098655700684,-4.826379776000977
1781031497741901000,15.830901123046875,8.396015167236328,0.4783880114555359,-5.031705856323242
1781031497761424100,15.850424072265625,8.274944305419922,0.47730201482772827,-5.228527069091797
1781031497780948200,15.8699482421875,8.160265922546387,0.4726479947566986,-5.406167030334473
1781031497800467000,15.889467041015624,8.067523002624512,0.46268099546432495,-5.5444560050964355
1781031497819983000,15.908983154296875,8.005806922912598,0.448062002658844,-5.634385108947754
1781031497839503400,15.92850341796875,7.972588062286377,0.4313580095767975,-5.682584762573242
1781031497859027000,15.94802685546875,7.971881866455078,0.4138239920139313,-5.684877872467041
1781031497878550000,15.967550048828125,7.991602897644043,0.39584100246429443,-5.658409118652344
1781031497898069000,15.987069091796876,8.029106140136719,0.36553698778152466,-5.60712194442749
1781031497917589800,16.00658984375,8.07487678527832,0.32374000549316406,-5.54360294342041
1781031497937114600,16.026114501953124,8.122108459472656,0.27113598585128784,-5.47702693939209
1781031497956641500,16.0456416015625,8.175335884094238,0.20892299711704254,-5.400022029876709
1781031497976166000,16.065165771484374,8.230385780334473,0.14562499523162842,-5.317852020263672
1781031497995686100,16.08468603515625,8.28125,0.08173300325870514,-5.239675998687744
1781031498015200300,16.1042001953125,8.323987007141113,0.02722799964249134,-5.172088146209717
1781031498034715100,16.123715087890623,8.356456756591797,-0.017971999943256378,-5.119503974914551
1781031498054236400,16.143236328125,8.380575180053711,-0.054614998400211334,-5.079662799835205
1781031498073751000,16.1627509765625,8.40018081665039,-0.08483699709177017,-5.046757221221924
1781031498093264400,16.182264404296873,8.420731544494629,-0.11698400229215622,-5.011745929718018
1781031498112778800,16.20177880859375,8.446131706237793,-0.15238399803638458,-4.967860221862793
1781031498132293400,16.22129345703125,8.477718353271484,-0.19012099504470825,-4.912448883056641
1781031498151812900,16.240812744140626,8.519412994384766,-0.22783899307250977,-4.8381500244140625
1781031498171330600,16.26033056640625,8.57042407989502,-0.2629440128803253,-4.745384216308594
1781031498190849800,16.279849853515625,8.630934715270996,-0.29485100507736206,-4.632497787475586
1781031498210372400,16.299372314453127,8.701814651489258,-0.32532501220703125,-4.495842933654785
1781031498229892400,16.318892333984376,8.782005310058594,-0.3555229902267456,-4.334742069244385
1781031498249412400,16.338412353515626,8.870506286621094,-0.3881179988384247,-4.147708892822266
1781031498268932400,16.357932373046875,8.963862419128418,-0.42443299293518066,-3.9381508827209473
1781031498288452400,16.377452392578125,8.963862419128418,-0.42443299293518066,-3.9381508827209473
1781031498307968800,16.39696875,9.060205459594727,-0.46553999185562134,-3.706202983856201
1781031498327488300,16.41648828125,9.255922317504883,-0.54966801404953,-3.1726579666137695
1781031498347011000,16.436010986328125,9.255922317504883,-0.54966801404953,-3.1726579666137695
1781031498366532000,16.455531982421874,9.412850379943848,-0.6093090176582336,-2.658379077911377
1781031498386052000,16.475052001953124,9.412850379943848,-0.6093090176582336,-2.658379077911377
1781031498405574100,16.49457421875,9.465324401855469,-0.6229749917984009,-2.4616119861602783
1781031498425095000,16.514094970703123,9.501877784729004,-0.6236299872398376,-2.3163349628448486
1781031498444610000,16.533610107421875,9.528366088867188,-0.6139349937438965,-2.2075629234313965
1781031498464125000,16.553125,9.528366088867188,-0.6139349937438965,-2.2075629234313965
1781031498483642000,16.57264208984375,9.569356918334961,-0.5663319826126099,-2.036339044570923
1781031498503159300,16.5921591796875,9.592799186706543,-0.5213580131530762,-1.9355579614639282
1781031498522678500,16.611678466796874,9.620877265930176,-0.46324801445007324,-1.806689977645874
1781031498542196500,16.631196533203124,9.652499198913574,-0.39663898944854736,-1.646798014640808
1781031498561717800,16.6507177734375,9.683379173278809,-0.3271639943122864,-1.4714380502700806
1781031498581238300,16.67023828125,9.71149730682373,-0.2683050036430359,-1.2863999605178833
1781031498600752600,16.689752685546875,9.737874031066895,-0.22169899940490723,-1.0791950225830078
1781031498620268500,16.7092685546875,9.761466026306152,-0.19720900058746338,-0.8455119729042053
1781031498639791400,16.728791259765625,9.781211853027344,-0.19109800457954407,-0.575652003288269
1781031498659316200,16.748316162109376,9.7942533493042,-0.1970130056142807,-0.2716419994831085
1781031498678833700,16.767833740234376,9.797636032104492,-0.20624299347400665,0.06155199930071831
1781031498698349800,16.787349853515625,9.789175987243652,-0.1978289932012558,0.41582098603248596
1781031498717864400,16.806864501953125,9.767631530761719,-0.16645799577236176,0.778223991394043
1781031498737378300,16.82637841796875,9.732427597045898,-0.10970699787139893,1.1435940265655518
1781031498756890400,16.845890380859377,9.684759140014648,-0.028672000393271446,1.4982019662857056
1781031498776402400,16.86540234375,9.625261306762695,0.07149499654769897,1.8409839868545532
1781031498795915800,16.884915771484376,9.555364608764648,0.1853419989347458,2.1680970191955566
1781031498815432200,16.90443212890625,9.479034423828125,0.2950359880924225,2.46999192237854
1781031498834950000,16.923949951171874,9.399602890014648,0.3965339958667755,2.744123935699463
1781031498854462500,16.94346240234375,9.321288108825684,0.48406898975372314,2.986514091491699
1781031498873974800,16.962974853515625,9.2468900680542,0.5470849871635437,3.199331045150757
1781031498893492200,16.9824921875,9.181686401367188,0.5847619771957397,3.375601053237915
1781031498913013000,17.002012939453124,9.127691268920898,0.5978829860687256,3.516784906387329
1781031498932530200,17.0215302734375,9.082559585571289,0.59648197889328,3.6319849491119385
1781031498952045600,17.041045654296877,9.045659065246582,0.5804190039634705,3.7254750728607178
1781031498971556400,17.060556396484376,9.015755653381348,0.5516219735145569,3.801561117172241
1781031498991064800,17.08006494140625,8.990740776062012,0.5160459876060486,3.8652660846710205
1781031499010580500,17.09958056640625,8.965635299682617,0.472696989774704,3.9286038875579834
1781031499030098700,17.1190986328125,8.939743995666504,0.420415997505188,3.993022918701172
1781031499049620700,17.138620849609374,8.911460876464844,0.3572329878807068,4.061801910400391
1781031499069142500,17.158142578125,8.8803071975708,0.28242000937461853,4.1352620124816895
1781031499088661500,17.17766162109375,8.8803071975708,0.28242000937461853,4.1352620124816895
1781031499108179500,17.197179443359374,8.849763870239258,0.19553999602794647,4.205167770385742
1781031499127697400,17.216697509765623,8.79520320892334,0.0020200000144541264,4.322545051574707
1781031499147210800,17.236210693359375,8.79520320892334,0.0020200000144541264,4.322545051574707
1781031499166721300,17.25572119140625,8.769519805908203,-0.18914400041103363,4.370326042175293
1781031499186235400,17.2752353515625,8.769519805908203,-0.18914400041103363,4.370326042175293
1781031499205750300,17.294750244140626,8.769519805908203,-0.18914400041103363,4.370326042175293
1781031499225263600,17.314263671875,8.802831649780273,-0.3504599928855896,4.29270601272583
1781031499244780500,17.333780517578123,8.843184471130371,-0.4213959872722626,4.202439785003662
1781031499264300500,17.353300537109376,8.899246215820312,-0.4928320050239563,4.074376106262207
1781031499283818800,17.37281884765625,8.966650009155273,-0.5714579820632935,3.913132905960083
1781031499303334100,17.392334228515626,9.040811538696289,-0.67010498046875,3.7221879959106445
1781031499322849500,17.411849609375,9.115885734558105,-0.7929660081863403,3.508821964263916
1781031499342367000,17.431366943359375,9.188394546508789,-0.9439489841461182,3.274501085281372
1781031499361882400,17.45088232421875,9.250540733337402,-1.1240359544754028,3.0338149070739746
1781031499381394200,17.470394287109375,9.299860000610352,-1.3285490274429321,2.790618896484375
1781031499400901400,17.4899013671875,9.334394454956055,-1.548272967338562,2.5518479347229004
1781031499420408600,17.50940869140625,9.354734420776367,-1.7602980136871338,2.330298900604248
1781031499439919900,17.528919921875,9.363194465637207,-1.958814024925232,2.1292359828948975
1781031499459437000,17.54843701171875,9.362875938415527,-2.138753890991211,1.9499449729919434
1781031499478955500,17.56795556640625,9.359456062316895,-2.291390895843506,1.7860840559005737
1781031499498467000,17.587467041015625,9.355145454406738,-2.417149066925049,1.6366610527038574
1781031499517979400,17.6069794921875,9.35110855102539,-2.5196189880371094,1.4994289875030518
1781031499537497900,17.626497802734374,9.346713066101074,-2.6100850105285645,1.366163969039917
1781031499557012700,17.6460126953125,9.34212875366211,-2.6905159950256348,1.235211968421936
1781031499576526800,17.66552685546875,9.337360382080078,-2.7626779079437256,1.1051249504089355
1781031499596043300,17.685043212890626,9.331521034240723,-2.830471992492676,0.9752600193023682
1781031499615557600,17.7045576171875,9.325274467468262,-2.891845941543579,0.8464509844779968
1781031499635070700,17.72407080078125,9.319479942321777,-2.9443678855895996,0.7197149991989136
1781031499654580700,17.743580810546874,9.315149307250977,-2.9854519367218018,0.5958729982376099
1781031499674090200,17.76309033203125,9.31342601776123,-3.012255907058716,0.47581198811531067
1781031499693603600,17.782603515625,9.315159797668457,-3.0227179527282715,0.3619070053100586
1781031499713115100,17.802115234375,9.320150375366211,-3.018225908279419,0.2551819980144501
1781031499732624400,17.821624267578127,9.328058242797852,-3.0005369186401367,0.15521900355815887
1781031499752132600,17.841132568359374,9.338541030883789,-2.9711530208587646,0.06247900053858757
1781031499771641300,17.860641357421876,9.351119041442871,-2.931886911392212,-0.02426699921488762
1781031499791152600,17.880152587890624,9.365220069885254,-2.8846709728240967,-0.10645200312137604
1781031499810663000,17.899662841796875,9.379932403564453,-2.8322839736938477,-0.18713100254535675
1781031499830173000,17.9191728515625,9.394753456115723,-2.7761199474334717,-0.2679220139980316
1781031499849686000,17.93868603515625,9.409276962280273,-2.7172749042510986,-0.3491849899291992
1781031499869197800,17.95819775390625,9.423280715942383,-2.6560120582580566,-0.43287399411201477
1781031499888709600,17.977709716796873,9.436668395996094,-2.5921170711517334,-0.5198240280151367
1781031499908226000,17.99722607421875,9.436668395996094,-2.5921170711517334,-0.5198240280151367
1781031499927739600,18.01673974609375,9.44873046875,-2.52742600440979,-0.6112310290336609
1781031499947253200,18.036253173828126,9.459303855895996,-2.4622490406036377,-0.7063239812850952
1781031499966770700,18.055770751953126,9.476273536682129,-2.3290929794311523,-0.9030870199203491
1781031499986288600,18.07528857421875,9.476273536682129,-2.3290929794311523,-0.9030870199203491
1781031500005808000,18.09480810546875,9.476273536682129,-2.3290929794311523,-0.9030870199203491
1781031500025324500,18.114324462890625,9.487533569335938,-2.1932389736175537,-1.1029069423675537
1781031500044837400,18.13383740234375,9.491506576538086,-2.1233930587768555,-1.2010339498519897
1781031500064354800,18.153354736328126,9.494874000549316,-2.050774097442627,-1.2967979907989502
1781031500083876400,18.17287646484375,9.497854232788086,-1.9744529724121094,-1.3900669813156128
1781031500103397400,18.1923974609375,9.500231742858887,-1.894595980644226,-1.4819190502166748
1781031500122918400,18.21191845703125,9.501860618591309,-1.8121579885482788,-1.5718539953231812
1781031500142436000,18.23143603515625,9.502588272094727,-1.726593017578125,-1.6612329483032227
1781031500161951500,18.250951416015624,9.502117156982422,-1.6385589838027954,-1.7506849765777588
1781031500181468200,18.27046826171875,9.500094413757324,-1.5488799810409546,-1.8409700393676758
1781031500200985000,18.289985107421874,9.496000289916992,-1.460023045539856,-1.9324350357055664
1781031500220501000,18.3095009765625,9.489633560180664,-1.3739039897918701,-2.0246570110321045
1781031500240018400,18.329018310546875,9.480939865112305,-1.2917959690093994,-2.117316961288452
1781031500259533000,18.348532958984375,9.470083236694336,-1.2149620056152344,-2.209383964538574
1781031500279043800,18.3680439453125,9.457274436950684,-1.1448129415512085,-2.299860954284668
1781031500298556400,18.387556396484374,9.44276237487793,-1.0823270082473755,-2.3880550861358643
1781031500318067000,18.40706689453125,9.42683219909668,-1.0271090269088745,-2.4738380908966064
1781031500337574700,18.42657470703125,9.409578323364258,-0.9776809811592102,-2.558119058609009
1781031500357081000,18.4460810546875,9.391008377075195,-0.932121992111206,-2.6419899463653564
1781031500376587800,18.465587890625,9.37109661102295,-0.889680027961731,-2.725990056991577
1781031500396096000,18.485095947265624,9.350078582763672,-0.8502169847488403,-2.809475898742676
1781031500415606800,18.504606689453126,9.328425407409668,-0.8140829801559448,-2.890979051589966
1781031500435117800,18.524117919921874,9.306742668151855,-0.7813040018081665,-2.9688570499420166
1781031500454631400,18.54363134765625,9.285710334777832,-0.751442015171051,-3.041529893875122
1781031500474145800,18.563145751953126,9.265898704528809,-0.7241479754447937,-3.107848882675171
1781031500493659600,18.58265966796875,9.247637748718262,-0.6981250047683716,-3.1676199436187744
1781031500513176800,18.6021767578125,9.231201171875,-0.6701260209083557,-3.221158027648926
1781031500532694300,18.6216943359375,9.216511726379395,-0.6384450197219849,-3.2692949771881104
1781031500552210700,18.641210693359376,9.203438758850098,-0.6021699905395508,-3.3127169609069824
1781031500571727600,18.6607275390625,9.191622734069824,-0.5610120296478271,-3.3525140285491943
1781031500591243800,18.680243896484374,9.181586265563965,-0.5171610116958618,-3.3868870735168457
1781031500610761000,18.699760986328126,9.17331600189209,-0.4716640114784241,-3.415818929672241
1781031500630277000,18.719277099609375,9.166799545288086,-0.427823007106781,-3.4390039443969727
1781031500649791700,18.738791748046875,9.162094116210938,-0.387129008769989,-3.4563210010528564
1781031500669311200,18.758311279296876,9.159075736999512,-0.3497380018234253,-3.4682860374450684
1781031500688832500,18.77783251953125,9.157803535461426,-0.31554099917411804,-3.4749178886413574
1781031500708353000,18.79735302734375,9.15742015838623,-0.28225499391555786,-3.4787909984588623
1781031500727873800,18.816873779296873,9.15742015838623,-0.28225499391555786,-3.4787909984588623
1781031500747390500,18.836390380859374,9.15788745880127,-0.24993400275707245,-3.4800310134887695
1781031500766905900,18.85590576171875,9.15908432006836,-0.21810999512672424,-3.479022979736328
1781031500786420500,18.87542041015625,9.16318130493164,-0.1552329957485199,-3.4715991020202637
1781031500805937700,18.894937744140623,9.16318130493164,-0.1552329957485199,-3.4715991020202637
1781031500825454800,18.914454833984376,9.166016578674316,-0.12551799416542053,-3.4653120040893555
1781031500844970500,18.933970458984376,9.169455528259277,-0.09856300055980682,-3.4570701122283936
1781031500864485000,18.953485107421876,9.17351245880127,-0.07520999759435654,-3.446885108947754
1781031500883999000,18.9729990234375,9.178085327148438,-0.0559380017220974,-3.43505597114563
1781031500903514600,18.9925146484375,9.182939529418945,-0.04075299948453903,-3.4222700595855713
1781031500923030800,19.01203076171875,9.1876802444458,-0.029419999569654465,-3.409640073776245
1781031500942546400,19.03154638671875,9.192035675048828,-0.02115499973297119,-3.397944927215576
1781031500962062000,19.05106201171875,9.19568920135498,-0.015031999908387661,-3.3880789279937744
1781031500981578800,19.070578857421875,9.198381423950195,-0.009757000021636486,-3.3807830810546875
1781031501001093000,19.090093017578123,9.199732780456543,-0.003920000046491623,-3.37711501121521
1781031501020608500,19.1096083984375,9.199484825134277,0.003756999969482422,-3.3777871131896973
1781031501040122000,19.1291220703125,9.19741439819336,0.014294999651610851,-3.3833940029144287
1781031501059633000,19.1486328125,9.193199157714844,0.02833699993789196,-3.394742965698242
1781031501079143400,19.168143310546874,9.18629264831543,0.045921001583337784,-3.4131970405578613
1781031501098658600,19.187658447265626,9.17599105834961,0.06619399785995483,-3.44046688079834
1781031501118178300,19.20717822265625,9.161444664001465,0.08759800344705582,-3.4785420894622803
1781031501137697000,19.226697021484377,9.141738891601562,0.10827700048685074,-3.529431104660034
1781031501157215000,19.246215087890626,9.116362571716309,0.12670400738716125,-3.593867063522339
1781031501176732000,19.26573193359375,9.085092544555664,0.1420239955186844,-3.6716361045837402
1781031501196246300,19.285246337890626,9.047975540161133,0.15457099676132202,-3.7616770267486572
1781031501215755500,19.304755615234374,9.00521183013916,0.16524000465869904,-3.8624908924102783
1781031501235267600,19.324267578125,8.956870079040527,0.17496000230312347,-3.972891092300415
1781031501254783000,19.343782958984374,8.9026460647583,0.18451300263404846,-4.092535018920898
1781031501274300200,19.363300048828126,8.841594696044922,0.19397500157356262,-4.222389221191406
1781031501293814000,19.38281396484375,8.770512580871582,0.20356599986553192,-4.3676838874816895
1781031501313328400,19.402328369140626,8.688185691833496,0.2133989930152893,-4.528783798217773
1781031501332849000,19.421848876953124,8.59199333190918,0.2238589972257614,-4.708240032196045
1781031501352366600,19.44136669921875,8.480684280395508,0.23542800545692444,-4.905358791351318
1781031501371882200,19.46088232421875,8.353442192077637,0.24827300012111664,-5.118434906005859
1781031501391396900,19.48039697265625,8.210683822631836,0.26236799359321594,-5.343766212463379
1781031501410909200,19.4999091796875,8.065539360046387,0.28006699681282043,-5.5595550537109375
1781031501430422800,19.5194228515625,7.934483051300049,0.3028939962387085,-5.7438859939575195
1781031501449934800,19.538934814453125,7.832337856292725,0.3221839964389801,-5.881383895874023
1781031501469447700,19.55844775390625,7.76727294921875,0.33637601137161255,-5.9662652015686035
1781031501488964900,19.57796484375,7.745381832122803,0.33483201265335083,-5.994743824005127
1781031501508480800,19.597480712890626,7.7587127685546875,0.31692400574684143,-5.978454113006592
1781031501527994600,19.61699462890625,7.7587127685546875,0.31692400574684143,-5.978454113006592
1781031501547511300,19.63651123046875,7.790281772613525,0.2916019856929779,-5.938558101654053
1781031501567028700,19.65602880859375,7.826266765594482,0.256197988986969,-5.892698764801025
1781031501586543600,19.675543701171875,7.865997791290283,0.1801619976758957,-5.842397212982178
1781031501606058500,19.69505859375,7.865997791290283,0.1801619976758957,-5.842397212982178
1781031501625569300,19.7145693359375,7.865997791290283,0.1801619976758957,-5.842397212982178
1781031501645078000,19.734078125,7.878727912902832,0.13373400270938873,-5.826469898223877
1781031501664592400,19.75359228515625,7.894928932189941,0.11392199993133545,-5.8049211502075195
1781031501684113200,19.773113037109376,7.91904878616333,0.0911870002746582,-5.772377014160156
1781031501703631400,19.79263134765625,7.954452037811279,0.06300900131464005,-5.723872184753418
1781031501723145700,19.812145751953125,8.00076961517334,0.02857699990272522,-5.659225940704346
1781031501742656000,19.831656005859376,8.049798965454102,-0.01208100002259016,-5.589328765869141
1781031501762168300,19.851168212890624,8.099403381347656,-0.0563570000231266,-5.516925811767578
1781031501781680600,19.8706806640625,8.147928237915039,-0.10171300172805786,-5.444346904754639
1781031501801198300,19.8901982421875,8.199164390563965,-0.14640499651432037,-5.365841865539551
1781031501820721700,19.9097216796875,8.254287719726562,-0.18966299295425415,-5.279274940490723
1781031501840242700,19.92924267578125,8.316316604614258,-0.23249800503253937,-5.179265975952148
1781031501859762400,19.948762451171874,8.386282920837402,-0.278205007314682,-5.062891006469727
1781031501879284000,19.968283935546875,8.466329574584961,-0.3300989866256714,-4.924663066864014
1781031501898802400,19.987802490234376,8.559391021728516,-0.39083999395370483,-4.756475925445557
1781031501918317800,20.00731787109375,8.660783767700195,-0.4595339894294739,-4.562856197357178
1781031501937836500,20.02683642578125,8.770084381103516,-0.5316479802131653,-4.340849876403809
1781031501957356800,20.046356689453123,8.884140014648438,-0.602433979511261,-4.092570781707764
1781031501976879400,20.06587939453125,9.002227783203125,-0.6676419973373413,-3.8149890899658203
1781031501996401400,20.0854013671875,9.122861862182617,-0.7250720262527466,-3.5053749084472656
1781031502015918300,20.10491845703125,9.238115310668945,-0.77605801820755,-3.1772549152374268
1781031502035432000,20.124431884765624,9.335755348205566,-0.8218479752540588,-2.865001916885376
1781031502054945800,20.14394580078125,9.4110689163208,-0.8553119897842407,-2.5961949825286865
1781031502074458000,20.1634580078125,9.466421127319336,-0.8790810108184814,-2.3778300285339355
1781031502093972700,20.18297265625,9.505524635314941,-0.8852850198745728,-2.213884115219116
1781031502113490000,20.202489990234376,9.535456657409668,-0.8765259981155396,-2.0848910808563232
1781031502133005600,20.222005615234377,9.56002140045166,-0.8638330101966858,-1.9747860431671143
1781031502152524500,20.241524658203126,9.584505081176758,-0.8468319773674011,-1.860144019126892
1781031502172048100,20.261048095703124,9.6116943359375,-0.8355870246887207,-1.7196290493011475
1781031502191572000,20.280572021484375,9.640634536743164,-0.8306879997253418,-1.5518039464950562
1781031502211098000,20.30009814453125,9.667739868164062,-0.8456429839134216,-1.3637020587921143
1781031502230625000,20.319625,9.689370155334473,-0.8772990107536316,-1.1774810552597046
1781031502250147300,20.339147216796874,9.706816673278809,-0.9114969968795776,-0.9934170246124268
1781031502269662200,20.358662109375,9.721455574035645,-0.9452710151672363,-0.7998470067977905
1781031502289176300,20.37817626953125,9.734075546264648,-0.9729589819908142,-0.5840409994125366
1781031502308690400,20.3976904296875,9.734075546264648,-0.9729589819908142,-0.5840409994125366
1781031502328204500,20.41720458984375,9.74450969696045,-0.9849219918251038,-0.3383120000362396
1781031502347720400,20.436720458984375,9.752976417541504,-0.9231809973716736,0.259209007024765
1781031502367234300,20.456234375,9.752976417541504,-0.9231809973716736,0.259209007024765
1781031502386749400,20.47574951171875,9.752976417541504,-0.9231809973716736,0.259209007024765
1781031502406270500,20.4952705078125,9.727678298950195,-0.7388150095939636,0.9308210015296936
1781031502425792300,20.514792236328127,9.727678298950195,-0.7388150095939636,0.9308210015296936
1781031502445312800,20.534312744140625,9.663914680480957,-0.4731769859790802,1.5571980476379395
1781031502464829700,20.55382958984375,9.62005615234375,-0.3341880142688751,1.8392460346221924
1781031502484344800,20.5733447265625,9.570322036743164,-0.2012529969215393,2.099626064300537
1781031502503862800,20.59286279296875,9.516867637634277,-0.08241400122642517,2.3371849060058594
1781031502523383000,20.612383056640624,9.459988594055176,0.018345000222325325,2.5589630603790283
1781031502542904300,20.631904296875,9.401312828063965,0.09783200174570084,2.7650930881500244
1781031502562425900,20.65142578125,9.343999862670898,0.15021300315856934,2.950779914855957
1781031502581949400,20.670949462890626,9.289743423461914,0.17654800415039062,3.116007089614868
1781031502601473500,20.6904736328125,9.239333152770996,0.18601399660110474,3.2619171142578125
1781031502620992800,20.70999267578125,9.192193031311035,0.182095006108284,3.392702102661133
1781031502640510500,20.729510498046874,9.14769458770752,0.1696619987487793,3.511538028717041
1781031502660032000,20.749031982421876,9.105937004089355,0.15408700704574585,3.6191389560699463
1781031502679554000,20.768553955078126,9.067469596862793,0.13851100206375122,3.715075969696045
1781031502699076000,20.788076171875,9.032960891723633,0.12426699697971344,3.798708915710449
1781031502718596400,20.807596435546873,9.00261116027832,0.10974200069904327,3.870522975921631
1781031502738114300,20.8271142578125,8.975756645202637,0.09309700131416321,3.932826042175293
1781031502757636000,20.846635986328124,8.953460693359375,0.07424899935722351,3.9837191104888916
1781031502777156400,20.86615625,8.936209678649902,0.052740998566150665,4.022605895996094
1781031502796674800,20.8856748046875,8.924394607543945,0.028867999091744423,4.048992156982422
1781031502816194600,20.905194580078124,8.917535781860352,0.0015460000140592456,4.06417989730835
1781031502835713000,20.924713134765625,8.915865898132324,-0.03077000007033348,4.06772518157959
1781031502855232300,20.944232177734374,8.922175407409668,-0.06825599819421768,4.053410053253174
1781031502874752800,20.963752685546876,8.938130378723145,-0.11193999648094177,4.017123222351074
1781031502894273800,20.983273681640625,8.966540336608887,-0.16289199888706207,3.9515349864959717
1781031502913793000,21.00279296875,9.006757736206055,-0.2272620052099228,3.855731964111328
1781031502933309000,21.022308837890623,9.056708335876465,-0.3132529854774475,3.7306699752807617
1781031502952827000,21.041826904296876,9.11413288116455,-0.4187999963760376,3.5773160457611084
1781031502972348200,21.06134814453125,9.173203468322754,-0.5497050285339355,3.4044339656829834
1781031502991872800,21.080872802734376,9.229887008666992,-0.7051799893379211,3.2174370288848877
1781031503011395800,21.100395751953126,9.279094696044922,-0.8806949853897095,3.027008056640625
1781031503030914800,21.119914794921876,9.319231033325195,-1.070631980895996,2.836488962173462
1781031503050433300,21.139433349609376,9.350353240966797,-1.262457013130188,2.648979902267456
1781031503069951500,21.158951416015626,9.373416900634766,-1.446128010749817,2.4673399925231934
1781031503089469000,21.178468994140626,9.390177726745605,-1.6096220016479492,2.2964460849761963
1781031503108987100,21.197987060546875,9.403154373168945,-1.748231053352356,2.1364378929138184
1781031503128505300,21.21750537109375,9.403154373168945,-1.748231053352356,2.1364378929138184
1781031503148020200,21.237020263671877,9.424378395080566,-1.9552379846572876,1.843400001525879
1781031503167535900,21.256535888671873,9.424378395080566,-1.9552379846572876,1.843400001525879
1781031503187053300,21.27605322265625,9.434121131896973,-2.0289270877838135,1.7090400457382202
1781031503206572500,21.295572509765623,9.448081016540527,-2.1658170223236084,1.4432640075683594
1781031503226093800,21.31509375,9.448081016540527,-2.1658170223236084,1.4432640075683594
1781031503245616000,21.3346162109375,9.448081016540527,-2.1658170223236084,1.4432640075683594
1781031503265135400,21.35413525390625,9.45073413848877,-2.319856882095337,1.1583960056304932
1781031503284656400,21.373656494140626,9.44666862487793,-2.4042809009552,1.0098949670791626
1781031503304174600,21.393174560546875,9.44019889831543,-2.4862380027770996,0.8609740138053894
1781031503323693600,21.412693603515624,9.432340621948242,-2.561255931854248,0.7147859930992126
1781031503343215900,21.4322158203125,9.423734664916992,-2.62772798538208,0.5729399919509888
1781031503362735600,21.451735595703123,9.415464401245117,-2.682732105255127,0.4381589889526367
1781031503382258000,21.4712578125,9.40796947479248,-2.726494073867798,0.31042298674583435
1781031503401777200,21.490777099609375,9.401288986206055,-2.7604329586029053,0.18911999464035034
1781031503421292800,21.510292724609375,9.395050048828125,-2.78705096244812,0.07335299998521805
1781031503440808700,21.52980859375,9.388920783996582,-2.808340072631836,-0.03742799907922745
1781031503460322000,21.549322021484375,9.382657051086426,-2.825756072998047,-0.14440199732780457
1781031503479836000,21.5688359375,9.376096725463867,-2.8402299880981445,-0.2487969994544983
1781031503499358500,21.5883583984375,9.369149208068848,-2.8521430492401123,-0.35258299112319946
1781031503518881300,21.60788134765625,9.361809730529785,-2.861279010772705,-0.4578239917755127
1781031503538396700,21.627396728515624,9.35396957397461,-2.8674728870391846,-0.5664240121841431
1781031503557908200,21.646908203125,9.34536075592041,-2.870987892150879,-0.6794559955596924
1781031503577417200,21.666417236328126,9.335627555847168,-2.8726139068603516,-0.7963259816169739
1781031503596925400,21.685925537109377,9.32474136352539,-2.8722939491271973,-0.916038990020752
1781031503616436200,21.705436279296876,9.31293773651123,-2.8694369792938232,-1.0370709896087646
1781031503635947800,21.72494775390625,9.300365447998047,-2.864013910293579,-1.157850980758667
1781031503655461000,21.744461181640624,9.287066459655762,-2.85658597946167,-1.2768440246582031
1781031503674975500,21.7639755859375,9.272744178771973,-2.849020004272461,-1.392583966255188
1781031503694490000,21.783489990234376,9.257075309753418,-2.843446969985962,-1.5037809610366821
1781031503714006300,21.80300634765625,9.239901542663574,-2.8416450023651123,-1.6091229915618896
1781031503733524500,21.8225244140625,9.222050666809082,-2.8431859016418457,-1.7058930397033691
1781031503753040100,21.8420400390625,9.203218460083008,-2.8492109775543213,-1.7952109575271606
1781031503772552400,21.861552490234374,9.18484878540039,-2.8559789657592773,-1.8766839504241943
1781031503792063200,21.881063232421877,9.168230056762695,-2.858989953994751,-1.9518530368804932
1781031503811571500,21.900571533203124,9.154271125793457,-2.8542211055755615,-2.023052930831909
1781031503831079400,21.920079345703126,9.144309043884277,-2.8364169597625732,-2.0919721126556396
1781031503850587400,21.93958740234375,9.1375150680542,-2.806180000305176,-2.1612908840179443
1781031503870097700,21.95909765625,9.1338472366333,-2.76460599899292,-2.229301929473877
1781031503889607400,21.978607421875,9.131446838378906,-2.7171568870544434,-2.2964589595794678
1781031503909117000,21.998116943359374,9.129472732543945,-2.666572093963623,-2.3626489639282227
1781031503928628700,22.017628662109374,9.129472732543945,-2.666572093963623,-2.3626489639282227
1781031503948139800,22.037139892578125,9.12736988067627,-2.6143569946289062,-2.4282219409942627
1781031503967654400,22.056654296875,9.124065399169922,-2.5642759799957275,-2.4931750297546387
1781031503987170000,22.076170166015626,9.11941146850586,-2.5168919563293457,-2.5576579570770264
1781031504006682600,22.0956826171875,9.106851577758789,-2.424341917037964,-2.688462018966675
1781031504026194200,22.115194091796877,9.106851577758789,-2.424341917037964,-2.688462018966675
1781031504045710000,22.1347099609375,9.106851577758789,-2.424341917037964,-2.688462018966675
1781031504065229000,22.15422900390625,9.091902732849121,-2.317552089691162,-2.829530954360962
1781031504084743700,22.17374365234375,9.083529472351074,-2.2569310665130615,-2.9044370651245117
1781031504104257800,22.1932578125,9.074421882629395,-2.191809892654419,-2.981750011444092
1781031504123774200,22.212774169921875,9.064566612243652,-2.122921943664551,-3.0605249404907227
1781031504143294700,22.232294677734377,9.05413818359375,-2.0504720211029053,-3.139770030975342
1781031504162814500,22.251814453125,9.043355941772461,-1.978700041770935,-3.2159690856933594
1781031504182328800,22.271328857421874,9.032500267028809,-1.9080100059509277,-3.2883799076080322
1781031504201841200,22.290841064453126,9.021839141845703,-1.8388079404830933,-3.356365919113159
1781031504221355000,22.31035498046875,9.011473655700684,-1.770143985748291,-3.4205191135406494
1781031504240870700,22.32987060546875,9.00147533416748,-1.70038902759552,-3.4816811084747314
1781031504260387000,22.349386962890627,8.991827011108398,-1.628221035003662,-3.5406129360198975
1781031504279902200,22.368902099609375,8.982556343078613,-1.552644968032837,-3.59763503074646
1781031504299414500,22.38841455078125,8.973973274230957,-1.4733779430389404,-3.651979923248291
1781031504318929700,22.4079296875,8.966403007507324,-1.3908970355987549,-3.702570915222168
1781031504338446600,22.427446533203124,8.960190773010254,-1.3061009645462036,-3.7482080459594727
1781031504357964300,22.44696435546875,8.955611228942871,-1.2202140092849731,-3.7878899574279785
1781031504377480400,22.46648046875,8.952651977539062,-1.1346880197525024,-3.8213210105895996
1781031504396997000,22.4859970703125,8.951205253601074,-1.0511490106582642,-3.848507881164551
1781031504416515300,22.505515380859375,8.950867652893066,-0.9712780117988586,-3.87021803855896
1781031504436031500,22.525031494140624,8.951119422912598,-0.8961480259895325,-3.887723922729492
1781031504455548700,22.544548583984376,8.951431274414062,-0.8263199925422668,-3.902445077896118
1781031504475062000,22.56406201171875,8.951288223266602,-0.7620310187339783,-3.915832996368408
1781031504494570500,22.583570556640623,8.950611114501953,-0.7029719948768616,-3.9284090995788574
1781031504514083000,22.6030830078125,8.949430465698242,-0.6485130190849304,-3.9404449462890625
1781031504533597400,22.622597412109375,8.948136329650879,-0.5971440076828003,-3.951491117477417
1781031504553110300,22.6421103515625,8.947181701660156,-0.5469650030136108,-3.9609060287475586
1781031504572630800,22.661630859375,8.947029113769531,-0.49698498845100403,-3.9678289890289307
1781031504592146200,22.681146240234376,8.948294639587402,-0.4471459984779358,-3.970905065536499
1781031504611653400,22.7006533203125,8.951083183288574,-0.39688798785209656,-3.969960927963257
1781031504650677500,22.739677490234374,8.962763786315918,-0.30382099747657776,-3.951780080795288
1781031504670192400,22.7591923828125,8.971442222595215,-0.2619889974594116,-3.935045003890991
1781031504689710300,22.77871044921875,8.982070922851562,-0.224139004945755,-3.9130780696868896
1781031504709224700,22.798224609375,8.994512557983398,-0.18987999856472015,-3.8862199783325195
1781031504728734000,22.81773388671875,9.008737564086914,-0.15911099314689636,-3.854517936706543
1781031504748241700,22.83724169921875,9.023807525634766,-0.12769100069999695,-3.820286989212036
1781031504767748900,22.856748779296876,9.039481163024902,-0.09533300250768661,-3.7840049266815186
1781031504787256800,22.8762568359375,9.039481163024902,-0.09533300250768661,-3.7840049266815186
1781031504806765000,22.89576513671875,9.071481704711914,-0.029167000204324722,-3.707742929458618
1781031504826276000,22.915276123046876,9.071481704711914,-0.029167000204324722,-3.707742929458618
1781031504845792300,22.934792236328125,9.071481704711914,-0.029167000204324722,-3.707742929458618
1781031504865305300,22.954305419921877,9.099865913391113,0.03494900092482567,-3.6374740600585938
1781031504884816400,22.97381640625,9.111126899719238,0.06430699676275253,-3.6087710857391357
1781031504904327400,22.993327392578124,9.119205474853516,0.09154000133275986,-3.587717056274414
1781031504923838700,23.012838623046875,9.123071670532227,0.11708399653434753,-3.5771260261535645
1781031504943350000,23.03235009765625,9.121402740478516,0.14166299998760223,-3.5804951190948486
1781031504962857200,23.051857177734377,9.111820220947266,0.1651969999074936,-3.603806972503662
1781031504982361000,23.071361083984375,9.09367847442627,0.18877600133419037,-3.6482009887695312
1781031505001868300,23.090868408203125,9.066909790039062,0.21264800429344177,-3.7129409313201904
1781031505021379300,23.11037939453125,9.031557083129883,0.2373020052909851,-3.7966649532318115
1781031505040888800,23.129888916015624,8.987911224365234,0.2634280025959015,-3.897186040878296
1781031505060396000,23.14939599609375,8.936677932739258,0.29148000478744507,-4.011335849761963
1781031505079907000,23.168906982421873,8.881187438964844,0.32143399119377136,-4.130518913269043
1781031505099417900,23.18841796875,8.821890830993652,0.35218900442123413,-4.253258228302002
1781031505118923500,23.207923583984375,8.75935173034668,0.3821659982204437,-4.37809419631958
1781031505138432300,23.227432373046874,8.69367790222168,0.40964698791503906,-4.504680156707764
1781031505157942300,23.2469423828125,8.62425422668457,0.4330829977989197,-4.634075164794922
1781031505177446400,23.2664462890625,8.549921035766602,0.45153701305389404,-4.768119812011719
1781031505196952800,23.285952880859377,8.469334602355957,0.46440398693084717,-4.908637046813965
1781031505216466200,23.305466064453125,8.381510734558105,0.4715319871902466,-5.05647087097168
1781031505235981300,23.324981201171877,8.285724639892578,0.47322800755500793,-5.211793899536133
1781031505255493400,23.344493408203125,8.180708885192871,0.4701229929924011,-5.375405788421631
1781031505275002600,23.364002685546875,8.063411712646484,0.46243101358413696,-5.550453186035156
1781031505294510300,23.38351025390625,7.9481120109558105,0.4482620060443878,-5.715467929840088
1781031505314023200,23.403023193359374,7.850244045257568,0.4268310070037842,-5.850767135620117
1781031505333537300,23.422537353515626,7.785417079925537,0.38616999983787537,-5.939540863037109
1781031505353044700,23.442044677734376,7.759143829345703,0.3258950114250183,-5.977415084838867
1781031505372556300,23.461556396484376,7.762452125549316,0.25587499141693115,-5.976527214050293
1781031505392069600,23.481069580078124,7.780673027038574,0.193122997879982,-5.9551520347595215
1781031505411579600,23.50057958984375,7.790555000305176,0.15761099755764008,-5.943264007568359
1781031505431088400,23.52008837890625,7.783863067626953,0.15037700533866882,-5.952215194702148
1781031505450603000,23.53960302734375,7.752488136291504,0.17270000278949738,-5.992420196533203
1781031505470120700,23.55912060546875,7.7052178382873535,0.2123740017414093,-6.051819801330566
1781031505489634000,23.578634033203127,7.662900924682617,0.25100499391555786,-6.103847026824951
1781031505509144800,23.598144775390626,7.649909973144531,0.26068800687789917,-6.119716167449951
1781031505528652800,23.61765283203125,7.677995204925537,0.22063599526882172,-6.086025238037109
1781031505548161000,23.6371611328125,7.677995204925537,0.22063599526882172,-6.086025238037109
1781031505567672800,23.6566728515625,7.733512878417969,0.14900900423526764,-6.017522811889648
1781031505587184400,23.676184326171875,7.804924011230469,0.06631799787282944,-5.926106929779053
1781031505606694100,23.695694091796874,7.946508884429932,-0.05741700157523155,-5.734954833984375
1781031505626206500,23.71520654296875,7.946508884429932,-0.05741700157523155,-5.734954833984375
1781031505645718000,23.734718017578125,7.946508884429932,-0.05741700157523155,-5.734954833984375
1781031505665231000,23.754231201171876,8.069622993469238,-0.10431099683046341,-5.559703826904297
1781031505684744400,23.773744384765624,8.135713577270508,-0.12388599663972855,-5.462122917175293
1781031505704255200,23.793255126953124,8.211357116699219,-0.1580670028924942,-5.34683084487915
1781031505723768000,23.81276806640625,8.295397758483887,-0.2147810012102127,-5.213468074798584
1781031505743282700,23.83228271484375,8.38416862487793,-0.2938059866428375,-5.065506935119629
1781031505762792700,23.851792724609375,8.472097396850586,-0.3819580078125,-4.910974025726318
1781031505782299600,23.871299560546873,8.55810546875,-0.47678300738334656,-4.750951766967773
1781031505801809000,23.890808837890624,8.641253471374512,-0.5671359896659851,-4.587711811065674
1781031505821316900,23.91031689453125,8.722447395324707,-0.649757981300354,-4.420036792755127
1781031505840826600,23.92982666015625,8.803135871887207,-0.7224640250205994,-4.245330810546875
1781031505860341000,23.949341064453126,8.889433860778809,-0.7816720008850098,-4.050548076629639
1781031505879852000,23.96885205078125,8.987140655517578,-0.8229629993438721,-3.8202130794525146
1781031505899362600,23.988362548828125,9.088519096374512,-0.8426949977874756,-3.567728042602539
1781031505918872600,24.00787255859375,9.182182312011719,-0.8360069990158081,-3.3209331035614014
1781031505938378800,24.027378662109374,9.261771202087402,-0.7915120124816895,-3.1037230491638184
1781031505957891600,24.0468916015625,9.325974464416504,-0.7093939781188965,-2.9262568950653076
1781031505977407700,24.06640771484375,9.375340461730957,-0.5980859994888306,-2.790213108062744
1781031505996926500,24.085926513671875,9.41510009765625,-0.48270300030708313,-2.6763548851013184
1781031506016441300,24.10544140625,9.450640678405762,-0.3914810121059418,-2.5636138916015625
1781031506035950000,24.1249501953125,9.485605239868164,-0.3425469994544983,-2.4384350776672363
1781031506055461400,24.14446142578125,9.522740364074707,-0.34100401401519775,-2.2893519401550293
1781031506074973400,24.163973388671874,9.559572219848633,-0.3760710060596466,-2.1244189739227295
1781031506094482700,24.183482666015625,9.593180656433105,-0.43289801478385925,-1.9553699493408203
1781031506113985300,24.2029853515625,9.619787216186523,-0.4838100075721741,-1.8071069717407227
1781031506133491000,24.222490966796876,9.642242431640625,-0.5075420141220093,-1.6761720180511475
1781031506153004300,24.24200439453125,9.66538143157959,-0.5097119808197021,-1.536417007446289
1781031506172518000,24.261517822265624,9.690784454345703,-0.5046690106391907,-1.3689509630203247
1781031506192031700,24.28103173828125,9.717659950256348,-0.5002589821815491,-1.164829969406128
1781031506211546000,24.300546142578124,9.74443244934082,-0.5015190243721008,-0.9135140180587769
1781031506231057700,24.3200576171875,9.767409324645996,-0.49547499418258667,-0.6262689828872681
1781031506250572300,24.339572265625,9.783449172973633,-0.4740009903907776,-0.31536999344825745
1781031506270091800,24.359091796875,9.791452407836914,-0.4091799855232239,0.004346999805420637
1781031506289609200,24.378609130859374,9.790403366088867,-0.2922550141811371,0.32027900218963623
1781031506309124900,24.398124755859374,9.778827667236328,-0.12364300340414047,0.6318600177764893
1781031506328643600,24.4176435546875,9.778827667236328,-0.12364300340414047,0.6318600177764893
1781031506348160300,24.43716015625,9.7555570602417,0.08513399958610535,0.9283609986305237
1781031506367676000,24.456676025390625,9.674332618713379,0.5371800065040588,1.4692610502243042
1781031506387192000,24.476192138671873,9.674332618713379,0.5371800065040588,1.4692610502243042
1781031506406705700,24.49570556640625,9.674332618713379,0.5371800065040588,1.4692610502243042
1781031506426220800,24.515220703125,9.576059341430664,0.8761749863624573,1.8898160457611084
1781031506445736400,24.534736328125,9.576059341430664,0.8761749863624573,1.8898160457611084
1781031506465248300,24.554248291015625,9.504941940307617,1.0194250345230103,2.157973051071167
1781031506484760600,24.573760498046877,9.482080459594727,1.0340059995651245,2.2496609687805176
1781031506504275200,24.593275146484373,9.466177940368652,1.0184390544891357,2.3225560188293457
1781031506523787000,24.612787109375,9.451631546020508,0.9957150220870972,2.390650987625122
1781031506543295500,24.63229541015625,9.437531471252441,0.9678260087966919,2.4568889141082764
1781031506562809300,24.651809326171875,9.421945571899414,0.9372320175170898,2.527559995651245
1781031506601837000,24.690837158203124,9.385332107543945,0.8590220212936401,2.6865599155426025
1781031506621348900,24.710348876953127,9.364265441894531,0.810696005821228,2.77367901802063
1781031506640861400,24.729861328125,9.34217643737793,0.764726996421814,2.859882116317749
1781031506660368600,24.74936865234375,9.320013999938965,0.7247229814529419,2.94144606590271
1781031506679876600,24.768876708984376,9.29869556427002,0.6942390203475952,3.0153439044952393
1781031506699385900,24.7883857421875,9.279718399047852,0.6778630018234253,3.0769009590148926
1781031506718894000,24.80789404296875,9.264090538024902,0.6773110032081604,3.1237599849700928
1781031506738406100,24.82740625,9.252740859985352,0.6914089918136597,3.1541600227355957
1781031506757918200,24.846918212890625,9.246515274047852,0.7110040187835693,3.1680328845977783
1781031506777433900,24.866433837890625,9.247271537780762,0.7328119874000549,3.1608450412750244
1781031506796946700,24.88594677734375,9.256087303161621,0.74440598487854,3.132205009460449
1781031506816455400,24.905455322265624,9.274537086486816,0.7428410053253174,3.0775229930877686
1781031506835964700,24.924964599609375,9.302094459533691,0.7161350250244141,2.999695062637329
1781031506855476200,24.944476318359374,9.33791446685791,0.6534320116043091,2.901103973388672
1781031506874986200,24.963986328125,9.3808012008667,0.548570990562439,2.7820188999176025
1781031506894495200,24.9834951171875,9.427441596984863,0.3955810070037842,2.6470489501953125
1781031506914010400,25.00301025390625,9.474513053894043,0.2022629976272583,2.49653697013855
1781031506933526300,25.0225263671875,9.516301155090332,-0.016947999596595764,2.3408799171447754
1781031506953040100,25.0420400390625,9.550333023071289,-0.24728600680828094,2.184030055999756
1781031506972552400,25.061552490234376,9.576440811157227,-0.476624995470047,2.0259809494018555
1781031506992061400,25.0810615234375,9.594356536865234,-0.6785240173339844,1.8782739639282227
1781031507011571500,25.100571533203127,9.606732368469238,-0.8489630222320557,1.7406729459762573
1781031507031081000,25.1200810546875,9.615324020385742,-0.9858409762382507,1.6166820526123047
1781031507050587000,25.1395869140625,9.621360778808594,-1.1012409925460815,1.5022259950637817
1781031507070093800,25.15909375,9.625894546508789,-1.1987119913101196,1.3947169780731201
1781031507089605000,25.178605224609374,9.629451751708984,-1.2795549631118774,1.2947590351104736
1781031507109122600,25.19812255859375,9.631248474121094,-1.3631139993667603,1.192041039466858
1781031507128641800,25.217641845703124,9.631248474121094,-1.3631139993667603,1.192041039466858
1781031507148157200,25.2371572265625,9.631237030029297,-1.4479999542236328,1.0874569416046143
1781031507167676000,25.256676025390625,9.625410079956055,-1.624021053314209,0.8683509826660156
1781031507187194600,25.276194580078126,9.625410079956055,-1.624021053314209,0.8683509826660156
1781031507206710800,25.295710693359375,9.612961769104004,-1.7953870296478271,0.6383919715881348
1781031507226226000,25.315225830078123,9.612961769104004,-1.7953870296478271,0.6383919715881348
