time,seconds_elapsed,z,y,x
1781031482393624000,0.4826240234375,9.930000305175781,1.0009500980377197,-2.260050058364868
1781031482403375600,0.492375732421875,10.104000091552734,0.9720000624656677,-2.2330501079559326
1781031482422876200,0.511876220703125,10.207950592041016,0.9799500703811646,-2.0310001373291016
1781031482442378500,0.53137841796875,9.928950309753418,0.9390000700950623,-1.64805006980896
1781031482461888500,0.550888427734375,9.553950309753418,0.8059500455856323,-1.2529500722885132
1781031482481395000,0.57039501953125,9.321000099182129,0.7639500498771667,-1.0360500812530518
1781031482500898300,0.589898193359375,9.094950675964355,0.6970500349998474,-0.9619500637054443
1781031482520405800,0.60940576171875,9.021000862121582,0.7350000143051147,-1.1299500465393066
1781031482539909000,0.6289091796875,8.89905071258545,1.0870500802993774,-1.4820001125335693
1781031482559409400,0.648409423828125,8.551950454711914,1.4599500894546509,-1.7050501108169556
1781031482578910500,0.667910400390625,8.185050010681152,1.6399500370025635,-1.801050066947937
1781031482598415400,0.687415283203125,8.017950057983398,1.6549500226974487,-1.8439500331878662
1781031482617920800,0.706920654296875,8.04900074005127,1.3579500913619995,-1.8330000638961792
1781031482637424400,0.72642431640625,8.278050422668457,0.9250500202178955,-1.7989500761032104
1781031482656931300,0.745931396484375,10.01400089263916,0.6180000305175781,-1.8600001335144043
1781031482676440000,0.765440185546875,10.354050636291504,0.36195001006126404,-1.9009500741958618
1781031482695945500,0.784945556640625,10.70205020904541,0.12000000476837158,-1.752000093460083
1781031482715448000,0.804447998046875,10.800000190734863,-0.07304999977350235,-1.5390000343322754
1781031482734951000,0.823950927734375,10.51395034790039,-0.15195000171661377,-1.4490001201629639
1781031482754456000,0.8434560546875,8.749950408935547,-0.15300001204013824,-1.5019500255584717
1781031482773965600,0.862965576171875,8.629950523376465,-0.12495000660419464,-1.7640000581741333
1781031482793476900,0.882476806640625,8.701950073242188,-0.05595000088214874,-2.1690001487731934
1781031482812985000,0.901985107421875,8.926050186157227,0.034050002694129944,-2.4840002059936523
1781031482832490500,0.921490478515625,9.154050827026367,0.2050500065088272,-2.6449501514434814
1781031482851999000,0.9409990234375,9.190950393676758,0.5719500184059143,-2.68500018119812
1781031482871506200,0.960506103515625,8.87700080871582,0.9750000238418579,-2.509050130844116
1781031482891009500,0.980009521484375,8.511000633239746,1.270050048828125,-2.2420501708984375
1781031482910516700,0.999516845703125,8.315999984741211,1.3639500141143799,-2.0239500999450684
1781031482930024000,1.01902392578125,8.467050552368164,1.350000023841858,-1.9699500799179077
1781031482949528800,1.03852880859375,8.822999954223633,1.240950107574463,-2.1480000019073486
1781031482969034000,1.058033935546875,8.911050796508789,1.0410000085830688,-2.4090001583099365
1781031482988538600,1.07753857421875,8.824049949645996,0.778950035572052,-2.659050226211548
1781031483008039200,1.0970390625,8.659049987792969,0.27195000648498535,-2.8150501251220703
1781031483027538700,1.11653857421875,8.59695053100586,-0.3430500030517578,-2.9010000228881836
1781031483047044000,1.136044189453125,8.785950660705566,-0.987000048160553,-2.968950033187866
1781031483066549800,1.1555498046875,9.028050422668457,-1.5100500583648682,-3.057000160217285
1781031483086049300,1.17504931640625,9.249000549316406,-1.7239500284194946,-3.145050048828125
1781031483105548800,1.194548828125,9.367950439453125,-1.6150500774383545,-3.271050214767456
1781031483125052400,1.214052490234375,9.313050270080566,-1.228950023651123,-3.4459502696990967
1781031483144558300,1.233558349609375,9.01395034790039,-0.7840500473976135,-3.5629501342773438
1781031483164070700,1.253070556640625,8.826000213623047,-0.4230000078678131,-3.5350501537323
1781031483183585500,1.27258544921875,9.004050254821777,-0.18495000898838043,-3.460050106048584
1781031483203097900,1.292097900390625,9.481050491333008,-0.032999999821186066,-3.29295015335083
1781031483222607000,1.311607177734375,10.036050796508789,0.20205001533031464,-3.0229501724243164
1781031483242116000,1.3311162109375,10.077000617980957,0.5629500150680542,-2.782050132751465
1781031483261623300,1.350623291015625,9.844950675964355,1.0219500064849854,-2.622000217437744
1781031483281129000,1.37012890625,9.67905044555664,1.5829501152038574,-2.6760001182556152
1781031483300636700,1.38963671875,9.58905029296875,2.0899500846862793,-2.7139501571655273
1781031483320146400,1.409146484375,9.940950393676758,2.2420501708984375,-2.7150001525878906
1781031483339658800,1.42865869140625,10.483050346374512,1.8360000848770142,-2.448000192642212
1781031483359174000,1.448173828125,10.932000160217285,0.06405000388622284,-2.0490000247955322
1781031483378686000,1.46768603515625,11.176950454711914,-0.28200000524520874,-1.8889501094818115
1781031483398191600,1.487191650390625,10.98705005645752,-0.8329500555992126,-1.8130500316619873
1781031483417698600,1.506698486328125,9.193950653076172,-1.207050085067749,-1.8400501012802124
1781031483437206500,1.52620654296875,8.772000312805176,-1.549950122833252,-1.7569501399993896
1781031483456713500,1.54571337890625,8.190000534057617,-1.897050142288208,-1.5120000839233398
1781031483476221000,1.565220947265625,7.548000335693359,-1.971000075340271,-1.360050082206726
1781031483495727400,1.584727294921875,6.9370503425598145,-1.7080501317977905,-1.4590500593185425
1781031483515235000,1.604235107421875,6.41295051574707,-1.1479500532150269,-1.6780500411987305
1781031483534743300,1.623743408203125,6.250050067901611,0.46800002455711365,-1.8799500465393066
1781031483554246100,1.64324609375,6.474000453948975,0.89805006980896,-1.968000054359436
1781031483573746200,1.66274609375,6.853950500488281,1.2600001096725464,-2.001000165939331
1781031483593248500,1.68224853515625,8.694000244140625,1.2559500932693481,-2.0869500637054443
1781031483612759000,1.701759033203125,8.893950462341309,0.9559500217437744,-2.257050037384033
1781031483632273700,1.721273681640625,9.046950340270996,0.3840000033378601,-2.3800501823425293
1781031483651787300,1.740787353515625,10.648050308227539,-0.23205001652240753,-2.344050168991089
1781031483671297500,1.760297607421875,9.131999969482422,-0.7249500155448914,-2.265000104904175
1781031483690807600,1.7798076171875,9.23805046081543,-1.1490000486373901,-2.124000072479248
1781031483710313700,1.799313720703125,9.487950325012207,-1.3570500612258911,-2.111999988555908
1781031483729812500,1.8188125,9.244950294494629,-1.3890000581741333,-2.098050117492676
1781031483749313000,1.83831298828125,9.343050003051758,-1.1260499954223633,-2.07705020904541
1781031483768818000,1.85781787109375,9.135000228881836,-0.6520500183105469,-2.142000198364258
1781031483788327400,1.877327392578125,8.740950584411621,-0.19200000166893005,-2.1979501247406006
1781031483807839700,1.89683984375,8.527950286865234,0.16305001080036163,-2.25600004196167
1781031483827352000,1.91635205078125,8.329050064086914,0.25005000829696655,-2.2759501934051514
1781031483846865200,1.935865234375,8.575950622558594,0.14595000445842743,-2.2320001125335693
1781031483866373600,1.95537353515625,8.87700080871582,-0.024000000208616257,-2.098050117492676
1781031483885880600,1.974880615234375,9.094050407409668,-0.27195000648498535,-1.977000117301941
1781031483905391000,1.99439111328125,9.046050071716309,-0.40800002217292786,-1.752000093460083
1781031483924899300,2.0138994140625,8.800950050354004,-0.47895002365112305,-1.5610500574111938
1781031483944402000,2.03340185546875,8.560050010681152,-0.48795002698898315,-1.3890000581741333
1781031483963904300,2.052904296875,8.158050537109375,-0.39705002307891846,-1.114050030708313
1781031483983410700,2.07241064453125,7.858950138092041,-0.32895001769065857,-0.8629500269889832
1781031484002918400,2.09191845703125,7.488000392913818,-0.28095000982284546,-0.690000057220459
1781031484022427000,2.111427001953125,7.293000221252441,-0.37605002522468567,-0.5929500460624695
1781031484041937000,2.13093701171875,7.564950466156006,-0.6000000238418579,-0.6520500183105469
1781031484061446100,2.150446044921875,9.151050567626953,-0.8080500364303589,-0.8089500665664673
1781031484080956200,2.1699560546875,9.6739501953125,-0.820050060749054,-0.89205002784729
1781031484100466400,2.189466552734375,11.104050636291504,-0.6000000238418579,-0.7440000176429749
1781031484119970300,2.20897021484375,11.389050483703613,-0.23895001411437988,-0.3679500222206116
1781031484139471600,2.2284716796875,11.745000839233398,0.14805001020431519,-0.019050000235438347
1781031484158975000,2.24797509765625,11.881950378417969,0.4159500300884247,0.2880000174045563
1781031484178476500,2.2674765625,11.84595012664795,0.5220000147819519,0.6649500131607056
1781031484197978600,2.286978515625,11.725950241088867,0.4939500093460083,1.0519500970840454
1781031484217480200,2.306480224609375,11.623050689697266,0.37995001673698425,1.4490001201629639
1781031484236985000,2.325985107421875,11.42595100402832,0.11805000901222229,1.8250501155853271
1781031484256490800,2.34549072265625,11.1739501953125,-0.1969500035047531,1.998000144958496
1781031484275991600,2.364991455078125,10.777050971984863,-0.31905001401901245,1.9990501403808594
1781031484295489500,2.384489501953125,10.285050392150879,-0.18300001323223114,1.8979500532150269
1781031484314985500,2.4039853515625,9.814950942993164,0.21195000410079956,1.746000051498413
1781031484334488000,2.423488037109375,9.48705005645752,0.7230000495910645,1.6009501218795776
1781031484353991000,2.442990966796875,9.32805061340332,1.2060000896453857,1.5340501070022583
1781031484373491200,2.4624912109375,9.231000900268555,1.6260000467300415,1.596000075340271
1781031484392991700,2.48199169921875,9.03600025177002,1.8400501012802124,1.8610501289367676
1781031484412493800,2.501493896484375,8.822999954223633,1.810050129890442,2.2330501079559326
1781031484431996700,2.52099658203125,8.617950439453125,1.5940500497817993,2.6080501079559326
1781031484451500000,2.5405,8.496000289916992,1.1430000066757202,3.103950262069702
1781031484471002600,2.560002685546875,8.535000801086426,0.6630000472068787,3.570000171661377
1781031484490501600,2.579501708984375,8.676000595092773,0.4129500091075897,4.029000282287598
1781031484510002000,2.599001953125,8.854050636291504,0.4050000309944153,4.546050071716309
1781031484529505800,2.618505859375,8.880000114440918,0.51705002784729,5.031000137329102
1781031484549012700,2.6380126953125,8.634000778198242,0.820050060749054,5.479950428009033
1781031484568522200,2.657522216796875,8.272050857543945,1.3090500831604004,5.872950077056885
1781031484588030500,2.677030517578125,7.79295015335083,3.015000104904175,6.090000152587891
1781031484607536000,2.6965361328125,6.069000244140625,3.318000078201294,6.001950263977051
1781031484627038700,2.716038818359375,5.926050186157227,3.4870500564575195,5.692950248718262
1781031484646541800,2.735541748046875,5.8720502853393555,3.2280001640319824,5.145000457763672
1781031484666044400,2.75504443359375,6.142950057983398,1.6519501209259033,4.548000335693359
1781031484685545700,2.774545654296875,8.254950523376465,0.0070500001311302185,4.096950054168701
1781031484705047000,2.794047119140625,8.736000061035156,-0.2760000228881836,3.7219502925872803
1781031484724548900,2.813548828125,9.337950706481934,-0.45705002546310425,3.4330501556396484
1781031484744053500,2.833053466796875,9.751049995422363,-0.5239500403404236,3.2380502223968506
1781031484763559700,2.8525595703125,9.928950309753418,-0.4740000367164612,3.1030502319335938
1781031484783065000,2.872065185546875,9.859950065612793,-0.34095001220703125,3.0330002307891846
1781031484802568000,2.89156787109375,9.556950569152832,-0.1579500138759613,2.965050220489502
1781031484822067200,2.911067138671875,9.16200065612793,-0.08400000631809235,2.8510501384735107
1781031484841566700,2.930566650390625,8.989950180053711,-0.27195000648498535,2.6950502395629883
1781031484861067500,2.950067626953125,9.175050735473633,-0.5879999995231628,2.5009500980377197
1781031484880566500,2.96956640625,9.520950317382812,-0.8290500640869141,2.263050079345703
1781031484900063000,2.98906298828125,9.751049995422363,-0.9070500135421753,1.9990501403808594
1781031484919559000,3.008558837890625,9.705000877380371,-1.051050066947937,1.7809500694274902
1781031484939057200,3.02805712890625,9.550950050354004,-1.3759500980377197,1.636950135231018
1781031484958557000,3.047556884765625,9.478950500488281,-1.7650500535964966,1.4929500818252563
1781031484978061600,3.0670615234375,9.556050300598145,-1.954050064086914,1.3920000791549683
1781031484997568000,3.086568115234375,9.724050521850586,-1.7700001001358032,1.3060500621795654
1781031485017074200,3.10607421875,9.796950340270996,-1.4740500450134277,1.2520500421524048
1781031485036583700,3.125583740234375,9.825000762939453,-1.1959500312805176,1.2400500774383545
1781031485056094500,3.145094482421875,9.760050773620605,-1.075950026512146,1.158000111579895
1781031485075605000,3.16460498046875,9.547050476074219,-1.0879501104354858,1.1130000352859497
1781031485095110100,3.184110107421875,9.319050788879395,-1.1389501094818115,1.0489500761032104
1781031485114611000,3.20361083984375,9.208050727844238,-1.2340500354766846,0.9940500259399414
1781031485134114600,3.223114501953125,9.297000885009766,-1.311000108718872,0.9240000247955322
1781031485153620500,3.242620361328125,9.505950927734375,-1.390950083732605,0.7600500583648682
1781031485173128400,3.26212841796875,9.726000785827637,-1.3069500923156738,0.5680500268936157
1781031485192640300,3.28164013671875,9.712950706481934,-1.1380500793457031,0.41805002093315125
1781031485212151300,3.3011513671875,9.41100025177002,-0.9829500317573547,0.3240000009536743
1781031485231661300,3.320661376953125,8.947050094604492,-0.8760000467300415,0.23400001227855682
1781031485251173600,3.340173583984375,8.476950645446777,-0.9630000591278076,0.11205000430345535
1781031485270688000,3.35968798828125,8.346000671386719,-1.2160500288009644,-0.034950003027915955
1781031485290202000,3.3792021484375,8.61405086517334,-1.4650501012802124,-0.28995001316070557
1781031485309719300,3.39871923828125,9.1360502243042,-1.5520501136779785,-0.6060000061988831
1781031485329237200,3.4182373046875,9.555000305175781,-1.537950038909912,-0.8100000619888306
1781031485348750800,3.437750732421875,9.616050720214844,-1.5079500675201416,-0.9190500378608704
1781031485368262100,3.45726220703125,9.406050682067871,-1.5090000629425049,-0.9000000357627869
1781031485387773400,3.4767734375,9.17400074005127,-1.5690001249313354,-0.9360000491142273
1781031485407285200,3.49628515625,9.133049964904785,-1.665000081062317,-1.0609500408172607
1781031485426798000,3.515798095703125,9.258000373840332,-1.818000078201294,-1.1749500036239624
1781031485446312700,3.535312744140625,9.4350004196167,-2.056950092315674,-1.2450000047683716
1781031485465827800,3.554827880859375,9.519000053405762,-2.3479502201080322,-1.2690000534057617
1781031485485343700,3.57434375,9.517050743103027,-2.559000015258789,-1.363050103187561
1781031485504860700,3.593860595703125,9.492000579833984,-2.623950242996216,-1.5619500875473022
1781031485524376800,3.613376953125,9.460050582885742,-2.539950132369995,-1.7479500770568848
1781031485543889000,3.632888916015625,9.45300006866455,-2.3910000324249268,-1.8790501356124878
1781031485563400000,3.65239990234375,9.438000679016113,-2.221950054168701,-1.974000096321106
1781031485582915300,3.671915283203125,9.466050148010254,-2.0269501209259033,-2.067000150680542
1781031485602433000,3.69143310546875,9.564000129699707,-1.8619500398635864,-2.158950090408325
1781031485621947400,3.710947509765625,9.69105052947998,-1.6990500688552856,-2.236950159072876
1781031485641456000,3.7304560546875,9.792000770568848,-1.5589500665664673,-2.3010001182556152
1781031485660964900,3.74996484375,9.829050064086914,-1.434000015258789,-2.388000011444092
1781031485680479200,3.769479248046875,9.790050506591797,-1.3090500831604004,-2.5099501609802246
1781031485699996400,3.788996337890625,9.68595027923584,-1.1730000972747803,-2.6290500164031982
1781031485719509500,3.808509521484375,9.532950401306152,-1.0660500526428223,-2.7679500579833984
1781031485739022300,3.828022216796875,9.37695026397705,-0.999000072479248,-2.9580001831054688
1781031485758532400,3.847532470703125,9.342000007629395,-0.9690000414848328,-3.1579501628875732
1781031485778037200,3.867037353515625,9.469950675964355,-0.9919500350952148,-3.3349502086639404
1781031485797546500,3.88654638671875,9.684000015258789,-1.0290000438690186,-3.475950241088867
1781031485817060600,3.906060546875,9.807000160217285,-1.0080000162124634,-3.559950113296509
1781031485836576300,3.925576171875,9.63705062866211,-0.9040500521659851,-3.6010501384735107
1781031485856086800,3.945086669921875,9.271950721740723,-0.7230000495910645,-3.5629501342773438
1781031485875598000,3.96459814453125,8.937000274658203,-0.4930500090122223,-3.450000047683716
1781031485895111700,3.984111572265625,8.755050659179688,-0.30300000309944153,-3.2809500694274902
1781031485914625800,4.003625732421875,8.782050132751465,-0.17100000381469727,-3.1210501194000244
1781031485934142500,4.023142578125,8.887950897216797,-0.07605000585317612,-3.0169501304626465
1781031485953658600,4.04265869140625,8.980050086975098,0.039000000804662704,-2.952000141143799
1781031485973175800,4.06217578125,9.040050506591797,0.23400001227855682,-2.9140501022338867
1781031485992694800,4.08169482421875,9.09000015258789,0.4519500136375427,-2.9580001831054688
1781031486012210000,4.1012099609375,9.064949989318848,0.700950026512146,-3.057000160217285
1781031486031717600,4.120717529296875,8.956950187683105,0.895050048828125,-3.184950113296509
1781031486051230000,4.14022998046875,8.791950225830078,0.9780000448226929,-3.312000274658203
1781031486070748200,4.159748046875,8.676000595092773,1.0420500040054321,-3.409050226211548
1781031486090261000,4.179260986328125,8.679000854492188,1.1190000772476196,-3.4620001316070557
1781031486109772800,4.198772705078125,8.72700023651123,1.2460500001907349,-3.4650001525878906
1781031486129286400,4.218286376953125,8.713950157165527,1.3690500259399414,-3.4039502143859863
1781031486148799500,4.237799560546875,8.643000602722168,1.5240000486373901,-3.283950090408325
1781031486168314000,4.257314208984375,8.515950202941895,1.6330500841140747,-3.1740002632141113
1781031486187829500,4.27682958984375,8.449049949645996,1.689000129699707,-3.055950164794922
1781031486207345000,4.296344970703125,8.493000030517578,1.7730001211166382,-2.9539501667022705
1781031486226857000,4.31585693359375,8.569950103759766,1.7670000791549683,-2.8720500469207764
1781031486246369300,4.335369384765625,8.677050590515137,1.699950098991394,-2.820000171661377
1781031486265884000,4.3548837890625,8.794950485229492,1.6320000886917114,-2.824050188064575
1781031486285399000,4.37439892578125,8.934000015258789,1.5780000686645508,-2.8789501190185547
1781031486304912000,4.393911865234375,9.091050148010254,1.5480000972747803,-2.914950132369995
1781031486324423000,4.4134228515625,9.246000289916992,1.5169501304626465,-2.8909502029418945
1781031486343932200,4.43293212890625,9.42495059967041,1.440000057220459,-2.845950126647949
1781031486363440000,4.452440185546875,9.69795036315918,1.3170000314712524,-2.8189501762390137
1781031486382948400,4.4719482421875,10.077000617980957,1.1809500455856323,-2.950050115585327
1781031486402455300,4.491455322265625,10.338000297546387,1.152000069618225,-3.1740002632141113
1781031486421965000,4.510965087890625,10.305000305175781,1.1440500020980835,-3.283050060272217
1781031486441479200,4.530479248046875,10.113000869750977,1.128000020980835,-3.321000099182129
1781031486460992300,4.5499921875,9.870000839233398,1.072950005531311,-3.361950159072876
1781031486480503000,4.5695029296875,9.634050369262695,0.8760000467300415,-3.369000196456909
1781031486500014600,4.5890146484375,9.514050483703613,0.6949500441551208,-3.5059502124786377
1781031486519529000,4.608529052734375,9.418950080871582,0.6030000448226929,-3.7699501514434814
1781031486539041500,4.62804150390625,9.226950645446777,0.5730000138282776,-4.05495023727417
1781031486558551600,4.647551513671875,9.058950424194336,0.5890500545501709,-4.384050369262695
1781031486578062600,4.6670625,8.88705062866211,0.5620500445365906,-4.759050369262695
1781031486597575000,4.686574951171875,8.689949989318848,0.4350000321865082,-5.08305025100708
1781031486617087700,4.706087646484375,8.60205078125,0.2659500241279602,-5.359950065612793
1781031486636603400,4.725603271484375,8.643000602722168,0.1360500007867813,-5.652000427246094
1781031486656120000,4.7451201171875,8.704950332641602,0.05295000225305557,-5.908950328826904
1781031486675636500,4.764636474609375,8.671950340270996,0.016050001606345177,-6.130950450897217
1781031486695152600,4.784152587890625,8.447999954223633,0.00795000046491623,-6.342000484466553
1781031486714667000,4.8036669921875,8.152950286865234,0.004950000438839197,-6.511050224304199
1781031486734185700,4.823185791015625,7.921050548553467,-0.019050000235438347,-6.694050312042236
1781031486753705200,4.842705322265625,7.782000541687012,-0.04905000329017639,-6.919950485229492
1781031486773223200,4.86222314453125,7.798050403594971,-0.031950000673532486,-7.177950382232666
1781031486792740900,4.881740966796875,7.648950576782227,0.08295000344514847,-7.669050216674805
1781031486812255200,4.901255126953125,5.169000148773193,0.46800002455711365,-9.48900032043457
1781031486831771600,4.920771728515625,3.2370002269744873,0.8460000157356262,-10.894950866699219
1781031486851288000,4.9402880859375,2.968050241470337,0.7729500532150269,-10.659000396728516
1781031486870800400,4.95980029296875,4.3279500007629395,-1.3140000104904175,-5.772000312805176
1781031486890314500,4.979314453125,8.902050018310547,-3.1560001373291016,-1.2739500999450684
1781031486909827300,4.998827392578125,13.366950988769531,-3.7330501079559326,0.6810000538825989
1781031486929340700,5.018340576171875,15.532950401306152,-4.002000331878662,0.5770500302314758
1781031486948856300,5.037856201171875,16.93305015563965,-2.121000051498413,-2.518050193786621
1781031486968373500,5.05737353515625,15.015000343322754,-1.7440500259399414,-4.273950099945068
1781031486987893000,5.07689306640625,11.898000717163086,-1.2229501008987427,-4.2900004386901855
1781031487007412000,5.096411865234375,9.832950592041016,-1.224000096321106,-3.934950113296509
1781031487026929700,5.1159296875,9.378000259399414,-1.7449500560760498,-3.4560000896453857
1781031487046448400,5.135448486328125,9.297000885009766,-2.236950159072876,-3.1339502334594727
1781031487065964800,5.15496484375,9.675000190734863,-2.3910000324249268,-3.1339502334594727
1781031487085479200,5.174479248046875,9.675000190734863,-2.0620501041412354,-3.076050043106079
1781031487104993000,5.193992919921875,9.109050750732422,-1.6350001096725464,-2.8189501762390137
1781031487124508000,5.2135078125,7.3969502449035645,-1.4070000648498535,-2.496000051498413
1781031487144020500,5.2330205078125,7.387950420379639,-1.333050012588501,-2.203050136566162
1781031487163535000,5.25253515625,7.636950492858887,-1.453950047492981,-2.1940500736236572
1781031487183050200,5.27205029296875,9.403050422668457,-1.6740000247955322,-2.413950204849243
1781031487202562800,5.291562744140625,9.69105052947998,-1.7230501174926758,-2.7139501571655273
1781031487222077400,5.311077392578125,9.931950569152832,-1.5580500364303589,-2.956050157546997
1781031487241595000,5.330594970703125,9.897000312805176,-1.3759500980377197,-3.057000160217285
1781031487261114000,5.350114013671875,9.418950080871582,-1.276050090789795,-3.0769500732421875
1781031487280626200,5.369626220703125,9.223950386047363,-1.2499500513076782,-2.8690500259399414
1781031487300137700,5.3891376953125,8.886000633239746,-1.3129500150680542,-2.49495005607605
1781031487319656700,5.40865673828125,8.5489501953125,-1.3950001001358032,-2.190000057220459
1781031487339175200,5.428175048828125,8.299050331115723,-1.3890000581741333,-1.9699500799179077
1781031487358692000,5.447692138671875,7.842000484466553,-1.3030500411987305,-1.8630000352859497
1781031487378211600,5.467211669921875,7.470000267028809,-1.1100000143051147,-1.7149500846862793
1781031487397731800,5.48673193359375,7.3470001220703125,-0.7240500450134277,-1.5600000619888306
1781031487417252600,5.506252685546875,7.26300048828125,-0.364050030708313,-1.5019500255584717
1781031487436777500,5.525777587890625,7.0819501876831055,-0.16200000047683716,-1.4310001134872437
1781031487456299500,5.545299560546875,6.805950164794922,-0.10395000129938126,-1.4449501037597656
1781031487475817200,5.564817138671875,6.415050506591797,-0.23595000803470612,-1.453950047492981
1781031487495334000,5.584333984375,6.247950077056885,-0.364950031042099,-1.3560000658035278
1781031487514853000,5.60385302734375,6.484050273895264,-0.41100001335144043,-1.2370500564575195
1781031487534374400,5.62337451171875,8.118000030517578,-0.5760000348091125,-1.1890500783920288
1781031487553894700,5.642894775390625,9.70995044708252,-0.8010000586509705,-1.1230500936508179
1781031487573415200,5.662415283203125,11.545950889587402,-1.0049999952316284,-0.9430500268936157
1781031487592936000,5.68193603515625,13.195050239562988,-1.2889500856399536,-0.5250000357627869
1781031487612457500,5.70145751953125,15.016950607299805,-1.4650501012802124,0.05895000323653221
1781031487631978500,5.720978515625,15.307950973510742,-1.477950096130371,1.828950047492981
1781031487651496000,5.740495849609375,15.472050666809082,-1.423050045967102,2.0970001220703125
1781031487671012900,5.760012939453125,15.295050621032715,-1.3159500360488892,2.2770001888275146
1781031487690535700,5.77953564453125,13.731000900268555,-1.0530000925064087,2.1690001487731934
1781031487710059500,5.7990595703125,13.257000923156738,-0.7600500583648682,2.095050096511841
1781031487729580000,5.818580078125,11.34000015258789,-0.3630000054836273,2.0410501956939697
1781031487749100800,5.838100830078125,9.327000617980957,0.24900001287460327,1.8750001192092896
1781031487768623900,5.857623779296875,7.44705057144165,0.6670500040054321,2.0470499992370605
1781031487788141800,5.877141845703125,7.095000267028809,1.1670000553131104,2.098050117492676
1781031487807654400,5.896654296875,6.687000274658203,1.4530500173568726,1.9639500379562378
1781031487827173400,5.91617333984375,6.229050159454346,1.4140501022338867,2.127000093460083
1781031487846696700,5.93569677734375,5.989950180053711,1.5019500255584717,2.3749501705169678
1781031487866218000,5.955218017578125,5.785050392150879,1.4089500904083252,2.9220001697540283
1781031487885737700,5.97473779296875,5.635050296783447,1.3000500202178955,4.641000270843506
1781031487905259500,5.994259521484375,5.842950344085693,1.2169500589370728,5.184000015258789
1781031487924782600,6.013782470703125,7.716000556945801,1.0000500679016113,5.8090500831604
1781031487944303400,6.033303466796875,9.288000106811523,0.9100500345230103,6.1120500564575195
1781031487963820300,6.0528203125,9.687000274658203,1.0600500106811523,6.055050373077393
1781031487983335000,6.0723349609375,10.098000526428223,1.543950080871582,5.596050262451172
1781031488002852400,6.091852294921875,10.198050498962402,3.0520501136779785,4.105950355529785
1781031488022369500,6.11136962890625,9.877950668334961,3.3829500675201416,3.825000286102295
1781031488041884700,6.130884765625,9.25005054473877,3.5809502601623535,3.5400002002716064
1781031488061401000,6.150401123046875,7.7659502029418945,3.4459502696990967,3.324000120162964
1781031488080915200,6.169915283203125,7.465050220489502,2.9710500240325928,3.2470500469207764
1781031488100429000,6.189428955078125,7.293000221252441,1.4770500659942627,3.3100502490997314
1781031488119946200,6.2089462890625,7.446000576019287,1.1980500221252441,3.369000196456909
1781031488139465200,6.22846533203125,7.768050193786621,1.0000500679016113,3.3640501499176025
1781031488158980600,6.247980712890625,8.089950561523438,1.0090500116348267,3.3070502281188965
1781031488178494200,6.267494140625,8.212950706481934,1.1830500364303589,3.2310001850128174
1781031488198006000,6.287006103515625,8.134050369262695,1.2199500799179077,3.2749502658843994
1781031488217514800,6.3065146484375,8.092950820922852,1.15500009059906,3.3930001258850098
1781031488237024500,6.3260244140625,8.31195068359375,1.01295006275177,3.3790502548217773
1781031488256536600,6.34553662109375,8.72504997253418,0.8410500288009644,3.1309502124786377
1781031488276050400,6.365050537109375,8.965950012207031,0.5020500421524048,2.8410000801086426
1781031488295562000,6.38456201171875,8.970000267028809,-0.07200000435113907,2.6860501766204834
1781031488315074300,6.40407421875,8.919000625610352,-0.7080000042915344,2.590050220489502
1781031488334589200,6.423589111328125,9.032999992370605,-1.2490500211715698,2.4820501804351807
1781031488354105000,6.44310498046875,9.412050247192383,-1.4659500122070312,2.245950222015381
1781031488373617400,6.462617431640625,9.871950149536133,-1.4860501289367676,1.8499500751495361
1781031488393130500,6.482130615234375,10.093950271606445,-1.5450000762939453,1.4880000352859497
1781031488412649000,6.50164892578125,10.063050270080566,-1.6600500345230103,1.2109500169754028
1781031488432170200,6.521170166015625,9.933000564575195,-1.7560501098632812,0.987000048160553
1781031488451688400,6.5406884765625,9.768000602722168,-1.7640000581741333,0.8110500574111938
1781031488471204000,6.5602041015625,9.555000305175781,-1.746000051498413,0.6829500198364258
1781031488490721500,6.579721435546875,9.406050682067871,-1.725000023841858,0.6049500107765198
1781031488510237000,6.59923681640625,9.407999992370605,-1.5799500942230225,0.4249500334262848
1781031488529751300,6.618751220703125,9.583050727844238,-1.3030500411987305,0.17205001413822174
1781031488549268200,6.638268310546875,9.756000518798828,-0.987000048160553,-0.0880500078201294
1781031488568789500,6.65778955078125,9.667950630187988,-0.8299500346183777,-0.2880000174045563
1781031488588308000,6.677307861328125,9.310050010681152,-0.9630000591278076,-0.3940500319004059
1781031488607825200,6.6968251953125,8.832000732421875,-1.2160500288009644,-0.5119500160217285
1781031488627341000,6.716341064453125,8.60205078125,-1.38795006275177,-0.7099500298500061
1781031488646852000,6.73585205078125,8.793000221252441,-1.5120000839233398,-0.9310500621795654
1781031488666365000,6.755364990234375,9.20895004272461,-1.8019500970840454,-1.2030000686645508
1781031488685877500,6.77487744140625,9.640050888061523,-2.187000036239624,-1.5319501161575317
1781031488705389800,6.794389892578125,9.925050735473633,-2.4790501594543457,-1.88100004196167
1781031488724905200,6.8139052734375,9.91200065612793,-2.5530002117156982,-2.196000099182129
1781031488744419600,6.833419677734375,9.8100004196167,-2.2609500885009766,-2.4130501747131348
1781031488763933000,6.852932861328125,9.616950035095215,-1.8690000772476196,-2.4880502223968506
1781031488783445800,6.87244580078125,9.34695053100586,-1.6290000677108765,-2.425950050354004
1781031488802956800,6.891956787109375,9.199950218200684,-1.5319501161575317,-2.4000000953674316
1781031488822464800,6.91146484375,9.136950492858887,-1.5040500164031982,-2.5009500980377197
1781031488841972700,6.93097265625,9.211950302124023,-1.4419500827789307,-2.656050205230713
1781031488861479400,6.9504794921875,9.385950088500977,-1.3669500350952148,-2.817000150680542
1781031488880992000,6.969991943359375,9.565950393676758,-1.2540000677108765,-2.914950132369995
1781031488900507000,6.9895068359375,9.658950805664062,-1.1880000829696655,-2.887050151824951
1781031488920021200,7.009021240234375,9.583050727844238,-1.297950029373169,-2.77905011177063
1781031488939533600,7.028533447265625,9.393000602722168,-1.450950026512146,-2.7810001373291016
1781031488959047000,7.048046875,9.160050392150879,-1.5720000267028809,-2.943000078201294
1781031488978562600,7.0675625,8.983050346374512,-1.579050064086914,-3.1810500621795654
1781031488998078700,7.08707861328125,9.034950256347656,-1.3990501165390015,-3.424950122833252
1781031489017597400,7.106597412109375,9.21405029296875,-1.2450000047683716,-3.574050188064575
1781031489037115400,7.126115478515625,9.336000442504883,-1.1509500741958618,-3.6010501384735107
1781031489056633600,7.145633544921875,9.358050346374512,-1.171950101852417,-3.5520002841949463
1781031489076153300,7.1651533203125,9.250950813293457,-1.2120000123977661,-3.489000082015991
1781031489095673000,7.184673095703125,9.135000228881836,-1.13100004196167,-3.4840502738952637
1781031489115192600,7.204192626953125,9.124950408935547,-0.9919500350952148,-3.556950092315674
1781031489134716700,7.223716552734375,9.19800090789795,-0.8689500689506531,-3.6610500812530518
1781031489154239000,7.243239013671875,9.261000633239746,-0.8010000586509705,-3.7900502681732178
1781031489173760300,7.26276025390625,9.265950202941895,-0.7699500322341919,-3.8610002994537354
1781031489193282800,7.28228271484375,9.244950294494629,-0.7210500240325928,-3.9100501537323
1781031489212802300,7.30180224609375,9.181950569152832,-0.5760000348091125,-3.9499502182006836
1781031489232318500,7.321318359375,9.13800048828125,-0.4330500066280365,-3.9679501056671143
1781031489251839000,7.3408388671875,9.157050132751465,-0.32295000553131104,-3.95205020904541
1781031489271361800,7.36036181640625,9.118950843811035,-0.24495001137256622,-3.8989500999450684
1781031489290879000,7.37987890625,9.079050064086914,-0.23295001685619354,-3.853950262069702
1781031489310399200,7.399399169921875,9.11400032043457,-0.2370000183582306,-3.865950107574463
1781031489329924400,7.41892431640625,9.190950393676758,-0.27900001406669617,-3.970050096511841
1781031489349448400,7.438448486328125,9.298050880432129,-0.3340500295162201,-4.05495023727417
1781031489368971800,7.4579716796875,9.363000869750977,-0.32505002617836,-4.078050136566162
1781031489388491800,7.47749169921875,9.334050178527832,-0.26295000314712524,-4.0219502449035645
1781031489408012000,7.497011962890625,9.208050727844238,-0.14805001020431519,-3.892050266265869
1781031489427534300,7.516534423828125,9.109950065612793,-0.024000000208616257,-3.7420501708984375
1781031489447057400,7.536057373046875,9.054000854492188,0.08895000070333481,-3.627000093460083
1781031489466582800,7.555582763671875,8.985000610351562,0.14400000870227814,-3.5239500999450684
1781031489486103600,7.575103515625,8.926050186157227,0.1579500138759613,-3.388050079345703
1781031489505617400,7.594617431640625,8.857050895690918,0.16200000047683716,-3.28695011138916
1781031489525137400,7.614137451171875,8.844000816345215,0.16305001080036163,-3.1840500831604004
1781031489544662500,7.63366259765625,8.88900089263916,0.20295001566410065,-3.118950128555298
1781031489564187600,7.653187744140625,8.974050521850586,0.286050021648407,-3.0799500942230225
1781031489583710700,7.672710693359375,9.064949989318848,0.3829500079154968,-3.0390000343322754
1781031489603233300,7.6922333984375,9.11205005645752,0.48900002241134644,-3.0229501724243164
1781031489622758100,7.711758056640625,9.067950248718262,0.5850000381469727,-3.010050058364868
1781031489642282800,7.73128271484375,8.995050430297852,0.5929500460624695,-2.986950159072876
1781031489661804800,7.7508046875,8.970000267028809,0.5269500017166138,-2.9950501918792725
1781031489681328600,7.77032861328125,9.031949996948242,0.4639500081539154,-3.000000238418579
1781031489700850400,7.789850341796875,9.181950569152832,0.40005001425743103,-3.0180001258850098
1781031489720372500,7.80937255859375,9.351000785827637,0.37605002522468567,-3.058950185775757
1781031489739892000,7.82889208984375,9.520950317382812,0.4420500099658966,-3.0739500522613525
1781031489759407600,7.84840771484375,9.607050895690918,0.48900002241134644,-3.075000047683716
1781031489778923800,7.867923828125,9.679950714111328,0.49800002574920654,-3.0610501766204834
1781031489798435800,7.887435791015625,9.706950187683105,0.5220000147819519,-3.091050148010254
1781031489817948200,7.9069482421875,9.637950897216797,0.5650500059127808,-3.1620001792907715
1781031489837460500,7.92646044921875,9.528000831604004,0.6820500493049622,-3.265050172805786
1781031489856978000,7.94597802734375,9.393000602722168,0.8710500597953796,-3.391050100326538
1781031489876497200,7.9654970703125,9.307950019836426,1.0609500408172607,-3.5080502033233643
1781031489896010800,7.9850107421875,9.313950538635254,1.1989500522613525,-3.6889500617980957
1781031489915528000,8.00452783203125,9.375,1.2199500799179077,-3.95205020904541
1781031489935048000,8.0240478515625,9.412050247192383,1.1770501136779785,-4.246950149536133
1781031489954567400,8.0435673828125,9.421950340270996,1.0990500450134277,-4.5329999923706055
1781031489974086000,8.0630859375,9.391050338745117,1.0090500116348267,-4.771050453186035
1781031489993608000,8.08260791015625,9.346050262451172,0.9460500478744507,-5.008950233459473
1781031490013133800,8.1021337890625,9.282000541687012,0.9379500150680542,-5.254950046539307
1781031490032656400,8.121656494140625,9.121050834655762,1.0030500888824463,-5.509950160980225
1781031490052172800,8.1411728515625,8.893050193786621,1.1230500936508179,-5.749950408935547
1781031490071691300,8.160691162109375,8.677050590515137,1.2720000743865967,-5.9160003662109375
1781031490091213800,8.1802138671875,8.515049934387207,1.371000051498413,-6.094050407409668
1781031490110730200,8.199730224609375,8.443050384521484,1.3789501190185547,-6.2719502449035645
1781031490130245400,8.219245361328126,8.397000312805176,1.3510500192642212,-6.487950325012207
1781031490149760500,8.238760498046876,8.347949981689453,1.3270500898361206,-6.687000274658203
1781031490169277700,8.258277587890625,8.302050590515137,1.2889500856399536,-6.77400016784668
1781031490188788500,8.27778857421875,8.319000244140625,1.3240500688552856,-6.856050491333008
1781031490208296400,8.29729638671875,8.331000328063965,1.3410000801086426,-6.8959503173828125
1781031490227810600,8.316810546875,8.3100004196167,1.3099501132965088,-6.927000522613525
1781031490247326200,8.336326171875,8.229000091552734,1.2880500555038452,-7.050000190734863
1781031490266837200,8.355837158203125,8.122950553894043,1.240950107574463,-7.2210001945495605
1781031490286350300,8.375350341796874,8.119950294494629,1.2199500799179077,-7.461000442504883
1781031490305871400,8.394871337890624,8.113950729370117,1.2109500169754028,-7.717050552368164
1781031490325392400,8.414392333984376,8.002050399780273,1.114050030708313,-7.858950138092041
1781031490344912100,8.433912109375,7.684950351715088,0.9220500588417053,-7.930950164794922
1781031490364431000,8.45343115234375,5.877000331878662,0.6619500517845154,-8.019000053405762
1781031490383946500,8.472946533203125,3.6760501861572266,0.6250500082969666,-7.915050506591797
1781031490403457000,8.49245703125,3.324000120162964,0.753000020980835,-4.951050281524658
1781031490422971600,8.5119716796875,3.699000120162964,-1.1040000915527344,-0.10305000841617584
1781031490442486800,8.53148681640625,5.587050437927246,-1.4590500593185425,1.4389500617980957
1781031490461999900,8.550999755859374,10.666050910949707,-3.20805025100708,1.8930001258850098
1781031490481509400,8.57050927734375,12.994050979614258,-3.5490002632141113,0.5290500521659851
1781031490501018600,8.5900185546875,13.155000686645508,-0.4549500346183777,-3.630000114440918
1781031490520536000,8.6095361328125,13.246050834655762,1.6909500360488892,-4.141050338745117
1781031490540053200,8.62905322265625,12.790950775146484,3.264000177383423,-4.582950115203857
1781031490559569000,8.64856884765625,11.43600082397461,3.2500500679016113,-4.642050266265869
1781031490579083300,8.668083251953124,11.766000747680664,2.7360000610351562,-4.468050003051758
1781031490598594800,8.6875947265625,12.07395076751709,1.0740000009536743,-4.135050296783447
1781031490618108000,8.70710791015625,12.367950439453125,0.5239500403404236,-3.6439502239227295
1781031490637619700,8.72661962890625,12.003000259399414,-1.078950047492981,-3.160950183868408
1781031490657127000,8.746126953125,9.841050148010254,-1.6560001373291016,-2.6329500675201416
1781031490676633300,8.76563330078125,7.89900016784668,-2.2380001544952393,-2.1010501384735107
1781031490696143400,8.785143310546875,7.44705057144165,-2.4210000038146973,-1.842000126838684
1781031490715655200,8.8046552734375,7.201050281524658,-0.9130500555038452,-1.957050085067749
1781031490735169000,8.8241689453125,7.26300048828125,1.1380500793457031,-2.3389501571655273
1781031490754684700,8.8436845703125,7.651050567626953,1.6350001096725464,-2.611950159072876
1781031490774195200,8.8631953125,8.223000526428223,2.1859500408172607,-2.746950149536133
1781031490793703400,8.882703369140625,10.28895092010498,2.382000207901001,-2.8369500637054443
1781031490813207600,8.90220751953125,12.160050392150879,2.107950210571289,-2.794950246810913
1781031490832713200,8.921713134765625,13.55505084991455,0.2569500207901001,-2.805000066757202
1781031490852222200,8.94122216796875,13.462050437927246,-0.12495000660419464,-2.8750500679016113
1781031490871727000,8.96072705078125,11.185050964355469,-0.5089499950408936,-2.8750500679016113
1781031490891228700,8.980228759765625,7.9830002784729,-0.7189500331878662,-2.6140501499176025
1781031490910731000,8.99973095703125,6.198000431060791,-0.7249500155448914,-2.344050168991089
1781031490930238000,9.019238037109375,4.419000148773193,-0.3859500288963318,-2.1259500980377197
1781031490949742800,9.038742919921875,3.796950101852417,-0.012000000104308128,-1.831950068473816
1781031490969250000,9.05825,3.6100502014160156,0.24705001711845398,-1.7010000944137573
1781031490988762000,9.07776220703125,4.099050045013428,0.5760000348091125,-1.6440000534057617
1781031491008273700,9.097273681640624,6.088050365447998,0.8940000534057617,-1.4089500904083252
1781031491027782400,9.116782470703125,7.689000129699707,1.1440500020980835,-1.1320500373840332
1781031491047290600,9.13629052734375,9.45300006866455,1.453950047492981,-0.9240000247955322
1781031491066800400,9.15580029296875,11.338050842285156,1.6290000677108765,-0.6289500594139099
1781031491086310400,9.175310302734376,11.584050178527832,1.6120500564575195,-0.47805002331733704
1781031491105822200,9.194822265625,11.898000717163086,1.5829501152038574,-0.5320500135421753
1781031491125331700,9.214331787109375,12.010951042175293,1.4350500106811523,-0.42000001668930054
1781031491144844500,9.233844482421874,11.707050323486328,1.1530500650405884,-0.24705001711845398
1781031491164356000,9.253356201171876,11.119050979614258,0.8929500579833984,-0.004950000438839197
1781031491183864300,9.2728642578125,10.54800033569336,0.5299500226974487,0.5029500126838684
1781031491203376400,9.29237646484375,10.086000442504883,0.35295000672340393,0.9720000624656677
1781031491222889500,9.311889404296876,9.865050315856934,0.6190500259399414,1.2930001020431519
1781031491242399500,9.3313994140625,9.685050010681152,0.9690000414848328,1.606950044631958
1781031491261906000,9.350906005859375,9.32805061340332,1.210050106048584,1.8760501146316528
1781031491281416700,9.370416748046875,9.003000259399414,1.4239500761032104,2.0440499782562256
1781031491300926000,9.389926025390626,8.740050315856934,1.2499500513076782,2.419950008392334
1781031491320432400,9.409432373046876,8.643000602722168,0.973050057888031,2.9710500240325928
1781031491339941400,9.42894140625,8.946000099182129,0.9079500436782837,3.561000108718872
1781031491359451400,9.448451416015626,9.244050025939941,0.8740500211715698,5.0970001220703125
1781031491378962700,9.467962646484375,9.385950088500977,1.0770000219345093,5.535000324249268
1781031491398473200,9.48747314453125,9.348000526428223,1.5840001106262207,5.875950336456299
1781031491417983000,9.50698291015625,8.964000701904297,3.1530001163482666,6.106050491333008
1781031491437496300,9.526496337890626,8.611950874328613,4.774050235748291,6.166950225830078
1781031491457010700,9.5460107421875,8.383950233459473,5.086050033569336,5.9070000648498535
1781031491476529700,9.56552978515625,7.975050449371338,5.284050464630127,5.599950313568115
1781031491496048400,9.58504833984375,7.503000259399414,4.974000453948975,5.3620500564575195
1781031491515566800,9.60456689453125,7.0570502281188965,3.3010501861572266,5.002950191497803
1781031491535084500,9.62408447265625,6.934950351715088,1.612950086593628,4.5169501304626465
1781031491554596000,9.64359619140625,8.484000205993652,1.0770000219345093,2.8660502433776855
1781031491574106400,9.6631064453125,8.932050704956055,0.5989500284194946,2.5699501037597656
1781031491593617700,9.68261767578125,9.393000602722168,0.19995000958442688,2.281949996948242
1781031491613129700,9.702129638671876,9.562050819396973,-0.08595000207424164,2.1720001697540283
1781031491632642300,9.721642333984375,9.552000045776367,-0.2689500153064728,2.2270500659942627
1781031491652158200,9.741158203125,9.481050491333008,-0.3379500210285187,2.3140501976013184
1781031491671673300,9.76067333984375,9.520050048828125,-0.29205000400543213,2.3460001945495605
1781031491691186000,9.78018603515625,9.613950729370117,-0.20205001533031464,2.3590500354766846
1781031491710697700,9.79969775390625,9.568050384521484,-0.18000000715255737,2.3680500984191895
1781031491730208500,9.81920849609375,9.43005084991455,-0.20100000500679016,2.382000207901001
1781031491749720600,9.838720458984374,9.315000534057617,-0.23295001685619354,2.362950086593628
1781031491769236500,9.858236572265625,9.283050537109375,-0.3450000286102295,2.30400013923645
1781031491788749000,9.8777490234375,9.319050788879395,-0.46695002913475037,2.2380001544952393
1781031491808257000,9.897257080078125,9.442950248718262,-0.6820500493049622,2.1660001277923584
1781031491827770000,9.91677001953125,9.582000732421875,-1.0219500064849854,2.0779500007629395
1781031491847288600,9.93628857421875,9.724050521850586,-1.3900500535964966,1.9450501203536987
1781031491866805500,9.955805419921875,9.922950744628906,-1.759950041770935,1.7590501308441162
1781031491886321200,9.975321044921875,10.11405086517334,-1.9950001239776611,1.4850000143051147
1781031491905836800,9.9948369140625,10.191000938415527,-2.0680501461029053,1.171950101852417
1781031491925349400,10.014349365234375,10.135050773620605,-2.127000093460083,0.909000039100647
1781031491944860200,10.033860107421875,9.955050468444824,-2.182950019836426,0.6859500408172607
1781031491964371700,10.053371826171874,9.724050521850586,-2.323050022125244,0.5470499992370605
1781031491983884300,10.07288427734375,9.606000900268555,-2.505000114440918,0.44805002212524414
1781031492003399200,10.092399169921874,9.642000198364258,-2.575050115585327,0.33900001645088196
1781031492022915600,10.11191552734375,9.702000617980957,-2.545950174331665,0.226950004696846
1781031492042433000,10.13143310546875,9.721050262451172,-2.449050188064575,0.14100000262260437
1781031492061948700,10.15094873046875,9.624000549316406,-2.4030001163482666,0.07905000448226929
1781031492081461500,10.17046142578125,9.397050857543945,-2.451000213623047,-0.0070500001311302185
1781031492100973800,10.189973876953125,9.175950050354004,-2.451000213623047,-0.11700000613927841
1781031492120490800,10.20949072265625,9.025050163269043,-2.3710501194000244,-0.2179500162601471
1781031492140003800,10.22900390625,8.907000541687012,-2.275050163269043,-0.26805001497268677
1781031492159516000,10.248515869140626,8.83905029296875,-2.1859500408172607,-0.322050005197525
1781031492179030300,10.2680302734375,8.769000053405762,-2.224950075149536,-0.3910500109195709
1781031492198543000,10.287543212890625,8.773950576782227,-2.2770001888275146,-0.5770500302314758
1781031492218057000,10.307056884765625,8.857950210571289,-2.221950054168701,-0.8910000324249268
1781031492237568000,10.326568115234375,9.019950866699219,-2.1439499855041504,-1.1970000267028809
1781031492257074700,10.34607470703125,9.205950736999512,-2.055000066757202,-1.543950080871582
1781031492276585500,10.36558544921875,9.301050186157227,-2.013000011444092,-1.8510000705718994
1781031492296104700,10.385104736328126,9.39900016784668,-1.9920001029968262,-2.0410501956939697
1781031492315622400,10.404622314453125,9.340950012207031,-2.0280001163482666,-2.139000177383423
1781031492335136500,10.424136474609375,9.234000205993652,-2.0929501056671143,-2.176950216293335
1781031492354647800,10.443647705078124,9.195000648498535,-2.2039501667022705,-2.1880500316619873
1781031492374160400,10.463160400390626,9.270000457763672,-2.3370001316070557,-2.265000104904175
1781031492393680600,10.4826806640625,9.499950408935547,-2.3490002155303955,-2.4190502166748047
1781031492413201200,10.502201171875,9.685050010681152,-2.2669501304626465,-2.5060501098632812
1781031492432716300,10.52171630859375,9.684000015258789,-2.139000177383423,-2.5309500694274902
1781031492452225800,10.541225830078124,9.433050155639648,-2.02905011177063,-2.512050151824951
1781031492471730700,10.560730712890624,9.115050315856934,-1.9429501295089722,-2.5069501399993896
1781031492491238400,10.58023828125,8.872050285339355,-1.9300501346588135,-2.568000078201294
1781031492510754600,10.599754638671875,8.793000221252441,-1.924950122833252,-2.6989500522613525
1781031492530274000,10.619274169921875,8.836950302124023,-1.9480501413345337,-2.8510501384735107
1781031492549791000,10.638791015625,8.89995002746582,-2.038950204849243,-2.977950096130371
1781031492569307100,10.65830712890625,8.958000183105469,-2.1600000858306885,-3.076050043106079
1781031492588821800,10.67782177734375,9.007050514221191,-2.307000160217285,-3.1630501747131348
1781031492608339000,10.6973388671875,9.03600025177002,-2.3839499950408936,-3.274050235748291
1781031492627853600,10.716853515625,9.072000503540039,-2.3580000400543213,-3.375000238418579
1781031492647367000,10.736366943359375,9.091950416564941,-2.3080501556396484,-3.4300501346588135
1781031492666882600,10.755882568359375,9.072000503540039,-2.2450501918792725,-3.4230000972747803
1781031492686394000,10.77539404296875,9.04800033569336,-2.196000099182129,-3.3480000495910645
1781031492705910800,10.794910888671875,9.058050155639648,-2.067000150680542,-3.2560501098632812
1781031492725434400,10.814434326171876,9.118050575256348,-1.7929500341415405,-3.201000213623047
1781031492744952600,10.83395263671875,9.11400032043457,-1.4740500450134277,-3.1519501209259033
1781031492764472000,10.85347216796875,9.040950775146484,-1.1670000553131104,-3.103950262069702
1781031492783994600,10.87299462890625,8.920050621032715,-0.9619500637054443,-3.040950059890747
1781031492803515400,10.892515380859376,8.796000480651855,-0.8860500454902649,-2.9580001831054688
1781031492823037000,10.912036865234375,8.85300064086914,-0.8440500497817993,-2.9029500484466553
1781031492842559500,10.9315595703125,9.049050331115723,-0.7960500121116638,-2.9220001697540283
1781031492862083000,10.9510830078125,9.2920503616333,-0.7470000386238098,-2.997000217437744
1781031492881605600,10.970605712890626,9.535950660705566,-0.6450000405311584,-3.0900001525878906
1781031492901127200,10.990127197265625,9.696000099182129,-0.544950008392334,-3.2059502601623535
1781031492920648000,11.00964794921875,9.81195068359375,-0.46605002880096436,-3.289950132369995
1781031492940163800,11.029163818359375,9.907050132751465,-0.39195001125335693,-3.364950180053711
1781031492959681000,11.048680908203124,9.982950210571289,-0.3439500033855438,-3.412050247192383
1781031492979199200,11.06819921875,9.964950561523438,-0.2659500241279602,-3.424950122833252
1781031492998716700,11.087716552734374,9.856050491333008,-0.17505000531673431,-3.3960001468658447
1781031493018232800,11.10723291015625,9.657000541687012,-0.06300000101327896,-3.3450002670288086
1781031493037747500,11.12674755859375,9.397950172424316,0.025050001218914986,-3.318000078201294
1781031493057263900,11.146263916015625,9.229050636291504,0.06495000422000885,-3.2940001487731934
1781031493076781000,11.165781005859374,9.153000831604004,0.05205000191926956,-3.232950210571289
1781031493096300000,11.185300048828125,9.2160005569458,0.030000001192092896,-3.201000213623047
1781031493115820500,11.204820556640625,9.357000350952148,0.04200000315904617,-3.163950204849243
1781031493135338500,11.22433837890625,9.444000244140625,0.09195000678300858,-3.1279501914978027
1781031493154850600,11.2438505859375,9.495000839233398,0.1860000044107437,-3.1500000953674316
1781031493174361900,11.26336181640625,9.451050758361816,0.2550000250339508,-3.1740002632141113
1781031493193877500,11.28287744140625,9.342000007629395,0.32505002617836,-3.1840500831604004
1781031493213399300,11.3023994140625,9.25005054473877,0.3379500210285187,-3.15405011177063
1781031493232922400,11.32192236328125,9.201000213623047,0.32100000977516174,-3.082050085067749
1781031493252443000,11.34144287109375,9.223050117492676,0.286050021648407,-2.9830501079559326
1781031493271957200,11.360957275390625,9.306000709533691,0.22200001776218414,-2.8440001010894775
1781031493291468800,11.38046875,9.42495059967041,0.21300001442432404,-2.7240002155303955
1781031493310979800,11.399979736328126,9.457050323486328,0.226950004696846,-2.616000175476074
1781031493330492000,11.419491943359375,9.396000862121582,0.24900001287460327,-2.521050214767456
1781031493350007800,11.4390078125,9.343950271606445,0.28395000100135803,-2.433000087738037
1781031493369525500,11.458525390625,9.328950881958008,0.322050005197525,-2.3610000610351562
1781031493389042400,11.47804248046875,9.393000602722168,0.40095001459121704,-2.356950044631958
1781031493408558300,11.497558349609376,9.457050323486328,0.4909500181674957,-2.3770501613616943
1781031493428077300,11.517077392578125,9.41295051574707,0.5800500512123108,-2.388000011444092
1781031493447596000,11.536595947265624,9.268050193786621,0.6300000548362732,-2.386050224304199
1781031493467108400,11.5561083984375,9.1399507522583,0.6439500451087952,-2.4180002212524414
1781031493486623500,11.57562353515625,9.091050148010254,0.6190500259399414,-2.515050172805786
1781031493506139400,11.595139404296875,9.076950073242188,0.5730000138282776,-2.6520001888275146
1781031493525655600,11.614655517578125,9.127950668334961,0.5149500370025635,-2.836050033569336
1781031493545173500,11.634173583984374,9.234000205993652,0.4339500069618225,-3.0390000343322754
1781031493564694800,11.65369482421875,9.312000274658203,0.3949500322341919,-3.226950168609619
1781031493584215000,11.673215087890625,9.407999992370605,0.35895001888275146,-3.4330501556396484
1781031493603731700,11.692731689453124,9.412050247192383,0.40800002217292786,-3.6760501861572266
1781031493623248000,11.712247802734375,9.316950798034668,0.48900002241134644,-3.9130501747131348
1781031493642766600,11.7317666015625,9.246000289916992,0.5560500025749207,-4.176000118255615
1781031493662286000,11.7512861328125,9.241050720214844,0.661050021648407,-4.570050239562988
1781031493681800200,11.77080029296875,9.315000534057617,0.703950047492981,-5.059950351715088
1781031493701316400,11.79031640625,9.315000534057617,0.7249500155448914,-5.54295015335083
1781031493720833300,11.809833251953124,9.25005054473877,0.7800000309944153,-5.974950313568115
1781031493740351700,11.829351806640625,9.211950302124023,0.8590500354766846,-6.336000442504883
1781031493759872000,11.8488720703125,9.193050384521484,0.9780000448226929,-6.6499505043029785
1781031493779390200,11.86839013671875,9.175050735473633,1.1290500164031982,-6.960000514984131
1781031493798907400,11.887907470703125,9.043950080871582,1.2450000047683716,-7.314000129699707
1781031493818425300,11.90742529296875,8.721000671386719,1.2880500555038452,-7.657950401306152
1781031493837943000,11.926943115234375,8.311050415039062,1.300950050354004,-7.938000202178955
1781031493857462800,11.946462890625,7.900050163269043,1.3459500074386597,-8.19105052947998
1781031493876983600,11.965983642578125,7.498050212860107,1.4220000505447388,-8.379000663757324
1781031493896498400,11.98549853515625,7.053000450134277,1.432050108909607,-8.51205062866211
1781031493916012000,12.005011962890626,6.510000228881836,1.2960000038146973,-8.584050178527832
1781031493935530200,12.0245302734375,5.892000198364258,1.01295006275177,-8.665050506591797
1781031493955048700,12.044048583984376,5.323950290679932,0.6510000228881836,-8.87505054473877
1781031493974565600,12.063565673828125,4.941000461578369,0.492000013589859,-9.18600082397461
1781031493994080800,12.083080810546875,4.879050254821777,0.8749500513076782,-7.801950454711914
1781031494013597000,12.102596923828125,6.565950393676758,0.7800000309944153,-2.5570502281188965
1781031494033111800,12.12211181640625,10.129950523376465,-0.76500004529953,-0.8220000267028809
1781031494052626700,12.141626708984376,13.579950332641602,-2.2900500297546387,-0.4729500114917755
1781031494072145400,12.1611455078125,15.171000480651855,-2.805000066757202,-0.48000001907348633
1781031494091662800,12.180662841796876,15.49695110321045,-2.5600500106811523,-4.966950416564941
1781031494111180300,12.20018017578125,13.825050354003906,-0.42795002460479736,-5.220000267028809
1781031494130700500,12.219700439453124,10.552050590515137,-0.19005000591278076,-3.6469502449035645
1781031494150219000,12.239218994140625,8.407950401306152,-0.24495001137256622,-3.289950132369995
1781031494169734700,12.258734619140625,8.236949920654297,-0.6139500141143799,-2.824050188064575
1781031494189249300,12.278249267578126,8.200950622558594,-0.9409500360488892,-2.371950149536133
1781031494208762600,12.2977626953125,8.56095027923584,-0.9109500646591187,-2.287950038909912
1781031494228273700,12.317273681640625,8.961000442504883,-0.46905001997947693,-2.4660000801086426
1781031494247791600,12.33679150390625,8.94795036315918,-0.19995000958442688,-2.4060001373291016
1781031494267311900,12.356311767578125,8.773050308227539,-0.36000001430511475,-2.4250500202178955
1781031494286831900,12.375831787109375,8.719050407409668,-0.7210500240325928,-2.5470001697540283
1781031494306353400,12.395353515625,8.848950386047363,-1.1190000772476196,-2.5990500450134277
1781031494325873400,12.414873291015626,9.148050308227539,-1.1700000762939453,-2.7780001163482666
1781031494345392000,12.43439208984375,9.445050239562988,-0.922950029373169,-2.983950138092041
1781031494364915500,12.45391552734375,9.624000549316406,-0.5659500360488892,-2.9700000286102295
1781031494384442000,12.473442138671874,9.754050254821777,-0.208950012922287,-2.991000175476074
1781031494403965000,12.49296484375,9.897000312805176,-0.11100000888109207,-3.0739500522613525
1781031494423486500,12.512486572265624,9.819000244140625,-0.15300001204013824,-2.877000093460083
1781031494443008500,12.532008544921876,9.457050323486328,-0.1980000138282776,-2.5320000648498535
1781031494462530600,12.551530517578126,8.82705020904541,-0.32895001769065857,-2.2360501289367676
1781031494482053000,12.57105322265625,7.237950325012207,-0.4069500267505646,-1.9320000410079956
1781031494501574700,12.59057470703125,5.659050464630127,-0.3460500240325928,-1.519050121307373
1781031494521098800,12.6100986328125,3.9280502796173096,-0.15495000779628754,-1.15500009059906
1781031494540623400,12.629623291015625,3.4930500984191895,0.0690000057220459,-0.7189500331878662
1781031494560142600,12.649142578125,3.3409502506256104,-0.010950000956654549,-0.30195000767707825
1781031494579662600,12.66866259765625,5.956050395965576,-1.7160000801086426,-0.30300000309944153
1781031494599183600,12.68818359375,9.47700023651123,-2.1319501399993896,-0.5410500168800354
1781031494618702000,12.7077021484375,12.77400016784668,-3.6910502910614014,-0.7189500331878662
1781031494638227200,12.727227294921875,14.86305046081543,-3.8899502754211426,-0.934950053691864
1781031494657749200,12.746749267578124,15.261000633239746,-3.7069501876831055,-0.8790000677108765
1781031494677264100,12.76626416015625,15.378000259399414,-3.264000177383423,-0.5359500050544739
1781031494696784400,12.785784423828124,14.998950958251953,-1.6110000610351562,-0.361050009727478
1781031494716309000,12.80530908203125,13.333050727844238,0.17805001139640808,-0.11100000888109207
1781031494735832600,12.82483251953125,11.166000366210938,0.547950029373169,0.13199999928474426
1781031494755357400,12.844357421875,9.405000686645508,1.1610000133514404,0.22500000894069672
1781031494774887000,12.863886962890625,7.392000198364258,1.593000054359436,0.44805002212524414
1781031494794413600,12.88341357421875,6.9649505615234375,1.5810000896453857,0.6829500198364258
1781031494813937000,12.90293701171875,6.541050434112549,1.3339500427246094,0.8590500354766846
1781031494833459200,12.922459228515624,6.315000534057617,1.054050087928772,1.1730000972747803
1781031494852981200,12.941981201171876,6.214950084686279,0.8100000619888306,1.6110000610351562
1781031494872500700,12.961500732421875,6.28695011138916,0.7050000429153442,3.4210500717163086
1781031494892018000,12.981017822265626,6.6660003662109375,0.7110000252723694,3.739950180053711
1781031494911535900,13.000535888671875,7.141050338745117,0.7300500273704529,5.374050140380859
1781031494931055000,13.02005517578125,8.848950386047363,0.9330000281333923,5.770050048828125
1781031494950573300,13.0395732421875,9.22605037689209,1.4530500173568726,7.651950359344482
1781031494970091000,13.059091064453124,9.640950202941895,2.02905011177063,8.116050720214844
1781031494989611000,13.078611083984375,9.949050903320312,2.6040000915527344,8.707050323486328
1781031495009134600,13.098134521484376,10.426950454711914,4.300050258636475,8.974950790405273
1781031495028657000,13.117656982421876,10.546950340270996,4.273950099945068,8.860050201416016
1781031495048177400,13.137177490234375,10.14900016784668,4.075050354003906,8.383049964904785
1781031495067698200,13.1566982421875,9.574950218200684,3.5710501670837402,6.562950134277344
1781031495087219000,13.176218994140624,7.621950149536133,1.429050087928772,6.289050102233887
1781031495106742000,13.195741943359375,7.459050178527832,0.9960000514984131,4.435050010681152
1781031495126264000,13.21526416015625,7.723050594329834,0.5710500478744507,4.060050010681152
1781031495145783300,13.234783203125,8.155950546264648,0.21495001018047333,3.579000234603882
1781031495165303000,13.254302978515625,8.598000526428223,-0.022950001060962677,3.207000255584717
1781031495184823300,13.2738232421875,8.913000106811523,-0.1870500147342682,3.046950101852417
1781031495204344300,13.29334423828125,9.094950675964355,-0.2939999997615814,3.0330002307891846
1781031495223864300,13.3128642578125,9.199950218200684,-0.30705001950263977,3.0430500507354736
1781031495243381000,13.332381103515624,9.213000297546387,-0.25200000405311584,3.055950164794922
1781031495262899700,13.351899658203125,9.088950157165527,-0.18300001323223114,3.100050210952759
1781031495282419200,13.371419189453125,8.87700080871582,-0.1399500072002411,3.14805006980896
1781031495301933600,13.39093359375,8.644950866699219,-0.13905000686645508,3.183000087738037
1781031495321452300,13.410452392578126,8.557050704956055,-0.19095000624656677,3.139050245285034
1781031495340974800,13.429974853515626,8.599050521850586,-0.3049500286579132,3.0840001106262207
1781031495360495000,13.4494951171875,8.640000343322754,-0.40995001792907715,3.0330002307891846
1781031495380016400,13.469016357421875,8.565000534057617,-0.4639500081539154,2.9140501022338867
1781031495399539000,13.4885390625,8.335050582885742,-0.5700000524520874,2.776050090789795
1781031495438579200,13.5275791015625,8.14995002746582,-0.7840500473976135,2.3340001106262207
1781031495458103800,13.547103759765625,8.479949951171875,-0.9300000667572021,2.1760501861572266
1781031495477623800,13.566623779296876,8.956050872802734,-0.9750000238418579,2.0880000591278076
1781031495497145000,13.58614501953125,9.355950355529785,-1.0090500116348267,2.050950050354004
1781031495516670000,13.605669921875,9.47700023651123,-1.0740000009536743,1.971000075340271
1781031495536189700,13.625189697265625,9.418950080871582,-1.0870500802993774,1.818000078201294
1781031495555703000,13.644703125,9.25005054473877,-1.1130000352859497,1.662000060081482
1781031495575218400,13.664218505859376,9.021000862121582,-1.1490000486373901,1.5430500507354736
1781031495594737000,13.68373681640625,8.855999946594238,-1.2780001163482666,1.503000020980835
1781031495614253300,13.70325341796875,8.818950653076172,-1.4470500946044922,1.480950117111206
1781031495633768400,13.7227685546875,8.901000022888184,-1.5250500440597534,1.3429501056671143
1781031495653281000,13.742281005859375,8.974050521850586,-1.4650501012802124,1.1320500373840332
1781031495672790000,13.7617900390625,8.905950546264648,-1.3150500059127808,0.8929500579833984
1781031495692301800,13.7813017578125,8.644950866699219,-1.2910500764846802,0.6649500131607056
1781031495711816400,13.80081640625,8.383049964904785,-1.4149500131607056,0.4909500181674957
1781031495731329000,13.8203291015625,8.362950325012207,-1.4740500450134277,0.3150000274181366
1781031495750842000,13.839842041015626,8.631000518798828,-1.4610000848770142,0.09300000220537186
1781031495770360600,13.859360595703125,8.907000541687012,-1.450950026512146,-0.11205000430345535
1781031495789879300,13.87887939453125,9.063000679016113,-1.477950096130371,-0.3049500286579132
1781031495809402600,13.898402587890626,9.052950859069824,-1.6459500789642334,-0.556950032711029
1781031495828930000,13.917929931640625,8.986950874328613,-1.7989500761032104,-0.8350500464439392
1781031495848454100,13.9374541015625,9.103050231933594,-1.8709501028060913,-1.0699501037597656
1781031495867975000,13.956974853515625,9.484050750732422,-1.9620001316070557,-1.2570000886917114
1781031495887496700,13.97649658203125,9.891000747680664,-2.2129499912261963,-1.3990501165390015
1781031495907021600,13.996021484375,10.138050079345703,-2.364000082015991,-1.5829501152038574
1781031495926546700,14.015546630859374,10.117950439453125,-2.302950143814087,-1.828950047492981
1781031495946066200,14.035066162109375,9.877950668334961,-2.0560500621795654,-2.0429999828338623
1781031495965584100,14.054584228515624,9.738000869750977,-1.7869501113891602,-2.1660001277923584
1781031495985103400,14.074103271484375,9.727950096130371,-1.7329500913619995,-2.2009501457214355
1781031496004619800,14.093619873046874,9.730950355529785,-1.9150501489639282,-2.2420501708984375
1781031496024136700,14.11313671875,9.619050025939941,-2.164950132369995,-2.2829999923706055
1781031496043657500,14.132657470703125,9.351000785827637,-2.187000036239624,-2.332050085067749
1781031496063178200,14.15217822265625,9.105000495910645,-2.0620501041412354,-2.362950086593628
1781031496082697200,14.171697265625,9.022050857543945,-1.9690500497817993,-2.4160501956939697
1781031496102221000,14.191220947265625,9.123000144958496,-2.038950204849243,-2.5390501022338867
1781031496121743400,14.210743408203125,9.307950019836426,-2.1919500827789307,-2.713050127029419
1781031496141266700,14.2302666015625,9.471000671386719,-2.3239500522613525,-2.884050130844116
1781031496160789500,14.24978955078125,9.534000396728516,-2.205000162124634,-3.0049500465393066
1781031496180308200,14.26930810546875,9.531000137329102,-1.852950096130371,-3.0810000896453857
1781031496199827700,14.28882763671875,9.403950691223145,-1.4530500173568726,-3.1579501628875732
1781031496219349000,14.308348876953126,9.192000389099121,-1.075950026512146,-3.255000114440918
1781031496238871000,14.32787109375,9.010050773620605,-0.8809500336647034,-3.2940001487731934
1781031496258392000,14.34739208984375,8.9170503616333,-0.814050018787384,-3.3070502281188965
1781031496277912800,14.366912841796875,8.971050262451172,-0.8070000410079956,-3.3259501457214355
1781031496297435400,14.386435302734375,9.127050399780273,-0.8770500421524048,-3.3319501876831055
1781031496316961000,14.4059609375,9.319050788879395,-0.9550500512123108,-3.3409502506256104
1781031496336483300,14.4254833984375,9.481050491333008,-0.9979500770568848,-3.3480000495910645
1781031496356001800,14.445001708984375,9.56505012512207,-1.0009500980377197,-3.366000175476074
1781031496375520300,14.464520263671876,9.580950736999512,-0.922950029373169,-3.397050142288208
1781031496395040300,14.484040283203125,9.507000923156738,-0.8329500555992126,-3.4609501361846924
1781031496414557000,14.503556884765626,9.315000534057617,-0.6949500441551208,-3.5440502166748047
1781031496434072300,14.523072265625,9.109050750732422,-0.5460000038146973,-3.576000213623047
1781031496453589200,14.54258935546875,8.89905071258545,-0.42900002002716064,-3.6090002059936523
1781031496473108200,14.562108154296874,8.73705005645752,-0.3130500018596649,-3.6469502449035645
1781031496492629500,14.58162939453125,8.679000854492188,-0.26205000281333923,-3.67995023727417
1781031496512146000,14.60114599609375,8.743950843811035,-0.2550000250339508,-3.753000259399414
1781031496531662000,14.620662109375,8.931000709533691,-0.24795001745224,-3.8580002784729004
1781031496551182800,14.640182861328125,9.127050399780273,-0.2050500065088272,-3.9780001640319824
1781031496570706400,14.65970654296875,9.220050811767578,-0.10905000567436218,-4.077000141143799
1781031496590230500,14.67923046875,9.183000564575195,-0.004950000438839197,-4.090950012207031
1781031496609751300,14.698751220703125,9.03795051574707,0.09600000083446503,-4.017000198364258
1781031496629265000,14.718264892578125,8.904000282287598,0.17505000531673431,-3.928950071334839
1781031496648781300,14.73778125,8.850000381469727,0.27900001406669617,-3.9160501956939697
1781031496668299500,14.757299560546874,8.851950645446777,0.38895002007484436,-3.9270002841949463
1781031496687819300,14.7768193359375,8.860950469970703,0.4300500154495239,-3.919950246810913
1781031496707340000,14.796340087890625,8.833050727844238,0.4339500069618225,-3.8839502334594727
1781031496726863600,14.815863525390625,8.805000305175781,0.32805001735687256,-3.7900502681732178
1781031496746386400,14.835386474609376,8.752050399780273,0.22005000710487366,-3.7380001544952393
1781031496765907000,14.854906982421875,8.74905014038086,0.1860000044107437,-3.7759501934051514
1781031496785426700,14.8744267578125,8.824049949645996,0.17595000565052032,-3.8460001945495605
1781031496804943000,14.893943115234375,8.911050796508789,0.21105000376701355,-3.936000108718872
1781031496824462300,14.91346240234375,8.962050437927246,0.2650500237941742,-4.033050060272217
1781031496843986000,14.93298583984375,8.965950012207031,0.30195000767707825,-4.113000392913818
1781031496863510000,14.952510009765625,8.943000793457031,0.34005001187324524,-4.165950298309326
1781031496883030300,14.9720302734375,8.970000267028809,0.361050009727478,-4.22504997253418
1781031496902547200,14.991547119140625,9.054000854492188,0.3379500210285187,-4.264050006866455
1781031496922064400,15.011064453125,9.175950050354004,0.2880000174045563,-4.236000061035156
1781031496941582300,15.030582275390625,9.32295036315918,0.23400001227855682,-4.183050155639648
1781031496961101000,15.05010107421875,9.433950424194336,0.18405000865459442,-4.074000358581543
1781031496980617700,15.06961767578125,9.493950843811035,0.17505000531673431,-3.9090001583099365
1781031497000131000,15.089131103515625,9.486000061035156,0.1789500117301941,-3.7420501708984375
1781031497019649500,15.1086494140625,9.457950592041016,0.20595000684261322,-3.6120002269744873
1781031497039171300,15.12817138671875,9.358050346374512,0.25394999980926514,-3.5209500789642334
1781031497058690600,15.147690673828125,9.25200080871582,0.33195000886917114,-3.430950164794922
1781031497078208800,15.167208740234376,9.181950569152832,0.43905001878738403,-3.3439502716064453
1781031497097729500,15.1867294921875,9.11400032043457,0.5590500235557556,-3.235950231552124
1781031497117251600,15.20625146484375,9.164999961853027,0.6079500317573547,-3.112950086593628
1781031497136775200,15.225775146484375,9.301050186157227,0.6030000448226929,-3.0240001678466797
1781031497156298800,15.245298828125,9.46095085144043,0.5760000348091125,-3.0049500465393066
1781031497175825200,15.2648251953125,9.543000221252441,0.5250000357627869,-3.037950038909912
1781031497195354000,15.28435400390625,9.505050659179688,0.5160000324249268,-3.076050043106079
1781031497214878000,15.3038779296875,9.439050674438477,0.49605002999305725,-3.1309502124786377
1781031497234398200,15.323398193359376,9.41100025177002,0.4600500166416168,-3.207000255584717
1781031497253917400,15.34291748046875,9.433950424194336,0.4069500267505646,-3.267000198364258
1781031497273439700,15.362439697265625,9.5110502243042,0.3570000231266022,-3.369000196456909
1781031497292962800,15.381962890625,9.567000389099121,0.34800001978874207,-3.580050230026245
1781031497312486700,15.401486572265625,9.504000663757324,0.3940500319004059,-3.7789502143859863
1781031497332008000,15.421008056640625,9.32295036315918,0.4459500312805176,-3.9679501056671143
1781031497351525600,15.440525634765624,9.220050811767578,0.4759500324726105,-4.1610002517700195
1781031497371044600,15.460044677734375,9.187950134277344,0.46995002031326294,-4.2970499992370605
1781031497390566000,15.47956591796875,9.244950294494629,0.4339500069618225,-4.465950012207031
1781031497410092500,15.499092529296876,9.373950004577637,0.44895002245903015,-4.695000171661377
1781031497429623600,15.51862353515625,9.483000755310059,0.51705002784729,-4.974000453948975
1781031497449151700,15.53815185546875,9.56100082397461,0.5770500302314758,-5.284050464630127
1781031497468673500,15.557673583984375,9.63705062866211,0.5820000171661377,-5.6419501304626465
1781031497488195300,15.5771953125,9.706050872802734,0.5590500235557556,-6.016050338745117
1781031497507714000,15.596714111328126,9.723000526428223,0.5329500436782837,-6.379950523376465
1781031497527229000,15.61622900390625,9.705000877380371,0.4830000102519989,-6.7699503898620605
1781031497546741500,15.635741455078126,9.657000541687012,0.48000001907348633,-7.255950450897217
1781031497566252300,15.655252197265625,9.520050048828125,0.4930500090122223,-7.852950572967529
1781031497585765600,15.674765625,9.214950561523438,0.4849500358104706,-8.47800064086914
1781031497605279200,15.694279296875,8.740950584411621,0.5470499992370605,-9.070050239562988
1781031497624790800,15.713790771484375,8.140950202941895,0.6480000019073486,-9.50100040435791
1781031497644302300,15.73330224609375,7.564050197601318,0.7480500340461731,-9.765000343322754
1781031497663815000,15.75281494140625,6.942000389099121,0.7620000243186951,-9.892950057983398
1781031497683333400,15.77233349609375,5.445000171661377,0.6490500569343567,-9.877050399780273
1781031497702857000,15.79185693359375,3.8680500984191895,0.42795002460479736,-9.925950050354004
1781031497722380500,15.811380615234375,1.6429500579833984,0.1870500147342682,-9.841050148010254
1781031497741901000,15.830901123046875,1.5690001249313354,0.019950000569224358,-6.979950428009033
1781031497761424100,15.850424072265625,3.504000186920166,0.04200000315904617,-2.4190502166748047
1781031497780948200,15.8699482421875,5.4559502601623535,-0.07800000160932541,-0.2569500207901001
1781031497800467000,15.889467041015624,10.2649507522583,-0.34800001978874207,-0.09405000507831573
1781031497819983000,15.908983154296875,11.664000511169434,-0.1290000081062317,-1.963050127029419
1781031497839503400,15.92850341796875,11.485950469970703,-0.019050000235438347,-3.6570000648498535
1781031497859027000,15.94802685546875,13.599000930786133,0.08595000207424164,-4.111050128936768
1781031497878550000,15.967550048828125,13.369050979614258,-0.22800001502037048,-2.632050037384033
1781031497898069000,15.987069091796876,15.091950416564941,-2.2920000553131104,-2.1919500827789307
1781031497917589800,16.00658984375,15.111001014709473,-2.439000129699707,-2.1100502014160156
1781031497937114600,16.026114501953124,13.521000862121582,-2.3329501152038574,-2.2669501304626465
1781031497956641500,16.0456416015625,11.416050910949707,-0.527999997138977,-2.782050132751465
1781031497976166000,16.065165771484374,8.84595012664795,-0.28395000100135803,-3.129000186920166
1781031497995686100,16.08468603515625,8.404950141906738,-0.31200000643730164,-3.1470000743865967
1781031498015200300,16.1042001953125,8.074049949645996,-0.4720500111579895,-3.072000026702881
1781031498034715100,16.123715087890623,8.017050743103027,-0.5910000205039978,-2.8159501552581787
1781031498054236400,16.143236328125,8.124000549316406,-0.6349500417709351,-2.545950174331665
1781031498073751000,16.1627509765625,8.12700080871582,-0.595050036907196,-2.493000030517578
1781031498093264400,16.182264404296873,8.299050331115723,-0.6150000095367432,-2.4910500049591064
1781031498112778800,16.20177880859375,8.718000411987305,-0.6810000538825989,-2.5390501022338867
1781031498132293400,16.22129345703125,9.316950798034668,-0.5419500470161438,-2.7880501747131348
1781031498151812900,16.240812744140626,9.80505084991455,-0.2370000183582306,-2.77305006980896
1781031498171330600,16.26033056640625,9.655050277709961,-0.010950000956654549,-2.575050115585327
1781031498190849800,16.279849853515625,9.115950584411621,-0.031050002202391624,-2.4810001850128174
1781031498210372400,16.299372314453127,8.5420503616333,-0.22200001776218414,-2.1889500617980957
1781031498229892400,16.318892333984376,8.125950813293457,-0.5610000491142273,-1.8790501356124878
1781031498249412400,16.338412353515626,7.768050193786621,-0.7939500212669373,-1.7260501384735107
1781031498268932400,16.357932373046875,7.297950267791748,-0.7669500112533569,-1.3549500703811646
1781031498288452400,16.377452392578125,5.629950046539307,-0.8059500455856323,-0.9150000214576721
1781031498307968800,16.39696875,5.623050212860107,-0.6580500602722168,-0.7339500188827515
1781031498327488300,16.41648828125,5.734950065612793,-0.45600003004074097,-0.33195000886917114
1781031498347011000,16.436010986328125,6.1080002784729,-0.32805001735687256,-0.028950002044439316
1781031498366532000,16.455531982421874,6.7069501876831055,0.05595000088214874,-0.20595000684261322
1781031498386052000,16.475052001953124,7.07895040512085,0.17805001139640808,-0.14400000870227814
1781031498405574100,16.49457421875,7.4920501708984375,0.42795002460479736,-0.13095000386238098
1781031498425095000,16.514094970703123,9.391950607299805,0.9649500250816345,-0.08700000494718552
1781031498444610000,16.533610107421875,11.434950828552246,1.1740500926971436,0.40095001459121704
1781031498464125000,16.553125,11.886000633239746,1.366050124168396,0.853950023651123
1781031498483642000,16.57264208984375,13.746000289916992,1.1530500650405884,2.6359500885009766
1781031498503159300,16.5921591796875,13.869000434875488,0.597000002861023,2.7970502376556396
1781031498522678500,16.611678466796874,13.792950630187988,0.14400000870227814,2.8950002193450928
1781031498542196500,16.631196533203124,13.333050727844238,-0.34095001220703125,3.2119500637054443
1781031498561717800,16.6507177734375,11.152950286865234,-0.7380000352859497,3.616950273513794
1781031498581238300,16.67023828125,9.393000602722168,-1.0720500946044922,5.221950054168701
1781031498600752600,16.689752685546875,9.043950080871582,-1.2480000257492065,5.635050296783447
1781031498620268500,16.7092685546875,8.979000091552734,-1.1299500465393066,7.384950160980225
1781031498639791400,16.728791259765625,9.171000480651855,-0.6940500140190125,7.656000137329102
1781031498659316200,16.748316162109376,9.336000442504883,-0.0690000057220459,8.046000480651855
1781031498678833700,16.767833740234376,9.26400089263916,1.6350001096725464,8.332950592041016
1781031498698349800,16.787349853515625,8.880000114440918,2.0059502124786377,8.25
1781031498717864400,16.806864501953125,8.299050331115723,2.605950117111206,7.8349504470825195
1781031498737378300,16.82637841796875,6.7510504722595215,3.2440502643585205,6.180000305175781
1781031498756890400,16.845890380859377,6.336000442504883,3.5659501552581787,5.955000400543213
1781031498776402400,16.86540234375,6.129000186920166,3.433950185775757,5.490000247955322
1781031498795915800,16.884915771484376,6.325050354003906,2.968050241470337,3.724950075149536
1781031498815432200,16.90443212890625,6.802950382232666,1.350000023841858,3.567000150680542
1781031498834950000,16.923949951171874,7.369950294494629,0.8130000233650208,3.3919501304626465
1781031498854462500,16.94346240234375,7.813950538635254,-0.895050048828125,3.2599501609802246
1781031498873974800,16.962974853515625,8.136000633239746,-1.0840500593185425,3.180000066757202
1781031498893492200,16.9824921875,8.470050811767578,-1.2030000686645508,3.052950143814087
1781031498913013000,17.002012939453124,8.704050064086914,-1.1850000619888306,2.8819501399993896
1781031498932530200,17.0215302734375,8.719050407409668,-1.1479500532150269,2.803950071334839
1781031498952045600,17.041045654296877,8.581950187683105,-1.128000020980835,2.797950029373169
1781031498971556400,17.060556396484376,8.447999954223633,-1.2520500421524048,2.7960002422332764
1781031498991064800,17.08006494140625,8.47095012664795,-1.3750500679016113,2.682000160217285
1781031499010580500,17.09958056640625,8.605950355529785,-1.4880000352859497,2.499000072479248
1781031499030098700,17.1190986328125,8.788949966430664,-1.67205011844635,2.2920000553131104
1781031499049620700,17.138620849609374,8.898000717163086,-1.9170000553131104,2.1000001430511475
1781031499069142500,17.158142578125,8.979000091552734,-2.253000020980835,1.9420500993728638
1781031499088661500,17.17766162109375,9.103950500488281,-2.473950147628784,1.7500500679016113
1781031499108179500,17.197179443359374,9.207000732421875,-2.55495023727417,1.5600000619888306
1781031499127697400,17.216697509765623,9.241950035095215,-2.5729501247406006,1.396950125694275
1781031499147210800,17.236210693359375,9.232050895690918,-2.608950138092041,1.290000081062317
1781031499166721300,17.25572119140625,9.26400089263916,-2.7660000324249268,1.2690000534057617
1781031499186235400,17.2752353515625,9.364950180053711,-2.9239501953125,1.3150500059127808
1781031499205750300,17.294750244140626,9.526050567626953,-2.9230501651763916,1.2850500345230103
1781031499225263600,17.314263671875,9.555000305175781,-2.8720500469207764,1.2220500707626343
1781031499244780500,17.333780517578123,9.44895076751709,-2.845050096511841,1.1220000982284546
1781031499264300500,17.353300537109376,9.279000282287598,-2.8810501098632812,0.9520500302314758
1781031499283818800,17.37281884765625,9.145950317382812,-3.0420000553131104,0.8779500126838684
1781031499303334100,17.392334228515626,9.127950668334961,-3.1620001792907715,0.8190000653266907
1781031499322849500,17.411849609375,9.112950325012207,-3.238950252532959,0.7380000352859497
1781031499342367000,17.431366943359375,9.130949974060059,-3.3580501079559326,0.6079500317573547
1781031499361882400,17.45088232421875,9.159000396728516,-3.4459502696990967,0.39705002307891846
1781031499381394200,17.470394287109375,9.178950309753418,-3.432000160217285,0.1960500031709671
1781031499400901400,17.4899013671875,9.204000473022461,-3.330000162124634,0.004950000438839197
1781031499420408600,17.50940869140625,9.088050842285156,-3.30495023727417,-0.09195000678300858
1781031499439919900,17.528919921875,8.941950798034668,-3.301950216293335,-0.22095000743865967
1781031499459437000,17.54843701171875,8.908050537109375,-3.3949501514434814,-0.4320000112056732
1781031499478955500,17.56795556640625,8.964000701904297,-3.475050210952759,-0.5879999995231628
1781031499498467000,17.587467041015625,9.145950317382812,-3.397050142288208,-0.7240500450134277
1781031499517979400,17.6069794921875,9.30405044555664,-3.472050189971924,-0.7320000529289246
1781031499537497900,17.626497802734374,9.520050048828125,-3.604950189590454,-0.7020000219345093
1781031499557012700,17.6460126953125,9.820050239562988,-3.700050115585327,-0.7740000486373901
1781031499576526800,17.66552685546875,10.063950538635254,-3.6130502223968506,-0.9199500679969788
1781031499596043300,17.685043212890626,10.123950004577637,-3.201000213623047,-1.0849500894546509
1781031499615557600,17.7045576171875,9.802050590515137,-2.647050142288208,-1.1670000553131104
1781031499635070700,17.72407080078125,9.30405044555664,-2.196000099182129,-1.1269500255584717
1781031499654580700,17.743580810546874,8.998050689697266,-1.828950047492981,-1.0860000848770142
1781031499674090200,17.76309033203125,8.986950874328613,-1.549950122833252,-1.1130000352859497
1781031499693603600,17.782603515625,9.196950912475586,-1.371000051498413,-1.1320500373840332
1781031499713115100,17.802115234375,9.450000762939453,-1.194000005722046,-1.144950032234192
1781031499732624400,17.821624267578127,9.54900074005127,-1.111050009727478,-1.0579500198364258
1781031499752132600,17.841132568359374,9.442049980163574,-1.0369499921798706,-0.9420000314712524
1781031499771641300,17.860641357421876,9.201000213623047,-0.9030000567436218,-0.9570000171661377
1781031499791152600,17.880152587890624,8.862000465393066,-0.7159500122070312,-1.1010000705718994
1781031499810663000,17.899662841796875,8.500950813293457,-0.5749500393867493,-1.2859500646591187
1781031499830173000,17.9191728515625,8.265000343322754,-0.5760000348091125,-1.4419500827789307
1781031499849686000,17.93868603515625,8.29800033569336,-0.6439500451087952,-1.5840001106262207
1781031499869197800,17.95819775390625,8.586000442504883,-0.8340000510215759,-1.7050501108169556
1781031499888709600,17.977709716796873,9.046050071716309,-1.0840500593185425,-1.8769501447677612
1781031499908226000,17.99722607421875,9.546000480651855,-1.3369500637054443,-2.110949993133545
1781031499927739600,18.01673974609375,9.91200065612793,-1.533000111579895,-2.350950002670288
1781031499947253200,18.036253173828126,10.081950187683105,-1.602000117301941,-2.55495023727417
1781031499966770700,18.055770751953126,9.988950729370117,-1.5649501085281372,-2.7109501361846924
1781031499986288600,18.07528857421875,9.708000183105469,-1.4149500131607056,-2.77905011177063
1781031500005808000,18.09480810546875,9.369000434875488,-1.3159500360488892,-2.7580502033233643
1781031500025324500,18.114324462890625,9.141000747680664,-1.1820000410079956,-2.7990000247955322
1781031500044837400,18.13383740234375,9.100950241088867,-1.015950083732605,-2.926950216293335
1781031500064354800,18.153354736328126,9.17400074005127,-0.9000000357627869,-3.0889501571655273
1781031500083876400,18.17287646484375,9.295050621032715,-0.831000030040741,-3.246000051498413
1781031500103397400,18.1923974609375,9.259050369262695,-0.8380500674247742,-3.3010501861572266
1781031500122918400,18.21191845703125,9.094050407409668,-0.8719500303268433,-3.2850000858306885
1781031500142436000,18.23143603515625,8.913000106811523,-0.89805006980896,-3.2980501651763916
1781031500161951500,18.250951416015624,8.80305004119873,-0.8880000710487366,-3.38700008392334
1781031500181468200,18.27046826171875,8.874000549316406,-0.8520000576972961,-3.5430002212524414
1781031500200985000,18.289985107421874,9.058950424194336,-0.7920000553131104,-3.66795015335083
1781031500220501000,18.3095009765625,9.199050903320312,-0.6829500198364258,-3.7260000705718994
1781031500240018400,18.329018310546875,9.267000198364258,-0.520050048828125,-3.736950159072876
1781031500259533000,18.348532958984375,9.312000274658203,-0.35895001888275146,-3.7360501289367676
1781031500279043800,18.3680439453125,9.324000358581543,-0.22395001351833344,-3.759000062942505
1781031500298556400,18.387556396484374,9.35205078125,-0.1279500126838684,-3.7549502849578857
1781031500318067000,18.40706689453125,9.32805061340332,-0.06495000422000885,-3.7099502086639404
1781031500337574700,18.42657470703125,9.237000465393066,0.004950000438839197,-3.652050256729126
1781031500357081000,18.4460810546875,9.20205020904541,0.06405000388622284,-3.6259500980377197
1781031500376587800,18.465587890625,9.24000072479248,0.07500000298023224,-3.6409502029418945
1781031500396096000,18.485095947265624,9.313950538635254,0.06599999964237213,-3.68595027923584
1781031500415606800,18.504606689453126,9.361050605773926,0.006000000052154064,-3.709050178527832
1781031500435117800,18.524117919921874,9.322050094604492,-0.05100000277161598,-3.6529502868652344
1781031500454631400,18.54363134765625,9.244050025939941,-0.08505000174045563,-3.5839502811431885
1781031500474145800,18.563145751953126,9.187950134277344,-0.0990000069141388,-3.5149502754211426
1781031500493659600,18.58265966796875,9.157050132751465,-0.09300000220537186,-3.466050148010254
1781031500513176800,18.6021767578125,9.163050651550293,-0.07905000448226929,-3.44100022315979
1781031500532694300,18.6216943359375,9.169950485229492,-0.06599999964237213,-3.4050002098083496
1781031500552210700,18.641210693359376,9.124950408935547,-0.046950001269578934,-3.349950075149536
1781031500571727600,18.6607275390625,9.111000061035156,-0.046950001269578934,-3.271050214767456
1781031500591243800,18.680243896484374,9.12405014038086,-0.08205000311136246,-3.201000213623047
1781031500610761000,18.699760986328126,9.154050827026367,-0.07605000585317612,-3.178950071334839
1781031500630277000,18.719277099609375,9.232050895690918,-0.06495000422000885,-3.1519501209259033
1781031500649791700,18.738791748046875,9.22095012664795,0,-3.1459500789642334
1781031500669311200,18.758311279296876,9.12405014038086,0.10305000841617584,-3.1560001373291016
1781031500688832500,18.77783251953125,8.997000694274902,0.16500000655651093,-3.1440000534057617
1781031500708353000,18.79735302734375,8.884050369262695,0.1870500147342682,-3.151050090789795
1781031500727873800,18.816873779296873,8.87505054473877,0.15195000171661377,-3.1620001792907715
1781031500747390500,18.836390380859374,8.88705062866211,0.07800000160932541,-3.1630501747131348
1781031500766905900,18.85590576171875,8.87700080871582,0.016050001606345177,-3.1879501342773438
1781031500786420500,18.87542041015625,8.860950469970703,-0.012000000104308128,-3.229950189590454
1781031500805937700,18.894937744140623,8.914950370788574,-0.04305000230669975,-3.2539501190185547
1781031500825454800,18.914454833984376,9.063000679016113,-0.06300000101327896,-3.2539501190185547
1781031500844970500,18.933970458984376,9.222000122070312,-0.07800000160932541,-3.2539501190185547
1781031500864485000,18.953485107421876,9.241950035095215,-0.08700000494718552,-3.2260501384735107
1781031500883999000,18.9729990234375,9.046050071716309,-0.06405000388622284,-3.1660501956939697
1781031500903514600,18.9925146484375,8.830950736999512,0,-3.1620001792907715
1781031500923030800,19.01203076171875,8.73705005645752,0.07395000010728836,-3.2380502223968506
1781031500942546400,19.03154638671875,8.806050300598145,0.14205001294612885,-3.3700501918792725
1781031500962062000,19.05106201171875,8.950050354003906,0.22095000743865967,-3.52305006980896
1781031500981578800,19.070578857421875,8.95995044708252,0.31800001859664917,-3.6889500617980957
1781031501001093000,19.090093017578123,8.881050109863281,0.43095001578330994,-3.853950262069702
1781031501020608500,19.1096083984375,8.851950645446777,0.5650500059127808,-4.06095027923584
1781031501040122000,19.1291220703125,8.950050354003906,0.6660000085830688,-4.341000080108643
1781031501059633000,19.1486328125,9.196950912475586,0.6889500617980957,-4.723950386047363
1781031501079143400,19.168143310546874,9.367950439453125,0.6340500116348267,-5.1820502281188965
1781031501098658600,19.187658447265626,9.39900016784668,0.5010000467300415,-5.694000244140625
1781031501118178300,19.20717822265625,9.325050354003906,0.34905001521110535,-6.268950462341309
1781031501137697000,19.226697021484377,9.229950904846191,0.2370000183582306,-6.759000301361084
1781031501157215000,19.246215087890626,9.265950202941895,0.2070000171661377,-7.114050388336182
1781031501176732000,19.26573193359375,9.390000343322754,0.22605000436306,-7.3969502449035645
1781031501196246300,19.285246337890626,9.439949989318848,0.27195000648498535,-7.606050491333008
1781031501215755500,19.304755615234374,9.286050796508789,0.3049500286579132,-7.842000484466553
1781031501235267600,19.324267578125,8.907000541687012,0.3079500198364258,-8.194950103759766
1781031501254783000,19.343782958984374,8.410050392150879,0.3139500021934509,-8.706000328063965
1781031501274300200,19.363300048828126,7.963050365447998,0.3850500285625458,-10.425000190734863
1781031501293814000,19.38281396484375,7.591050148010254,0.5149500370025635,-10.707000732421875
1781031501313328400,19.402328369140626,5.994000434875488,0.6100500226020813,-11.122950553894043
1781031501332849000,19.421848876953124,5.64900016784668,0.6340500116348267,-11.449950218200684
1781031501352366600,19.44136669921875,5.164950370788574,0.6559500098228455,-11.7649507522583
1781031501371882200,19.46088232421875,4.644000053405762,0.559950053691864,-12.010050773620605
1781031501391396900,19.48039697265625,4.788000106811523,0.6949500441551208,-11.619000434875488
1781031501410909200,19.4999091796875,7.018050193786621,1.2049500942230225,-6.6910505294799805
1781031501430422800,19.5194228515625,7.15500020980835,1.0489500761032104,-0.9289500713348389
1781031501449934800,19.538934814453125,9.690000534057617,-0.46800002455711365,0.6949500441551208
1781031501469447700,19.55844775390625,11.530950546264648,-0.8520000576972961,0.6840000152587891
1781031501488964900,19.57796484375,11.374950408935547,-2.6290500164031982,-1.3489500284194946
1781031501508480800,19.597480712890626,13.59795093536377,-2.221950054168701,-4.986000061035156
1781031501527994600,19.61699462890625,11.66100025177002,-0.24195000529289246,-5.014950275421143
1781031501547511300,19.63651123046875,8.560050010681152,-0.364050030708313,-2.9569501876831055
1781031501567028700,19.65602880859375,8.062950134277344,-0.36705002188682556,-2.9320502281188965
1781031501586543600,19.675543701171875,6.51300048828125,-0.4120500087738037,-2.782050132751465
1781031501606058500,19.69505859375,6.87000036239624,-0.4230000078678131,-2.502000093460083
1781031501625569300,19.7145693359375,9.145050048828125,-0.13199999928474426,-2.5630500316619873
1781031501645078000,19.734078125,10.564950942993164,0.0019500000635161996,-2.6359500885009766
1781031501664592400,19.75359228515625,10.566000938415527,-0.22395001351833344,-2.5819501876831055
1781031501684113200,19.773113037109376,10.426050186157227,-0.7500000596046448,-2.5699501037597656
1781031501703631400,19.79263134765625,10.213950157165527,-1.3380000591278076,-2.680950164794922
1781031501723145700,19.812145751953125,9.853050231933594,-1.503000020980835,-2.8999500274658203
1781031501742656000,19.831656005859376,7.908000469207764,-1.2430500984191895,-2.877000093460083
1781031501762168300,19.851168212890624,7.45395040512085,-0.8070000410079956,-2.6650500297546387
1781031501781680600,19.8706806640625,6.025050163269043,-0.5260500311851501,-1.0810500383377075
1781031501801198300,19.8901982421875,6.235950469970703,-0.6220500469207764,-0.8740500211715698
1781031501820721700,19.9097216796875,8.289000511169434,-1.0470000505447388,-1.125
1781031501840242700,19.92924267578125,8.508000373840332,-1.453950047492981,-1.4730000495910645
1781031501859762400,19.948762451171874,8.47605037689209,-1.7050501108169556,-1.6849501132965088
1781031501879284000,19.968283935546875,8.019000053405762,-1.7500500679016113,-2.02905011177063
1781031501898802400,19.987802490234376,7.462050437927246,-1.5280500650405884,-2.158950090408325
1781031501918317800,20.00731787109375,7.138950347900391,-1.1539500951766968,-2.2519500255584717
1781031501937836500,20.02683642578125,7.279050350189209,-0.7249500155448914,-2.54295015335083
1781031501957356800,20.046356689453123,7.701000213623047,-0.4240500330924988,-2.539950132369995
1781031501976879400,20.06587939453125,8.224950790405273,-0.34005001187324524,-2.1229500770568848
1781031501996401400,20.0854013671875,10.189050674438477,-0.3750000298023224,-1.4989501237869263
1781031502015918300,20.10491845703125,10.53795051574707,-0.35895001888275146,0.0690000057220459
1781031502035432000,20.124431884765624,10.948050498962402,-0.4330500066280365,0.5790000557899475
1781031502054945800,20.14394580078125,11.434950828552246,-0.5160000324249268,0.9850500226020813
1781031502074458000,20.1634580078125,11.812050819396973,-0.5620500445365906,1.3420500755310059
1781031502093972700,20.18297265625,11.803050994873047,-0.7060500383377075,1.6120500564575195
1781031502113490000,20.202489990234376,11.506950378417969,-0.76500004529953,1.7020500898361206
1781031502133005600,20.222005615234377,11.041950225830078,-0.973050057888031,1.8799500465393066
1781031502152524500,20.241524658203126,10.414950370788574,-1.2930001020431519,1.968000054359436
1781031502172048100,20.261048095703124,10.077000617980957,-1.4610000848770142,1.9840500354766846
1781031502191572000,20.280572021484375,10.006050109863281,-1.4980500936508179,2.07705020904541
1781031502211098000,20.30009814453125,9.778950691223145,-1.2469500303268433,2.2330501079559326
1781031502230625000,20.319625,9.385050773620605,-0.9679500460624695,3.802950143814087
1781031502250147300,20.339147216796874,8.796000480651855,-0.7669500112533569,4.197000026702881
1781031502269662200,20.358662109375,7.303050518035889,-0.544950008392334,6.216000080108643
1781031502289176300,20.37817626953125,7.323000431060791,-0.21300001442432404,6.567000389099121
1781031502308690400,20.3976904296875,7.588050365447998,0.325950026512146,6.901950359344482
1781031502328204500,20.41720458984375,8.065950393676758,1.9780501127243042,7.1610002517700195
1781031502347720400,20.436720458984375,8.620050430297852,2.3779501914978027,7.207050323486328
1781031502367234300,20.456234375,8.854050636291504,2.9290502071380615,7.1010003089904785
1781031502386749400,20.47574951171875,8.70300006866455,3.3480000495910645,6.948000431060791
1781031502406270500,20.4952705078125,8.293950080871582,3.4669501781463623,6.790950298309326
1781031502425792300,20.514792236328127,8.050950050354004,3.1279501914978027,6.664050102233887
1781031502445312800,20.534312744140625,8.107950210571289,2.5600500106811523,6.297000408172607
1781031502464829700,20.55382958984375,8.289000511169434,0.8659500479698181,5.707950115203857
1781031502484344800,20.5733447265625,8.49000072479248,0.6000000238418579,3.9379501342773438
1781031502503862800,20.59286279296875,8.521950721740723,0.11805000901222229,3.633000135421753
1781031502523383000,20.612383056640624,8.527050018310547,-0.44505003094673157,3.232950210571289
1781031502542904300,20.631904296875,8.686050415039062,-0.8869500160217285,2.883000135421753
1781031502562425900,20.65142578125,8.860950469970703,-1.0009500980377197,2.5540502071380615
1781031502581949400,20.670949462890626,8.89905071258545,-0.8740500211715698,2.3869500160217285
1781031502601473500,20.6904736328125,8.712000846862793,-0.7840500473976135,2.4120001792907715
1781031502620992800,20.70999267578125,8.433000564575195,-0.7849500179290771,2.5099501609802246
1781031502640510500,20.729510498046874,8.331000328063965,-0.8719500303268433,2.568000078201294
1781031502660032000,20.749031982421876,8.47800064086914,-1.0039499998092651,2.49495005607605
1781031502679554000,20.768553955078126,8.839950561523438,-1.0249500274658203,2.2770001888275146
1781031502699076000,20.788076171875,9.097050666809082,-1.1340000629425049,2.083050012588501
1781031502718596400,20.807596435546873,9.124950408935547,-1.4220000505447388,2.0059502124786377
1781031502738114300,20.8271142578125,9.127050399780273,-1.7839500904083252,1.984950065612793
1781031502757636000,20.846635986328124,9.19005012512207,-2.133000135421753,1.924950122833252
1781031502777156400,20.86615625,9.349950790405273,-2.3389501571655273,1.7569501399993896
1781031502796674800,20.8856748046875,9.5149507522583,-2.388000011444092,1.5450000762939453
1781031502816194600,20.905194580078124,9.457050323486328,-2.39805006980896,1.423050045967102
1781031502835713000,20.924713134765625,9.2920503616333,-2.4690001010894775,1.4359500408172607
1781031502855232300,20.944232177734374,9.147000312805176,-2.5200002193450928,1.4860501289367676
1781031502874752800,20.963752685546876,9.042000770568848,-2.5200002193450928,1.4749500751495361
1781031502894273800,20.983273681640625,9.064050674438477,-2.514000177383423,1.4280000925064087
1781031502913793000,21.00279296875,9.08595085144043,-2.533950090408325,1.363050103187561
1781031502933309000,21.022308837890623,9.094050407409668,-2.5279500484466553,1.300950050354004
1781031502952827000,21.041826904296876,9.004950523376465,-2.4850502014160156,1.2160500288009644
1781031502972348200,21.06134814453125,8.706000328063965,-2.416950225830078,1.1119500398635864
1781031502991872800,21.080872802734376,8.260050773620605,-2.4280500411987305,1.0840500593185425
1781031503011395800,21.100395751953126,7.837050437927246,-2.514000177383423,1.075950026512146
1781031503030914800,21.119914794921876,7.747950553894043,-2.5960500240325928,1.0639500617980957
1781031503050433300,21.139433349609376,8.028000831604004,-2.5009500980377197,0.9180000424385071
1781031503069951500,21.158951416015626,8.461050033569336,-2.2390501499176025,0.5389500260353088
1781031503089469000,21.178468994140626,8.79104995727539,-1.984950065612793,0.06105000153183937
1781031503108987100,21.197987060546875,8.812950134277344,-1.8889501094818115,-0.36195001006126404
1781031503128505300,21.21750537109375,8.668950080871582,-2.058000087738037,-0.7030500173568726
1781031503148020200,21.237020263671877,8.59695053100586,-2.3779501914978027,-0.9499500393867493
1781031503167535900,21.256535888671873,8.778000831604004,-2.7370500564575195,-1.1430000066757202
1781031503187053300,21.27605322265625,9.204000473022461,-3.151050090789795,-1.3669500350952148
1781031503206572500,21.295572509765623,9.759000778198242,-3.6160502433776855,-1.5660001039505005
1781031503226093800,21.31509375,10.213050842285156,-4.052999973297119,-1.6570501327514648
1781031503245616000,21.3346162109375,10.461000442504883,-4.192049980163574,-1.7130000591278076
1781031503265135400,21.35413525390625,10.440000534057617,-3.973050117492676,-1.746000051498413
1781031503284656400,21.373656494140626,10.192950248718262,-3.453000068664551,-1.7590501308441162
1781031503304174600,21.393174560546875,9.846000671386719,-2.940000057220459,-1.6980000734329224
1781031503323693600,21.412693603515624,9.440999984741211,-2.7310500144958496,-1.579050064086914
1781031503343215900,21.4322158203125,9.106050491333008,-2.704050064086914,-1.5000001192092896
1781031503362735600,21.451735595703123,8.838000297546387,-2.7829501628875732,-1.4610000848770142
1781031503382258000,21.4712578125,8.659049987792969,-2.7079501152038574,-1.533000111579895
1781031503401777200,21.490777099609375,8.5489501953125,-2.581050157546997,-1.5540000200271606
1781031503421292800,21.510292724609375,8.430000305175781,-2.5890002250671387,-1.446000099182129
1781031503440808700,21.52980859375,8.40195083618164,-2.623950242996216,-1.3369500637054443
1781031503460322000,21.549322021484375,8.556000709533691,-2.698050022125244,-1.3450500965118408
1781031503479836000,21.5688359375,8.788949966430664,-2.7310500144958496,-1.5570000410079956
1781031503499358500,21.5883583984375,9.031949996948242,-2.6419501304626465,-1.8859500885009766
1781031503518881300,21.60788134765625,9.15000057220459,-2.556000232696533,-2.1540000438690186
1781031503538396700,21.627396728515624,9.07395076751709,-2.5480501651763916,-2.308950185775757
1781031503557908200,21.646908203125,8.976000785827637,-2.5789501667022705,-2.3680500984191895
1781031503577417200,21.666417236328126,8.946000099182129,-2.5879502296447754,-2.4090001583099365
1781031503596925400,21.685925537109377,8.896050453186035,-2.5950000286102295,-2.482950210571289
1781031503616436200,21.705436279296876,8.854949951171875,-2.557950019836426,-2.5390501022338867
1781031503635947800,21.72494775390625,8.800950050354004,-2.5440001487731934,-2.5320000648498535
1781031503655461000,21.744461181640624,8.785050392150879,-2.6050500869750977,-2.5309500694274902
1781031503674975500,21.7639755859375,8.835000038146973,-2.6740500926971436,-2.6040000915527344
1781031503694490000,21.783489990234376,8.832000732421875,-2.6989500522613525,-2.7310500144958496
1781031503714006300,21.80300634765625,8.712000846862793,-2.6920502185821533,-2.8570501804351807
1781031503733524500,21.8225244140625,8.529000282287598,-2.697000026702881,-2.998950242996216
1781031503753040100,21.8420400390625,8.523000717163086,-2.6479501724243164,-3.1240501403808594
1781031503772552400,21.861552490234374,8.746050834655762,-2.581050157546997,-3.312000274658203
1781031503792063200,21.881063232421877,9.100950241088867,-2.4220499992370605,-3.5149502754211426
1781031503811571500,21.900571533203124,9.370950698852539,-2.1760501861572266,-3.598050117492676
1781031503831079400,21.920079345703126,9.382050514221191,-1.966050148010254,-3.5460002422332764
1781031503850587400,21.93958740234375,9.21405029296875,-1.7920501232147217,-3.384000062942505
1781031503870097700,21.95909765625,9.075000762939453,-1.6279500722885132,-3.2790000438690186
1781031503889607400,21.978607421875,9.040050506591797,-1.4970000982284546,-3.29295015335083
1781031503909117000,21.998116943359374,9.07395076751709,-1.4130001068115234,-3.369000196456909
1781031503928628700,22.017628662109374,9.12600040435791,-1.3930500745773315,-3.44700026512146
1781031503948139800,22.037139892578125,9.142950057983398,-1.4749500751495361,-3.5089502334594727
1781031503967654400,22.056654296875,9.157050132751465,-1.5390000343322754,-3.5749502182006836
1781031503987170000,22.076170166015626,9.232050895690918,-1.4820001125335693,-3.6949501037597656
1781031504006682600,22.0956826171875,9.301050186157227,-1.294950008392334,-3.8650500774383545
1781031504026194200,22.115194091796877,9.24000072479248,-1.0440000295639038,-4.000950336456299
1781031504045710000,22.1347099609375,9.142050743103027,-0.8389500379562378,-4.072050094604492
1781031504065229000,22.15422900390625,9.073050498962402,-0.6960000395774841,-4.1449503898620605
1781031504084743700,22.17374365234375,9.07395076751709,-0.6130500435829163,-4.269000053405762
1781031504104257800,22.1932578125,9.19005012512207,-0.5419500470161438,-4.410000324249268
1781031504123774200,22.212774169921875,9.334050178527832,-0.5530500411987305,-4.494000434875488
1781031504143294700,22.232294677734377,9.432000160217285,-0.6600000262260437,-4.53000020980835
1781031504162814500,22.251814453125,9.484950065612793,-0.7660500407218933,-4.516050338745117
1781031504182328800,22.271328857421874,9.48705005645752,-0.7930500507354736,-4.525050163269043
1781031504201841200,22.290841064453126,9.475950241088867,-0.6529500484466553,-4.591950416564941
1781031504221355000,22.31035498046875,9.442049980163574,-0.40995001792907715,-4.648950099945068
1781031504240870700,22.32987060546875,9.42495059967041,-0.21405000984668732,-4.630050182342529
1781031504260387000,22.349386962890627,9.41295051574707,-0.1270500123500824,-4.540050029754639
1781031504279902200,22.368902099609375,9.396000862121582,-0.11700000613927841,-4.40595006942749
1781031504299414500,22.38841455078125,9.391950607299805,-0.13905000686645508,-4.269000053405762
1781031504318929700,22.4079296875,9.375,-0.1380000114440918,-4.177950382232666
1781031504338446600,22.427446533203124,9.307950019836426,-0.12495000660419464,-4.108050346374512
1781031504357964300,22.44696435546875,9.208050727844238,-0.12600000202655792,-4.044000148773193
1781031504377480400,22.46648046875,9.120000839233398,-0.16905000805854797,-3.9600002765655518
1781031504396997000,22.4859970703125,9.042000770568848,-0.226950004696846,-3.862950086593628
1781031504416515300,22.505515380859375,9.021000862121582,-0.24105000495910645,-3.7759501934051514
1781031504436031500,22.525031494140624,8.968050003051758,-0.21105000376701355,-3.7099502086639404
1781031504455548700,22.544548583984376,8.851950645446777,-0.1279500126838684,-3.652050256729126
1781031504475062000,22.56406201171875,8.716050148010254,-0.04200000315904617,-3.5809502601623535
1781031504494570500,22.583570556640623,8.605950355529785,0.025950001552700996,-3.5119502544403076
1781031504514083000,22.6030830078125,8.587950706481934,0.04905000329017639,-3.4489500522613525
1781031504533597400,22.622597412109375,8.610000610351562,0.06795000284910202,-3.3700501918792725
1781031504553110300,22.6421103515625,8.629050254821777,0.1099500060081482,-3.2689502239227295
1781031504572630800,22.661630859375,8.635050773620605,0.14805001020431519,-3.172950267791748
1781031504592146200,22.681146240234376,8.622000694274902,0.19200000166893005,-3.0900001525878906
1781031504611653400,22.7006533203125,8.605950355529785,0.22800001502037048,-3.043950080871582
1781031504631165700,22.720165771484375,8.57805061340332,0.24195000529289246,-3.0049500465393066
1781031504670192400,22.7591923828125,8.499000549316406,0.3060000240802765,-2.857950210571289
1781031504689710300,22.77871044921875,8.446050643920898,0.35100001096725464,-2.770050048828125
1781031504709224700,22.798224609375,8.3860502243042,0.37005001306533813,-2.7090001106262207
1781031504728734000,22.81773388671875,8.280000686645508,0.3570000231266022,-2.6860501766204834
1781031504748241700,22.83724169921875,8.271000862121582,0.35295000672340393,-2.7280502319335938
1781031504767748900,22.856748779296876,8.392050743103027,0.3079500198364258,-2.826000213623047
1781031504787256800,22.8762568359375,8.707950592041016,0.27000001072883606,-2.9580001831054688
1781031504806765000,22.89576513671875,9.187050819396973,0.27300000190734863,-3.1549501419067383
1781031504826276000,22.915276123046876,9.571950912475586,0.3349500298500061,-3.42900013923645
1781031504845792300,22.934792236328125,9.760050773620605,0.4429500102996826,-3.76200008392334
1781031504865305300,22.954305419921877,9.693000793457031,0.5580000281333923,-4.116000175476074
1781031504884816400,22.97381640625,9.480000495910645,0.6310500502586365,-4.474050045013428
1781031504904327400,22.993327392578124,9.358050346374512,0.6139500141143799,-4.82895040512085
1781031504923838700,23.012838623046875,9.331050872802734,0.5490000247955322,-5.293950080871582
1781031504943350000,23.03235009765625,9.319050788879395,0.5130000114440918,-5.90595006942749
1781031504962857200,23.051857177734377,9.277950286865234,0.5440500378608704,-7.381950378417969
1781031504982361000,23.071361083984375,9.193050384521484,0.583050012588501,-7.735950469970703
1781031505001868300,23.090868408203125,9.040950775146484,0.6670500040054321,-8.058000564575195
1781031505021379300,23.11037939453125,8.893050193786621,0.7690500617027283,-8.23799991607666
1781031505040888800,23.129888916015624,8.806950569152832,0.8719500303268433,-8.3100004196167
1781031505060396000,23.14939599609375,8.575950622558594,0.9540000557899475,-8.244000434875488
1781031505079907000,23.168906982421873,8.284049987792969,0.9589500427246094,-8.12700080871582
1781031505099417900,23.18841796875,8.062950134277344,0.8640000224113464,-8.101950645446777
1781031505118923500,23.207923583984375,7.8760504722595215,0.697950005531311,-8.224050521850586
1781031505138432300,23.227432373046874,7.695000171661377,0.534000039100647,-8.4660005569458
1781031505157942300,23.2469423828125,7.495050430297852,0.3859500288963318,-8.791950225830078
1781031505177446400,23.2664462890625,7.254000186920166,0.30300000309944153,-9.139050483703613
1781031505196952800,23.285952880859377,7.0219502449035645,0.17805001139640808,-9.39900016784668
1781031505216466200,23.305466064453125,6.895050525665283,0.05295000225305557,-9.62700080871582
1781031505235981300,23.324981201171877,6.711000442504883,-0.013050000183284283,-10.018050193786621
1781031505255493400,23.344493408203125,6.151050090789795,-0.12300000339746475,-10.53600025177002
1781031505275002600,23.364002685546875,6.262950420379639,-0.4939500093460083,-10.422000885009766
1781031505294510300,23.38351025390625,8.653950691223145,-0.7750500440597534,-5.236950397491455
1781031505314023200,23.403023193359374,11.338050842285156,-3.2100000381469727,-1.0410000085830688
1781031505333537300,23.422537353515626,13.699050903320312,-3.7740001678466797,-0.7540500164031982
1781031505353044700,23.442044677734376,13.462950706481934,-2.368950128555298,-0.6210000514984131
1781031505372556300,23.461556396484376,8.044050216674805,-0.6240000128746033,-3.7789502143859863
1781031505392069600,23.481069580078124,3.828000068664551,2.820000171661377,-5.478000164031982
1781031505411579600,23.50057958984375,0.9889500737190247,4.588050365447998,-3.5880000591278076
1781031505431088400,23.52008837890625,0.8620500564575195,4.308000087738037,-3.3169500827789307
1781031505450603000,23.53960302734375,6.453000068664551,2.026050090789795,-3.0289502143859863
1781031505470120700,23.55912060546875,11.818050384521484,-1.8109500408172607,-2.716050148010254
1781031505489634000,23.578634033203127,15.760951042175293,-4.132050037384033,-2.86995005607605
1781031505509144800,23.598144775390626,16.081951141357422,-4.462950229644775,-3.3349502086639404
1781031505528652800,23.61765283203125,14.266050338745117,-4.6120500564575195,-3.6750001907348633
1781031505548161000,23.6371611328125,12.438000679016113,-2.694000244140625,-3.9180002212524414
1781031505567672800,23.6566728515625,10.23705005645752,0.00795000046491623,-4.056000232696533
1781031505587184400,23.676184326171875,7.987950325012207,1.6519501209259033,-3.808950185775757
1781031505606694100,23.695694091796874,6.319950103759766,1.804050087928772,-3.4399502277374268
1781031505626206500,23.71520654296875,6.32895040512085,1.64205002784729,-3.2380502223968506
1781031505645718000,23.734718017578125,6.741000175476074,-0.1469999998807907,-2.974950075149536
1781031505665231000,23.754231201171876,8.809950828552246,-0.6150000095367432,-2.9200501441955566
1781031505684744400,23.773744384765624,10.741050720214844,-2.0160000324249268,-3.109950065612793
1781031505704255200,23.793255126953124,11.142000198364258,-2.1499500274658203,-3.022050142288208
1781031505723768000,23.81276806640625,10.816950798034668,-2.3740501403808594,-2.743950128555298
1781031505743282700,23.83228271484375,8.880000114440918,-2.3560500144958496,-2.4280500411987305
1781031505762792700,23.851792724609375,6.574050426483154,-2.032050132751465,-1.8979500532150269
1781031505782299600,23.871299560546873,4.483050346374512,-1.6270500421524048,-1.6360501050949097
1781031505801809000,23.890808837890624,4.011000156402588,-1.0890001058578491,-1.6240500211715698
1781031505821316900,23.91031689453125,3.643050193786621,-0.6030000448226929,-1.4070000648498535
1781031505840826600,23.92982666015625,3.828000068664551,-0.26205000281333923,-1.0879501104354858
1781031505860341000,23.949341064453126,5.985000133514404,0.09000000357627869,-0.7120500206947327
1781031505879852000,23.96885205078125,7.987950325012207,0.42900002002716064,-0.22500000894069672
1781031505899362600,23.988362548828125,10.28895092010498,0.820050060749054,0.012000000104308128
1781031505918872600,24.00787255859375,11.961000442504883,1.2520500421524048,-0.04305000230669975
1781031505938378800,24.027378662109374,12.091950416564941,1.3830000162124634,-0.025050001218914986
1781031505957891600,24.0468916015625,12.418951034545898,1.8390001058578491,-0.18195000290870667
1781031505977407700,24.06640771484375,12.412050247192383,2.0280001163482666,-0.25200000405311584
1781031505996926500,24.085926513671875,11.878950119018555,1.64205002784729,-0.11805000901222229
1781031506016441300,24.10544140625,11.34795093536377,1.2400500774383545,-0.040950000286102295
1781031506035950000,24.1249501953125,9.837000846862793,-0.5260500311851501,0.226950004696846
1781031506055461400,24.14446142578125,9.382050514221191,-1.141950011253357,0.6030000448226929
1781031506074973400,24.163973388671874,9.046950340270996,-1.4749500751495361,0.9240000247955322
1781031506094482700,24.183482666015625,8.7610502243042,-1.8060001134872437,1.27305006980896
1781031506113985300,24.2029853515625,8.56605052947998,-2.052000045776367,1.6540501117706299
1781031506133491000,24.222490966796876,8.7610502243042,-1.9450501203536987,2.107950210571289
1781031506153004300,24.24200439453125,9.351000785827637,-1.7370001077651978,4.13100004196167
1781031506172518000,24.261517822265624,11.062050819396973,-1.1860500574111938,4.539000034332275
1781031506192031700,24.28103173828125,11.629050254821777,0.5179499983787537,6.237000465393066
1781031506211546000,24.300546142578124,12.193950653076172,2.39805006980896,6.337050437927246
1781031506231057700,24.3200576171875,12.294000625610352,4.066050052642822,6.2719502449035645
1781031506250572300,24.339572265625,10.39995002746582,4.509000301361084,6.004050254821777
1781031506270091800,24.359091796875,8.13705062866211,5.154000282287598,5.611950397491455
1781031506289609200,24.378609130859374,7.615950584411621,5.619000434875488,5.287950038909912
1781031506309124900,24.398124755859374,6.166050434112549,5.5849504470825195,5.034000396728516
1781031506328643600,24.4176435546875,6.180000305175781,5.08305025100708,4.752000331878662
1781031506348160300,24.43716015625,6.6409502029418945,3.5650501251220703,4.314000129699707
1781031506367676000,24.456676025390625,7.219050407409668,1.8619500398635864,3.76200008392334
1781031506387192000,24.476192138671873,7.744950294494629,1.4329500198364258,3.1969501972198486
1781031506406705700,24.49570556640625,8.284049987792969,-0.22500000894069672,2.7139501571655273
1781031506426220800,24.515220703125,8.743050575256348,-0.4069500267505646,2.3800501823425293
1781031506445736400,24.534736328125,9.111000061035156,-0.5890500545501709,2.1379501819610596
1781031506465248300,24.554248291015625,9.397950172424316,-0.49605002999305725,1.9330500364303589
1781031506484760600,24.573760498046877,9.418050765991211,-0.25095000863075256,1.7839500904083252
1781031506504275200,24.593275146484373,9.160050392150879,-0.08400000631809235,1.7479500770568848
1781031506523787000,24.612787109375,8.86500072479248,0.003000000026077032,1.7899501323699951
1781031506543295500,24.63229541015625,8.736000061035156,0.021000001579523087,1.8169500827789307
1781031506562809300,24.651809326171875,8.866050720214844,-0.037950001657009125,1.8220500946044922
1781031506582324500,24.671324462890624,9.153000831604004,-0.14295001327991486,1.8580501079559326
1781031506601837000,24.690837158203124,9.348000526428223,-0.31095001101493835,1.9230000972747803
1781031506621348900,24.710348876953127,9.331050872802734,-0.5410500168800354,1.9930500984191895
1781031506640861400,24.729861328125,9.157050132751465,-0.7260000109672546,2.0680501461029053
1781031506660368600,24.74936865234375,8.956950187683105,-0.8560500144958496,2.0659501552581787
1781031506679876600,24.768876708984376,8.89995002746582,-0.9619500637054443,1.990950107574463
1781031506699385900,24.7883857421875,9.0600004196167,-0.9960000514984131,1.8880500793457031
1781031506718894000,24.80789404296875,9.265950202941895,-1.0720500946044922,1.7620500326156616
1781031506738406100,24.82740625,9.46500015258789,-1.1650500297546387,1.686000108718872
1781031506757918200,24.846918212890625,9.609000205993652,-1.1920500993728638,1.579050064086914
1781031506777433900,24.866433837890625,9.676950454711914,-1.2199500799179077,1.446000099182129
1781031506796946700,24.88594677734375,9.631950378417969,-1.2360000610351562,1.2570000886917114
1781031506816455400,24.905455322265624,9.396000862121582,-1.2559500932693481,1.0660500526428223
1781031506835964700,24.924964599609375,9.06195068359375,-1.350000023841858,0.9690000414848328
1781031506855476200,24.944476318359374,8.766000747680664,-1.5630000829696655,0.9439500570297241
1781031506874986200,24.963986328125,8.635050773620605,-1.8300000429153442,0.9499500393867493
1781031506894495200,24.9834951171875,8.788050651550293,-1.968000054359436,0.8560500144958496
1781031506914010400,25.00301025390625,8.961000442504883,-2.0299501419067383,0.6409500241279602
1781031506933526300,25.0225263671875,8.967000007629395,-2.140050172805786,0.3960000276565552
1781031506953040100,25.0420400390625,8.934000015258789,-2.290950059890747,0.17400000989437103
1781031506972552400,25.061552490234376,8.884050369262695,-2.5510501861572266,-0.010950000956654549
1781031506992061400,25.0810615234375,8.956050872802734,-2.704050064086914,-0.24195000529289246
1781031507011571500,25.100571533203127,9.139050483703613,-2.6539502143859863,-0.5070000290870667
1781031507031081000,25.1200810546875,9.241950035095215,-2.5990500450134277,-0.7570500373840332
1781031507050587000,25.1395869140625,9.303000450134277,-2.6070001125335693,-0.999000072479248
1781031507070093800,25.15909375,9.306000709533691,-2.7739500999450684,-1.1509500741958618
1781031507089605000,25.178605224609374,9.382950782775879,-2.8939502239227295,-1.2649500370025635
1781031507109122600,25.19812255859375,9.52500057220459,-2.8810501098632812,-1.3290001153945923
1781031507128641800,25.217641845703124,9.76395034790039,-2.7940502166748047,-1.3320000171661377
1781031507148157200,25.2371572265625,10.12605094909668,-2.731950044631958,-1.3369500637054443
1781031507167676000,25.256676025390625,10.392000198364258,-2.757000207901001,-1.39395010471344
1781031507187194600,25.276194580078126,10.417950630187988,-2.7460501194000244,-1.5019500255584717
1781031507206710800,25.295710693359375,10.039950370788574,-2.5909500122070312,-1.6009501218795776
