time,seconds_elapsed,z,y,x
1780525280740788700,5.026788818359375,-1.7397441864013672,-0.6633996367454529,-0.2443460971117019
1780525280750890000,5.036889892578125,-1.7715091705322266,-0.6291912198066711,0.1185078546404838
1780525280771062000,5.05706201171875,-1.8484781980514529,-0.6902777552604675,0.2919935882091522
1780525280781133000,5.067133056640625,-1.8753563165664675,-0.8930850028991699,0.0183259565383195
1780525280791203800,5.077203857421875,-1.9449949264526367,-1.1423180103302002,-0.3188716471195221
1780525280801274600,5.087274658203125,-2.079385280609131,-1.3561208248138428,-0.6548475623130798
1780525280811345400,5.097345458984375,-2.2296581268310547,-1.4831807613372805,-0.7660250067710876
1780525280821355000,5.10735498046875,-2.238210201263428,-1.451415777206421,-0.5021312236785889
1780525280831456500,5.11745654296875,-2.124589204788208,-1.3243558406829834,-0.197920337319374
1780525280841527300,5.12752734375,-2.0512855052948,-1.2718214988708496,-0.098960168659687
1780525280851628500,5.137628662109375,-2.048841953277588,-1.361007809638977,-0.2333505302667617
1780525280861668900,5.1476689453125,-2.076941728591919,-1.500285029411316,-0.4825835525989532
1780525280891911700,5.17791162109375,-2.0341813564300537,-1.5308283567428589,-0.6988298296928406
1780525280922124000,5.2081240234375,-1.6407840251922607,-1.3353514671325684,-0.3029891550540924
1780525280932225500,5.2182255859375,-1.5247195959091189,-1.2864822149276731,-0.2858849465847015
1780525280942296300,5.22829638671875,-1.3744467496871948,-1.1533136367797852,-0.2370157092809677
1780525280952397600,5.2383974609375,-1.2119566202163696,-0.95783668756485,-0.1930334120988845
1780525280962498800,5.248498779296875,-1.0739010572433472,-0.7623597979545593,-0.0842994004487991
1780525280972569600,5.258569580078125,-0.8943067193031311,-0.5546656250953674,0.0623082555830478
1780525280982640400,5.268640380859375,-0.675616979598999,-0.3298672437667846,0.1221730485558509
1780525281002782200,5.2887822265625,-0.2565633952617645,0.1258382350206375,-0.0024434609804302
1780525281012853000,5.29885302734375,-0.0610865242779254,0.3359758853912353,-0.0757472887635231
1780525281073338600,5.359338623046875,0.9834930300712584,1.2901474237442017,-0.0623082555830478
1780525281153966000,5.439966064453125,1.987755537033081,1.557706356048584,-0.1893682330846786
1780525281224461800,5.5104619140625,2.476447820663452,1.36955988407135,0.4996877610683441
1780525281244603400,5.530603271484375,2.389704942703247,1.2229522466659546,0.5632177591323853
1780525281254735000,5.540735107421875,2.3457224369049072,1.1056660413742063,0.4838052690029144
1780525281264806100,5.55080615234375,2.280970811843872,0.9272934198379515,0.2467895597219467
1780525281274877000,5.560876953125,2.168571710586548,0.8381071090698242,0.0158824957907199
1780525281285008600,5.571008544921875,2.0647244453430176,0.8991936445236206,0.0659734457731247
1780525281325291800,5.611291748046875,1.965764403343201,1.1093312501907349,1.1093312501907349
1780525281335332000,5.62133203125,1.7373007535934448,0.8796459436416626,0.9199630618095398
1780525281345433300,5.631433349609375,1.441641926765442,0.5668829679489136,0.5363397002220154
1780525281355504400,5.64150439453125,1.176526427268982,0.2541199326515198,0.0342084541916847
1780525281365605600,5.651605712890625,0.9957103729248048,0.0598647929728031,-0.3640756905078888
1780525281375676400,5.661676513671875,0.8002334833145142,-0.1185078546404838,-0.5534439086914062
1780525281385777700,5.671777587890625,0.5791002511978149,-0.2040289938449859,-0.5852088928222656
1780525281395879000,5.68187890625,0.2492330223321914,-0.3347541689872741,-0.6695083379745483
1780525281426091500,5.712091552734375,-0.2052507251501083,-0.4483750760555267,-0.0574213340878486
1780525281436162300,5.722162353515625,-0.3310889601707458,-0.46547931432724,0.0635299831628799
1780525281486577200,5.7725771484375,-0.9651671051979064,-0.8527678847312927,-0.4288274049758911
1780525281516820200,5.8028203125,-0.9737191796302797,-0.8625417351722717,-0.2089159190654754
1780525281526891000,5.81289111328125,-1.1313223838806152,-1.0238101482391355,-0.6035348773002625
1780525281536992300,5.8229921875,-1.319468975067139,-1.1056660413742063,-0.9004153609275818
1780525281547063000,5.83306298828125,-1.4147639274597168,-1.0054842233657837,-0.8283332586288452
1780525281557164500,5.84316455078125,-1.4159855842590332,-0.807563841342926,-0.4251621961593628
1780525281567235300,5.8532353515625,-1.379333734512329,-0.6780604124069214,0.1160643994808197
1780525281577336600,5.863336669921875,-1.361007809638977,-0.6817256212234497,0.504574716091156
1780525281587437800,5.873437744140625,-1.3280210494995115,-0.799011766910553,0.6548475623130798
1780525281607640600,5.893640625,-1.3280210494995115,-1.1093312501907349,0.1649336218833923
1780525281617741800,5.903741943359375,-1.3915510177612305,-1.0812314748764038,-0.1453859210014343
1780525281627812600,5.9138125,-1.3634512424468994,-0.921184778213501,-0.2260201424360275
1780525281637913900,5.923913818359375,-1.273043155670166,-0.7684684991836548,-0.1258382350206375
1780525281648015400,5.934015380859375,-1.2620476484298706,-0.675616979598999,-0.0366519130766391
1780525281658116600,5.94411669921875,-1.2803735733032229,-0.6145304441452026,0.0647517144680023
1780525281668157000,5.954156982421875,-1.2620476484298706,-0.5962044596672058,0.1221730485558509
1780525281678227700,5.964227783203125,-1.2205088138580322,-0.5644394755363464,0.1209513172507286
1780525281688329000,5.974328857421875,-1.2021827697753906,-0.5314527750015259,0.0623082555830478
1780525281698399700,5.984399658203125,-1.099557399749756,-0.4923573732376098,0.0219911485910415
1780525281779027200,6.065027099609375,-0.2846632003784179,-0.1123992055654525,-0.1783726513385772
1780525281789128400,6.07512841796875,-0.1600466966629028,-0.1038470938801765,-0.2932153046131134
1780525281809300700,6.09530078125,0.0464257597923278,0.0024434609804302,-0.4349360466003418
1780525281819371500,6.10537158203125,0.2015855312347412,0.0867428630590438,-0.3897320330142975
1780525281829472800,6.11547265625,0.4092797040939331,0.1258382350206375,-0.3005456924438476
1780525281839543600,6.12554345703125,0.6023131608963013,0.1368338167667389,-0.3127630054950714
1780525281849614300,6.1356142578125,0.7562511563301086,0.1490511149168014,-0.4642575979232788
1780525281859715600,6.145715576171875,0.8857545852661133,0.1466076523065567,-0.6951646208763123
1780525281869817000,6.155817138671875,1.007927656173706,0.1343903541564941,-0.8857545852661133
1780525281879888000,6.165887939453125,1.1081095933914185,0.171042263507843,-1.016479730606079
1780525281890019600,6.17601953125,1.2082914113998413,0.2687807083129883,-0.9822713136672974
1780525281900121000,6.18612109375,1.4135421514511108,0.4117231667041778,-0.7049384713172913
1780525281910252800,6.196252685546875,1.6212363243103027,0.5497786998748779,-0.4239404797554016
1780525281920354000,6.20635400390625,1.7531832456588743,0.6499606370925903,-0.3103195428848266
1780525281930424800,6.2164248046875,1.819156646728516,0.6939429044723511,-0.3164281845092773
1780525281940526300,6.2265263671875,1.842369556427002,0.7061602473258972,-0.3909537494182586
1780525281950536000,6.236535888671875,1.8496999740600584,0.7440338730812073,-0.4996877610683441
1780525281970738700,6.25673876953125,1.8668042421340945,0.940732479095459,-0.6524040699005127
1780525281980779000,6.266779052734375,1.880243182182312,1.0213667154312134,-0.6902777552604675
1780525281990880300,6.27688037109375,1.8387043476104736,1.086118459701538,-0.7305948138237
1780525282000951000,6.286950927734375,1.80816113948822,1.138652801513672,-0.7171558141708374
1780525282011021800,6.297021728515625,1.7739527225494385,1.1679743528366089,-0.6438519954681396
1780525282021031700,6.30703173828125,1.6957619190216064,1.187522053718567,-0.5314527750015259
1780525282031133000,6.3171328125,1.585806131362915,1.186300277709961,-0.3701843321323395
1780525282041203700,6.32720361328125,1.4465289115905762,1.187522053718567,-0.1514945775270462
1780525282051305000,6.337304931640625,1.2962560653686523,1.2119566202163696,0.098960168659687
1780525282061345300,6.34734521484375,1.1496484279632568,1.253495454788208,0.2956587672233581
1780525282071446500,6.357446533203125,1.009149432182312,1.2486085891723633,0.4300491213798523
1780525282081517600,6.367517578125,0.7220427393913269,1.1032226085662842,0.4923573732376098
1780525282091588400,6.37758837890625,0.4801400899887085,0.978606104850769,0.5412266254425049
1780525282101659100,6.3876591796875,0.1685988008975982,0.8698720932006836,0.5082398653030396
1780525282111760400,6.397760498046875,-0.1136209368705749,0.7745771408081055,0.5607742667198181
1780525282121831200,6.4078310546875,-0.2858849465847015,0.6976081132888794,0.7538077235221863
1780525282172215800,6.4582158203125,-1.577254056930542,-0.2565633952617645,-0.1148426681756973
1780525282182255900,6.468255859375,-1.7910568714141846,-0.3836233615875244,-0.0415388382971286
1780525282222600200,6.50860009765625,-2.2430970668792725,-0.8222246170043945,0.1258382350206375
1780525282232671000,6.5186708984375,-2.355496406555176,-1.026253581047058,-0.1319468915462494
1780525282252843000,6.538843017578125,-2.6474900245666504,-1.302364706993103,-0.067195177078247
1780525282272984800,6.55898486328125,-2.792876005172729,-1.274264931678772,0.351858377456665
1780525282293217800,6.5792177734375,-2.6902506351470947,-1.5173892974853516,0.3970624208450317
1780525282383916000,6.669916015625,-1.901012659072876,-1.629788517951965,0.4923573732376098
1780525282424260400,6.71026025390625,-0.9101892113685608,-0.8759807348251343,0.098960168659687
1780525282444432400,6.730432373046875,-0.3885102868080139,-0.4886921942234039,0.0122173046693205
1780525282464635100,6.75063525390625,0.0977384373545646,-0.0598647929728031,-0.107512280344963
1780525282474736400,6.760736328125,0.3567453026771545,0.1527163088321685,-0.0464257597923278
1780525282484776700,6.770776611328125,0.6389650702476501,0.3677408695220947,0.0549778714776039
1780525282494908700,6.78090869140625,0.8784242272377014,0.5791002511978149,0.0842994004487991
1780525282504979500,6.7909794921875,1.0335839986801147,0.7855727076530457,-0.0024434609804302
1780525282515080700,6.801080810546875,1.1838568449020386,0.9663888216018676,-0.0537561401724815
1780525282525151500,6.8111513671875,1.3573426008224487,1.1117748022079468,-0.0867428630590438
1780525282535252700,6.821252685546875,1.5137240886688232,1.2290608882904053,-0.0684169083833694
1780525282545293000,6.83129296875,1.645671010017395,1.341460108757019,0.0122173046693205
1780525282555394300,6.841394287109375,1.7763961553573608,1.4404202699661257,0.1270599663257599
1780525282565495800,6.851495849609375,1.9132299423217771,1.5271631479263306,0.2272418737411499
1780525282575597000,6.86159716796875,2.015855312347412,1.576032280921936,0.2333505302667617
1780525282595738600,6.881738525390625,2.194227933883667,1.6713273525238037,0.1514945775270462
1780525282605840000,6.89183984375,2.279749155044556,1.7043139934539795,0.1649336218833923
1780525282636143900,6.922143798828125,2.4825563430786133,1.665218710899353,-0.1233947798609733
1780525282656346600,6.9423466796875,2.437352418899536,1.6273449659347534,-0.2700024247169494
1780525282666417400,6.95241748046875,2.4361305236816406,1.615127682685852,-0.130725160241127
1780525282757298700,7.043298583984375,1.794722080230713,0.7293730974197388,-0.1014036312699318
1780525282767400000,7.05339990234375,1.7641788721084597,0.6585127115249634,0.0134390350431203
1780525282797734400,7.083734375,0.7843509912490845,-0.2406809031963348,-0.2968805134296417
1780525282828068900,7.11406884765625,0.4092797040939331,-0.4642575979232788,0.058643065392971
1780525282888707300,7.174707275390625,-0.5436700582504272,-0.7379252314567566,0.0317649915814399
1780525282949345800,7.235345703125,-1.214400053024292,-0.7538077235221863,0.4214970171451568
1780525282959447000,7.245447021484375,-1.1753047704696655,-0.7538077235221863,0.7672467231750488
1780525283030156300,7.31615625,-1.5125023126602173,-0.8710938692092896,0.157603234052658
1780525283050359000,7.336359130859375,-1.470963478088379,-0.9517280459403992,0.3188716471195221
1780525283090825200,7.3768251953125,-1.284038782119751,-1.0005972385406494,-0.6841690540313721
1780525283100896000,7.38689599609375,-1.123992085456848,-0.8637634515762329,-0.6059783101081848
1780525283121159700,7.40715966796875,-0.9651671051979064,-0.616973876953125,-0.3237585723400116
1780525283131261200,7.41726123046875,-0.8417723178863525,-0.4984660446643829,-0.0574213340878486
1780525283141332000,7.42733203125,-0.7024950385093689,-0.4886921942234039,0.1014036312699318
1780525283181767700,7.467767578125,-0.3286454975605011,-0.3604104816913605,-0.2651155292987823
1780525283252568600,7.538568603515625,0.5803219676017761,0.1795943826436996,-0.2773328125476837
1780525283323369200,7.609369140625,1.3866641521453855,0.8429940342903137,-0.1612684279680252
1780525283343572000,7.629572021484375,1.568701982498169,0.8796459436416626,-0.3384193480014801
1780525283353673200,7.639673095703125,1.6383405923843384,0.8637634515762329,-0.2968805134296417
1780525283414311700,7.700311767578125,1.4953981637954712,1.274264931678772,0.6218608021736145
1780525283485112300,7.7711123046875,0.3885102868080139,0.9346238374710084,-1.0201449394226074
1780525283525578800,7.811578857421875,-0.5314527750015259,0.7867944240570068,-0.2748893499374389
1780525283596288000,7.8822880859375,-1.7702875137329102,0.0342084541916847,0.3469714522361755
1780525283636601600,7.9226015625,-2.2992968559265137,-0.3335324227809906,0.1820378452539444
1780525283656774000,7.94277392578125,-2.5998425483703613,-0.5216789245605469,0.2040289938449859
1780525283676976400,7.962976318359375,-2.6120598316192627,-0.5338962078094482,0.5705481171607971
1780525283697179100,7.98317919921875,-2.520430088043213,-0.685390830039978,0.5302310585975647
1780525283707280400,7.9932802734375,-2.5363125801086426,-0.8100073337554932,0.4166100919246673
1780525283717412400,8.003412353515625,-2.5521950721740723,-0.8906415104866028,0.3213151097297668
1780525283727483100,8.013483154296875,-2.5192081928253174,-0.923628270626068,0.3445279896259308
1780525283737554000,8.023553955078125,-2.410474300384521,-0.923628270626068,0.4874704778194427
1780525283747624700,8.033624755859375,-2.1954495906829834,-0.9712757468223572,0.656069278717041
1780525283757695500,8.043695556640625,-1.9608774185180664,-1.0946705341339111,0.7525860071182251
1780525283767766300,8.053766357421875,-1.7861700057983398,-1.235169529914856,0.675616979598999
1780525283777867500,8.063867431640626,-1.6481144428253174,-1.3439035415649414,0.4789183437824249
1780525283787968800,8.07396875,-1.4929546117782593,-1.3573426008224487,0.2663372457027435
1780525283798070300,8.0840703125,-1.29381263256073,-1.2779301404953003,0.0195476878434419
1780525283808141000,8.09414111328125,-1.1484266519546509,-1.1533136367797852,-0.2076941877603531
1780525283818242300,8.1042421875,-1.0128145217895508,-1.009149432182312,-0.2748893499374389
1780525283828313000,8.11431298828125,-0.8210029006004333,-0.901637077331543,-0.1734857261180877
1780525283848454700,8.13445458984375,-0.2492330223321914,-0.8307767510414124,0.0537561401724815
1780525283868627000,8.154626953125,0.140499010682106,-0.6352998614311218,-0.0830776765942573
1780525283878728200,8.164728271484375,0.3591887652873993,-0.4984660446643829,-0.0635299831628799
1780525283888799000,8.174799072265625,0.5876523852348328,-0.3200933933258056,-0.1185078546404838
1780525283939183400,8.225183349609376,1.2950342893600464,0.485027015209198,-0.5119050741195679
1780525284019963400,8.30596337890625,2.1978931427001958,1.244943380355835,0.0537561401724815
1780525284100560400,8.386560302734376,2.356718063354492,1.2192870378494265,0.6976081132888794
1780525284201512400,8.487512451171876,1.3536773920059204,0.4532620012760162,0.6695083379745483
1780525284211614000,8.497614013671875,1.0616837739944458,0.1991420686244964,0.2956587672233581
1780525284221684700,8.507684814453125,0.8002334833145142,0.0916297882795333,0.0598647929728031
1780525284231786000,8.517785888671876,0.7513642311096191,0.0012217304902151,0.1514945775270462
1780525284241918000,8.52791796875,0.5424483418464661,-0.1392772793769836,0.0464257597923278
1780525284262059500,8.5480595703125,-0.1734857261180877,-0.475253164768219,-0.4715879559516907
1780525284272191200,8.558191162109376,-0.3200933933258056,-0.5534439086914062,-0.3982841372489929
1780525284282262000,8.568261962890626,-0.3457497358322143,-0.5094616413116455,-0.1832595765590667
1780525284292394000,8.57839404296875,-0.4642575979232788,-0.5143485069274902,-0.0781907513737678
1780525284322636800,8.60863671875,-1.1508700847625732,-1.2705997228622437,-1.1227703094482422
1780525284342808800,8.628808837890626,-1.273043155670166,-1.0323622226715088,-0.5668829679489136
1780525284362981000,8.648981201171875,-1.1020009517669678,-1.1948524713516235,0.2577851414680481
1780525284373052000,8.659052001953125,-1.1948524713516235,-1.3548991680145264,-0.0183259565383195
1780525284383153200,8.669153076171876,-1.3866641521453855,-1.5515977144241333,-0.6621779203414917
1780525284393224000,8.679223876953126,-1.6004669666290283,-1.653001308441162,-1.3939944505691528
1780525284403294700,8.689294677734376,-1.7238616943359375,-1.518610954284668,-1.645671010017395
1780525284423405800,8.70940576171875,-1.6126842498779297,-0.8833111524581909,-0.2883284091949463
1780525284433507000,8.719507080078126,-1.4953981637954712,-0.8197811841964722,0.4288274049758911
1780525284443608600,8.729608642578125,-1.4098769426345823,-0.9089674949645996,0.7367035150527954
1780525284463780600,8.749780517578126,-1.4049900770187378,-1.1753047704696655,0.2956587672233581
1780525284483952600,8.76995263671875,-1.480737328529358,-1.0751228332519531,-0.7220427393913269
1780525284494054100,8.78005419921875,-1.4343116283416748,-0.8674286603927612,-0.9004153609275818
1780525284504125000,8.790125,-1.3939944505691528,-0.7318165898323059,-0.7684684991836548
1780525284514226200,8.80022607421875,-1.2950342893600464,-0.6340781450271606,-0.4227187633514404
1780525284524327400,8.810327392578126,-1.2192870378494265,-0.5314527750015259,-0.0085521135479211
1780525284534398200,8.820398193359376,-1.0971139669418335,-0.4117231667041778,0.3579670190811157
1780525284544438500,8.8304384765625,-0.9566149711608888,-0.455705463886261,0.4948008358478546
1780525284554540000,8.8405400390625,-0.8674286603927612,-0.5864306092262268,0.3054326176643371
1780525284574681600,8.860681640625,-0.8356636762619019,-0.5155702829360962,-0.2858849465847015
1780525284584752400,8.87075244140625,-0.6352998614311218,-0.4288274049758911,-0.3200933933258056
1780525284594853600,8.880853515625,-0.455705463886261,-0.3970624208450317,-0.2919935882091522
1780525284604924400,8.89092431640625,-0.3176499307155609,-0.3066543638706207,-0.1759291887283325
1780525284615025700,8.901025634765626,-0.1722639948129654,-0.180816113948822,-0.0574213340878486
1780525284625096400,8.911096435546876,-0.0256563406437635,-0.1160643994808197,0.0244346093386411
1780525284635198000,8.921197998046875,0.0952949747443199,-0.107512280344963,-0.0183259565383195
1780525284645299200,8.93129931640625,0.197920337319374,-0.0733038261532783,-0.1356120854616165
1780525284655400400,8.941400390625,0.2919935882091522,0.0171042270958423,-0.2968805134296417
1780525284675603200,8.961603271484375,0.7232644557952881,0.2199114859104156,-0.2797762751579284
1780525284695775200,8.981775146484376,1.0971139669418335,0.4019493460655212,-0.3457497358322143
1780525284705846000,8.991845947265626,1.2131783962249756,0.4483750760555267,-0.5729916095733643
1780525284715947300,9.001947265625,1.2889256477355957,0.4703662395477295,-0.7635815739631653
1780525284736089000,9.022089111328125,1.567480206489563,0.685390830039978,-0.5839871764183044
1780525284746159900,9.032159912109377,1.745852828025818,0.7806857824325562,-0.2773328125476837
1780525284756261000,9.04226123046875,1.853365182876587,0.8503243923187256,-0.0207694191485643
1780525284796574700,9.08257470703125,1.9327776432037356,1.340238332748413,0.3005456924438476
1780525284836888600,9.122888671875,1.7104226350784302,1.5137240886688232,-0.0305432621389627
1780525284846929000,9.132928955078125,1.6016886234283447,1.4856243133544922,-0.1246165111660957
1780525284857030100,9.143030029296876,1.4831807613372805,1.4330898523330688,-0.0439822971820831
1780525284867101000,9.153100830078126,1.3573426008224487,1.4013248682022097,0.2003637999296188
1780525284877202200,9.1632021484375,1.2192870378494265,1.3756685256958008,0.4447098970413208
1780525284887303700,9.1733037109375,1.0555751323699951,1.3536773920059204,0.6059783101081848
1780525284897374500,9.18337451171875,0.9248499870300292,1.2767083644866943,0.685390830039978
1780525284917546500,9.20354638671875,0.4312708675861358,0.9138544201850892,0.2748893499374389
1780525284927617300,9.2136171875,0.0965167060494422,0.7562511563301086,0.1319468915462494
1780525284937749200,9.223749267578125,-0.0928515195846557,0.6597344875335693,0.2443460971117019
1780525284947820000,9.233820068359377,-0.2907718420028686,0.6059783101081848,0.50335294008255
1780525284957921300,9.24392138671875,-0.4984660446643829,0.5632177591323853,0.6475171446800232
1780525284968022500,9.2540224609375,-0.8283332586288452,0.2382374405860901,0.0745255574584007
1780525284978123800,9.264123779296876,-1.0531316995620728,-0.0708603709936142,-0.4471533596515655
1780525285008397300,9.294397216796876,-1.7922786474227903,-0.5021312236785889,-0.2101376503705978
1780525285058690300,9.344690185546876,-2.39214825630188,-1.0677924156188965,-0.5644394755363464
1780525285088994300,9.374994384765625,-2.75500226020813,-1.0739010572433472,-0.1588249653577804
1780525285099065000,9.385065185546877,-2.6951375007629395,-1.1166616678237915,0.1905899494886398
1780525285109166300,9.395166259765626,-2.6511552333831787,-1.253495454788208,0.3567453026771545
1780525285119206700,9.40520654296875,-2.6560420989990234,-1.4184291362762451,0.2993239760398865
1780525285189824300,9.47582421875,-2.188119411468506,-1.2034045457839966,0.8038986921310425
1780525285199895000,9.48589501953125,-1.986533761024475,-1.1594222784042358,0.7855727076530457
1780525285209996500,9.49599658203125,-1.7959438562393188,-1.0739010572433472,0.6010913848876953
1780525285220067300,9.5060673828125,-1.610240817070007,-0.9370672702789308,0.3921754956245422
1780525285230168600,9.51616845703125,-1.3634512424468994,-0.789237916469574,0.3494149148464203
1780525285240269800,9.526269775390626,-1.0482447147369385,-0.6475171446800232,0.4263839423656463
1780525285250340600,9.536340576171876,-0.7611380815505981,-0.5094616413116455,0.4508185386657715
1780525285260411400,9.546411376953126,-0.5338962078094482,-0.3640756905078888,0.3384193480014801
1780525285270482200,9.556482177734376,-0.3103195428848266,-0.2125810980796814,0.1991420686244964
1780525285280553200,9.56655322265625,-0.0684169083833694,-0.0537561401724815,0.0439822971820831
1780525285300725200,9.586725341796877,0.4471533596515655,0.2382374405860901,-0.0109955742955207
1780525285310796000,9.596796142578125,0.6963863968849182,0.3897320330142975,0.1038470938801765
1780525285320897300,9.606897216796876,0.9138544201850892,0.5265658497810364,0.2333505302667617
1780525285330968000,9.616968017578126,1.1142182350158691,0.6352998614311218,0.3090978264808655
1780525285341100000,9.62710009765625,1.2852604389190674,0.7073819637298584,0.3152064681053161
1780525285361272000,9.64727197265625,1.6212363243103027,0.8429940342903137,0.2590068578720093
1780525285371312400,9.6573125,1.7629570960998535,0.90408056974411,0.197920337319374
1780525285391454000,9.677453857421876,1.871691107749939,0.9834930300712584,-0.0305432621389627
1780525285441899500,9.7278994140625,2.381152629852295,1.156978726387024,0.2186897546052932
1780525285522679600,9.808679443359376,2.272418737411499,1.026253581047058,0.3555235862731933
1780525285532750300,9.818750244140626,2.1759018898010254,0.8845328688621521,0.1820378452539444
1780525285542821000,9.828821044921876,1.9926424026489256,0.8344419002532959,0.0879645943641662
1780525285633672000,9.919671875,0.7415903806686401,0.0525344125926494,-0.1123992055654525
1780525285653874700,9.939874755859377,0.1563815027475357,-0.2247984111309051,-0.2651155292987823
1780525285674046700,9.960046630859376,-0.2431243658065796,-0.4679227769374847,-0.3371976017951965
1780525285684148000,9.97014794921875,-0.2296853363513946,-0.351858377456665,0.1942551434040069
1780525285694249500,9.98024951171875,-0.2357939779758453,-0.2736676335334778,0.6340781450271606
1780525285704350700,9.990350830078125,-0.4288274049758911,-0.455705463886261,0.4361577928066253
1780525285714421500,10.00042138671875,-0.8185594081878662,-0.8197811841964722,-0.2822197377681732
1780525285724492300,10.0104921875,-1.147204875946045,-1.0739010572433472,-0.8087855577468872
1780525285774907400,10.060907470703125,-1.1252137422561646,-1.1362093687057495,0.3384193480014801
1780525285805211400,10.09121142578125,-1.576032280921936,-1.5442672967910769,-1.1679743528366089
1780525285865880300,10.15188037109375,-1.441641926765442,-1.442863702774048,-0.2113593816757202
1780525285906346500,10.192346435546876,-1.3646728992462158,-1.026253581047058,-0.6328563690185547
1780525285987279000,10.273279052734376,-0.7244861721992493,-0.3921754956245422,-0.4141666293144226
1780525286057927400,10.343927490234377,0.098960168659687,0.1600466966629028,-0.2064724564552307
1780525286078160600,10.36416064453125,0.5229006409645081,0.2797762751579284,-0.3469714522361755
1780525286088292400,10.374292236328126,0.7073819637298584,0.3860668241977691,-0.4923573732376098
1780525286098393600,10.3843935546875,0.8796459436416626,0.5192354321479797,-0.6059783101081848
1780525286108495000,10.3944951171875,1.003040790557861,0.5876523852348328,-0.7305948138237
1780525286118596400,10.404596435546877,1.0592403411865234,0.6059783101081848,-0.8527678847312927
1780525286128728000,10.41472802734375,1.1276572942733765,0.6377432942390442,-0.8552113175392151
1780525286138798800,10.424798828125,1.282817006111145,0.7257078886032104,-0.66584312915802
1780525286148930800,10.434930908203125,1.4831807613372805,0.807563841342926,-0.4239404797554016
1780525286159032000,10.445031982421876,1.6493362188339231,0.8307767510414124,-0.2981022298336029
1780525286169164000,10.4551640625,1.7556266784667969,0.8258898258209229,-0.3127630054950714
1780525286179234800,10.46523486328125,1.8313740491867063,0.8613200187683105,-0.3640756905078888
1780525286189366500,10.475366455078126,1.9071213006973269,0.9443976879119872,-0.3530801236629486
1780525286199467800,10.4854677734375,1.966986060142517,1.0128145217895508,-0.2846632003784179
1780525286209599700,10.495599853515625,2.009746551513672,1.056796908378601,-0.2052507251501083
1780525286219701000,10.505700927734376,2.0085248947143555,1.086118459701538,-0.1490511149168014
1780525286229833000,10.5158330078125,2.0024163722991943,1.119105100631714,-0.1246165111660957
1780525286239964700,10.525964599609376,1.833817481994629,1.1594222784042358,-0.0073303831741213
1780525286250066000,10.53606591796875,1.7373007535934448,1.1838568449020386,0.3005456924438476
1780525286260167400,10.54616748046875,1.674992561340332,1.197295904159546,0.7073819637298584
1780525286270299100,10.556299072265626,1.6090190410614014,1.1887437105178833,1.0128145217895508
1780525286280400400,10.566400390625,1.4892895221710205,1.1606439352035522,1.1215485334396362
1780525286290502000,10.576501953125,1.281595230102539,1.0299187898635864,0.9077457785606384
1780525286300603100,10.58660302734375,0.9346238374710084,0.8429940342903137,0.4007275998592376
1780525286310704400,10.596704345703126,0.636521577835083,0.7379252314567566,0.0024434609804302
1780525286320806000,10.606805908203125,0.4166100919246673,0.6939429044723511,-0.0305432621389627
1780525286329889300,10.61588916015625,0.0366519130766391,0.6230825781822205,0.2858849465847015
1780525286339990500,10.625990478515623,-0.1637118905782699,0.720820963382721,0.7757988572120667
1780525286350061300,10.636061279296875,-0.2919935882091522,0.8038986921310425,0.9615018963813782
1780525286360162800,10.646162841796874,-0.5461135506629944,0.6145304441452026,0.598647952079773
1780525286420770600,10.7067705078125,-2.059837579727173,-0.3567453026771545,0.5143485069274902
1780525286451105000,10.73710498046875,-2.420248031616211,-1.1435397863388062,-0.2919935882091522
1780525286491510300,10.77751025390625,-2.6450464725494385,-1.2388347387313845,0.485027015209198
1780525286542047500,10.828047607421874,-3.081204414367676,-1.5528194904327393,-0.2113593816757202
1780525286552179200,10.83817919921875,-3.0714304447174072,-1.408655285835266,0.0488692186772823
1780525286633020400,10.9190205078125,-1.441641926765442,-0.7770205736160278,0.3824016451835632
1780525286683588000,10.969588134765624,0.1246165111660957,-0.0940732508897781,0.1539380401372909
1780525286744318000,11.03031787109375,1.3927727937698364,0.6719517707824707,0.051312681287527
1780525286754419200,11.040419189453123,1.538158655166626,0.7538077235221863,0.0464257597923278
1780525286764520700,11.050520751953124,1.703092336654663,0.836885392665863,0.0733038261532783
1780525286774622000,11.0606220703125,1.9058995246887207,0.9297369122505188,0.0525344125926494
1780525286784753700,11.070753662109375,2.037846565246582,1.0067058801651,-0.0891863256692886
1780525286794885600,11.0808857421875,2.13314151763916,1.0616837739944458,-0.1966986060142517
1780525286804987000,11.09098681640625,2.235766887664795,1.1325441598892212,-0.2089159190654754
1780525286825159200,11.1111591796875,2.5192081928253174,1.264491081237793,0.251676470041275
1780525286835260400,11.121260498046874,2.5754079818725586,1.263269305229187,0.3029891550540924
1780525286845361700,11.131361572265623,2.6010642051696777,1.254717230796814,0.2797762751579284
1780525286855402000,11.141402099609374,2.5900685787200928,1.226617455482483,0.1930334120988845
1780525286875635200,11.16163525390625,2.5338690280914307,1.1142182350158691,0.1441642045974731
1780525286885767000,11.171766845703123,2.520430088043213,0.996932089328766,0.171042263507843
1780525286895837700,11.181837646484375,2.506990909576416,0.8943067193031311,0.0977384373545646
1780525286905969700,11.1919697265625,2.450791358947754,0.8063421249389648,-0.0427605658769607
1780525286916101400,11.202101318359375,2.364048480987549,0.8038986921310425,-0.090408056974411
1780525286926233300,11.2122333984375,2.2284364700317383,1.076344609260559,-0.3347541689872741
1780525286936304000,11.22230419921875,1.996307611465454,1.156978726387024,-1.2376129627227783
1780525286946435800,11.232435791015623,1.8545868396759035,1.0152580738067627,-1.4355332851409912
1780525286956537300,11.242537353515624,1.8692476749420168,0.846659243106842,-1.2327260971069336
1780525286966669000,11.2526689453125,1.8277088403701784,0.6670648455619812,-1.1117748022079468
1780525286976739800,11.26273974609375,1.576032280921936,0.5082398653030396,-1.1117748022079468
1780525286986871800,11.272871826171874,1.253495454788208,0.3469714522361755,-1.1105530261993408
1780525286997003500,11.28300341796875,1.0677924156188965,0.1551597714424133,-0.9028588533401488
1780525287007104800,11.293104736328123,1.0580185651779177,0.0415388382971286,-0.6157521605491638
1780525287017175600,11.303175537109375,1.0604621171951294,-0.0305432621389627,-0.5852088928222656
1780525287027307500,11.3133076171875,0.9663888216018676,-0.0769690200686454,-0.8906415104866028
1780525287037408800,11.32340869140625,0.769690215587616,-0.1527163088321685,-1.4062118530273438
1780525287047510000,11.333510009765623,0.4923573732376098,-0.3017674386501312,-1.958433985710144
1780525287077844500,11.363844482421875,-0.2467895597219467,-0.5827654600143433,-2.0757200717926025
1780525287138391600,11.4243916015625,-1.3585642576217651,-0.6096435189247131,0.8820894360542297
1780525287219049500,11.505049560546874,-1.568701982498169,-0.7819074988365173,0.1209513172507286
1780525287229150700,11.515150634765623,-1.626123309135437,-0.7904596328735352,0.3152064681053161
1780525287239221500,11.525221435546875,-1.683544635772705,-0.8442157506942749,0.6719517707824707
1780525287319849000,11.605848876953123,-1.3634512424468994,-0.7147123217582703,-0.5815436840057373
1780525287370203000,11.656202880859375,-1.1643091440200806,-0.4948008358478546,-0.167377084493637
1780525287380304400,11.666304443359374,-1.0677924156188965,-0.4471533596515655,-0.1368338167667389
1780525287450922000,11.736921875,0.0415388382971286,-0.0403171069920063,-0.685390830039978
1780525287460992800,11.74699267578125,0.2382374405860901,0.0195476878434419,-0.6927211880683899
1780525287481134300,11.76713427734375,0.6646214127540588,0.0916297882795333,-0.7354817390441895
1780525287491174700,11.777174560546875,0.8381071090698242,0.1295034289360046,-0.8246681094169617
1780525287501245400,11.787245361328123,1.009149432182312,0.1490511149168014,-0.8991936445236206
1780525287511346700,11.7973466796875,1.1801916360855105,0.1649336218833923,-0.912632703781128
1780525287521417700,11.807417724609374,1.340238332748413,0.1966986060142517,-0.8906415104866028
1780525287531519000,11.81751904296875,1.4978415966033936,0.2700024247169494,-0.8552113175392151
1780525287541589800,11.82758984375,1.6383405923843384,0.3591887652873993,-0.8222246170043945
1780525287551691000,11.83769091796875,1.7495180368423462,0.4495968222618103,-0.7574729323387146
1780525287561761800,11.84776171875,1.8765780925750728,0.5400048494338989,-0.6743952035903931
1780525287571893800,11.857893798828124,2.001194477081299,0.6255260109901428,-0.6304129362106323
1780525287612207400,11.898207275390623,2.085494041442871,0.6805039048194885,-0.6120869517326355
1780525287622278100,11.908278076171875,2.057394027709961,0.7354817390441895,-0.4874704778194427
1780525287642419700,11.928419677734375,1.881464958190918,0.7086036801338196,-0.4471533596515655
1780525287652490500,11.938490478515623,1.67254900932312,0.66584312915802,-0.3897320330142975
1780525287662592000,11.948592041015624,1.500285029411316,0.7061602473258972,-0.1563815027475357
1780525287672662800,11.958662841796874,1.2864822149276731,0.8735373020172119,0.0806342139840126
1780525287682733600,11.968733642578124,0.9932668805122375,1.313360333442688,0.2919935882091522
1780525287692774000,11.97877392578125,0.9065240025520324,1.379333734512329,0.3396410644054413
1780525287712946000,11.99894580078125,0.5424483418464661,1.1789699792861938,0.117286130785942
1780525287723047200,12.009047119140623,0.1368338167667389,1.016479730606079,0.0305432621389627
1780525287743158300,12.029158203125,-0.5546656250953674,0.9871582388877868,0.384845107793808
1780525287783502600,12.069502685546874,-1.4379768371582031,0.7916813492774963,1.1740829944610596
1780525287813715000,12.09971484375,-2.1697933673858643,0.5485569834709167,1.1301007270812988
1780525287884302000,12.170302001953123,-3.006678819656372,-0.6817256212234497,0.5778785347938538
1780525287924585200,12.210585205078123,-2.598620653152466,-1.4123204946517944,0.4398229718208313
1780525287934595000,12.220594970703123,-2.5314254760742188,-1.5418238639831543,0.2785545587539673
1780525287944696300,12.2306962890625,-2.3970351219177246,-1.547932505607605,0.1539380401372909
1780525287954767000,12.24076708984375,-2.184454202651977,-1.5112806558609009,0.1233947798609733
1780525287984949000,12.270948974609375,-1.359786033630371,-1.49906325340271,0.384845107793808
1780525287995050500,12.281050537109374,-1.076344609260559,-1.501506805419922,0.2602286040782928
1780525288005090800,12.2910908203125,-0.8881980776786804,-1.4856243133544922,0.0635299831628799
1780525288015161600,12.30116162109375,-0.6829473376274109,-1.4636331796646118,0.0366519130766391
1780525288025262800,12.311262939453124,-0.4239404797554016,-1.3145819902420044,0.1527163088321685
1780525288035394600,12.32139453125,-0.1527163088321685,-1.1313223838806152,0.2162462919950485
1780525288045435000,12.331434814453123,0.0794124826788902,-0.921184778213501,0.2626720666885376
1780525288055475200,12.34147509765625,0.2834414839744568,-0.7159340381622314,0.2638937830924988
1780525288085748700,12.371748779296874,0.8710938692092896,-0.171042263507843,0.1209513172507286
1780525288095789000,12.3817890625,1.0421360731124878,0.0171042270958423,0.1588249653577804
1780525288105920800,12.391920654296875,1.2009611129760742,0.2040289938449859,0.1991420686244964
1780525288146234400,12.432234375,1.6713273525238037,0.8637634515762329,-0.0427605658769607
1780525288166376200,12.452376220703124,1.89979088306427,1.1032226085662842,-0.1966986060142517
1780525288176477400,12.4624775390625,1.9889771938323972,1.1924089193344116,-0.1857030391693115
1780525288186548200,12.47254833984375,2.130697965621948,1.263269305229187,-0.1417207419872284
1780525288226861800,12.51286181640625,2.5021040439605717,1.4074335098266602,-0.0452040284872055
1780525288247034000,12.5330341796875,2.6108381748199463,1.4147639274597168,-0.0012217304902151
1780525288307520000,12.59352001953125,2.2565362453460693,0.5644394755363464,-1.1032226085662842
1780525288327661600,12.61366162109375,2.2883012294769287,0.3384193480014801,-0.2455678284168243
1780525288337793300,12.623793212890623,2.235766887664795,0.304210901260376,0.0452040284872055
1780525288347864000,12.633864013671875,2.091602563858032,0.2565633952617645,0.0708603709936142
1780525288357934800,12.643934814453123,1.948660135269165,0.2150245606899261,-0.0977384373545646
1780525288368036400,12.654036376953124,1.8069393634796145,0.1734857261180877,-0.3591887652873993
1780525288378076400,12.664076416015623,1.6383405923843384,0.1295034289360046,-0.5400048494338989
1780525288398279200,12.684279052734375,1.4037683010101318,0.0537561401724815,-0.4214970171451568
1780525288408350000,12.694349853515623,1.302364706993103,-0.0158824957907199,-0.2357939779758453
1780525288418420700,12.704420654296875,1.1166616678237915,-0.0781907513737678,-0.2406809031963348
1780525288428491500,12.714491455078123,0.8332201838493347,-0.1270599663257599,-0.4068362414836883
1780525288438562300,12.724562255859375,0.5815436840057373,-0.1466076523065567,-0.5143485069274902
1780525288448663800,12.734663818359374,0.3799581825733185,-0.1942551434040069,-0.4703662395477295
1780525288458765000,12.74476513671875,0.251676470041275,-0.2357939779758453,-0.2858849465847015
1780525288468866300,12.7548662109375,-0.261450320482254,-0.3384193480014801,-0.6340781450271606
1780525288478967600,12.764967529296875,-0.6866125464439392,-0.3933972120285034,-1.0531316995620728
1780525288489069000,12.775069091796874,-1.037249207496643,-0.4288274049758911,-1.2852604389190674
1780525288499170300,12.78517041015625,-1.227839112281799,-0.4166100919246673,-1.224173903465271
1780525288519342300,12.80534228515625,-1.4978415966033936,-0.4300491213798523,-0.8613200187683105
1780525288529413000,12.8154130859375,-1.5943583250045776,-0.4948008358478546,-0.7428121566772461
1780525288539453400,12.825453369140623,-1.6664403676986694,-0.5754350423812866,-0.6597344875335693
1780525288549554700,12.8355546875,-1.7800613641738892,-0.6230825781822205,-0.7024950385093689
1780525288559625700,12.845625732421874,-1.946216702461243,-0.6194173693656921,-0.8038986921310425
1780525288569696500,12.855696533203124,-2.0928242206573486,-0.5448917746543884,-0.8735373020172119
1780525288579736600,12.865736572265623,-2.1930062770843506,-0.4508185386657715,-0.8100073337554932
1780525288589868500,12.87586865234375,-2.207667112350464,-0.3274237811565399,-0.6243042945861816
1780525288599939300,12.885939208984375,-2.2003366947174072,-0.2590068578720093,-0.4679227769374847
1780525288610010000,12.896010009765623,-2.183232307434082,-0.2431243658065796,-0.3323107063770294
1780525288620081000,12.906080810546875,-2.160019397735596,-0.2382374405860901,-0.2076941877603531
1780525288670404400,12.956404296875,-1.8374826908111568,-0.5583308339118958,0.8625417351722717
1780525288740900000,13.026900146484374,-1.247386813163757,-0.2602286040782928,0.8002334833145142
1780525288750971000,13.036970947265624,-1.281595230102539,-0.2638937830924988,0.6792821288108826
1780525288761102600,13.0471025390625,-1.076344609260559,-0.2907718420028686,0.7134906053543091
1780525288771173400,13.05717333984375,-0.8356636762619019,-0.3494149148464203,0.618195652961731
1780525288781244200,13.067244140625,-0.740368664264679,-0.361632227897644,0.4410447180271148
1780525288791315000,13.07731494140625,-0.6902777552604675,-0.3164281845092773,0.230907067656517
1780525288801416400,13.08741650390625,-0.5815436840057373,-0.2651155292987823,0.0109955742955207
1780525288811487200,13.0974873046875,-0.3995058834552765,-0.2528982162475586,-0.1233947798609733
1780525288821588500,13.10758837890625,-0.2052507251501083,-0.2834414839744568,-0.2186897546052932
1780525288831689700,13.117689697265623,-0.0659734457731247,-0.3359758853912353,-0.3897320330142975
1780525288861993700,13.14799365234375,0.432492583990097,-0.4398229718208313,-0.7745771408081055
1780525288872095000,13.158094970703123,0.5937610268592834,-0.4508185386657715,-0.817337691783905
1780525288882166000,13.168166015625,0.8124507665634155,-0.4642575979232788,-0.7709119319915771
1780525288902368500,13.188368408203123,1.2327260971069336,-0.5192354321479797,-0.7648032903671265
1780525288922510000,13.208510009765623,1.4599679708480835,-0.2883284091949463,-0.8307767510414124
1780525288932642000,13.21864208984375,1.610240817070007,-0.2052507251501083,-0.750142514705658
1780525288942743300,13.228743408203124,1.7727309465408323,-0.2431243658065796,-0.66584312915802
1780525288952814000,13.23881396484375,1.880243182182312,-0.3188716471195221,-0.6585127115249634
1780525288962915300,13.248915283203123,1.927890658378601,-0.3445279896259308,-0.7012733221054077
1780525288973016800,13.259016845703124,1.966986060142517,-0.3200933933258056,-0.6792821288108826
1780525289043604000,13.32960400390625,1.852143406867981,0.7782423496246338,0.2028072625398636
1780525289063806500,13.349806396484375,1.6859880685806274,0.8148942589759827,0.1514945775270462
1780525289073907700,13.35990771484375,1.3976596593856812,0.6438519954681396,-0.1209513172507286
1780525289084009200,13.37000927734375,1.076344609260559,0.504574716091156,-0.180816113948822
1780525289094049500,13.380049560546874,0.797789990901947,0.5900958180427551,0.1771509200334549
1780525289104150800,13.39015087890625,0.5375614166259766,0.9663888216018676,0.7012733221054077
1780525289114282500,13.400282470703123,0.3860668241977691,1.6383405923843384,1.4501941204071045
1780525289124384000,13.410384033203124,0.3054326176643371,1.470963478088379,1.225395679473877
1780525289134454800,13.420454833984374,-0.0097738439217209,1.0433578491210938,0.5607742667198181
1780525289144586500,13.43058642578125,-0.4776966273784637,0.6841690540313721,0.0488692186772823
1780525289164758800,13.4507587890625,-1.1117748022079468,0.8087855577468872,0.2064724564552307
1780525289174829600,13.46082958984375,-1.2693779468536377,1.0201449394226074,0.5192354321479797
1780525289184930800,13.470930908203124,-1.4538593292236328,1.0128145217895508,0.7305948138237
1780525289195032000,13.481031982421875,-1.6774359941482544,0.7623597979545593,0.7806857824325562
1780525289215265300,13.501265380859374,-2.174680233001709,0.2797762751579284,0.5827654600143433
1780525289225366500,13.511366455078123,-2.450791358947754,0.2333505302667617,0.442266434431076
1780525289235498500,13.52149853515625,-2.696359157562256,0.2724458873271942,0.3995058834552765
1780525289245630200,13.531630126953123,-2.808758497238159,0.2504547536373138,0.4227187633514404
1780525289316370000,13.602369873046875,-3.1190779209136963,-0.6010913848876953,0.4581489264965057
1780525289326502000,13.612501953125,-2.888170957565308,-0.7550294399261475,0.6731734871864319
1780525289336603100,13.62260302734375,-2.698802709579468,-0.9908234477043152,0.7354817390441895
1780525289346735000,13.632735107421874,-2.5619688034057617,-1.1618657112121582,0.6914994716644287
1780525289356836400,13.64283642578125,-2.464230298995972,-1.1814134120941162,0.5607742667198181
1780525289366968000,13.652968017578123,-2.320066213607788,-1.065348982810974,0.4679227769374847
1780525289377069600,13.663069580078124,-2.0952677726745605,-0.978606104850769,0.4923573732376098
1780525289397272000,13.68327197265625,-1.4147639274597168,-0.9517280459403992,0.5644394755363464
1780525289407404000,13.693404052734374,-1.0836749076843262,-0.9248499870300292,0.4581489264965057
1780525289417535700,13.70353564453125,-0.807563841342926,-0.8735373020172119,0.2895501255989074
1780525289427637000,13.713636962890623,-0.5815436840057373,-0.817337691783905,0.0965167060494422
1780525289437738500,13.723738525390624,-0.3274237811565399,-0.7305948138237,0.0134390350431203
1780525289447839700,13.73383984375,-0.0256563406437635,-0.6218608021736145,0.0549778714776039
1780525289457941000,13.74394091796875,0.3103195428848266,-0.4911356568336487,0.1429424732923507
1780525289468042200,13.754042236328123,0.5717698931694031,-0.3481931984424591,0.1136209368705749
1780525289478143700,13.764143798828124,0.7782423496246338,-0.1966986060142517,0.0280998013913631
1780525289488245000,13.774244873046875,0.9663888216018676,-0.0476474873721599,-0.0855211317539215
1780525289498346200,13.78434619140625,1.1740829944610596,0.0720821022987365,-0.1417207419872284
1780525289508447700,13.79444775390625,1.3903292417526243,0.1734857261180877,-0.1050688251852989
1780525289518579500,13.804579345703123,1.563814997673035,0.2932153046131134,-0.0427605658769607
1780525289528619800,13.814619873046874,1.7177530527114868,0.4263839423656463,0.067195177078247
1780525289538751500,13.82475146484375,1.890017032623291,0.5461135506629944,0.1392772793769836
1780525289558954200,13.844954345703124,2.0561723709106445,0.7635815739631653,-0.1368338167667389
1780525289569116700,13.85511669921875,2.166128158569336,0.8600982427597046,-0.2357939779758453
1780525289579218000,13.865218017578124,2.3017401695251465,0.9712757468223572,-0.2443460971117019
1780525289589319200,13.875319091796875,2.39214825630188,1.0812314748764038,-0.2064724564552307
1780525289599420400,13.88542041015625,2.4825563430786133,1.1508700847625732,-0.1466076523065567
1780525289609522000,13.89552197265625,2.579072952270508,1.177748203277588,-0.0464257597923278
1780525289660028400,13.9460283203125,2.911383867263794,1.0910053253173828,-0.0305432621389627
1780525289720514300,14.006514404296874,3.0250046253204346,0.6633996367454529,0.7147123217582703
1780525289760828000,14.046827880859375,2.455678224563598,0.8600982427597046,1.2767083644866943
1780525289811212500,14.097212646484374,1.3781119585037231,0.0537561401724815,0.8515461683273315
1780525289891931400,14.177931396484375,-1.0555751323699951,-0.6976081132888794,-0.4642575979232788
1780525289942407700,14.22840771484375,-1.9315558671951292,-0.7330383062362671,-0.4434881806373596
1780525289952509000,14.238509033203124,-1.9804251194000244,-0.788016140460968,-0.4459316432476043
1780525289962579700,14.248579833984374,-2.026850938796997,-0.8820894360542297,-0.6194173693656921
1780525289972620000,14.2586201171875,-2.123367547988892,-0.977384388446808,-0.9676105380058287
1780525289982721300,14.26872119140625,-2.2516493797302246,-0.9724974632263184,-1.2095131874084473
1780525289992792000,14.2787919921875,-2.3078489303588867,-0.8637634515762329,-1.2877039909362793
1780525290002893300,14.288893310546875,-2.27852725982666,-0.6817256212234497,-1.1911872625350952
1780525290012933600,14.29893359375,-2.2003366947174072,-0.4838052690029144,-0.95783668756485
1780525290023004400,14.30900439453125,-2.102598190307617,-0.3457497358322143,-0.6548475623130798
1780525290033106000,14.31910595703125,-1.9792033433914185,-0.3127630054950714,-0.3701843321323395
1780525290043207200,14.329207275390624,-1.8460347652435305,-0.3787364661693573,-0.1466076523065567
1780525290053247500,14.33924755859375,-1.7531832456588743,-0.4227187633514404,-0.0488692186772823
1780525290063348700,14.3493486328125,-1.7360789775848389,-0.3775147199630737,-0.117286130785942
1780525290073450000,14.359449951171875,-1.7067575454711914,-0.2675589919090271,-0.2406809031963348
1780525290083520800,14.369520751953123,-1.615127682685852,-0.197920337319374,-0.3726277947425842
1780525290113763800,14.399763916015624,-1.4550809860229492,-0.0794124826788902,-0.4483750760555267
1780525290184259300,14.47025927734375,-0.788016140460968,-0.2431243658065796,-0.3359758853912353
1780525290254755000,14.540755126953124,0.2541199326515198,-0.5913175344467163,-0.2015855312347412
1780525290305261600,14.591261474609375,0.921184778213501,-0.6511823534965515,-0.9932668805122375
1780525290355615500,14.641615478515623,1.5515977144241333,-0.7342600226402283,-0.5216789245605469
1780525290365717000,14.651717041015624,1.5821410417556765,-0.6414085030555725,-0.5375614166259766
1780525290375787800,14.661787841796874,1.645671010017395,-0.504574716091156,-0.4923573732376098
1780525290395929300,14.681929443359374,1.7788395881652832,-0.3115412890911102,-0.3066543638706207
1780525290406000000,14.692000244140624,1.7996090650558472,-0.1795943826436996,-0.2981022298336029
1780525290416040400,14.70204052734375,1.7788395881652832,-0.0134390350431203,-0.3628539443016052
1780525290486597000,14.77259716796875,1.007927656173706,0.9566149711608888,0.7183775305747986
1780525290516840000,14.80283984375,0.4166100919246673,0.740368664264679,0.2431243658065796
1780525290547083000,14.8330830078125,-0.4227187633514404,0.836885392665863,0.2052507251501083
1780525290557153800,14.84315380859375,-0.6279694437980652,0.9932668805122375,0.4447098970413208
1780525290567224600,14.853224609375,-0.8662069439888,1.045801281929016,0.6731734871864319
1780525290577295400,14.86329541015625,-1.0910053253173828,0.9896016716957092,0.6927211880683899
1780525290587335700,14.873335693359374,-1.33168625831604,0.8344419002532959,0.5167919993400574
1780525290597437000,14.88343701171875,-1.6383405923843384,0.6817256212234497,0.3506366610527038
1780525290607507700,14.8935078125,-1.927890658378601,0.6572909951210022,0.3970624208450317
1780525290617578500,14.90357861328125,-2.106263399124145,0.7122688889503479,0.5632177591323853
1780525290627649300,14.913649169921875,-2.2479841709136963,0.6890559792518616,0.6841690540313721
1780525290637720000,14.923719970703123,-2.395813465118408,0.5106833577156067,0.6817256212234497
1780525290647790800,14.933790771484375,-2.544864654541016,0.2247984111309051,0.7269296646118164
1780525290657861600,14.943861572265623,-2.7036895751953125,0.0073303831741213,0.7733554244041443
1780525290677972700,14.96397265625,-3.0860912799835205,-0.2284636050462722,0.432492583990097
1780525290688074000,14.974073974609375,-3.0616567134857178,-0.2394591718912124,0.3604104816913605
1780525290698144800,14.984144775390623,-2.956587791442871,-0.3433062732219696,0.3591887652873993
1780525290708215800,14.9942158203125,-2.858849287033081,-0.5827654600143433,0.3543018400669098
1780525290718286600,15.00428662109375,-2.809980154037476,-0.8161159753799438,0.3335324227809906
1780525290728357400,15.014357421875,-2.763554334640503,-0.9053022861480712,0.2651155292987823
1780525290738458600,15.024458740234374,-2.704911231994629,-0.8503243923187256,0.171042263507843
1780525290748529400,15.034529296875,-2.543642997741699,-0.836885392665863,0.2602286040782928
1780525290758661400,15.044661376953124,-2.2650883197784424,-0.901637077331543,0.3933972120285034
1780525290768732200,15.054732177734374,-1.973094701766968,-1.0103710889816284,0.475253164768219
1780525290778803000,15.064802978515624,-1.645671010017395,-1.1117748022079468,0.5009095072746277
1780525290788904200,15.074904296875,-1.3671164512634275,-1.166752576828003,0.361632227897644
1780525290798975000,15.08497509765625,-1.1948524713516235,-1.1325441598892212,0.1111774742603302
1780525290809045800,15.095045654296875,-1.007927656173706,-1.026253581047058,-0.0366519130766391
1780525290839288600,15.12528857421875,-0.0280998013913631,-0.797789990901947,0.3543018400669098
1780525290849359600,15.135359619140624,0.157603234052658,-0.6902777552604675,0.3176499307155609
1780525290869501200,15.155501220703124,0.4715879559516907,-0.4703662395477295,0.0598647929728031
1780525290879572000,15.165572021484374,0.7024950385093689,-0.3726277947425842,0.0158824957907199
1780525290919855000,15.205855224609374,1.447750687599182,0.1343903541564941,0.171042263507843
1780525290929926000,15.21592578125,1.540602207183838,0.2492330223321914,0.0610865242779254
1780525290939996700,15.22599658203125,1.6688838005065918,0.3274237811565399,0.0085521135479211
1780525290950067500,15.2360673828125,1.8570303916931152,0.394618958234787,0.0415388382971286
1780525290960138200,15.24613818359375,2.0561723709106445,0.4801400899887085,0.0048869219608604
1780525290970239700,15.25623974609375,2.1697933673858643,0.5717698931694031,-0.1148426681756973
1780525290990442200,15.276442138671875,2.328618288040161,0.7916813492774963,-0.3530801236629486
1780525291000513000,15.286512939453123,2.4055874347686768,0.9028588533401488,-0.3371976017951965
1780525291010614300,15.2966142578125,2.535090684890747,0.988379955291748,-0.1160643994808197
1780525291020654600,15.306654541015623,2.719572067260742,1.047023057937622,0.2101376503705978
1780525291030756000,15.316756103515624,2.861292839050293,1.0726794004440308,0.5119050741195679
1780525291040827000,15.326826904296874,2.92848801612854,1.0897835493087769,0.6866125464439392
1780525291050897700,15.336897705078124,2.9321532249450684,1.0958921909332275,0.7330383062362671
1780525291060968400,15.346968505859374,2.9162707328796387,1.1032226085662842,0.6963863968849182
1780525291071069700,15.357069580078123,2.9040534496307373,1.0739010572433472,0.6255260109901428
1780525291091241700,15.37724169921875,2.9663615226745605,0.8662069439888,0.5082398653030396
1780525291151727600,15.4377275390625,2.594955444335937,1.1630873680114746,1.187522053718567
1780525291161768000,15.447767822265623,2.504547595977783,0.9761626720428468,1.3732250928878784
1780525291222223400,15.508223388671874,1.3561208248138428,0.1160643994808197,0.3836233615875244
1780525291232324600,15.51832470703125,1.1899654865264893,0.0745255574584007,0.3897320330142975
1780525291242395400,15.5283955078125,0.8991936445236206,-0.0806342139840126,0.3310889601707458
1780525291252435700,15.538435791015624,0.5681046843528748,-0.2797762751579284,0.2932153046131134
1780525291262537000,15.548536865234375,0.2956587672233581,-0.4288274049758911,0.2480112910270691
1780525291272607700,15.558607666015623,0.0720821022987365,-0.4471533596515655,0.2064724564552307
1780525291282709000,15.568708984375,-0.2003637999296188,-0.432492583990097,0.0048869219608604
1780525291292749300,15.578749267578123,-0.5644394755363464,-0.5009095072746277,-0.3738495409488678
1780525291312952000,15.5989521484375,-1.2620476484298706,-0.7916813492774963,-1.156978726387024
1780525291323053300,15.60905322265625,-1.5027284622192385,-0.797789990901947,-1.320690631866455
1780525291333093600,15.61909375,-1.7140878438949585,-0.750142514705658,-1.3854423761367798
1780525291343195000,15.62919482421875,-1.9083430767059328,-0.7024950385093689,-1.3170254230499268
1780525291353265700,15.639265625,-2.04517674446106,-0.7147123217582703,-1.1814134120941162
1780525291363367200,15.6493671875,-2.1038198471069336,-0.7538077235221863,-1.0201449394226074
1780525291373438000,15.65943798828125,-2.183232307434082,-0.769690215587616,-1.0067058801651
1780525291383539200,15.669539306640624,-2.3493876457214355,-0.6866125464439392,-1.080009698867798
1780525291393640400,15.679640380859375,-2.478891134262085,-0.5204572081565857,-1.2229522466659546
1780525291403711200,15.689711181640623,-2.460565090179444,-0.251676470041275,-1.236391305923462
1780525291433923600,15.719923583984375,-1.8313740491867063,-0.2565633952617645,0.1111774742603302
1780525291444055600,15.7300556640625,-1.7275269031524658,-0.2981022298336029,0.2199114859104156
1780525291454126300,15.740126220703123,-1.6786576509475708,-0.2186897546052932,0.1392772793769836
1780525291464197000,15.750197021484375,-1.626123309135437,-0.0708603709936142,0.0073303831741213
1780525291474329000,15.7603291015625,-1.55892813205719,0.0488692186772823,-0.1038470938801765
1780525291494501000,15.780501220703124,-1.398881435394287,-0.0134390350431203,-0.107512280344963
1780525291534876000,15.8208759765625,-1.1459832191467283,-0.1783726513385772,0.2541199326515198
1780525291555078400,15.841078369140623,-1.0543533563613892,-0.2565633952617645,0.2321287989616394
1780525291565180000,15.851179931640624,-0.9822713136672974,-0.2968805134296417,0.1857030391693115
1780525291575281200,15.86128125,-0.8967501521110535,-0.3530801236629486,0.0940732508897781
1780525291585382400,15.87138232421875,-0.8161159753799438,-0.394618958234787,-0.0122173046693205
1780525291615686400,15.901686279296875,-0.361632227897644,-0.4984660446643829,0.0354301854968071
1780525291686395600,15.972395751953124,0.7806857824325562,-0.6401867866516113,-0.817337691783905
1780525291716730000,16.002730224609376,1.215621829032898,-0.7672467231750488,-0.9077457785606384
1780525291736932900,16.022932861328126,1.4892895221710205,-0.5998696684837341,-0.836885392665863
1780525291777399000,16.06339892578125,1.852143406867981,-0.3469714522361755,-0.4031710624694824
1780525291817834800,16.103834716796875,1.853365182876587,0.1661553531885147,-0.1698205322027206
1780525291827936300,16.113936279296876,1.7861700057983398,0.2858849465847015,-0.1930334120988845
1780525291838037500,16.12403759765625,1.674992561340332,0.3909537494182586,-0.2394591718912124
1780525291848138800,16.134138671875,1.5271631479263306,0.4776966273784637,-0.2968805134296417
1780525291868402400,16.15440234375,1.244943380355835,0.7342600226402283,-0.0256563406437635
1780525291878503700,16.164503662109375,1.1081095933914185,1.0286970138549805,0.2260201424360275
1780525291888605200,16.174605224609376,1.0140362977981567,1.3145819902420044,0.4715879559516907
1780525291898706400,16.18470654296875,0.9297369122505188,1.4379768371582031,0.6524040699005127
1780525291908807700,16.1948076171875,0.7721336483955383,1.359786033630371,0.6035348773002625
1780525291918939600,16.204939697265626,0.4789183437824249,1.1704177856445312,0.4043927788734436
1780525291929041000,16.215041015625,0.1502728462219238,1.0616837739944458,0.2638937830924988
1780525291939142100,16.22514208984375,-0.1221730485558509,1.0934487581253052,0.2492330223321914
1780525291949243600,16.23524365234375,-0.3396410644054413,1.1789699792861938,0.3469714522361755
1780525291979578000,16.265578125,-1.065348982810974,1.1484266519546509,0.618195652961731
1780525291989679400,16.275679443359376,-1.6774359941482544,0.9957103729248048,0.4996877610683441
1780525291999780600,16.285780517578125,-2.007303237915039,1.009149432182312,0.5497786998748779
1780525292009912600,16.29591259765625,-2.283414363861084,1.0592403411865234,0.7061602473258972
1780525292040247000,16.3262470703125,-2.878396987915039,0.5717698931694031,1.1508700847625732
1780525292050348300,16.336348388671876,-3.0616567134857178,0.2907718420028686,1.235169529914856
1780525292060449500,16.346449462890625,-3.238807439804077,0.0561996027827262,1.1924089193344116
1780525292090814500,16.376814453125,-3.72383451461792,-0.4801400899887085,0.8881980776786804
1780525292100916000,16.386916015625,-3.684739112854004,-0.6719517707824707,0.685390830039978
1780525292161554400,16.447554443359376,-2.660928964614868,-1.6713273525238037,1.0225883722305298
1780525292171655700,16.45765576171875,-2.3017401695251465,-1.7605136632919312,0.9089674949645996
1780525292181787400,16.467787353515625,-1.9144517183303835,-1.8362609148025515,0.6695083379745483
1780525292191889000,16.477888916015626,-1.5528194904327393,-1.8851301670074463,0.3469714522361755
1780525292202020600,16.4880205078125,-1.216843605041504,-1.9083430767059328,0.0561996027827262
1780525292212091400,16.49809130859375,-0.8503243923187256,-1.871691107749939,-0.1343903541564941
1780525292222223400,16.508223388671876,-0.4532620012760162,-1.80816113948822,-0.1832595765590667
1780525292232324600,16.51832470703125,-0.0733038261532783,-1.7140878438949585,-0.1588249653577804
1780525292242456300,16.528456298828125,0.2284636050462722,-1.598023533821106,-0.1551597714424133
1780525292252527000,16.538527099609375,0.4996877610683441,-1.4391984939575195,-0.1588249653577804
1780525292262628600,16.548628662109376,0.740368664264679,-1.2510520219802856,-0.1942551434040069
1780525292272760300,16.55876025390625,0.9615018963813782,-1.0409144163131714,-0.2284636050462722
1780525292282861600,16.568861572265625,1.1484266519546509,-0.807563841342926,-0.2736676335334778
1780525292303094800,16.5890947265625,1.510058879852295,-0.2761110961437225,-0.0268780700862407
1780525292313226800,16.599226806640626,1.6884315013885498,-0.0280998013913631,0.1185078546404838
1780525292323328000,16.609327880859375,1.8106045722961424,0.2028072625398636,0.1734857261180877
1780525292333429200,16.61942919921875,1.9034560918807983,0.4227187633514404,0.1661553531885147
1780525292343530800,16.62953076171875,1.977981686592102,0.6438519954681396,0.1551597714424133
1780525292363763700,16.649763671875,2.1514673233032227,1.009149432182312,0.0928515195846557
1780525292414270500,16.7002705078125,2.461786985397339,1.6566665172576904,0.2223549485206604
1780525292454645200,16.740645263671876,2.6816983222961426,1.7690657377243042,0.6768386960029602
1780525292545312800,16.831312744140625,2.7513370513916016,1.4868459701538086,0.7721336483955383
1780525292585687600,16.8716875,2.1392500400543213,0.0867428630590438,0.8527678847312927
1780525292595758300,16.88175830078125,1.8179349899291992,-0.0207694191485643,0.4532620012760162
1780525292605859800,16.89185986328125,1.5039502382278442,0.0097738439217209,0.0623082555830478
1780525292626001400,16.91200146484375,1.06657075881958,0.0097738439217209,-0.5436700582504272
1780525292676355300,16.962355224609375,-0.3396410644054413,-0.618195652961731,-1.027475357055664
1780525292686456600,16.97245654296875,-0.7000515460968018,-0.7330383062362671,-1.2229522466659546
1780525292706628900,16.99262890625,-1.3622294664382937,-0.8185594081878662,-1.441641926765442
1780525292726740000,17.012739990234376,-1.6126842498779297,-0.5400048494338989,-0.9260717034339904
1780525292767084000,17.053083984375,-1.9743164777755735,-0.7415903806686401,-0.618195652961731
1780525292827570000,17.11356982421875,-1.557706356048584,-0.2443460971117019,0.5180137157440186
1780525292837640700,17.123640625,-1.518610954284668,-0.3029891550540924,0.5583308339118958
1780525292847711500,17.13371142578125,-1.480737328529358,-0.2431243658065796,0.4740314185619354
1780525292857782300,17.1437822265625,-1.4526375532150269,-0.117286130785942,0.2492330223321914
1780525292898065700,17.184065673828126,-1.2864822149276731,-0.1600466966629028,0.261450320482254
1780525292908136400,17.194136474609376,-1.2583824396133425,-0.1991420686244964,0.3970624208450317
1780525292918207200,17.204207275390626,-1.1716395616531372,-0.2626720666885376,0.5290092825889587
1780525292938379300,17.224379150390625,-1.10444438457489,-0.3494149148464203,0.3640756905078888
1780525292948450000,17.234449951171875,-1.0897835493087769,-0.3384193480014801,0.197920337319374
1780525292958520800,17.244520751953125,-1.016479730606079,-0.3323107063770294,0.0684169083833694
1780525293029230000,17.31522998046875,-0.0366519130766391,-0.6499606370925903,0.1319468915462494
1780525293099847700,17.38584765625,1.224173903465271,-0.513126790523529,-0.9089674949645996
1780525293170343400,17.456343505859376,1.8875735998153689,0.1368338167667389,-0.607200026512146
1780525293210596000,17.49659619140625,1.7690657377243042,0.720820963382721,-0.0537561401724815
1780525293301202700,17.58720263671875,0.452040284872055,1.5894713401794434,0.675616979598999
1780525293341516500,17.6275166015625,-0.5510004758834839,1.0971139669418335,-0.180816113948822
1780525293351617800,17.63761767578125,-0.901637077331543,1.0824532508850098,-0.2858849465847015
1780525293361688600,17.6476884765625,-1.1154398918151855,1.205847978591919,-0.0488692186772823
1780525293371759400,17.65775927734375,-1.312138557434082,1.3096951246261597,0.2858849465847015
1780525293381860600,17.667860595703125,-1.5650367736816406,1.3096951246261597,0.5448917746543884
1780525293391931400,17.677931396484375,-1.843591332435608,1.1911872625350952,0.7367035150527954
1780525293402002400,17.68800244140625,-2.072054862976074,1.0128145217895508,0.7770205736160278
1780525293412073200,17.6980732421875,-2.2626447677612305,0.8381071090698242,0.836885392665863
1780525293422174500,17.708174560546876,-2.4801127910614014,0.7391469478607178,0.9272934198379515
1780525293432275700,17.718275634765625,-2.722015619277954,0.7024950385093689,1.0922271013259888
1780525293442377000,17.728376953125,-2.897944688796997,0.6377432942390442,1.282817006111145
1780525293452417300,17.738417236328125,-3.001791715621948,0.4569272100925445,1.4758504629135132
1780525293462518800,17.748518798828126,-3.087312936782837,0.1771509200334549,1.5528194904327393
1780525293472589600,17.758589599609376,-3.182607889175415,-0.1392772793769836,1.4575244188308716
1780525293482690800,17.76869091796875,-3.306002616882324,-0.4239404797554016,1.284038782119751
1780525293502802000,17.788802001953126,-3.484375476837158,-0.8234463334083557,0.7611380815505981
1780525293522974000,17.808973876953125,-3.2168164253234863,-1.080009698867798,0.4129449129104614
1780525293533075200,17.8190751953125,-2.995683193206787,-1.3158037662506104,0.3665191531181335
1780525293553186300,17.839186279296875,-2.7757716178894043,-1.8154915571212769,0.2956587672233581
1780525293563287800,17.849287841796876,-2.6279423236846924,-1.9425514936447144,0.3579670190811157
1780525293573389000,17.85938916015625,-2.426356792449951,-2.026850938796997,0.4703662395477295
1780525293593561000,17.87956103515625,-1.7385225296020508,-2.141693592071533,0.513126790523529
1780525293603631900,17.8896318359375,-1.084896683692932,-2.1759018898010254,0.051312681287527
1780525293613702700,17.89970263671875,-0.789237916469574,-2.1514673233032227,-0.1343903541564941
1780525293623804200,17.90980419921875,-0.504574716091156,-2.063502788543701,-0.2370157092809677
1780525293643945700,17.92994580078125,0.0891863256692886,-1.7605136632919312,-0.0232128798961639
1780525293654016500,17.9400166015625,0.3897320330142975,-1.5552629232406616,0.0928515195846557
1780525293674219000,17.960218994140625,0.8674286603927612,-1.0885618925094604,0.1759291887283325
1780525293684320500,17.970320556640626,1.0555751323699951,-0.8332201838493347,0.1502728462219238
1780525293694421800,17.980421875,1.2095131874084473,-0.5583308339118958,0.1038470938801765
1780525293704462000,17.990462158203126,1.350012183189392,-0.2761110961437225,0.1136209368705749
1780525293714563300,18.000563232421875,1.52105450630188,0.0061086523346602,0.167377084493637
1780525293724634000,18.010634033203125,1.6798794269561768,0.2748893499374389,0.2003637999296188
1780525293734705000,18.02070483398437,1.7873916625976562,0.5241223573684692,0.167377084493637
1780525293744775700,18.030775634765625,1.881464958190918,0.7525860071182251,0.0842994004487991
1780525293754846500,18.040846435546875,1.9437731504440308,0.950506329536438,-0.0122173046693205
1780525293774957600,18.06095751953125,2.1368067264556885,1.2596040964126587,-0.0171042270958423
1780525293785028400,18.0710283203125,2.1820106506347656,1.4074335098266602,-0.0403171069920063
1780525293795099100,18.08109912109375,2.263866662979126,1.501506805419922,0.0073303831741213
1780525293805200600,18.09120068359375,2.388483047485352,1.5919147729873655,0.0733038261532783
1780525293885797400,18.17179736328125,2.7452285289764404,1.3158037662506104,0.5913175344467163
1780525293966333400,18.25233349609375,2.0390682220458984,0.5754350423812866,1.3060299158096311
1780525293996545800,18.2825458984375,1.2657127380371094,-0.1246165111660957,0.2919935882091522
1780525294016687400,18.30268725585937,0.8552113175392151,-0.1246165111660957,0.2076941877603531
1780525294087244000,18.373244140625,-0.7965682744979858,-0.7379252314567566,-0.788016140460968
1780525294157800700,18.44380078125,-1.616349458694458,-0.90408056974411,0.1563815027475357
1780525294167871500,18.45387158203125,-1.7189748287200928,-0.9065240025520324,-0.0488692186772823
1780525294177972700,18.46397265625,-1.8753563165664675,-0.8087855577468872,-0.5192354321479797
1780525294188074000,18.47407397460937,-1.9853121042251587,-0.6010913848876953,-1.0250319242477417
1780525294198175500,18.484175537109376,-2.012190103530884,-0.3139847218990326,-1.1948524713516235
1780525294208276700,18.49427685546875,-1.9633208513259888,-0.1001818999648094,-0.9260717034339904
1780525294228418300,18.514418212890625,-1.6969836950302124,-0.1722639948129654,0.2076941877603531
1780525294238519600,18.52451953125,-1.590693116188049,-0.3139847218990326,0.5998696684837341
1780525294248590300,18.53459033203125,-1.5332717895507812,-0.3921754956245422,0.6939429044723511
1780525294288904200,18.574904296875,-1.3536773920059204,-0.167377084493637,-0.197920337319374
1780525294299005400,18.58500537109375,-1.2791517972946167,-0.2138028293848037,-0.2773328125476837
1780525294309106700,18.595106689453125,-1.186300277709961,-0.2443460971117019,-0.0794124826788902
1780525294369653800,18.65565380859375,-0.6059783101081848,-0.4667010605335235,0.140499010682106
1780525294420190700,18.706190673828125,0.1111774742603302,-0.5693264007568359,-0.147829383611679
1780525294430292200,18.71629223632813,0.2541199326515198,-0.5864306092262268,-0.3604104816913605
1780525294440393500,18.7263935546875,0.4544837474822998,-0.5937610268592834,-0.5265658497810364
1780525294450464300,18.73646435546875,0.6585127115249634,-0.5852088928222656,-0.6682865619659424
1780525294490869500,18.776869384765625,1.3292428255081177,-0.3408628106117248,-0.5644394755363464
1780525294501001200,18.787001220703125,1.4721852540969849,-0.3103195428848266,-0.4337143301963806
1780525294511102700,18.79710278320313,1.6273449659347534,-0.2125810980796814,-0.342084527015686
1780525294541437200,18.827437255859376,1.9144517183303835,0.157603234052658,-0.5351179838180542
1780525294581873000,18.86787280273437,2.0024163722991943,0.5729916095733643,-0.2651155292987823
1780525294591974100,18.87797412109375,1.973094701766968,0.685390830039978,-0.051312681287527
1780525294602075600,18.88807568359375,1.936442852020264,0.7953465580940247,0.1099557429552078
1780525294612177000,18.89817700195313,1.8765780925750728,0.8796459436416626,0.1869247704744339
1780525294622278100,18.908278076171875,1.8106045722961424,0.9480628371238708,0.230907067656517
1780525294632379400,18.91837939453125,1.7324138879776,1.026253581047058,0.251676470041275
1780525294642481000,18.92848095703125,1.6310101747512815,1.0555751323699951,0.1698205322027206
1780525294652551700,18.9385517578125,1.4257594347000122,0.9615018963813782,-0.1319468915462494
1780525294662683400,18.94868334960937,1.1630873680114746,0.8112290501594543,-0.3726277947425842
1780525294672815400,18.9588154296875,0.9358455538749696,0.8148942589759827,-0.2553416788578033
1780525294682916600,18.96891650390625,0.7073819637298584,1.0421360731124878,0.0623082555830478
1780525294713251000,18.9992509765625,0.394618958234787,1.3622294664382937,0.8723155856132507
1780525294723383000,19.009383056640623,0.1331686228513717,1.0934487581253052,0.4899139404296875
1780525294733514800,19.0195146484375,-0.2907718420028686,0.8026769161224365,-0.0916297882795333
1780525294743616000,19.029615966796875,-0.7305948138237,0.6963863968849182,-0.475253164768219
1780525294753717500,19.03971752929688,-1.009149432182312,0.7660250067710876,-0.3726277947425842
1780525294763818800,19.04981884765625,-1.176526427268982,0.9101892113685608,0.0623082555830478
1780525294773950500,19.059950439453125,-1.4257594347000122,0.9896016716957092,0.5424483418464661
1780525294784052000,19.07005200195313,-1.7055357694625854,0.8930850028991699,0.8784242272377014
1780525294804315600,19.09031567382813,-2.201558351516724,0.4728097021579742,0.9541715383529664
1780525294834650000,19.120650146484376,-2.900388240814209,0.2284636050462722,0.8784242272377014
1780525294844751400,19.13075146484375,-2.961474657058716,0.0916297882795333,0.9370672702789308
1780525294854883000,19.140883056640625,-2.9907963275909424,-0.1417207419872284,0.970054030418396
1780525294864984600,19.150984619140623,-3.0384438037872314,-0.4043927788734436,0.93095862865448
1780525294875085800,19.1610859375,-3.1422908306121826,-0.6316346526145935,0.7611380815505981
1780525294925684000,19.21168408203125,-2.6975808143615723,-1.3634512424468994,0.4007275998592376
1780525294935785200,19.22178515625,-2.582738161087036,-1.4831807613372805,0.2089159190654754
1780525294945886700,19.23188671875,-2.4544565677642822,-1.5173892974853516,0.0769690200686454
1780525294956018400,19.242018310546875,-2.2455406188964844,-1.5063936710357666,0.0879645943641662
1780525294966119700,19.25211962890625,-1.940108060836792,-1.4868459701538086,0.2199114859104156
1780525294976221200,19.26222119140625,-1.5894713401794434,-1.4721852540969849,0.3286454975605011
1780525294986322400,19.272322509765623,-1.254717230796814,-1.4563027620315552,0.3176499307155609
1780525294996423700,19.28242358398437,-0.9712757468223572,-1.431868076324463,0.1771509200334549
1780525295016657000,19.30265698242188,-0.4312708675861358,-1.2376129627227783,-0.0280998013913631
1780525295026788600,19.31278857421875,-0.1453859210014343,-1.0934487581253052,0.0134390350431203
1780525295036890000,19.32289013671875,0.1649336218833923,-0.923628270626068,0.1490511149168014
1780525295047021800,19.333021728515625,0.4679227769374847,-0.7452555894851685,0.2822197377681732
1780525295057123000,19.343123046875,0.6829473376274109,-0.5632177591323853,0.2883284091949463
1780525295067224600,19.353224609375,0.8381071090698242,-0.4105014503002167,0.2321287989616394
1780525295077356300,19.363356201171875,1.0054842233657837,-0.2724458873271942,0.1966986060142517
1780525295087457500,19.37345751953125,1.1887437105178833,-0.140499010682106,0.1563815027475357
1780525295127924000,19.413924072265623,1.7617353200912476,0.4874704778194427,-0.1038470938801765
1780525295208642800,19.494642822265625,2.557081937789917,1.1630873680114746,0.2467895597219467
1780525295228815000,19.51481518554688,2.65726375579834,1.2290608882904053,0.4056145250797272
1780525295238916400,19.524916259765625,2.7036895751953125,1.226617455482483,0.4691445231437683
1780525295248956700,19.534956787109376,2.726902484893799,1.1484266519546509,0.4691445231437683
1780525295259058000,19.545057861328125,2.735454559326172,0.996932089328766,0.3579670190811157
1780525295269159400,19.55515942382813,2.7488934993743896,0.8124507665634155,0.0977384373545646
1780525295279260700,19.5652607421875,2.719572067260742,0.7012733221054077,-0.2040289938449859
1780525295289301000,19.575301025390623,2.64138126373291,0.7330383062362671,-0.3017674386501312
1780525295299402200,19.58540234375,2.6120598316192627,0.8979719281196594,-0.0745255574584007
1780525295309503500,19.59550341796875,2.5925121307373047,1.1178834438323977,0.2797762751579284
1780525295339777000,19.625777099609376,2.266309976577759,0.8820894360542297,1.0348057746887207
1780525295349847800,19.635847900390623,2.101376533508301,0.5778785347938538,1.0543533563613892
1780525295369959000,19.655958984375,1.711644411087036,0.1123992055654525,0.7904596328735352
1780525295380029700,19.66602978515625,1.4208725690841677,0.0720821022987365,0.5351179838180542
1780525295390070000,19.676070068359376,1.176526427268982,0.1014036312699318,0.3628539443016052
1780525295410211600,19.69621166992188,0.8381071090698242,0.0134390350431203,0.1270599663257599
1780525295430383600,19.716383544921875,0.3543018400669098,-0.2907718420028686,-0.0219911485910415
1780525295440454400,19.726454345703125,0.0574213340878486,-0.3371976017951965,-0.0097738439217209
1780525295500970800,19.786970703125,-1.387885808944702,-0.8930850028991699,-0.3897320330142975
1780525295531183000,19.81718310546875,-1.7287486791610718,-1.0592403411865234,-0.0342084541916847
1780525295541284600,19.82728466796875,-1.847256541252136,-1.2034045457839966,-0.3274237811565399
1780525295551355400,19.83735546875,-2.040289878845215,-1.225395679473877,-0.8332201838493347
1780525295561426200,19.84742626953125,-2.2272145748138428,-1.1349875926971436,-1.1911872625350952
1780525295571527400,19.85752734375,-2.2675318717956543,-0.978606104850769,-1.19607412815094
1780525295581598200,19.86759814453125,-2.1795670986175537,-0.7660250067710876,-0.8442157506942749
1780525295591669000,19.8776689453125,-2.0586159229278564,-0.5974262356758118,-0.3213151097297668
1780525295601739800,19.88773974609375,-1.926669001579285,-0.5717698931694031,0.2028072625398636
1780525295611841300,19.89784130859375,-1.7922786474227903,-0.6780604124069214,0.4923573732376098
1780525295631982800,19.91798291015625,-1.674992561340332,-0.7855727076530457,0.2602286040782928
1780525295642053600,19.9280537109375,-1.6126842498779297,-0.7195992469787598,0.0183259565383195
1780525295652124400,19.93812451171875,-1.5332717895507812,-0.5839871764183044,-0.2247984111309051
1780525295662225700,19.9482255859375,-1.4856243133544922,-0.46547931432724,-0.3274237811565399
1780525295672327000,19.958326904296875,-1.4001030921936035,-0.4166100919246673,-0.2577851414680481
1780525295682397700,19.968397705078125,-1.2901474237442017,-0.4349360466003418,-0.1649336218833923
1780525295692468700,19.97846875,-1.2302825450897217,-0.432492583990097,-0.130725160241127
1780525295702539500,19.98853955078125,-1.1936306953430176,-0.4056145250797272,-0.1380555480718612
1780525295712610300,19.9986103515625,-1.1056660413742063,-0.3860668241977691,-0.140499010682106
1780525295722681000,20.00868115234375,-1.0005972385406494,-0.3726277947425842,-0.1869247704744339
1780525295783167000,20.0691669921875,-0.2040289938449859,-0.1869247704744339,-0.2822197377681732
1780525295793268200,20.07926831054688,-0.0207694191485643,-0.2028072625398636,-0.3164281845092773
1780525295803369500,20.089369384765625,0.1490511149168014,-0.2223549485206604,-0.3591887652873993
1780525295813440300,20.099440185546875,0.342084527015686,-0.2406809031963348,-0.3628539443016052
1780525295823541500,20.10954150390625,0.5815436840057373,-0.2394591718912124,-0.3921754956245422
1780525295833612500,20.11961254882813,0.789237916469574,-0.2186897546052932,-0.4789183437824249
1780525295853723400,20.139723388671875,1.1276572942733765,-0.0537561401724815,-0.6340781450271606
1780525295914239700,20.20023974609375,1.968207836151123,0.2883284091949463,-0.3897320330142975
1780525295924310800,20.210310791015623,2.0134117603302,0.3152064681053161,-0.4715879559516907
1780525295934350800,20.220350830078125,2.0085248947143555,0.3494149148464203,-0.6133087277412415
1780525295944421600,20.23042163085937,1.9633208513259888,0.3995058834552765,-0.6719517707824707
1780525295954523100,20.240523193359376,1.9058995246887207,0.455705463886261,-0.618195652961731
1780525295974725600,20.2607255859375,1.8179349899291992,0.6059783101081848,-0.2846632003784179
1780525295984827100,20.2708271484375,1.7898352146148682,0.6914994716644287,-0.1453859210014343
1780525295994898000,20.28089794921875,1.7336355447769165,0.769690215587616,-0.1160643994808197
1780525296004968700,20.29096875,1.6322319507598877,0.8417723178863525,-0.0794124826788902
1780525296025110300,20.3111103515625,1.481959104537964,0.9187413454055786,0.0452040284872055
1780525296035181000,20.32118115234375,1.3817771673202517,0.9334021210670472,0.067195177078247
1780525296045282300,20.3312822265625,1.2290608882904053,0.8735373020172119,-0.0195476878434419
1780525296055322600,20.341322509765625,0.9627236127853394,0.7293730974197388,-0.2687807083129883
1780525296065424000,20.351423828125,0.6059783101081848,0.618195652961731,-0.485027015209198
1780525296095636200,20.38163623046875,0.1123992055654525,1.263269305229187,0.4911356568336487
1780525296105707300,20.391707275390623,0.0366519130766391,1.4001030921936035,0.6768386960029602
1780525296115778000,20.40177807617188,-0.0855211317539215,1.2681562900543213,0.5558874011039734
1780525296125879300,20.41187939453125,-0.3872885704040527,0.940732479095459,0.0146607663482427
1780525296135980500,20.42198046875,-0.8002334833145142,0.6059783101081848,-0.5082398653030396
1780525296146051300,20.43205126953125,-1.1227703094482422,0.5009095072746277,-0.5925393104553223
1780525296156152800,20.44215283203125,-1.320690631866455,0.608421802520752,-0.2871066629886627
1780525296166254000,20.452254150390623,-1.4831807613372805,0.750142514705658,0.1624901592731475
1780525296176324900,20.46232495117188,-1.7153096199035645,0.8222246170043945,0.5204572081565857
1780525296186365200,20.472365234375,-1.9889771938323972,0.7660250067710876,0.7476990818977356
1780525296196466400,20.482466552734376,-2.2125539779663086,0.616973876953125,0.7929030656814575
1780525296206537200,20.492537109375,-2.410474300384521,0.4532620012760162,0.8026769161224365
1780525296216638500,20.50263842773437,-2.6169466972351074,0.3457497358322143,0.8417723178863525
1780525296226740000,20.512739990234376,-2.8539624214172363,0.2968805134296417,0.9382890462875366
1780525296307398000,20.59339794921875,-3.0799825191497803,-1.0140362977981567,0.5839871764183044
1780525296367822600,20.653822509765625,-1.7666223049163818,-1.563814997673035,0.2700024247169494
1780525296377923800,20.663923828125,-1.4917329549789429,-1.538158655166626,0.2089159190654754
1780525296387994600,20.67399462890625,-1.15820050239563,-1.5076154470443726,0.1857030391693115
1780525296418268200,20.70426806640625,-0.2272418737411499,-1.3866641521453855,0.0256563406437635
1780525296428339000,20.7143388671875,0.0219911485910415,-1.3084733486175537,-0.0317649915814399
1780525296438440200,20.724440185546875,0.2687807083129883,-1.1838568449020386,-0.0561996027827262
1780525296448480500,20.73448046875,0.5290092825889587,-1.018923282623291,0.0195476878434419
1780525296458551300,20.74455126953125,0.7611380815505981,-0.8295549750328064,0.098960168659687
1780525296468652800,20.75465283203125,0.93095862865448,-0.608421802520752,0.1209513172507286
1780525296478754000,20.764754150390623,1.0751228332519531,-0.384845107793808,0.1282816976308822
1780525296488794400,20.77479443359375,1.2229522466659546,-0.1820378452539444,0.1246165111660957
1780525296498895600,20.7848955078125,1.3903292417526243,-0.0024434609804302,0.1441642045974731
1780525296508996900,20.794996826171875,1.5344934463500977,0.1783726513385772,0.1551597714424133
1780525296519098400,20.80509838867188,1.6468926668167114,0.3726277947425842,0.197920337319374
1780525296529169200,20.81516918945313,1.7495180368423462,0.5656611919403076,0.2321287989616394
1780525296539270400,20.8252705078125,1.8570303916931152,0.8735373020172119,0.0635299831628799
1780525296549341200,20.835341064453125,1.9327776432037356,0.9834930300712584,-0.0305432621389627
1780525296559412000,20.84541186523437,1.9901989698410036,1.1081095933914185,-0.0610865242779254
1780525296569452300,20.85545239257813,2.037846565246582,1.2192870378494265,-0.0452040284872055
1780525296579523000,20.865523193359376,2.0977113246917725,1.303586483001709,0.0012217304902151
1780525296589624300,20.875624267578125,2.177123785018921,1.3744467496871948,0.0183259565383195
1780525296599695000,20.88569506835937,2.2272145748138428,1.4330898523330688,0.0403171069920063
1780525296619836700,20.905836669921875,2.3603832721710205,1.5137240886688232,0.1783726513385772
1780525296629938200,20.91593823242188,2.400700330734253,1.508837103843689,0.3005456924438476
1780525296640009000,20.92600903320313,2.449569702148437,1.4746286869049072,0.4630358517169952
1780525296660181000,20.946180908203125,2.563190460205078,1.207069754600525,0.7110471725463867
1780525296690393300,20.976393310546875,2.4581217765808105,0.8747590184211731,0.1563815027475357
1780525296710596000,20.99659619140625,2.350609540939331,1.301142930984497,0.3200933933258056
1780525296720697300,21.006697265625,2.244318962097168,1.4074335098266602,0.4996877610683441
1780525296730798600,21.01679858398437,2.105041742324829,1.2681562900543213,0.7831292152404785
1780525296761072000,21.04707202148437,1.712866187095642,0.280998021364212,0.9553932547569276
1780525296771143000,21.057142822265625,1.4172073602676392,0.0574213340878486,0.6731734871864319
1780525296801355300,21.08735522460937,0.7195992469787598,0.0781907513737678,0.3225368559360504
1780525296841699600,21.127699462890625,-0.3200933933258056,-0.2846632003784179,-0.0928515195846557
1780525296851800800,21.13780078125,-0.5155702829360962,-0.2797762751579284,-0.0329867228865623
1780525296902216000,21.1882158203125,-1.602910399436951,-0.8833111524581909,-0.50335294008255
1780525296912286700,21.19828662109375,-1.6212363243103027,-0.8918632864952087,-0.2223549485206604
1780525296922327000,21.2083271484375,-1.568701982498169,-1.0213667154312134,0.0183259565383195
1780525296952569900,21.23856982421875,-2.0060815811157227,-1.3781119585037231,-0.9859365224838256
1780525296962640600,21.248640625,-2.134363174438477,-1.3145819902420044,-1.4330898523330688
1780525296972742100,21.2587421875,-2.163684606552124,-1.1557570695877075,-1.4856243133544922
1780525296982813000,21.26881298828125,-2.054950714111328,-0.9712757468223572,-1.084896683692932
1780525296992914200,21.2789140625,-1.8875735998153689,-0.8710938692092896,-0.5119050741195679
1780525297002985000,21.28898486328125,-1.765400528907776,-0.8356636762619019,-0.0647517144680023
1780525297013086200,21.299086181640625,-1.693318486213684,-0.8662069439888,0.1221730485558509
1780525297023187700,21.309187744140623,-1.6041321754455566,-0.9224064946174622,0.1099557429552078
1780525297033289000,21.3192890625,-1.5234979391098022,-0.9529497623443604,-0.0684169083833694
1780525297043359700,21.32935986328125,-1.4746286869049072,-0.8845328688621521,-0.3066543638706207
1780525297063501300,21.349501220703125,-1.3866641521453855,-0.5839871764183044,-0.371406078338623
1780525297114007800,21.4000078125,-0.923628270626068,-0.4337143301963806,0.0452040284872055
1780525297144311800,21.430311767578125,-0.7122688889503479,-0.2186897546052932,-0.1698205322027206
1780525297164484000,21.450484130859376,-0.36529740691185,-0.1624901592731475,-0.2186897546052932
1780525297174585300,21.46058544921875,-0.2858849465847015,-0.1160643994808197,-0.2883284091949463
1780525297184625700,21.47062573242188,-0.1209513172507286,-0.0623082555830478,-0.2968805134296417
1780525297194757400,21.48075732421875,0.1319468915462494,-0.0537561401724815,-0.2993239760398865
1780525297204859000,21.49085888671875,0.5167919993400574,-0.090408056974411,-0.5241223573684692
1780525297214960000,21.50096020507813,0.6792821288108826,-0.0781907513737678,-0.6108652353286743
1780525297225061400,21.511061279296875,0.8662069439888,-0.0574213340878486,-0.6976081132888794
1780525297235162600,21.52116259765625,1.017701506614685,-0.0415388382971286,-0.7244861721992493
1780525297305933000,21.59193310546875,1.8594738245010376,0.1795943826436996,-0.5913175344467163
1780525297346338300,21.63233837890625,1.8851301670074463,0.3811798989772796,-0.4190535545349121
1780525297366571500,21.65257153320313,1.8069393634796145,0.4691445231437683,-0.1844813078641891
1780525297437311200,21.72331127929688,1.2522737979888916,0.7684684991836548,-0.0329867228865623
1780525297447382000,21.73338208007813,0.9358455538749696,0.6120869517326355,-0.36529740691185
1780525297457513700,21.743513671875,0.5937610268592834,0.4911356568336487,-0.5607742667198181
1780525297467615200,21.753615234375,0.3811798989772796,0.5681046843528748,-0.2822197377681732
1780525297477747000,21.763746826171875,0.1600466966629028,0.8930850028991699,0.1918116807937622
1780525297487817700,21.773817626953125,0.0256563406437635,1.263269305229187,0.5962044596672058
1780525297497949700,21.78394970703125,-0.0415388382971286,1.3927727937698364,0.7684684991836548
1780525297508051000,21.794051025390623,-0.1881465017795562,1.2229522466659546,0.5644394755363464
1780525297518152200,21.80415209960937,-0.5082398653030396,0.797789990901947,-0.0378736443817615
1780525297588892000,21.874891845703125,-2.276083946228028,0.4605923891067505,1.2950342893600464
1780525297598993400,21.88499340820313,-2.4471261501312256,0.2577851414680481,1.1276572942733765
1780525297609094700,21.8950947265625,-2.673146247863769,0.1331686228513717,0.9224064946174622
1780525297619196000,21.90519580078125,-2.8955013751983643,0.1014036312699318,0.6976081132888794
1780525297629328000,21.915327880859376,-2.959031343460083,0.0720821022987365,0.6585127115249634
1780525297649591600,21.935591552734376,-2.8906142711639404,-0.3005456924438476,0.940732479095459
1780525297659692800,21.94569287109375,-2.9187140464782715,-0.5864306092262268,1.1447614431381226
1780525297669824500,21.955824462890625,-3.0274481773376465,-0.8063421249389648,1.187522053718567
1780525297679926000,21.965926025390623,-3.134960412979126,-0.9175195693969728,0.9834930300712584
1780525297690027300,21.97602734375,-3.1496212482452397,-0.9272934198379515,0.7489207983016968
1780525297700128500,21.98612841796875,-2.995683193206787,-0.9175195693969728,0.6609562039375305
1780525297710229800,21.996229736328125,-2.698802709579468,-1.009149432182312,0.7305948138237
1780525297720331300,22.00633129882813,-2.394591808319092,-1.2192870378494265,0.7843509912490845
1780525297730432500,22.0164326171875,-2.188119411468506,-1.4294246435165403,0.6597344875335693
1780525297740533800,22.02653369140625,-2.065946340560913,-1.508837103843689,0.4105014503002167
1780525297750635000,22.036635009765625,-1.926669001579285,-1.4379768371582031,0.1331686228513717
1780525297760736500,22.046736572265623,-1.6896532773971558,-1.33168625831604,0.0073303831741213
1780525297770837800,22.05683764648437,-1.3280210494995115,-1.2571606636047363,0.0855211317539215
1780525297780969700,22.0669697265625,-0.6682865619659424,-1.1142182350158691,0.1099557429552078
1780525297791071000,22.07707104492188,-0.4764748811721802,-1.009149432182312,-0.0549778714776039
1780525297811243000,22.097242919921875,-0.058643065392971,-0.7232644557952881,-0.2101376503705978
1780525297882013200,22.16801318359375,1.3915510177612305,0.2981022298336029,-0.0708603709936142
1780525297922418700,22.20841870117188,1.8643606901168823,0.6340781450271606,0.067195177078247
1780525297993005800,22.279005859375,2.7488934993743896,1.0299187898635864,0.6255260109901428
1780525298063623400,22.34962353515625,2.75500226020813,0.6817256212234497,0.0696386396884918
1780525298093835800,22.37983569335937,2.637716054916382,0.8112290501594543,0.2125810980796814
1780525298114007800,22.4000078125,2.3823745250701904,0.9285151958465576,0.2186897546052932
1780525298124078800,22.41007885742188,2.166128158569336,0.7379252314567566,0.0708603709936142
1780525298134149600,22.42014965820313,1.9254472255706787,0.432492583990097,-0.2406809031963348
1780525298214868500,22.500868408203125,-0.0525344125926494,-0.6218608021736145,-1.2290608882904053
1780525298275446000,22.56144604492188,-1.3573426008224487,-0.5338962078094482,-0.1429424732923507
1780525298285577700,22.57157763671875,-1.5332717895507812,-0.4337143301963806,-0.0952949747443199
1780525298295648500,22.5816484375,-1.7043139934539795,-0.3567453026771545,0.051312681287527
1780525298305719300,22.59171923828125,-1.7544050216674805,-0.46547931432724,0.3359758853912353
1780525298315790000,22.6017900390625,-1.7079792022705078,-0.5974262356758118,0.5583308339118958
1780525298325860900,22.61186083984375,-1.7922786474227903,-0.6914994716644287,0.2785545587539673
1780525298346002700,22.63200268554688,-2.141693592071533,-0.6035348773002625,-0.7244861721992493
1780525298356073500,22.64207348632813,-2.2101104259490967,-0.4129449129104614,-1.0311405658721924
1780525298366144300,22.652144287109376,-2.2455406188964844,-0.1893682330846786,-0.8943067193031311
1780525298376215000,22.662215087890623,-2.1868975162506104,-0.090408056974411,-0.3054326176643371
1780525298386316300,22.67231640625,-2.0134117603302,-0.1918116807937622,0.4471533596515655
1780525298396417500,22.68241748046875,-1.8264870643615725,-0.3995058834552765,0.979827880859375
1780525298406427400,22.692427490234376,-1.7299703359603882,-0.5302310585975647,1.1068878173828125
1780525298416528600,22.702528564453125,-1.7043139934539795,-0.5497786998748779,0.8735373020172119
1780525298426630000,22.7126298828125,-1.655444860458374,-0.4948008358478546,0.4960225820541382
1780525298436761900,22.722761962890623,-1.5919147729873655,-0.3995058834552765,0.0476474873721599
1780525298446832600,22.73283251953125,-1.5650367736816406,-0.3005456924438476,-0.2504547536373138
1780525298487146200,22.77314624023437,-1.284038782119751,-0.171042263507843,0.2138028293848037
1780525298557764000,22.84376416015625,-0.5900958180427551,-0.1624901592731475,-0.2357939779758453
1780525298598077700,22.88407763671875,-0.0525344125926494,0.0207694191485643,-0.5082398653030396
1780525298608148500,22.8941484375,0.0757472887635231,0.0183259565383195,-0.5705481171607971
1780525298618219300,22.90421923828125,0.2687807083129883,-0.0171042270958423,-0.5436700582504272
1780525298628290000,22.9142900390625,0.4935791194438934,-0.0733038261532783,-0.5009095072746277
1780525298638391600,22.9243916015625,0.6866125464439392,-0.1014036312699318,-0.5070181488990784
1780525298648492800,22.93449291992188,0.8539896011352539,-0.0794124826788902,-0.5607742667198181
1780525298658563600,22.9445634765625,1.026253581047058,-0.0476474873721599,-0.6328563690185547
1780525298668664800,22.954664794921875,1.197295904159546,-0.0439822971820831,-0.7086036801338196
1780525298678735600,22.964735595703125,1.5027284622192385,0.0280998013913631,-0.6866125464439392
1780525298688806400,22.97480639648437,1.6676621437072754,0.1099557429552078,-0.6230825781822205
1780525298698908000,22.984907958984376,1.813048005104065,0.1380555480718612,-0.5900958180427551
1780525298708978700,22.994978759765623,1.9034560918807983,0.1392772793769836,-0.5864306092262268
1780525298719049500,23.00504956054688,1.957212209701538,0.1698205322027206,-0.6731734871864319
1780525298729120300,23.01512036132813,1.9718730449676516,0.2223549485206604,-0.7086036801338196
1780525298739221500,23.025221435546875,1.9718730449676516,0.2834414839744568,-0.6279694437980652
1780525298749292300,23.035292236328125,1.949881911277771,0.3665191531181335,-0.46547931432724
1780525298759393800,23.04539379882813,1.9071213006973269,0.4605923891067505,-0.3274237811565399
1780525298829981000,23.11598095703125,1.0910053253173828,0.9382890462875366,-0.117286130785942
1780525298890466600,23.17646655273437,-0.1331686228513717,1.292590856552124,0.1954768747091293
1780525298940881700,23.226881591796875,-1.4001030921936035,1.2009611129760742,0.4630358517169952
1780525298971094000,23.257093994140625,-2.1587977409362797,0.8136724829673767,0.6914994716644287
1780525298981195500,23.267195556640623,-2.4080307483673096,0.750142514705658,0.9480628371238708
1780525299051813000,23.33781323242188,-2.972470283508301,-0.5656611919403076,1.3768903017044067
1780525299092188000,23.37818798828125,-2.6035077571868896,-1.244943380355835,0.7672467231750488
1780525299112360000,23.39835986328125,-2.2394320964813232,-1.5063936710357666,0.2504547536373138
1780525299132501500,23.41850146484375,-1.973094701766968,-1.5699236392974854,-0.098960168659687
1780525299162744600,23.44874462890625,-1.2376129627227783,-1.5796974897384644,0.1209513172507286
1780525299172785000,23.458784912109376,-0.998153805732727,-1.5259413719177246,0.0561996027827262
1780525299182886100,23.46888623046875,-0.7660250067710876,-1.4294246435165403,-0.0183259565383195
1780525299192987400,23.4789873046875,-0.5253441333770752,-1.312138557434082,-0.0635299831628799
1780525299203058200,23.48905810546875,-0.2834414839744568,-1.2046263217926023,-0.0195476878434419
1780525299213129000,23.49912890625,-0.0146607663482427,-1.0739010572433472,0.0830776765942573
1780525299223230500,23.50923046875,0.230907067656517,-0.8930850028991699,0.1368338167667389
1780525299253503700,23.53950366210937,0.8759807348251343,-0.2797762751579284,0.0623082555830478
1780525299263574500,23.549574462890625,1.056796908378601,-0.0891863256692886,0.0134390350431203
1780525299273645300,23.559645263671875,1.2608258724212646,0.0794124826788902,0.0781907513737678
1780525299283716000,23.569716064453125,1.4746286869049072,0.2443460971117019,0.1539380401372909
1780525299293817600,23.57981762695313,1.6126842498779297,0.3970624208450317,0.1563815027475357
1780525299303918800,23.5899189453125,1.7385225296020508,0.5314527750015259,0.1197295859456062
1780525299313989600,23.59998974609375,1.8655824661254885,0.6707300543785095,0.0830776765942573
1780525299334100700,23.62010083007813,2.155132532119751,0.8894197940826416,-0.0012217304902151
1780525299344171500,23.630171630859376,2.2883012294769287,0.9761626720428468,-0.0415388382971286
1780525299354242300,23.6402421875,2.3469443321228027,1.084896683692932,-0.1197295859456062
1780525299364313000,23.65031298828125,2.389704942703247,1.1704177856445312,-0.147829383611679
1780525299374414300,23.660414306640625,2.481334686279297,1.225395679473877,-0.0696386396884918
1780525299384515800,23.670515869140623,2.5778512954711914,1.2571606636047363,0.0061086523346602
1780525299394586600,23.68058666992188,2.6535985469818115,1.266934514045715,0.1466076523065567
1780525299404688000,23.69068798828125,2.7342329025268555,1.2681562900543213,0.2932153046131134
1780525299414758700,23.700758544921875,2.778215169906616,1.2559388875961304,0.3982841372489929
1780525299424860000,23.71085986328125,2.7733283042907715,1.2082914113998413,0.3897320330142975
1780525299434930700,23.7209306640625,2.7562239170074463,1.1252137422561646,0.3677408695220947
1780525299445032200,23.7310322265625,2.7953193187713623,0.8686503767967224,0.4447098970413208
1780525299455103000,23.74110302734375,2.8124237060546875,0.7110471725463867,0.3995058834552765
1780525299465173800,23.751173828125,2.718350410461426,0.6145304441452026,0.2590068578720093
1780525299475275000,23.76127490234375,2.5534167289733887,0.6328563690185547,0.2419026345014572
1780525299485315300,23.7713154296875,2.448347806930542,0.7220427393913269,0.4190535545349121
1780525299495447000,23.78144702148437,2.3212878704071045,0.8319984674453735,0.6059783101081848
1780525299505517800,23.791517822265625,2.1587977409362797,0.8222246170043945,0.856433093547821
1780525299515588900,23.8015888671875,2.1148154735565186,0.6866125464439392,1.138652801513672
1780525299535730400,23.82173046875,1.881464958190918,0.1783726513385772,1.1288789510726929
1780525299545770800,23.83177075195313,1.606575608253479,-0.0305432621389627,0.8307767510414124
1780525299565881600,23.851881591796875,0.921184778213501,-0.0439822971820831,0.4483750760555267
1780525299626337000,23.9123369140625,-0.5204572081565857,-0.6120869517326355,-0.2981022298336029
1780525299676752100,23.962752197265623,-1.539380431175232,-0.8454375267028809,-0.93095862865448
1780525299686792400,23.97279248046875,-1.6493362188339231,-0.7648032903671265,-0.6023131608963013
1780525299727167200,24.01316723632813,-1.843591332435608,-1.226617455482483,-0.4043927788734436
1780525299797845800,24.083845703125,-1.5943583250045776,-0.9334021210670472,0.2247984111309051
1780525299858301200,24.14430126953125,-1.3158037662506104,-0.3982841372489929,-0.2015855312347412
1780525299898645500,24.1846455078125,-0.9553932547569276,-0.3872885704040527,0.2504547536373138
1780525299959253200,24.245253173828125,-0.4117231667041778,0.0109955742955207,-0.5167919993400574
1780525300009729300,24.295729248046875,0.4569272100925445,-0.0342084541916847,-0.6230825781822205
1780525300019830800,24.30583081054688,0.5827654600143433,0.0097738439217209,-0.8344419002532959
1780525300029932000,24.31593212890625,0.7281513810157776,0.0891863256692886,-0.9712757468223572
1780525300040033300,24.326033203125,0.8979719281196594,0.167377084493637,-0.979827880859375
1780525300050073600,24.336073486328125,1.0897835493087769,0.1820378452539444,-0.8454375267028809
1780525300080377600,24.36637768554688,1.5076154470443726,0.0952949747443199,-0.5009095072746277
1780525300090478800,24.376478759765625,1.6114624738693235,0.1661553531885147,-0.6548475623130798
1780525300100580000,24.386580078125,1.6982053518295288,0.1966986060142517,-0.6096435189247131
1780525300110681600,24.396681640625,1.793500304222107,0.2431243658065796,-0.5473352670669556
1780525300120813300,24.406813232421875,1.8545868396759035,0.2565633952617645,-0.5290092825889587
1780525300130914600,24.41691455078125,1.8668042421340945,0.2223549485206604,-0.5400048494338989
1780525300141016000,24.42701611328125,1.847256541252136,0.2247984111309051,-0.5791002511978149
1780525300171350500,24.4573505859375,1.832595705986023,0.5791002511978149,-0.4886921942234039
1780525300221918200,24.507918212890623,1.1459832191467283,1.0225883722305298,0.2883284091949463
1780525300232019500,24.51801953125,1.1142182350158691,1.3084733486175537,0.5057964324951172
1780525300242120700,24.52812060546875,1.0836749076843262,1.3573426008224487,0.598647952079773
1780525300252252700,24.53825268554688,0.8869763612747192,1.1716395616531372,0.4166100919246673
1780525300262384400,24.54838427734375,0.4911356568336487,0.8552113175392151,0.0354301854968071
1780525300272485600,24.558485595703125,0.1099557429552078,0.720820963382721,-0.1001818999648094
1780525300282556400,24.56855639648437,-0.1661553531885147,0.8478809595108032,0.0916297882795333
1780525300292688400,24.5786884765625,-0.4141666293144226,1.0604621171951294,0.4398229718208313
1780525300302820000,24.58882006835937,-0.6976081132888794,1.2095131874084473,0.6866125464439392
1780525300312921600,24.598921630859376,-0.9456194043159484,1.1655309200286863,0.8100073337554932
1780525300323053300,24.60905322265625,-1.1801916360855105,0.9896016716957092,0.779464066028595
1780525300333154600,24.619154541015625,-1.4526375532150269,0.817337691783905,0.607200026512146
1780525300363489000,24.649489013671875,-2.238210201263428,0.9150761365890504,0.7183775305747986
1780525300373590500,24.65959057617188,-2.3359487056732178,0.740368664264679,0.779464066028595
1780525300393823500,24.679823486328125,-2.6254987716674805,-0.0561996027827262,0.9065240025520324
1780525300414026200,24.700026123046875,-3.056769609451294,-0.1588249653577804,0.7195992469787598
1780525300424158000,24.71015795898437,-3.204599142074585,-0.1905899494886398,0.5241223573684692
1780525300434259500,24.720259521484376,-3.274237632751465,-0.3213151097297668,0.5436700582504272
1780525300444391200,24.73039111328125,-3.22536849975586,-0.4593706727027893,0.6377432942390442
1780525300454523100,24.740523193359376,-3.098308563232422,-0.6731734871864319,0.720820963382721
1780525300464624400,24.750624267578125,-2.9798007011413574,-0.9712757468223572,0.6817256212234497
1780525300484796400,24.77079638671875,-2.934596538543701,-1.084896683692932,0.1795943826436996
1780525300494928400,24.78092846679688,-2.8014280796051025,-1.0323622226715088,0.2125810980796814
1780525300505029600,24.791029541015625,-2.5644123554229736,-1.1117748022079468,0.4263839423656463
1780525300515161600,24.80116162109375,-2.2956316471099854,-1.2302825450897217,0.6023131608963013
1780525300525201700,24.81120166015625,-2.026850938796997,-1.2999212741851809,0.6414085030555725
1780525300535333600,24.821333740234376,-1.7153096199035645,-1.3341296911239624,0.5644394755363464
1780525300545435000,24.831434814453125,-1.4269812107086182,-1.3426817655563354,0.3701843321323395
1780525300565637600,24.8516376953125,-0.9101892113685608,-1.2657127380371094,0.0354301854968071
1780525300575769300,24.86176928710937,-0.5632177591323853,-1.1716395616531372,0.0537561401724815
1780525300596002600,24.88200244140625,0.0574213340878486,-0.9297369122505188,0.0171042270958423
1780525300606073300,24.8920732421875,0.2577851414680481,-0.7476990818977356,-0.051312681287527
1780525300616205300,24.902205322265623,0.4679227769374847,-0.5656611919403076,-0.0146607663482427
1780525300626306600,24.912306640625,0.769690215587616,-0.4190535545349121,0.1319468915462494
1780525300636438300,24.922438232421875,1.0787880420684814,-0.2858849465847015,0.3005456924438476
1780525300646539800,24.93253979492188,1.3329079151153564,-0.140499010682106,0.3970624208450317
1780525300656671500,24.94267138671875,1.5137240886688232,0.0158824957907199,0.4141666293144226
1780525300666803500,24.95280346679688,1.7715091705322266,0.3579670190811157,0.2064724564552307
1780525300676904700,24.96290478515625,1.842369556427002,0.4825835525989532,0.0317649915814399
1780525300697107200,24.98310717773437,2.1258111000061035,0.66584312915802,-0.051312681287527
1780525300737573600,25.02357373046875,2.4825563430786133,0.8918632864952087,0.0317649915814399
1780525300808313300,25.094313232421875,2.8160886764526367,0.8600982427597046,0.4105014503002167
1780525300848749000,25.1347490234375,2.737898111343384,0.3811798989772796,0.5815436840057373
1780525300858850600,25.1448505859375,2.5864033699035645,0.4056145250797272,0.5155702829360962
1780525300879053000,25.165052978515625,2.400700330734253,0.6719517707824707,0.6817256212234497
1780525300959955200,25.245955078125,0.9712757468223572,-0.0574213340878486,0.2528982162475586
1780525301020624100,25.3066240234375,-0.5070181488990784,-0.2956587672233581,-0.2638937830924988
1780525301030725400,25.316725341796875,-0.9053022861480712,-0.4349360466003418,-0.626747727394104
1780525301050989000,25.336989013671875,-1.5454890727996826,-0.7024950385093689,-0.9443976879119872
1780525301071161300,25.35716137695313,-1.860695481300354,-0.5070181488990784,-0.4948008358478546
1780525301081293000,25.36729296875,-1.9230037927627563,-0.5998696684837341,-0.0916297882795333
1780525301091363800,25.37736376953125,-1.93766450881958,-0.7525860071182251,0.1551597714424133
1780525301101495800,25.387495849609376,-2.004859685897827,-0.8588765263557434,-0.0305432621389627
1780525301111627500,25.39762744140625,-2.1319196224212646,-0.8955284357070923,-0.5094616413116455
1780525301121698300,25.4076982421875,-2.2211060523986816,-0.8454375267028809,-1.017701506614685
1780525301141870600,25.42787060546875,-2.2296581268310547,-0.5009095072746277,-1.359786033630371
1780525301162073000,25.448072998046875,-1.9901989698410036,-0.4202753007411957,-0.4862487316131592
1780525301172174300,25.45817431640625,-1.852143406867981,-0.4923573732376098,-0.1197295859456062
1780525301202387000,25.488386962890623,-1.5650367736816406,-0.4825835525989532,0.1282816976308822
1780525301222559000,25.50855908203125,-1.4172073602676392,-0.2382374405860901,-0.2455678284168243
1780525301283105800,25.569105712890625,-0.9566149711608888,-0.2907718420028686,0.0598647929728031
1780525301303247400,25.589247314453125,-0.8710938692092896,-0.2333505302667617,-0.0476474873721599
1780525301313318100,25.59931811523437,-0.7684684991836548,-0.2040289938449859,-0.0366519130766391
1780525301323419600,25.609419677734376,-0.6133087277412415,-0.2138028293848037,0.0207694191485643
1780525301333521000,25.61952099609375,-0.4508185386657715,-0.2321287989616394,0.0158824957907199
1780525301343591700,25.629591796875,-0.3396410644054413,-0.2394591718912124,-0.0818559452891349
1780525301353662500,25.639662353515625,-0.2333505302667617,-0.2553416788578033,-0.1954768747091293
1780525301373865200,25.659865234375,0.0109955742955207,-0.2125810980796814,-0.5253441333770752
1780525301383966500,25.669966552734376,0.1539380401372909,-0.1429424732923507,-0.656069278717041
1780525301394037200,25.680037353515623,0.3567453026771545,-0.117286130785942,-0.6536257863044739
1780525301404077600,25.69007763671875,0.5717698931694031,-0.1441642045974731,-0.6035348773002625
1780525301414178800,25.7001787109375,0.7538077235221863,-0.1747074574232101,-0.5497786998748779
1780525301424280000,25.710280029296875,0.9187413454055786,-0.1942551434040069,-0.5632177591323853
1780525301434381600,25.72038159179688,1.0506882667541504,-0.2247984111309051,-0.6633996367454529
1780525301444421600,25.73042163085937,1.1459832191467283,-0.2577851414680481,-0.750142514705658
1780525301504938000,25.79093798828125,1.847256541252136,0.2333505302667617,-0.4911356568336487
1780525301515039500,25.80103955078125,1.8692476749420168,0.3152064681053161,-0.4031710624694824
1780525301525079800,25.811079833984376,1.8777997493743896,0.3885102868080139,-0.2956587672233581
1780525301535211500,25.82121142578125,1.853365182876587,0.4813618063926697,-0.1918116807937622
1780525301545312800,25.831312744140625,1.8020524978637693,0.5876523852348328,-0.1551597714424133
1780525301585626600,25.871626708984376,1.1911872625350952,0.6829473376274109,-0.1954768747091293
1780525301595697400,25.881697509765623,1.045801281929016,0.8772025108337402,0.0476474873721599
1780525301605737700,25.89173779296875,0.8833111524581909,1.1911872625350952,0.2932153046131134
1780525301615839000,25.9018388671875,0.789237916469574,1.4550809860229492,0.4483750760555267
1780525301625940200,25.911940185546875,0.7147123217582703,1.5125023126602173,0.5057964324951172
1780525301636011000,25.922010986328125,0.5094616413116455,1.3732250928878784,0.3262020349502563
1780525301646081800,25.93208178710937,0.1209513172507286,1.1264355182647705,-0.0268780700862407
1780525301656183300,25.942183349609376,-0.2553416788578033,1.009149432182312,-0.2015855312347412
1780525301676355300,25.96235522460937,-0.7171558141708374,1.224173903465271,0.1502728462219238
1780525301686456600,25.97245654296875,-0.9468411207199096,1.303586483001709,0.4361577928066253
1780525301696558000,25.98255810546875,-1.205847978591919,1.273043155670166,0.6585127115249634
1780525301706659300,25.99265942382813,-1.4379768371582031,1.1643091440200806,0.7770205736160278
1780525301716730000,26.002730224609376,-1.6517796516418457,1.0238101482391355,0.7806857824325562
1780525301736902100,26.02290209960937,-2.155132532119751,0.7733554244041443,0.9663888216018676
1780525301746942500,26.0329423828125,-2.417804718017578,0.7354817390441895,1.2290608882904053
1780525301757013200,26.04301318359375,-2.5998425483703613,0.6707300543785095,1.4721852540969849
1780525301767084000,26.053083984375,-2.731789350509644,0.5180137157440186,1.5711454153060913
1780525301777185500,26.063185546875,-2.85274076461792,0.2761110961437225,1.539380431175232
1780525301797357600,26.083357666015623,-3.081204414367676,-0.1722639948129654,1.2522737979888916
1780525301807428400,26.09342846679688,-3.1386256217956543,-0.3995058834552765,1.084896683692932
1780525301817499100,26.1034990234375,-3.1557297706604004,-0.618195652961731,0.9749409556388856
1780525301827570000,26.11356982421875,-3.109304189682007,-0.807563841342926,0.789237916469574
1780525301837640700,26.123640625,-2.9969048500061035,-0.9944885969161988,0.5510004758834839
1780525301847711500,26.13371142578125,-2.84663200378418,-1.2082914113998413,0.3762930035591125
1780525301857812700,26.143812744140625,-2.6975808143615723,-1.4001030921936035,0.2272418737411499
1780525301867883800,26.1538837890625,-2.604729413986206,-1.4868459701538086,0.0427605658769607
1780525301877985000,26.16398510742188,-2.5082128047943115,-1.5259413719177246,-0.0256563406437635
1780525301888055800,26.17405590820313,-2.298074960708618,-1.5919147729873655,0.1490511149168014
1780525301908197400,26.194197265625,-1.6664403676986694,-1.7214182615280151,0.3982841372489929
1780525301918298600,26.20429858398437,-1.2901474237442017,-1.742187738418579,0.3078760802745819
1780525301928400100,26.214400146484376,-0.96883225440979,-1.7434093952178955,0.0488692186772823
1780525301938471000,26.224470947265623,-0.7550294399261475,-1.7165313959121704,-0.2235766798257827
1780525301948541700,26.23454174804688,-0.5094616413116455,-1.626123309135437,-0.3225368559360504
1780525301958582000,26.24458203125,-0.1918116807937622,-1.4575244188308716,-0.2736676335334778
1780525301968652800,26.25465283203125,0.1319468915462494,-1.2754865884780884,-0.1209513172507286
1780525301978754000,26.264754150390623,0.4019493460655212,-1.0751228332519531,0.0
1780525301988855300,26.27485522460937,0.5962044596672058,-0.8515461683273315,0.0488692186772823
1780525301998926000,26.284926025390625,0.7770205736160278,-0.6414085030555725,0.0659734457731247
1780525302008996900,26.294996826171875,0.9676105380058287,-0.4495968222618103,0.0439822971820831
1780525302019067600,26.305067626953125,1.138652801513672,-0.2480112910270691,-0.0244346093386411
1780525302029138400,26.31513842773437,1.2974777221679688,-0.0354301854968071,-0.0537561401724815
1780525302039209500,26.32520947265625,1.480737328529358,0.2052507251501083,0.0280998013913631
1780525302089654800,26.37565478515625,2.084272146224976,1.0421360731124878,-0.1001818999648094
1780525302170282200,26.4562822265625,2.8148670196533203,1.263269305229187,0.4239404797554016
1780525302240839000,26.5268388671875,2.685363531112671,0.5082398653030396,0.2932153046131134
1780525302331537200,26.617537109375,0.9944885969161988,-0.2382374405860901,0.2223549485206604
1780525302341638700,26.627638671875,0.8307767510414124,-0.2296853363513946,0.3078760802745819
1780525302351709400,26.63770947265625,0.5351179838180542,-0.3249803185462951,0.2370157092809677
1780525302361780200,26.6477802734375,0.1966986060142517,-0.485027015209198,0.0610865242779254
1780525302371851000,26.65785107421875,-0.0879645943641662,-0.5864306092262268,-0.0781907513737678
1780525302392023000,26.67802294921875,-0.5070181488990784,-0.5277875661849976,-0.1429424732923507
1780525302402124300,26.688124267578125,-0.8393288254737854,-0.5937610268592834,-0.3323107063770294
1780525302412195000,26.69819506835937,-1.1985175609588623,-0.7257078886032104,-0.5839871764183044
1780525302422296600,26.708296630859376,-1.4489723443984983,-0.7391469478607178,-0.6487388610839844
1780525302482813000,26.76881298828125,-1.926669001579285,-1.0714576244354248,-0.2480112910270691
1780525302492883700,26.7788837890625,-1.9914207458496092,-1.1276572942733765,-0.7110471725463867
1780525302502954500,26.78895458984375,-2.046398639678955,-1.0580185651779177,-1.1032226085662842
1780525302513055700,26.7990556640625,-2.106263399124145,-0.8527678847312927,-1.2596040964126587
1780525302523126500,26.80912646484375,-2.138028383255005,-0.6120869517326355,-1.0494664907455444
1780525302533136400,26.819136474609376,-2.0867156982421875,-0.4679227769374847,-0.5607742667198181
1780525302543237600,26.829237548828125,-1.9853121042251587,-0.4239404797554016,-0.0525344125926494
1780525302553308400,26.83930834960937,-1.919338583946228,-0.4801400899887085,0.261450320482254
1780525302563348700,26.8493486328125,-1.8448129892349243,-0.5668829679489136,0.3982841372489929
1780525302573450000,26.859449951171875,-1.7678439617156982,-0.6157521605491638,0.2834414839744568
1780525302583551500,26.86955151367188,-1.7043139934539795,-0.5766568183898926,0.1014036312699318
1780525302593622300,26.87962231445313,-1.616349458694458,-0.4776966273784637,-0.0916297882795333
1780525302603693000,26.889693115234376,-1.5125023126602173,-0.3872885704040527,-0.2199114859104156
1780525302613794300,26.899794189453125,-1.4074335098266602,-0.3054326176643371,-0.2932153046131134
1780525302623865000,26.90986499023437,-1.3377948999404907,-0.2296853363513946,-0.3335324227809906
1780525302633936000,26.919935791015625,-1.2657127380371094,-0.1869247704744339,-0.2834414839744568
1780525302644006700,26.930006591796875,-1.1630873680114746,-0.2052507251501083,-0.2247984111309051
1780525302654108000,26.94010791015625,-1.0421360731124878,-0.2321287989616394,-0.140499010682106
1780525302664179000,26.95017895507813,-0.9187413454055786,-0.2162462919950485,-0.090408056974411
1780525302674249700,26.960249755859376,-0.8197811841964722,-0.1747074574232101,-0.0549778714776039
1780525302694391300,26.98039135742188,-0.5742133259773254,-0.2040289938449859,-0.0635299831628799
1780525302775049200,27.06104931640625,0.4899139404296875,-0.3836233615875244,-0.9370672702789308
1780525302845606000,27.13160595703125,1.5357152223587036,-0.304210901260376,-0.5461135506629944
1780525302896021000,27.18202099609375,1.8277088403701784,0.0317649915814399,-0.6340781450271606
1780525302986810600,27.272810546875,0.9028588533401488,0.7281513810157776,-0.2284636050462722
1780525303057489400,27.34348950195313,-1.0238101482391355,0.9834930300712584,0.1343903541564941
1780525303077692000,27.36369189453125,-1.4343116283416748,1.2192870378494265,0.7012733221054077
1780525303168390100,27.45439013671875,-3.0799825191497803,-0.0464257597923278,1.3426817655563354
1780525303188623400,27.474623291015625,-3.093421697616577,-0.4801400899887085,1.253495454788208
1780525303198724600,27.484724609375,-3.0494391918182373,-0.6621779203414917,1.1337659358978271
1780525303208856600,27.49485668945313,-2.956587791442871,-0.7904596328735352,1.0311405658721924
1780525303239191000,27.52519091796875,-2.2602014541625977,-1.3231340646743774,0.8051204085350037
1780525303249292300,27.535292236328125,-2.0757200717926025,-1.4953981637954712,0.4508185386657715
1780525303259393800,27.54539379882813,-1.9792033433914185,-1.5845844745635986,0.1062905490398407
1780525303269525500,27.555525390625,-1.8264870643615725,-1.610240817070007,-0.0427605658769607
1780525303279626800,27.56562670898437,-1.583362698554993,-1.6310101747512815,-0.0317649915814399
1780525303289667000,27.5756669921875,-1.254717230796814,-1.6468926668167114,0.0684169083833694
1780525303299768300,27.585768310546875,-0.9065240025520324,-1.6395623683929443,0.0965167060494422
1780525303320001500,27.60600146484375,-0.4349360466003418,-1.5968017578125,-0.0855211317539215
1780525303330102800,27.616102783203125,-0.2357939779758453,-1.5369369983673096,-0.1258382350206375
1780525303340204300,27.62620434570313,-0.0073303831741213,-1.4208725690841677,-0.0537561401724815
1780525303350336000,27.6363359375,0.2480112910270691,-1.2754865884780884,0.1197295859456062
1780525303360437200,27.64643725585937,0.5192354321479797,-1.0922271013259888,0.271224170923233
1780525303370538800,27.656538818359376,0.7147123217582703,-0.8747590184211731,0.2761110961437225
1780525303380670500,27.66667041015625,0.846659243106842,-0.6475171446800232,0.2113593816757202
1780525303390802400,27.676802490234376,0.9908234477043152,-0.4337143301963806,0.1747074574232101
1780525303400934100,27.68693408203125,1.1594222784042358,-0.2247984111309051,0.1356120854616165
1780525303411035400,27.697035400390625,1.3292428255081177,-0.0207694191485643,0.1417207419872284
1780525303421167400,27.70716748046875,1.510058879852295,0.1795943826436996,0.1905899494886398
1780525303491968300,27.77796826171875,2.324953079223633,1.215621829032898,-0.0342084541916847
1780525303532434400,27.818434326171875,2.643824815750122,1.547932505607605,0.0293215326964855
1780525303542566400,27.82856640625,2.6902506351470947,1.549154281616211,0.0855211317539215
1780525303552667600,27.838667724609376,2.731789350509644,1.5369369983673096,0.2064724564552307
1780525303562738400,27.848738525390623,2.772106409072876,1.500285029411316,0.3384193480014801
1780525303582971600,27.8689716796875,2.888170957565308,1.1630873680114746,0.7721336483955383
1780525303593073000,27.87907299804688,2.888170957565308,0.9553932547569276,0.5998696684837341
1780525303603113200,27.88911328125,2.7452285289764404,0.8136724829673767,0.3543018400669098
1780525303623346400,27.90934643554688,2.4410176277160645,0.9651671051979064,0.3237585723400116
1780525303633508600,27.919508544921875,2.356718063354492,1.1325441598892212,0.5424483418464661
1780525303643579400,27.929579345703125,2.266309976577759,1.1093312501907349,0.8503243923187256
1780525303653711400,27.93971142578125,2.172236919403076,0.912632703781128,1.1337659358978271
1780525303663812600,27.9498125,2.032959461212158,0.6243042945861816,1.246165156364441
1780525303673975000,27.95997509765625,1.8545868396759035,0.2919935882091522,1.2229522466659546
1780525303684045800,27.9700458984375,1.6371188163757324,0.0061086523346602,1.0531316995620728
1780525303694177500,27.98017749023437,1.3475687503814695,-0.1136209368705749,0.7440338730812073
1780525303704279000,27.990279052734376,1.1227703094482422,-0.1270599663257599,0.4776966273784637
1780525303714441200,28.00044116210937,1.0103710889816284,-0.1136209368705749,0.2736676335334778
1780525303724512000,28.010511962890625,0.8515461683273315,-0.1490511149168014,-0.0158824957907199
1780525303734644000,28.02064404296875,0.5998696684837341,-0.2858849465847015,-0.3323107063770294
1780525303744775700,28.030775634765625,0.3054326176643371,-0.4630358517169952,-0.5461135506629944
1780525303754877200,28.040877197265623,0.0354301854968071,-0.5534439086914062,-0.5729916095733643
