time,seconds_elapsed,z,y,x
1781032529605077800,5.544077880859375,1.5335179567337036,-4.219342231750488,-0.3895300030708313
1781032529614838800,5.5538388671875,1.5335179567337036,-4.219342231750488,-0.3895300030708313
1781032529624601600,5.5636015625,3.036479949951172,-4.261030197143555,-0.4684779942035675
1781032529644127500,5.58312744140625,3.036479949951172,-4.261030197143555,-0.4684779942035675
1781032529663655200,5.6026552734375,5.448657989501953,-4.511830806732178,-1.2159130573272705
1781032529683181300,5.622181396484375,5.497969150543213,-4.257339954376221,-1.5600320100784302
1781032529702707700,5.641707763671875,5.304226875305176,-4.1050310134887695,-1.775454044342041
1781032529722235600,5.661235595703125,4.97895622253418,-3.838525056838989,-2.166444063186645
1781032529741762000,5.680761962890625,4.4148850440979,-3.455220937728882,-2.380007028579712
1781032529761282800,5.70028271484375,3.8134939670562735,-3.142685890197754,-2.350234031677246
1781032529780799700,5.7197998046875,3.519968032836914,-2.832760095596313,-2.2719171047210693
1781032529800318200,5.739318115234375,3.697000026702881,-2.4500439167022705,-2.188992977142334
1781032529819837400,5.75883740234375,5.094335079193115,-0.4979679882526397,-2.327347040176392
1781032529839357400,5.778357421875,5.201292037963867,-0.1656949967145919,-2.3059089183807373
1781032529858876700,5.797876708984375,3.3003408908843994,0.0114540001377463,-1.7148950099945068
1781032529878395100,5.81739501953125,0.7500100135803223,-0.0551609992980957,-1.0085560083389282
1781032529897915100,5.8369150390625,-1.0659879446029663,-0.5328450202941895,-0.4040420055389404
1781032529917436400,5.8564365234375,-1.4619590044021606,-0.9380239844322203,0.0938799977302551
1781032529936957700,5.875957763671875,-1.602694034576416,-0.8781660199165344,0.4376850128173828
1781032529956477400,5.8954775390625,-1.344970941543579,-0.7607750296592712,0.949163019657135
1781032529976000800,5.915000732421875,-1.1362069845199585,-0.4367330074310303,1.5284689664840698
1781032529995524400,5.9345244140625,-1.0848779678344729,0.1094300001859664,1.8221410512924197
1781032530015048400,5.95404833984375,-1.246757984161377,0.4434239864349365,2.0328240394592285
1781032530034573000,5.973572998046875,-3.20609188079834,0.8643829822540283,2.159511089324951
1781032530054098400,5.993098388671875,-3.55936598777771,1.3171919584274292,2.2949790954589844
1781032530073624300,6.012624267578125,-5.251863956451416,1.580077052116394,2.554547071456909
1781032530093150000,6.03214990234375,-5.125888824462891,1.958698034286499,2.652332067489624
1781032530112676400,6.05167626953125,-2.8613970279693604,2.553210973739624,2.5141000747680664
1781032530132200400,6.071200439453125,-2.34820294380188,3.056467056274414,2.1685070991516118
1781032530151727400,6.090727294921875,-0.4606379866600036,3.238439083099365,1.9568380117416384
1781032530171257600,6.110257568359375,0.0309890005737543,3.2727038860321045,1.8077800273895264
1781032530190784500,6.129784423828125,-0.0272850003093481,3.1674060821533203,1.811629056930542
1781032530210309600,6.1493095703125,-0.3022800087928772,2.9023959636688232,2.0660290718078613
1781032530229832700,6.168832763671875,-0.5605340003967285,2.7915279865264893,1.9253840446472168
1781032530249353000,6.18835302734375,-0.935591995716095,2.8120429515838623,1.6339370012283323
1781032530268878000,6.207878173828125,-1.1888530254364014,2.8519809246063232,1.4920419454574585
1781032530288406300,6.22740625,-1.3824729919433594,3.034868001937866,1.3427590131759644
1781032530307934200,6.246934326171875,-1.6466050148010254,3.2460498809814453,1.4387389421463013
1781032530327463200,6.266463134765625,-1.8326469659805296,3.333615064620972,1.6775610446929932
1781032530346990000,6.285989990234375,-1.8457410335540767,3.419049024581909,1.90093994140625
1781032530366515500,6.305515380859375,-1.8457410335540767,3.419049024581909,1.90093994140625
1781032530386043000,6.32504296875,-2.078105926513672,3.161029100418091,2.1252400875091557
1781032530405569800,6.34456982421875,-1.7362689971923828,2.9516329765319824,1.7814340591430664
1781032530425097700,6.36409765625,-1.4948569536209106,2.8675100803375244,1.4178160429000854
1781032530444628000,6.3836279296875,-1.6513930559158323,2.7406439781188965,1.311635971069336
1781032530464159200,6.4031591796875,-1.6513930559158323,2.7406439781188965,1.311635971069336
1781032530483684600,6.4226845703125,-1.999290943145752,2.644934892654419,1.2681339979171753
1781032530503203300,6.442203369140625,-2.248382091522217,2.4147539138793945,1.0921299457550049
1781032530522724900,6.461724853515625,-2.064548969268799,2.023560047149658,0.8110179901123047
1781032530542249000,6.4812490234375,-1.8624730110168457,1.7263940572738647,0.5418409705162048
1781032530561770500,6.5007705078125,-2.0705580711364746,1.4750579595565796,0.2163819968700409
1781032530581293600,6.52029345703125,-2.4635350704193115,0.8988369703292847,-0.2104279994964599
1781032530600818200,6.539818115234375,-2.589078903198242,0.2491469979286193,-0.749925971031189
1781032530620342800,6.5593427734375,-2.5505170822143555,0.0075229997746646,-1.0616929531097412
1781032530639867400,6.578867431640625,-2.6626980304718018,0.3391619920730591,-1.0626510381698608
1781032530659392800,6.598392822265625,-2.478990077972412,1.8258670568466189,-0.697521984577179
1781032530678916600,6.61791650390625,-1.9396179914474487,2.175407886505127,-0.1869540065526962
1781032530698436000,6.63743603515625,-1.8169020414352417,2.508568048477173,-0.0429989993572235
1781032530717961200,6.656961181640625,-1.6491440534591677,2.4467248916625977,0.0555259995162487
1781032530737487000,6.676487060546875,-1.4286880493164062,2.0787899494171143,-0.0976099967956543
1781032530757009200,6.696009033203125,-1.7517859935760498,1.6229699850082395,-0.4179190099239349
1781032530776532000,6.715531982421875,-1.83188796043396,1.089782953262329,-0.6496130228042603
1781032530796052000,6.735052001953125,-1.5351660251617432,0.5301929712295532,-0.9832140207290648
1781032530815575600,6.754575439453125,-1.1065319776535034,0.2262690067291259,-1.219351053237915
1781032530835101700,6.774101806640625,-0.5944309830665588,0.2686620056629181,-1.241044044494629
1781032530854628000,6.793628173828125,-0.0894860029220581,0.3595629930496216,-1.2459189891815186
1781032530874155300,6.8131552734375,0.3427749872207641,0.3028950095176697,-1.063606023788452
1781032530893685800,6.832685791015625,0.7121999859809875,0.1915459930896759,-0.9347350001335144
1781032530913214500,6.85221435546875,1.006080985069275,-0.0696159973740577,-1.0985150337219238
1781032530932737000,6.871737060546875,1.2739850282669067,-0.5429090261459351,-1.155042052268982
1781032530952260400,6.89126025390625,1.357146978378296,-1.0229549407958984,-1.1883219480514526
1781032530971787300,6.910787353515625,1.1029380559921265,-1.3802709579467771,-1.1984950304031372
1781032530991313000,6.93031298828125,0.6584140062332153,-1.5027790069580078,-0.9125829935073853
1781032531010834700,6.949834716796875,0.0366140007972717,-1.4361369609832764,-0.4621750116348266
1781032531030359800,6.96935986328125,-0.353657990694046,-1.278427004814148,-0.0208119992166757
1781032531049885200,6.98888525390625,-0.3469789922237396,-1.1543179750442505,0.2677190005779266
1781032531069406700,7.00840673828125,-0.0131799997761845,-1.1049790382385254,0.3114649951457977
1781032531088927000,7.027927001953125,0.3915069997310638,-1.097831964492798,0.2153930068016052
1781032531108447000,7.047447021484375,0.2888340055942535,-1.208016037940979,0.0076219998300075
1781032531127966000,7.066966064453125,-0.0543130002915859,-1.420667052268982,-0.4090949892997741
1781032531147486500,7.086486572265625,-0.611066997051239,-1.624729037284851,-0.9740809798240662
1781032531167008300,7.10600830078125,-2.4020628929138184,-1.7832250595092771,-2.6323750019073486
1781032531186529800,7.12552978515625,-2.4020628929138184,-1.7832250595092771,-2.6323750019073486
1781032531206054000,7.145053955078125,-3.203556060791016,-1.9212239980697632,-2.903640031814575
1781032531225581300,7.164581298828125,-3.4023499488830566,-1.8334239721298216,-2.872860908508301
1781032531245109200,7.184109130859375,-3.2407450675964355,-1.709293007850647,-2.68103289604187
1781032531264637200,7.20363720703125,-2.6433238983154297,-1.4613699913024902,-2.3570330142974854
1781032531284163000,7.2231630859375,-2.6433238983154297,-1.4613699913024902,-2.3570330142974854
1781032531303687000,7.24268701171875,-1.5948840379714966,-1.0776809453964231,-1.8432719707489011
1781032531323209000,7.262208984375,-1.0088499784469604,-0.8236029744148254,-1.7259639501571655
1781032531342733000,7.281733154296875,-0.3740189969539642,-0.4322400093078613,-1.7508909702301023
1781032531362253600,7.301253662109375,0.2842119932174682,-0.0047809998504817,-1.8519890308380127
1781032531381772000,7.32077197265625,1.8860679864883425,0.4014529883861542,-1.9890919923782349
1781032531401295000,7.340295166015625,2.328031063079834,0.837913990020752,-2.145605087280273
1781032531420820500,7.359820556640625,2.880496025085449,1.1683729887008667,-2.2292370796203613
1781032531440345000,7.379344970703125,3.4461889266967773,1.3910419940948486,-2.289123058319092
1781032531459870700,7.39887060546875,3.882477998733521,1.5760730504989624,-2.339224100112915
1781032531479393300,7.418393310546875,4.237302780151367,1.5898929834365845,-2.372314929962158
1781032531498912000,7.437912109375,4.474758148193359,1.5432430505752563,-2.3848910331726074
1781032531518429000,7.457428955078125,4.395656108856201,1.482766032218933,-2.3129420280456543
1781032531537949700,7.47694970703125,4.014777183532715,1.3454710245132446,-2.104821920394897
1781032531557475600,7.4964755859375,3.4121880531311035,1.145833969116211,-1.8380630016326904
1781032531577001200,7.516001220703125,2.7300190925598145,0.843093991279602,-1.5678160190582275
1781032531596523000,7.53552294921875,2.2093698978424072,0.3827689886093139,-1.3201329708099363
1781032531616048000,7.555048095703125,1.8049399852752688,-0.0990130007266998,-1.1449509859085083
1781032531635578000,7.574578125,1.319350004196167,-0.5392950177192688,-0.975466012954712
1781032531655108900,7.59410888671875,0.6997349858283997,-0.8592020273208618,-0.8251960277557373
1781032531674642200,7.61364208984375,-0.9000999927520752,-0.9931269884109496,-0.7281540036201477
1781032531694168800,7.6331689453125,-1.4576040506362915,-0.9624800086021424,-0.5503609776496887
1781032531713693400,7.652693359375,-2.0506739616394043,-0.7720909714698792,-0.438275009393692
1781032531733219800,7.6722197265625,-2.5131239891052246,-0.5136510133743286,-0.4124450087547302
1781032531752744700,7.69174462890625,-2.6644129753112797,-0.2768029868602752,-0.4064520001411438
1781032531772267800,7.711267822265625,-2.5776100158691406,-0.1705639958381652,-0.4723089933395386
1781032531791793400,7.73079345703125,-2.434777021408081,-0.1421310007572174,-0.5778210163116455
1781032531811316000,7.75031591796875,-2.340902090072632,-0.109313003718853,-0.6697189807891846
1781032531830834000,7.769833984375,-2.2849719524383545,-0.0454020015895366,-0.7700660228729248
1781032531850351400,7.789351318359375,-2.2657299041748047,0.073123998939991,-0.8973000049591064
1781032531869869300,7.808869384765625,-2.232614040374756,0.1885029971599578,-0.9433590173721312
1781032531889387800,7.8283876953125,-2.0539679527282715,0.2752430140972137,-1.0306659936904907
1781032531908905700,7.84790576171875,-1.817268967628479,0.3032880127429962,-1.0841740369796753
1781032531928420600,7.867420654296875,-1.4703229665756226,0.3169389963150024,-1.101554036140442
1781032531947933000,7.886932861328125,-1.126330018043518,0.3232049942016601,-1.1231809854507446
1781032531967454200,7.9064541015625,-1.009194016456604,0.3293290138244629,-1.0831079483032229
1781032531986979800,7.925979736328125,-1.1502560377120972,0.3289580047130584,-1.0250519514083862
1781032532006503700,7.945503662109375,-1.420477032661438,0.3362790048122406,-1.011978030204773
1781032532026029300,7.965029296875,-1.420477032661438,0.3362790048122406,-1.011978030204773
1781032532045554200,7.98455419921875,-2.337873935699463,0.4899879992008209,-1.0446699857711792
1781032532065079800,8.004079833984376,-2.601243019104004,0.5846760272979736,-0.9834010004997252
1781032532084607200,8.023607177734375,-2.601243019104004,0.5846760272979736,-0.9834010004997252
1781032532104133000,8.043133056640626,-2.601243019104004,0.5846760272979736,-0.9834010004997252
1781032532123658200,8.062658203125,-3.3076748847961426,0.5280860066413879,-0.8890990018844604
1781032532143183400,8.082183349609375,-3.095026016235352,0.5512109994888306,-0.8832399845123291
1781032532162711300,8.101711181640624,-2.891308069229126,0.6247680187225342,-0.9392589926719666
1781032532182236000,8.12123583984375,-2.644906044006348,0.751013994216919,-1.1079150438308716
1781032532201752600,8.140752685546875,-2.4607009887695312,0.8099470138549805,-1.1434149742126465
1781032532221269000,8.16026904296875,-2.2824020385742188,0.9233589768409728,-1.1439770460128784
1781032532240791600,8.17979150390625,-1.881919026374817,1.1496390104293823,-1.2082979679107666
1781032532260314600,8.199314697265624,-1.4115869998931885,1.413774013519287,-1.373123049736023
1781032532279830500,8.21883056640625,-1.0371040105819702,1.5583659410476685,-1.5483989715576172
1781032532299348000,8.238347900390625,-0.7356989979743958,1.3712539672851562,-1.6223909854888916
1781032532318863600,8.257863525390626,-0.5051959753036499,0.9669920206069946,-1.2954039573669434
1781032532338381300,8.27738134765625,-0.0354400016367435,0.5994110107421875,-0.7594850063323975
1781032532357900300,8.296900390625,1.6692880392074585,0.1759019941091537,0.783939003944397
1781032532377414700,8.31641455078125,2.1908209323883057,0.0409509986639022,1.0105960369110107
1781032532396931600,8.335931640625,2.7104949951171875,0.2021439969539642,0.9104819893836976
1781032532416453400,8.355453369140625,3.1443099975585938,0.2351389974355697,0.8383079767227173
1781032532435979500,8.3749794921875,3.1350960731506348,0.4333249926567077,0.4894889891147613
1781032532455507500,8.394507568359375,2.8819479942321777,0.7268739938735962,-0.159292995929718
1781032532475032800,8.41403271484375,2.924808979034424,0.7483649849891663,-0.7395359873771667
1781032532494558000,8.433557861328126,2.788814067840576,0.7060400247573853,-1.289881944656372
1781032532514078700,8.45307861328125,2.683924913406372,0.868818998336792,-1.6902799606323242
1781032532533597200,8.47259716796875,2.9135899543762207,0.9980360269546508,-1.6172720193862915
1781032532553118000,8.492117919921874,3.0178980827331543,1.089629054069519,-1.1814899444580078
1781032532572637700,8.5116376953125,2.9861979484558105,1.1021920442581177,0.6257140040397644
1781032532592160800,8.531160888671875,2.7435901165008545,0.7289950251579285,0.8291580080986023
1781032532611683800,8.550683837890626,2.3343191146850586,0.3294970095157623,0.9239299893379213
1781032532631204400,8.570204345703125,1.8225189447402956,0.1391229927539825,1.0040110349655151
1781032532650726100,8.58972607421875,1.7610960006713867,-0.0134180001914501,1.003931999206543
1781032532670248700,8.609248779296875,3.5305209159851074,-0.1289699971675872,0.7935180068016052
1781032532689770000,8.62877001953125,3.53922700881958,-0.1647090017795562,0.4263800084590912
1781032532709292000,8.6482919921875,3.452879905700684,-0.1149849966168403,-0.1591120064258575
1781032532728810500,8.667810546875,3.11909294128418,-0.1797329932451248,-0.7874379754066467
1781032532748326100,8.687326171875,1.125311017036438,-0.5538870096206665,-1.3027509450912476
1781032532767845000,8.70684521484375,0.6928380131721497,-1.0002180337905884,-1.5862319469451904
1781032532787364000,8.726364013671875,0.5982720255851746,-1.3303799629211426,-1.639963984489441
1781032532806880800,8.745880859375,0.6599469780921936,-1.5019409656524658,-1.43613600730896
1781032532826399200,8.765399169921874,0.6599469780921936,-1.5019409656524658,-1.43613600730896
1781032532845917000,8.7849169921875,2.888494968414306,-0.9877740144729614,-0.8094170093536377
1781032532865436700,8.804436767578125,2.745635986328125,-0.8925139904022217,-0.4596349895000458
1781032532884958500,8.82395849609375,2.4324119091033936,-0.8894280195236206,-0.4194949865341186
1781032532904479200,8.843479248046876,2.4324119091033936,-0.8894280195236206,-0.4194949865341186
1781032532923994600,8.86299462890625,2.4324119091033936,-0.8894280195236206,-0.4194949865341186
1781032532943511800,8.88251171875,2.7297520637512207,-0.989395022392273,-1.2526689767837524
1781032532963035000,8.902034912109375,4.221078872680664,-1.3182339668273926,-2.7566049098968506
1781032532982558500,8.921558349609375,3.831027030944824,-2.967988967895508,-4.336222171783447
1781032533002081300,8.941081298828125,3.4879260063171387,-2.916635036468506,-4.569640159606934
1781032533021605600,8.960605712890626,3.2400050163269043,-3.137761116027832,-4.935382843017578
1781032533041129500,8.98012939453125,2.6955130100250244,-3.4848248958587646,-5.1331000328063965
1781032533060650500,8.999650390625,1.9465680122375488,-3.556636095046997,-5.121490955352783
1781032533080169500,9.01916943359375,0.375095009803772,-3.7461109161376953,-4.809587001800537
1781032533099688200,9.038688232421874,0.2439980059862136,-3.680474042892456,-4.172843933105469
1781032533119211000,9.0582109375,1.8626600503921509,-3.169002056121826,-3.4840190410614014
1781032533138734000,9.077734130859374,3.389120101928711,-2.7075719833374023,-1.5251469612121582
1781032533158252800,9.097252685546875,3.304738998413086,-2.3498799800872803,-1.108585000038147
1781032533177776600,9.116776611328126,2.9638679027557373,-2.224781990051269,-0.4931040108203888
1781032533197303600,9.136303466796877,2.365284919738769,-2.374497890472412,0.1120970025658607
1781032533216829700,9.15582958984375,1.7571569681167605,-2.5562329292297363,0.5285429954528809
1781032533236358000,9.17535791015625,1.4676510095596311,-2.7290000915527344,0.633787989616394
1781032533255883000,9.194883056640624,1.429373025894165,-2.691960096359253,0.445032000541687
1781032533275407000,9.214406982421876,1.4671920537948608,-2.567087888717652,0.3987950086593628
1781032533294934000,9.23393408203125,1.2727880477905271,-2.5598928928375244,0.4775039851665497
1781032533314459600,9.253459716796876,1.1426860094070437,-2.490242958068848,0.5489689707756042
1781032533333980700,9.272980712890623,1.280311942100525,-2.3664400577545166,0.5849230289459229
1781032533353500000,9.2925,1.3951070308685305,-2.138166904449463,0.4530889987945556
1781032533373023200,9.312023193359376,1.4344569444656372,-1.7649320363998413,0.3301549851894378
1781032533392551700,9.3315517578125,1.0890220403671265,-1.4555519819259644,0.4910379946231842
1781032533412072200,9.351072265625,-0.7734490036964417,-1.1622810363769531,0.9966170191764832
1781032533431590000,9.37058984375,-1.099329948425293,-0.704226016998291,1.5346590280532837
1781032533451107600,9.390107666015624,-1.662081003189087,-0.1806859970092773,2.0372860431671143
1781032533470626300,9.409626220703124,-3.142177104949951,0.3058499991893768,2.454857110977173
1781032533490153500,9.429153564453124,-3.34778904914856,0.5939900279045105,2.656500101089477
1781032533509677600,9.448677490234376,-3.3840041160583496,0.8401340246200562,2.689416885375977
1781032533529199400,9.468199462890626,-3.299263000488281,1.222728967666626,2.624376058578491
1781032533548726300,9.487726318359377,-2.955589056015014,1.537626028060913,2.5535991191864014
1781032533568254200,9.507254150390626,-2.650320053100586,1.8164410591125488,2.4683899879455566
1781032533587779000,9.526779052734376,-2.8060109615325928,2.1544189453125,2.58652400970459
1781032533607299600,9.546299560546874,-3.2123830318450928,2.4554240703582764,2.748990058898926
1781032533626823400,9.565823486328124,-3.357477903366089,2.571913957595825,2.9023048877716064
1781032533646345200,9.58534521484375,-3.6201059818267822,2.554987907409668,2.984126091003418
1781032533665868000,9.604867919921874,-3.383676052093506,2.5545310974121094,2.853003978729248
1781032533685395000,9.62439501953125,-1.7778509855270386,2.5392510890960693,2.726404905319214
1781032533704920300,9.64392041015625,-1.439450979232788,2.5601539611816406,2.551884889602661
1781032533724441000,9.663441162109375,-1.439450979232788,2.5601539611816406,2.551884889602661
1781032533743962600,9.682962646484375,-0.9819719791412354,3.0043020248413086,2.5099010467529297
1781032533763486700,9.70248681640625,-1.0028690099716189,2.863658905029297,2.396505117416382
1781032533783010000,9.722010009765626,-1.0841150283813477,2.6307051181793213,2.089099884033203
1781032533802534100,9.7415341796875,-0.8350830078125,2.4357359409332275,1.6573129892349243
1781032533822059300,9.761059326171877,-0.7505999803543091,2.202011108398437,1.3544960021972656
1781032533841584600,9.780584716796875,-0.845907986164093,2.087249994277954,0.9387760162353516
1781032533861109200,9.800109130859376,-0.3279660046100616,2.007775068283081,0.5746809840202332
1781032533880637400,9.819637451171875,0.1385170072317123,1.870789051055908,0.4064750075340271
1781032533900169700,9.839169677734375,0.6105669736862183,1.6606210470199585,0.5246440172195435
1781032533919696600,9.858696533203124,0.704600989818573,1.5112539529800415,0.8301399946212769
1781032533939222800,9.878222900390623,0.5120900273323059,1.534263014793396,0.9821109771728516
1781032533958750000,9.89775,0.4049600064754486,1.4572999477386477,1.0128610134124756
1781032533978275000,9.917275146484377,0.0605899989604949,1.4135669469833374,0.7938950061798096
1781032533997798400,9.93679833984375,-1.6284550428390503,1.451619029045105,0.4265339970588684
1781032534017319400,9.9563193359375,-1.857954978942871,1.4297610521316528,0.179528996348381
1781032534036841700,9.975841796875,-2.0488200187683105,1.3795520067214966,-0.0278820004314184
1781032534056361500,9.995361572265624,-2.1171178817749023,1.3147430419921875,-0.2800959944725036
1781032534075880400,10.01488037109375,-1.966560959815979,1.2424579858779907,-0.5666210055351257
1781032534095398700,10.034398681640624,-1.9556299448013303,1.2302290201187134,-0.8965590000152588
1781032534114917600,10.053917724609375,-2.283590078353882,1.3302160501480105,-1.2299929857254028
1781032534134439700,10.073439697265623,-2.453119993209839,1.368343949317932,-1.437809944152832
1781032534153963300,10.09296337890625,-2.6648569107055664,1.2361639738082886,-1.550927996635437
1781032534173491500,10.112491455078125,-2.984071969985962,1.0729819536209106,-1.6209369897842407
1781032534193018400,10.132018310546876,-3.026696920394897,0.9139999747276306,-1.5506600141525269
1781032534212541400,10.15154150390625,-2.905050039291382,0.7509469985961914,-1.3365089893341064
1781032534232067000,10.171067138671877,-2.338139057159424,0.623121976852417,-0.951915979385376
1781032534251593000,10.190593017578124,-0.8311989903450012,0.5427299737930298,-0.5392249822616577
1781032534271116300,10.2101162109375,-0.6910809874534607,0.4334680140018463,-0.211326003074646
1781032534290638800,10.229638916015626,-0.3207629919052124,0.1724720001220703,0.0146420001983642
1781032534310159000,10.2491591796875,0.198975995182991,-0.1203309968113899,0.0266919992864131
1781032534329676300,10.26867626953125,0.5760999917984009,-0.4318619966506958,0.0177170000970363
1781032534349194200,10.2881943359375,0.8233759999275208,-0.7401099801063538,-0.0705830007791519
1781032534368713000,10.307712890625,0.9619399905204772,-0.8831809759140015,-0.3142940104007721
1781032534388231200,10.327231201171877,0.935234010219574,-0.8817809820175171,-0.6067129969596863
1781032534407751400,10.34675146484375,0.6325960159301758,-0.6762049794197083,-0.9771389961242676
1781032534427273500,10.3662734375,0.0233810003846883,-0.2335509955883026,-1.412680983543396
1781032534446794500,10.38579443359375,0.0233810003846883,-0.2335509955883026,-1.412680983543396
1781032534466314800,10.405314697265624,-2.0050981044769287,0.4451619982719421,-1.9331270456314087
1781032534485832000,10.42483203125,-2.2111170291900635,0.5177860260009766,-1.8994699716567995
1781032534505350400,10.444350341796875,-2.218173027038574,0.2891049981117248,-1.739274024963379
1781032534524867600,10.46386767578125,-2.24247407913208,-0.0271349996328353,-1.6039530038833618
1781032534544384800,10.483384765625,-2.24247407913208,-0.0271349996328353,-1.6039530038833618
1781032534563906600,10.502906494140625,-2.24247407913208,-0.0271349996328353,-1.6039530038833618
1781032534583429000,10.52242919921875,-3.1050679683685303,-0.394212007522583,-1.4129949808120728
1781032534602947300,10.541947265625,-3.331078052520752,-0.2175419926643371,-1.21131694316864
1781032534622468000,10.561468017578123,-3.2446460723876958,-0.0998039990663528,-0.9567139744758606
1781032534641997300,10.580997314453125,-2.998244047164917,-0.0189919993281364,-0.7843930125236511
1781032534661524000,10.60052392578125,-2.730721950531006,0.0765819996595382,-0.7574329972267151
1781032534681042200,10.620042236328125,-2.3823459148406982,0.1052780002355575,-0.847042977809906
1781032534700558300,10.639558349609375,-1.9755140542984009,0.2255319952964782,-0.9210669994354248
1781032534720072200,10.659072265625,-1.4622429609298706,0.2799969911575317,-1.0278990268707275
1781032534739590000,10.67858984375,-0.7677620053291321,0.2034569978713989,-1.1090199947357178
1781032534759112700,10.69811279296875,-0.0944849997758865,0.0430900007486343,-1.2002160549163818
1781032534778632700,10.7176328125,0.5044609904289246,-0.2403469979763031,-1.2999629974365234
1781032534798149400,10.7371494140625,1.0084480047225952,-0.4757609963417053,-1.2899270057678225
1781032534817667800,10.756667724609375,1.30234694480896,-0.6876909732818604,-1.220685958862305
1781032534837189000,10.776189208984375,1.5754890441894531,-0.7578690052032471,-1.1624369621276855
1781032534856710400,10.79571044921875,1.8322139978408811,-0.6937429904937744,-1.1231149435043335
1781032534876231000,10.81523095703125,2.1231861114501958,-0.5024660229682922,-1.1472610235214231
1781032534895750000,10.83475,2.404814958572388,-0.1782940030097961,-1.220458984375
1781032534915268900,10.854268798828125,2.526500940322876,0.0973939970135688,-1.2435590028762815
1781032534934789000,10.8737890625,2.539469957351685,0.3441770076751709,-1.284369945526123
1781032534954308900,10.893308837890626,2.37886905670166,0.5058730244636536,-1.2804679870605469
1781032534973822500,10.912822509765626,2.1788330078125,0.5812079906463623,-1.255362033843994
1781032534993336800,10.9323369140625,2.0359389781951904,0.6326709985733032,-1.2377259731292725
1781032535012855000,10.95185498046875,1.946463942527771,0.6612020134925842,-1.216815948486328
1781032535032372500,10.97137255859375,1.9351749420166016,0.6534370183944702,-1.2196069955825806
1781032535051893800,10.990893798828123,1.931892991065979,0.6578400135040283,-1.230576992034912
1781032535071416000,11.010416015625,1.924144983291626,0.7536060214042664,-1.263224959373474
1781032535090935800,11.029935791015625,1.850136995315552,0.8736979961395264,-1.311750054359436
1781032535110456300,11.049456298828124,1.7039769887924194,1.0033750534057615,-1.3559889793395996
1781032535129977000,11.06897705078125,1.5840879678726196,1.090764045715332,-1.451267957687378
1781032535149496800,11.088496826171877,1.4227429628372192,1.0717920064926147,-1.573567032814026
1781032535169016600,11.1080166015625,1.305055022239685,1.0108859539031982,-1.6308410167694092
1781032535188538400,11.127538330078124,1.1308159828186035,0.9835270047187804,-1.6780179738998413
1781032535208056600,11.147056640625,0.8420360088348389,1.0397039651870728,-1.645218014717102
1781032535227574300,11.16657421875,0.5494809746742249,1.125622034072876,-1.469836950302124
1781032535247100400,11.186100341796877,0.3316160142421722,1.0979770421981812,-1.2053550481796265
1781032535266627600,11.205627685546874,0.3316160142421722,1.0979770421981812,-1.2053550481796265
1781032535286150000,11.22514990234375,0.3127779960632324,0.8980519771575928,-0.9597690105438232
1781032535305676300,11.24467626953125,0.0984399989247322,0.5947989821434021,-1.0021450519561768
1781032535325206000,11.2642060546875,-0.2588140070438385,0.3923070132732391,-1.2153630256652832
1781032535344734000,11.28373388671875,-0.4618690013885498,0.1337430030107498,-1.4679360389709473
1781032535364260000,11.303260009765625,-0.4618690013885498,0.1337430030107498,-1.4679360389709473
1781032535383786500,11.322786376953124,-0.0795760005712509,-0.3288500010967254,-1.5886149406433103
1781032535403310000,11.34231005859375,-0.133652001619339,-0.6501349806785583,-1.5852400064468384
1781032535422827500,11.36182763671875,-0.4224709868431091,-0.9278780221939088,-1.4301810264587402
1781032535442342100,11.381342041015625,-0.9206349849700928,-1.0590200424194336,-1.3857179880142212
1781032535461859600,11.400859619140626,-2.568993091583252,-1.089493989944458,-1.3260849714279177
1781032535481381000,11.420381103515624,-2.8385660648345947,-0.8068789839744568,-1.2201069593429563
1781032535500903400,11.4399033203125,-3.1119680404663086,-0.3676579892635345,-1.1886310577392578
1781032535520427300,11.45942724609375,-3.341886043548584,0.0676940008997917,-1.2100600004196167
1781032535539950300,11.478950439453126,-3.479243040084839,0.3792319893836975,-1.225836992263794
1781032535559472400,11.498472412109376,-3.6000189781188965,0.5738040208816528,-1.2445390224456787
1781032535578998300,11.517998291015624,-3.651988029479981,0.7571120262145996,-1.3555740118026731
1781032535598524200,11.537524169921875,-3.548460960388184,0.9749159812927246,-1.557096004486084
1781032535618049000,11.557049072265626,-3.468374013900757,1.115347981452942,-1.669461011886597
1781032535637573600,11.57657373046875,-3.2458009719848637,1.162896990776062,-1.7213670015335083
1781032535657099000,11.59609912109375,-2.818864107131958,1.0811580419540403,-1.6596649885177612
1781032535676625000,11.615625,-2.260907888412476,0.9593539834022522,-1.205746054649353
1781032535696150300,11.635150390625,-0.4407959878444671,0.9929749965667723,0.380854994058609
1781032535715673900,11.654673828125,-0.1071460023522377,1.2481789588928225,0.6006370186805725
1781032535735196200,11.674196044921874,0.2828789949417114,1.5688079595565796,0.9956780076026917
1781032535754720300,11.69372021484375,0.2132239937782287,1.7331769466400146,1.3286659717559814
1781032535774249000,11.7132490234375,0.1258379966020584,1.864313006401062,1.203542947769165
1781032535793775900,11.73277587890625,0.0745109990239143,2.0018739700317383,0.9497079849243164
1781032535813302000,11.752302001953124,0.0952510014176368,2.0297091007232666,0.511542022228241
1781032535832828700,11.77182861328125,0.2335759997367859,2.024432897567749,-1.2105720043182373
1781032535852351500,11.7913515625,0.1553719937801361,1.9494669437408447,-1.430783987045288
1781032535871876000,11.8108759765625,-0.0886859968304634,1.5653460025787354,-1.570199966430664
1781032535891402800,11.83040283203125,-0.4898090064525604,1.2091740369796753,-1.6478339433670044
1781032535910924000,11.849924072265624,-0.7134199738502502,0.990764021873474,-1.5020699501037598
1781032535930447000,11.869447021484374,-0.7424820065498352,0.8444240093231201,-1.2494709491729736
1781032535949975000,11.88897509765625,-0.7854959964752197,0.7760059833526611,-1.0035619735717771
1781032535969504500,11.90850439453125,-0.5902600288391113,0.7415509819984436,-0.9587690234184264
1781032535989031200,11.92803125,-0.147718995809555,0.9094619750976562,-1.1517390012741089
1781032536008559000,11.94755908203125,0.4059250056743622,1.016975998878479,-1.1643229722976685
1781032536028088600,11.967088623046877,0.7932109832763672,1.0968979597091677,-1.090095043182373
1781032536047610400,11.9866103515625,1.0476700067520142,1.3714289665222168,-1.0976409912109375
1781032536067130600,12.006130615234374,2.780287981033325,1.4442470073699951,-1.137874960899353
1781032536086648300,12.0256484375,2.780287981033325,1.4442470073699951,-1.137874960899353
1781032536106168300,12.045168212890625,6.299602031707764,1.3795690536499023,-1.703008055686951
1781032536125699300,12.06469921875,6.299602031707764,1.3795690536499023,-1.703008055686951
1781032536145237200,12.0842373046875,6.325708866119385,-0.5683670043945312,-2.534403085708618
1781032536164769500,12.10376953125,6.325708866119385,-0.5683670043945312,-2.534403085708618
1781032536184300800,12.12330078125,5.969390869140625,-1.0822399854660034,-3.426086902618408
1781032536203831600,12.14283154296875,5.969390869140625,-1.0822399854660034,-3.426086902618408
1781032536223357700,12.162357666015623,5.3229827880859375,-1.6162899732589722,-3.30377197265625
1781032536242883800,12.1818837890625,5.1804399490356445,-1.7160929441452026,-2.950095891952514
1781032536262413000,12.2014130859375,5.2747907638549805,-1.7097129821777344,-2.4606730937957764
1781032536281946400,12.2209462890625,5.240081787109375,-1.5079020261764526,-1.934272050857544
1781032536301479700,12.240479736328124,4.905239105224609,-1.0518449544906616,-1.6818469762802124
1781032536321008400,12.26000830078125,4.517220973968506,-0.6963689923286438,-2.019073009490967
1781032536340537900,12.279537841796875,4.400688171386719,-0.6958410143852234,-3.481837034225464
1781032536360069000,12.299069091796875,5.940831184387207,-0.9034299850463868,-3.682845115661621
1781032536379595500,12.318595458984374,7.470763206481934,-1.2278050184249878,-3.624170064926148
1781032536399120600,12.33812060546875,7.68105411529541,-1.7268610000610352,-3.3002889156341557
1781032536418647600,12.3576474609375,7.891451835632324,-3.073513984680176,-3.010819911956787
1781032536438171400,12.37717138671875,7.750888824462891,-3.146172046661377,-3.016948938369751
1781032536457697800,12.39669775390625,7.031957149505615,-3.101739883422852,-3.286379098892212
1781032536477226200,12.416226318359374,5.191898822784424,-2.8901588916778564,-3.227829933166504
1781032536496750800,12.435750732421877,4.589247226715088,-2.4115540981292725,-3.047806978225708
1781032536516277800,12.45527783203125,4.0156989097595215,-1.9390209913253784,-2.8206920623779297
1781032536535806200,12.47480615234375,3.605823993682861,-1.6264220476150513,-2.5149600505828857
1781032536555335200,12.494335205078125,3.198873996734619,-1.5616470575332642,-2.2238190174102783
1781032536574865200,12.513865234375,2.777596950531006,-1.6973400115966797,-1.8167179822921755
1781032536594391300,12.533391357421875,2.287982940673828,-1.7145060300827026,-1.393161058425903
1781032536613917000,12.5529169921875,1.5987060070037842,-1.692232966423035,-1.0393890142440796
1781032536633443300,12.572443359375,0.8866090178489685,-1.812399983406067,-0.619333028793335
1781032536652969000,12.591968994140624,0.4078730046749115,-1.860116958618164,-0.0779009982943534
1781032536672492000,12.611491943359376,0.3350099921226501,-1.7987990379333496,0.5030249953269958
1781032536692014000,12.63101416015625,0.6108580231666565,-1.7102760076522827,2.3488149642944336
1781032536711538400,12.650538330078126,1.0094799995422363,-1.320781946182251,2.5143439769744877
1781032536731064300,12.670064208984376,1.117411971092224,-1.0622689723968506,2.73301100730896
1781032536750592000,12.689592041015626,1.003934025764465,-1.1030230522155762,3.032381057739258
1781032536770121700,12.709121826171875,0.8162149786949158,-1.1378209590911863,3.0451159477233887
1781032536789646000,12.72864599609375,0.4317379891872406,-1.0554399490356443,3.013097047805786
1781032536809168600,12.748168701171876,-1.2549090385437012,-0.6478490233421326,2.9443180561065674
1781032536828693200,12.767693359375,-1.5680140256881714,-0.192121997475624,2.9791159629821777
1781032536848217900,12.7872177734375,-1.8554049730300903,0.0252880007028579,3.057807922363281
1781032536867743700,12.80674365234375,-1.946123957633972,0.3743939995765686,2.9253740310668945
1781032536887262700,12.8262626953125,-2.067970037460327,0.9641709923744202,2.568727970123291
1781032536906784500,12.845784423828125,-2.067970037460327,0.9641709923744202,2.568727970123291
1781032536926314800,12.865314697265624,-2.664823055267334,1.7808200120925903,2.383207082748413
1781032536945843500,12.884843505859376,-4.235345840454102,1.9374799728393557,2.365868091583252
1781032536965369900,12.904369873046877,-4.235345840454102,1.9374799728393557,2.365868091583252
1781032536984900000,12.923900146484376,-5.124748229980469,1.6419570446014404,3.743828058242798
1781032537004428000,12.943427978515626,-5.461765766143799,1.847133994102478,3.611989974975586
1781032537023949800,12.96294970703125,-5.721818923950195,1.9590330123901367,3.727880954742432
1781032537043469800,12.9824697265625,-5.721818923950195,1.9590330123901367,3.727880954742432
1781032537062993400,13.001993408203123,-6.242924213409424,2.0890889167785645,3.5917809009552
1781032537082521600,13.021521484375,-6.630561828613281,2.1869049072265625,3.221579074859619
1781032537102046700,13.041046630859377,-6.751098155975342,2.2233829498291016,2.7926669120788574
1781032537121569000,13.060569091796877,-6.644618988037109,2.2987730503082275,2.3473150730133057
1781032537141094400,13.080094482421876,-6.771296977996826,2.408874034881592,1.941298007965088
1781032537160618500,13.099618408203124,-6.591188907623291,2.2759180068969727,1.6085879802703855
1781032537180142800,13.119142822265625,-5.841100215911865,1.947198987007141,1.27818500995636
1781032537199669000,13.1386689453125,-5.095780849456787,1.732498049736023,0.86148601770401
1781032537219199700,13.15819970703125,-4.440393924713135,1.6889519691467283,0.4567179977893829
1781032537238729700,13.177729736328123,-3.5161020755767822,1.713665008544922,0.2511979937553406
1781032537258256000,13.197255859375,-2.9728000164031982,1.8220219612121584,0.0846399962902069
1781032537277782000,13.216781982421876,-2.750515937805176,2.003894090652466,-0.1715500056743621
1781032537297311700,13.236311767578124,-2.144525051116944,2.11552095413208,-0.3405410051345825
1781032537316842000,13.255842041015624,-1.7260299921035769,2.2731618881225586,-0.3236649930477142
1781032537336371000,13.275370849609375,-1.5526729822158811,2.5433549880981445,-0.302821010351181
1781032537355901200,13.294901123046875,-0.9953110218048096,2.633852005004883,-0.2224639952182769
1781032537375427800,13.314427734375,-0.4261110126972198,2.5095739364624023,-0.097521997988224
1781032537394952200,13.3339521484375,-0.1465110033750534,2.2853379249572754,-0.0982439965009689
1781032537414480000,13.35347998046875,0.0351850017905235,1.978371024131775,-0.2663399875164032
1781032537434010600,13.3730107421875,0.1236070021986961,1.6529860496520996,-0.4800460040569305
1781032537453543400,13.39254345703125,0.0567860007286071,1.2482670545578003,-0.6684449911117554
1781032537473074400,13.412074462890626,-0.0937459990382194,0.8352259993553162,-1.031169056892395
1781032537492602600,13.4316025390625,-0.170427992939949,0.4827359914779663,-1.409980058670044
1781032537512126000,13.4511259765625,-0.1581189930438995,0.1541849970817566,-1.5389139652252195
1781032537531647700,13.470647705078123,0.0541179999709129,-0.1130819991230964,-1.517200946807861
1781032537551171600,13.490171630859376,0.3910579979419708,-0.2720809876918793,-1.4683829545974731
1781032537570692900,13.50969287109375,0.5115919709205627,-0.3093720078468323,-1.41013503074646
1781032537590217000,13.529217041015626,0.3322530090808868,-0.3607960045337677,-1.267912983894348
1781032537609748200,13.548748291015626,-0.1201239973306655,-0.4199059903621673,-1.1367039680480957
1781032537629279700,13.56827978515625,-0.5266100168228149,-0.4927890002727508,-0.9091389775276184
1781032537648804600,13.5878046875,-0.6129680275917053,-0.6815059781074524,-0.6747679710388184
1781032537668326400,13.607326416015624,-0.4073230028152466,-0.9098029732704164,-0.5558080077171326
1781032537687846000,13.626845947265624,0.0839240029454231,-1.1353349685668943,-0.5215790271759033
1781032537707368200,13.6463681640625,0.6410980224609375,-1.3035149574279783,-0.5985879898071289
1781032537726894800,13.665894775390624,1.0826719999313354,-1.2620660066604614,-0.7675300240516663
1781032537746414800,13.685414794921876,1.0379129648208618,-1.1272070407867432,-1.0511020421981812
1781032537765932500,13.7049326171875,0.4301150143146515,-0.9389349818229676,-1.3724349737167358
1781032537785458000,13.7244580078125,0.4301150143146515,-0.9389349818229676,-1.3724349737167358
1781032537804986600,13.743986572265625,-1.6582460403442385,-0.5890269875526428,-1.852094054222107
1781032537824514600,13.7635146484375,-1.6582460403442385,-0.5890269875526428,-1.852094054222107
1781032537844039000,13.783038818359374,-1.6582460403442385,-0.5890269875526428,-1.852094054222107
1781032537863561700,13.802561767578124,0.4644289910793304,-1.2950420379638672,-1.3567990064620972
1781032537883083300,13.822083251953124,0.5250300168991089,-1.497365951538086,-1.2079789638519287
1781032537902606800,13.84160693359375,0.2702969908714294,-1.5486160516738892,-1.1825250387191772
1781032537922128100,13.861128173828124,-0.2621090114116668,-1.4634640216827393,-1.2191929817199707
1781032537941648100,13.880648193359375,-0.8358449935913086,-1.3308000564575195,-1.28541898727417
1781032537961168600,13.900168701171877,-1.3161779642105105,-1.1934720277786257,-1.286041021347046
1781032537980685800,13.919685791015626,-1.6638760566711426,-1.1329959630966189,-1.2164980173110962
1781032538000205600,13.93920556640625,-1.6691360473632812,-1.1068869829177856,-1.1921850442886353
1781032538019727000,13.95872705078125,-1.4046469926834106,-1.0567560195922852,-1.1759860515594482
1781032538039251700,13.978251708984375,-1.07013201713562,-0.930823028087616,-1.1777909994125366
1781032538058776000,13.997776123046876,-0.6666460037231445,-0.7287880182266235,-1.223065972328186
1781032538078296300,14.01729638671875,-0.3458969891071319,-0.4921729862689972,-1.2651790380477903
1781032538097821000,14.036821044921876,-0.1440549939870834,-0.2296810001134872,-1.3350210189819336
1781032538117345000,14.056344970703124,0.0055720000527799,0.0409989990293979,-1.427332043647766
1781032538136866000,14.075865966796876,0.1784480065107345,0.3473939895629883,-1.489184021949768
1781032538156387300,14.09538720703125,0.3635819852352142,0.704925000667572,-1.541659951210022
1781032538175908600,14.11490869140625,0.5870569944381714,1.026473045349121,-1.5452860593795776
1781032538195428900,14.134428955078125,0.8815810084342957,1.248805046081543,-1.5095950365066528
1781032538214952000,14.153951904296877,1.198161005973816,1.3478410243988037,-1.433298945426941
1781032538234477300,14.173477294921875,1.513551950454712,1.3008869886398315,-1.3527840375900269
1781032538254002000,14.193001953125,1.6932599544525146,1.140117049217224,-1.2647650241851809
1781032538273524700,14.212524658203124,1.658184051513672,0.9166780114173888,-1.2324559688568115
1781032538293042700,14.232042724609377,1.5109059810638428,0.7012289762496948,-1.242177963256836
1781032538312562700,14.251562744140625,1.3776990175247192,0.486312985420227,-1.2341630458831787
1781032538332082400,14.27108251953125,1.392151951789856,0.3039860129356384,-1.2558369636535645
1781032538351599400,14.290599365234376,1.5246150493621826,0.1015750020742416,-1.241170048713684
1781032538371118600,14.31011865234375,1.6518750190734863,-0.0918219983577728,-1.2386059761047363
1781032538390637600,14.329637451171877,1.4499069452285769,-0.2517229914665222,-1.2539019584655762
1781032538410156000,14.349156005859374,0.836089015007019,-0.3715550005435943,-1.1618629693984983
1781032538429677600,14.368677490234376,-0.7615939974784851,-0.3244700133800506,-1.021878957748413
1781032538449202000,14.388201904296874,-1.1677119731903076,-0.2259009927511215,-0.9085540175437928
1781032538468728600,14.407728515625,-1.5936260223388672,-0.1659960001707077,-0.8477950096130371
1781032538488253400,14.42725341796875,-1.7477680444717407,-0.2585780024528503,-0.844989001750946
1781032538507784400,14.446784423828126,-1.7101969718933103,-0.4261919856071472,-0.94513201713562
1781032538527316000,14.46631591796875,-1.8719370365142824,-0.5846899747848511,-1.0503220558166504
1781032538546842400,14.48584228515625,-2.188844919204712,-0.6717470288276672,-1.1024119853973389
1781032538566363000,14.50536279296875,-2.188844919204712,-0.6717470288276672,-1.1024119853973389
1781032538585880300,14.52488037109375,-4.405354022979736,-0.533286988735199,-1.2482730150222778
1781032538605400800,14.54440087890625,-5.810681819915772,-0.5170919895172119,-1.425523042678833
1781032538624922000,14.563922119140624,-5.807203769683838,-0.4720599949359894,-1.6010140180587769
1781032538644441900,14.58344189453125,-5.807203769683838,-0.4720599949359894,-1.6010140180587769
1781032538663964000,14.6029638671875,-5.807203769683838,-0.4720599949359894,-1.6010140180587769
1781032538683486700,14.62248681640625,-4.596831798553467,0.4828499853610992,-1.683732986450195
1781032538703008500,14.642008544921875,-3.843950033187866,0.8280209898948669,-1.5968430042266846
1781032538722531800,14.66153173828125,-3.193701982498169,1.0400309562683103,-1.6475800275802612
1781032538742055400,14.681055419921876,-2.6572980880737305,1.0348119735717771,-1.5930219888687134
1781032538761576400,14.700576416015624,-2.2514209747314453,0.9101099967956544,-1.5771379470825195
1781032538781096400,14.720096435546877,-1.9319260120391848,0.8433030247688293,-1.7363159656524658
1781032538800616700,14.73961669921875,-0.2601230144500732,0.7722340226173401,-1.9223289489746092
1781032538820139300,14.75913916015625,0.101681001484394,0.6722149848937988,-2.051884889602661
1781032538839664400,14.778664306640623,0.667618989944458,0.7276179790496826,-2.1543400287628174
1781032538859191600,14.798191650390624,2.2435688972473145,0.792917013168335,-2.069654941558838
1781032538878717400,14.817717529296877,2.31587290763855,0.8374040126800537,-1.9186680316925049
1781032538898239000,14.837239013671876,2.274209976196289,0.9282119870185852,-1.9001319408416748
1781032538917762600,14.856762451171877,2.356163024902344,0.9491919875144958,-1.7167589664459229
1781032538937289500,14.87628955078125,2.4316720962524414,0.9939969778060912,-1.493056058883667
1781032538956817700,14.895817626953123,2.4669198989868164,1.171170949935913,-1.2695130109786987
1781032538976340700,14.9153408203125,2.355609893798828,1.2935709953308103,-0.8663719892501831
1781032538995862000,14.934862060546877,0.7426210045814514,1.23819100856781,-0.7407580018043518
1781032539015379700,14.954379638671876,0.4714410006999969,0.9961220026016236,-0.737438976764679
1781032539034897200,14.973897216796876,0.1828590035438537,0.6584200263023376,-0.6059150099754333
1781032539054418000,14.99341796875,-0.0748080015182495,0.5674120187759399,-0.435030996799469
1781032539073937700,15.012937744140626,-0.1753129959106445,0.786637008190155,-0.0671060010790824
1781032539093457200,15.03245703125,-0.0115400003269314,1.0880329608917236,0.4249880015850067
1781032539112979000,15.05197900390625,0.5175960063934326,1.2705650329589844,0.8896909952163696
1781032539132504600,15.071504638671875,0.9766539931297302,1.321226954460144,1.168091058731079
1781032539152031000,15.091031005859374,1.5902960300445557,1.303377985954285,1.1890850067138672
1781032539171558400,15.110558349609375,2.912316083908081,1.1569390296936035,0.9119499921798706
1781032539191084300,15.130084228515624,2.8814868927001958,0.8286700248718262,0.3440639972686767
1781032539210610000,15.14960986328125,3.087774991989136,0.4083920121192932,-0.2399049997329712
1781032539230136000,15.169135986328126,3.249811887741089,0.062254998832941,-0.6284229755401611
1781032539249660000,15.188659912109374,3.579483985900879,-0.2990530133247375,-0.5717729926109314
1781032539269182700,15.2081826171875,3.740648031234741,-0.443257987499237,-0.2098020017147064
1781032539288707300,15.227707275390625,3.5179998874664307,-0.282023012638092,0.0449710004031658
1781032539308229400,15.2472294921875,2.985124111175537,-0.2043009996414184,0.1332859992980957
1781032539327750100,15.266750244140624,1.050521969795227,-0.1856849938631057,-0.017247999086976
1781032539347272700,15.286272705078124,-0.842041015625,-0.085775002837181,-0.080996997654438
1781032539366796500,15.305796630859374,-2.5642800331115723,-0.0198800005018711,-0.0699279978871345
1781032539386322400,15.325322509765623,-2.5642800331115723,-0.0198800005018711,-0.0699279978871345
1781032539405848800,15.344848876953124,-2.779820919036865,0.0353379994630813,0.5496670007705688
1781032539425378800,15.36437890625,-2.894355058670044,0.2006880044937133,0.8511829972267151
1781032539444910000,15.38391015625,-2.378056049346924,0.1048529967665672,1.2818059921264648
1781032539464440300,15.4034404296875,-2.378056049346924,0.1048529967665672,1.2818059921264648
1781032539483967200,15.42296728515625,-0.90317302942276,-0.9849219918251038,1.5854849815368652
1781032539503491000,15.442490966796877,-0.90317302942276,-0.9849219918251038,1.5854849815368652
1781032539523011600,15.462011474609374,-0.4242410063743591,-2.13051700592041,1.3480130434036257
1781032539542532400,15.481532470703126,-0.1139490008354187,-2.5584030151367188,1.2546950578689575
1781032539562057000,15.501056884765624,0.3099370002746582,-2.6459949016571045,1.0481040477752686
1781032539581580000,15.520580078125,0.9166409969329834,-2.553338050842285,0.9050509929656982
1781032539601102300,15.540102294921876,1.3885389566421509,-2.4780468940734863,0.7638869881629944
1781032539620626200,15.559626220703125,1.7728370428085327,-2.2495250701904297,0.6254969835281372
1781032539640144600,15.57914453125,2.155669927597046,-1.8697179555892944,0.5173749923706055
1781032539659659500,15.598659423828124,2.3725619316101074,-1.637104034423828,0.4898029863834381
1781032539679177500,15.618177490234377,2.48990797996521,-1.3974130153656006,0.3656730055809021
1781032539698697000,15.637697021484374,2.288508892059326,-1.100911021232605,0.2352540045976638
1781032539718218200,15.65721826171875,1.9170750379562376,-0.9660019874572754,0.3056359887123108
1781032539737740500,15.676740478515624,1.6207829713821411,-0.9105499982833862,0.3481659889221191
1781032539757267200,15.69626708984375,1.4535609483718872,-0.8211929798126221,0.387809008359909
1781032539776798200,15.715798095703123,1.2563639879226685,-0.6922839879989624,0.5991529822349548
1781032539796329500,15.73532958984375,1.1902769804000854,-0.7443119883537292,0.861732006072998
1781032539815853600,15.754853515625,1.3733839988708496,-0.8655040264129639,1.0864570140838623
1781032539835372500,15.77437255859375,1.615507960319519,-0.7398639917373657,1.2911579608917236
1781032539854895600,15.7938955078125,1.6201850175857544,-0.5244470238685608,1.4374749660491943
1781032539874422300,15.81342236328125,1.1944860219955444,-0.3677180111408233,1.5310269594192505
1781032539893951000,15.832950927734377,-2.208826065063477,-0.3376500010490417,1.3646390438079834
1781032539913479000,15.85247900390625,-5.460562229156494,-0.6035199761390686,1.1156820058822632
1781032539933005300,15.87200537109375,-7.319425106048584,-0.9417750239372252,0.8616520166397095
1781032539952533500,15.891533447265624,-7.551255226135254,-1.275199055671692,0.7654619812965393
1781032539972062500,15.9110625,-4.07189416885376,-1.2260090112686155,0.938643991947174
1781032539991587300,15.93058740234375,-0.1078540012240409,-0.7061020135879517,1.0319260358810425
1781032540011106600,15.9501064453125,4.480472087860107,-0.3215169906616211,1.260936975479126
1781032540030622200,15.969622314453124,5.025968074798584,-0.0873230025172233,1.2327640056610107
1781032540050134000,15.989134033203126,3.5805139541625977,-0.0136380000039935,0.9420300126075744
1781032540069645300,16.008645263671873,1.0393619537353516,-0.1936649978160858,0.7399140000343323
1781032540089164500,16.02816455078125,0.3501369953155517,-0.2634370028972626,-0.8579360246658325
1781032540108693500,16.047693603515626,-0.233483001589775,-0.2373670041561126,-0.988619029521942
1781032540128225500,16.0672255859375,-0.4059720039367676,-0.1605820059776306,-1.0949740409851074
1781032540147756500,16.086756591796874,1.70319402217865,0.0653259977698326,-1.0421299934387207
1781032540167283500,16.106283447265625,3.6444458961486816,0.3038530051708221,-0.5639330148696899
1781032540186812000,16.12581201171875,3.752262115478516,0.5591470003128052,1.0651439428329468
1781032540206340400,16.14534033203125,3.752262115478516,0.5591470003128052,1.0651439428329468
1781032540225866200,16.1648662109375,3.8052918910980233,0.7369840145111084,1.6861909627914429
1781032540245396700,16.184396728515626,3.3077991008758545,0.7328190207481384,1.8255419731140137
1781032540264930600,16.2039306640625,1.560958981513977,0.7615829706192017,1.8779089450836184
1781032540284461300,16.22346142578125,1.560958981513977,0.7615829706192017,1.8779089450836184
1781032540303994600,16.24299462890625,1.560958981513977,0.7615829706192017,1.8779089450836184
1781032540323524900,16.26252490234375,0.7252990007400513,0.9421240091323853,2.093456983566284
1781032540343046700,16.282046630859377,0.1138420030474662,1.0662750005722046,1.8513330221176147
1781032540362575600,16.30157568359375,-1.5303800106048584,1.2089799642562866,1.4388929605484009
1781032540382112300,16.3211123046875,-1.7691099643707275,1.223080039024353,0.933633029460907
1781032540401647900,16.34064794921875,-2.15263295173645,1.184787034988403,0.3069109916687011
1781032540421181200,16.36018115234375,-2.557508945465088,1.1831300258636477,-0.3870849907398224
1781032540440715300,16.37971533203125,-2.9633901119232178,1.0916539430618286,-0.9270859956741332
1781032540460248000,16.399248046875,-3.2876009941101074,1.0452059507369995,-1.3572540283203125
1781032540479779600,16.418779541015624,-3.58664608001709,1.1454060077667236,-1.633208990097046
1781032540499314000,16.43831396484375,-3.892242908477783,1.248890995979309,-1.7647559642791748
1781032540518850800,16.457850830078126,-4.221734046936035,1.3103749752044678,-1.901149034500122
1781032540538386400,16.477386474609375,-4.426874160766602,1.370038986206055,-2.0109360218048096
1781032540557924900,16.4969248046875,-4.574160099029541,1.3406330347061155,-1.9765650033950808
1781032540577460700,16.516460693359374,-4.682103157043457,1.2837339639663696,-1.8255059719085691
1781032540596985900,16.53598583984375,-4.575267791748047,1.3258990049362185,-1.5454250574111938
1781032540616509000,16.555509033203126,-4.246838092803955,1.3831759691238403,-1.2367719411849976
1781032540636031700,16.57503173828125,-3.7807579040527344,1.3751230239868164,-0.9683719873428344
1781032540655559200,16.59455908203125,-3.166486978530884,1.2832289934158323,-0.7032250165939331
1781032540675092200,16.61409228515625,-2.4748849868774414,1.0820579528808594,-0.6331899762153625
1781032540694624800,16.633624755859376,-1.8012880086898804,0.8530120253562927,-0.7284460067749023
1781032540714158300,16.653158447265625,-1.2591010332107544,0.5299410223960876,-0.8447170257568359
1781032540733692400,16.6726923828125,-0.7879279851913452,0.2353450059890747,-1.054811954498291
1781032540753219800,16.6922197265625,-0.3186379969120025,0.0406779982149601,-1.2986079454421997
1781032540772746500,16.71174658203125,0.1899349987506866,-0.2154099941253662,-1.475669026374817
1781032540792277000,16.731277099609375,0.7465649843215942,-0.4218499958515167,-1.608597993850708
1781032540811810000,16.75081005859375,1.125972032546997,-0.4250549972057342,-1.7716399431228638
1781032540831342600,16.770342529296876,1.1894700527191162,-0.2776939868927002,-1.8435499668121336
1781032540850873600,16.78987353515625,0.9737390279769896,-0.003393999999389,-1.8051329851150515
1781032540870401800,16.80940185546875,0.6623349785804749,0.3354870080947876,-1.8135290145874023
1781032540889930800,16.8289306640625,0.4531770050525665,0.4975950121879577,-1.814295053482056
1781032540909463600,16.848463623046875,0.6235870122909546,0.416386991739273,-1.795395016670227
1781032540928994300,16.867994384765623,0.9919869899749756,0.2244089990854263,-1.7760030031204224
1781032540948524000,16.88752392578125,1.3238229751586914,0.0655049979686737,-1.7254029512405396
1781032540968056300,16.907056396484375,1.479228973388672,0.056412998586893,-1.657253980636597
1781032540987590700,16.926590576171876,1.3557610511779783,0.1684270054101944,-1.5385349988937378
1781032541007123200,16.946123291015624,1.144355058670044,0.3162479996681213,-1.3895299434661863
1781032541026652200,16.965652099609375,1.0233889818191528,0.4221239984035492,-1.2700200080871582
1781032541046181000,16.98518115234375,1.0233889818191528,0.4221239984035492,-1.2700200080871582
1781032541065707800,17.004707763671874,1.453639030456543,0.4269619882106781,-1.189816951751709
1781032541085234000,17.02423388671875,1.536458969116211,0.3891209959983825,-1.280081033706665
1781032541104764400,17.043764404296876,1.4813170433044434,0.3179599940776825,-1.3916200399398804
1781032541124298200,17.06329833984375,1.4813170433044434,0.3179599940776825,-1.3916200399398804
1781032541143832600,17.08283251953125,1.4813170433044434,0.3179599940776825,-1.3916200399398804
1781032541163365000,17.102365234375,0.8664489984512329,-0.2888709902763366,-1.5641969442367554
1781032541182898700,17.121898681640626,0.8680940270423889,-0.5369549989700317,-1.5823489427566528
1781032541202430200,17.14143017578125,0.8714389801025391,-0.7905279994010925,-1.5076420307159424
1781032541221960700,17.160960693359375,0.8740940093994141,-0.9150630235671996,-1.4797650575637815
1781032541241493000,17.180492919921875,0.7591300010681152,-1.008892059326172,-1.4250949621200562
1781032541261026300,17.2000263671875,0.6155779957771301,-1.1065119504928589,-1.2090840339660645
1781032541280558800,17.219558837890624,0.5956240296363831,-1.0852580070495603,-1.1925179958343506
1781032541300093700,17.23909375,0.5492820143699646,-1.17316997051239,-0.9961289763450624
1781032541319634000,17.258634033203126,0.645343005657196,-1.122094988822937,-0.9978160262107848
1781032541339174700,17.278174560546876,0.697767972946167,-0.9779009819030762,-1.052427053451538
1781032541358713000,17.297713134765626,0.6644420027732849,-0.8418160080909729,-0.8786450028419495
1781032541378243600,17.31724365234375,0.6957809925079346,-0.5370429754257202,-1.006816029548645
1781032541397776100,17.336776123046874,0.6101980209350586,-0.2655479907989502,-0.8693069815635681
1781032541417313500,17.3563134765625,0.6546109914779663,0.1373299956321716,-0.9445359706878662
1781032541436845800,17.375845703125,0.7545139789581299,0.5529209971427917,-1.0660220384597778
1781032541456376300,17.395376220703124,0.7424020171165466,0.8669739961624146,-1.1042959690093994
1781032541475906300,17.41490625,0.6760939955711365,1.109323024749756,-1.4878519773483276
1781032541495436000,17.43443603515625,0.3457620143890381,0.908469021320343,-1.6493330001831057
1781032541514966800,17.453966796875,-0.0005450000171549,0.4782350063323974,-1.8734370470047
1781032541534497300,17.473497314453127,0.0445629991590976,-0.0209090001881122,-1.793768048286438
1781032541554023400,17.4930234375,1.7067279815673828,-0.3067710101604461,-1.354233980178833
1781032541573548800,17.512548828125,1.6760410070419312,-0.1704930067062378,-1.0310039520263672
1781032541593077500,17.532077392578124,1.2251609563827517,0.1771010011434555,-0.6115390062332153
1781032541612606500,17.5516064453125,-0.5472660064697266,0.6530259847640991,-0.4518429934978485
1781032541632131600,17.571131591796874,-2.700166940689087,0.9643269777297974,-0.4539040029048919
1781032541651657500,17.590657470703125,-3.1749229431152344,1.0319600105285645,-0.4296590089797973
1781032541671185000,17.610184814453124,-3.265216112136841,0.8928350210189819,-0.4855419993400574
1781032541690713900,17.6297138671875,-3.05560302734375,0.6584640145301819,-0.5378640294075012
1781032541710246000,17.649245849609375,-2.546933889389038,0.5984429717063904,-0.7823209762573242
1781032541729782500,17.668782470703125,-2.2680599689483643,0.6856330037117004,-1.0991389751434326
1781032541749323800,17.68832373046875,-2.3743579387664795,0.8791790008544922,-1.3602919578552246
1781032541768858400,17.7078583984375,-2.6776280403137207,1.1447620391845703,-1.6179980039596558
1781032541788390100,17.72739013671875,-3.1075210571289062,1.2376350164413452,-1.768494963645935
1781032541807920600,17.746920654296876,-3.2011001110076904,1.163072943687439,-1.7383949756622314
1781032541827448600,17.766448486328127,-2.805351972579956,1.1032259464263916,-1.7382789850234983
1781032541846979800,17.785979736328127,-2.211344003677368,0.9923869967460632,-1.7457829713821411
1781032541866513400,17.805513427734375,-1.661303997039795,0.7420870065689087,-1.6229640245437622
1781032541886048500,17.825048583984376,-1.661303997039795,0.7420870065689087,-1.6229640245437622
1781032541905577700,17.84457763671875,-0.6996089816093445,0.3367300033569336,-1.6034409999847412
1781032541925105200,17.864105224609375,-0.6996089816093445,0.3367300033569336,-1.6034409999847412
1781032541944637400,17.883637451171875,0.2752279937267303,0.1034509986639022,-1.3962279558181765
1781032541964172500,17.903172607421876,0.2752279937267303,0.1034509986639022,-1.3962279558181765
1781032541983708400,17.92270849609375,0.9191020131111144,-0.0147829996421933,-0.7287629842758179
1781032542003241200,17.9422412109375,1.1256170272827148,-0.0356380008161067,-0.4399619996547699
1781032542022774300,17.961774169921874,1.363976001739502,0.050586998462677,-0.1799190044403076
1781032542042307800,17.981307861328126,1.3212000131607056,0.2936300039291382,-0.1713699996471405
1781032542061843500,18.000843505859375,1.2187700271606443,0.7539709806442261,-0.5364900231361389
1781032542081378800,18.02037890625,0.9219759702682496,1.344174027442932,-0.9985820055007936
1781032542100911600,18.03991162109375,0.2862100005149841,2.988452911376953,-1.2684839963912964
1781032542120441300,18.05944140625,0.0817710012197494,3.179162979125977,-1.4341330528259275
1781032542139966500,18.07896655273437,-0.0140070002526044,3.297931909561157,-1.4164079427719116
1781032542159492400,18.098492431640626,-0.4411390125751495,3.166217088699341,-1.3644740581512451
1781032542179018800,18.118018798828125,-0.4246490001678467,2.9241209030151367,-1.5887540578842163
1781032542198542300,18.137542236328127,0.0746470019221305,2.779891967773437,-1.958513021469116
1781032542218067000,18.15706689453125,0.6523860096931458,2.6535799503326416,-2.0639920234680176
1781032542237591800,18.176591796875,2.2816410064697266,2.420752048492432,-1.8658210039138796
1781032542257116400,18.196116455078126,2.511568069458008,2.240612030029297,-1.6240309476852417
1781032542276640300,18.21564013671875,2.702810049057007,2.0781779289245605,-1.3273199796676636
1781032542296162800,18.235162841796875,2.991482973098755,1.8243550062179563,-1.329632043838501
1781032542315689700,18.254689697265626,3.175762891769409,1.381466031074524,-1.52218496799469
1781032542335219500,18.274219482421877,3.56742000579834,0.834659993648529,-1.5437519550323486
1781032542354744000,18.293744140625,5.026876926422119,0.3281640112400055,-1.6630460023880005
1781032542374267600,18.313267578125,6.783116817474365,-0.1917739957571029,-1.8713860511779783
1781032542393789200,18.3327890625,8.467803955078125,-0.5673289895057678,-2.257293939590454
1781032542413311500,18.3523115234375,8.377107620239258,-0.8930550217628479,-3.641016960144043
1781032542432836000,18.371836181640624,8.027087211608887,-1.3491100072860718,-3.743890047073364
1781032542452360000,18.39135986328125,7.169153213500977,-1.8085039854049685,-3.806174039840698
1781032542471888400,18.41088842773437,6.460372924804688,-2.0190279483795166,-3.769836902618408
1781032542491418400,18.43041845703125,5.971505165100098,-2.0261659622192383,-3.6738600730896
1781032542510943000,18.44994287109375,5.511649131774902,-2.229422092437744,-3.624018907546997
1781032542530466800,18.469466796875,5.037171840667725,-2.392975091934204,-3.766474962234497
1781032542549994000,18.488993896484374,4.652144908905029,-2.529402017593384,-4.1326189041137695
1781032542569523700,18.508523681640625,4.458341121673584,-2.580739021301269,-4.37328577041626
1781032542589055700,18.5280556640625,4.380473136901856,-2.411220073699951,-4.140512943267822
1781032542608586200,18.547586181640625,4.184460163116455,-2.3047690391540527,-3.5233469009399414
1781032542628112000,18.56711181640625,3.754262924194336,-2.1247448921203613,-2.74178409576416
1781032542647639000,18.58663916015625,3.371665954589844,-2.2748420238494877,-2.3318920135498047
1781032542667166700,18.606166748046878,2.991161108016968,-2.6007239818573,-2.563524007797241
1781032542686692600,18.625692626953125,2.8360509872436523,-2.381664991378784,-4.068484783172607
1781032542706214400,18.64521435546875,2.8360509872436523,-2.381664991378784,-4.068484783172607
1781032542725734400,18.664734375,2.4711389541625977,-1.548902988433838,-4.242424964904785
1781032542745260800,18.6842607421875,2.464956045150757,-0.8910099864006042,-4.24717903137207
1781032542764785200,18.70378515625,2.6851930618286133,-0.3286150097846985,-4.150897026062012
1781032542784306700,18.723306640625,2.6851930618286133,-0.3286150097846985,-4.150897026062012
1781032542803830500,18.74283056640625,2.6851930618286133,-0.3286150097846985,-4.150897026062012
1781032542823354400,18.76235424804688,2.632296085357666,-0.1000370010733604,-4.157736778259277
1781032542842877000,18.781876953125,2.245300054550171,-0.4013180136680603,-3.970237970352173
1781032542862397400,18.8013974609375,2.242750883102417,-0.5003740191459656,-3.681349039077759
1781032542881917000,18.8209169921875,2.524319887161255,-0.4237689971923828,-3.410443067550659
1781032542901443000,18.840443115234372,2.8883049488067627,-0.3329319953918457,-3.062778949737549
1781032542920969700,18.8599697265625,3.1321890354156494,-0.2465000003576278,-2.56872296333313
1781032542940494800,18.879494873046877,3.144603967666626,-0.2440890073776245,-2.113946914672852
1781032542960021500,18.899021484375,2.905841112136841,-0.3857629895210266,-1.592540979385376
1781032542979552500,18.918552490234376,2.632136106491089,-0.4578689932823181,-1.186722993850708
1781032542999083000,18.9380830078125,2.276470899581909,-0.2291550040245056,-1.0034879446029663
1781032543018611000,18.95761083984375,0.6485790014266968,0.0978699997067451,-0.9050909876823424
1781032543038134300,18.97713427734375,-1.02715003490448,0.1642690002918243,-0.6599329710006714
1781032543057654500,18.996654541015623,-1.3547309637069702,0.3887009918689728,-0.1166419982910156
1781032543077175300,19.01617529296875,-1.351351976394653,0.8127949833869934,0.6030550003051758
1781032543096695600,19.035695556640626,-1.0643880367279053,0.861532986164093,2.268079996109009
1781032543116221700,19.0552216796875,1.1568249464035034,0.9694409966468812,2.391010046005249
1781032543135750700,19.07475073242188,1.5415170192718506,1.05309796333313,2.366540908813477
1781032543155276800,19.09427685546875,1.6284229755401611,0.6629030108451843,2.457529067993164
1781032543174798800,19.113798828125,1.625046968460083,0.4084810018539428,2.505384922027588
1781032543194316300,19.13331640625,1.486961007118225,0.3503699898719787,2.762125968933105
1781032543213835500,19.15283544921875,1.004078984260559,0.23157699406147,3.267448902130127
1781032543233355800,19.172355712890624,-0.7663769721984863,-0.0425029993057251,3.8011629581451416
1781032543252869000,19.191869140625,-1.096940994262695,-0.4965949952602386,4.305346965789795
1781032543272386300,19.21138623046875,-1.3139079809188845,-0.6752650141716003,4.544956207275391
1781032543291907600,19.230907470703126,-1.66731595993042,-0.784063994884491,4.52531623840332
1781032543311430700,19.2504306640625,-2.1771891117095947,-0.8433240056037903,4.436192989349365
1781032543330955300,19.269955322265623,-2.693018913269043,-0.3737890124320984,4.173175811767578
1781032543350479000,19.28947900390625,-4.4005889892578125,0.0636930018663406,4.074902057647705
1781032543370007800,19.3090078125,-5.003396034240723,0.1718280017375946,4.240109920501709
1781032543389536000,19.32853588867188,-5.398867130279541,0.3391759991645813,4.153632164001465
1781032543409064400,19.348064453125,-5.220668792724609,0.4153519868850708,3.754369974136353
1781032543428593400,19.36759350585937,-4.796925067901611,0.4079610109329223,3.414681911468506
1781032543448119300,19.387119384765622,-4.17046594619751,0.842939019203186,3.004635095596313
1781032543467642000,19.40664208984375,-3.729213953018189,1.409211039543152,2.664541959762573
1781032543487166500,19.42616650390625,-3.8056700229644775,1.80347204208374,2.714034080505371
1781032543506686500,19.4456865234375,-3.8056700229644775,1.80347204208374,2.714034080505371
1781032543526206000,19.4652060546875,-4.678252220153809,2.7593910694122314,3.0487968921661377
1781032543545731600,19.484731689453124,-4.678252220153809,2.7593910694122314,3.0487968921661377
1781032543565256200,19.504256103515623,-5.152306079864502,2.783669948577881,3.0929059982299805
1781032543584780300,19.5237802734375,-5.152306079864502,2.783669948577881,3.0929059982299805
1781032543604305700,19.5433056640625,-4.5277018547058105,3.1363348960876465,2.6279408931732178
1781032543623832600,19.56283251953125,-4.5277018547058105,3.1363348960876465,2.6279408931732178
1781032543643354400,19.58235424804688,-3.6262729167938232,3.3591248989105225,1.8747440576553345
1781032543662874400,19.601874267578125,-3.393515110015869,3.080038070678711,1.3419979810714722
1781032543682400500,19.621400390625,-2.8836240768432617,2.6601569652557373,0.7612800002098083
1781032543701929700,19.6409296875,-2.498832941055298,2.1540169715881348,0.4744639992713928
1781032543721455900,19.660455810546875,-1.973891019821167,1.526859998703003,0.7695299983024597
1781032543740980500,19.67998046875,-1.4884099960327148,1.081868052482605,2.200936079025269
1781032543760505000,19.699505126953124,-1.253190994262695,0.6542890071868896,2.3396260738372803
1781032543780028400,19.7190283203125,-1.0880759954452517,0.3915190100669861,2.3220040798187256
1781032543799547600,19.738547607421875,-1.186279058456421,0.4784240126609802,2.001861095428467
1781032543819064800,19.75806494140625,-2.6474509239196777,0.3513219952583313,1.64723801612854
1781032543838582000,19.77758203125,-2.736721992492676,0.1686680018901825,1.2850940227508545
1781032543858104300,19.797104248046875,-2.9792070388793945,-0.0389720015227794,0.8935269713401794
1781032543877629400,19.81662939453125,-3.1321399211883545,-0.3023209869861603,0.543832004070282
1781032543897154800,19.83615478515625,-3.2522029876708984,-0.4947260022163391,0.2557269930839538
1781032543916678400,19.855678466796878,-3.196727991104126,-0.9785979986190796,-0.0313419997692108
1781032543936199700,19.87519970703125,-3.1418728828430176,-1.418110966682434,-0.4554679989814758
1781032543955726800,19.894726806640627,-3.258678913116455,-1.9085400104522705,-0.8233519792556763
1781032543975257000,19.914257080078126,-3.5968050956726074,-2.168118953704834,-1.3127650022506714
1781032543994785000,19.93378491210937,-3.95767593383789,-1.7881929874420166,-1.889549970626831
1781032544014309600,19.9533095703125,-4.391798973083496,-1.2425659894943235,-2.1846930980682373
1781032544033833000,19.9728330078125,-4.7826762199401855,-0.6645789742469788,-2.3833839893341064
1781032544053352000,19.99235205078125,-4.6872968673706055,-0.3139069974422455,-2.396976947784424
1781032544072871000,20.011870849609377,-4.203196048736572,-0.236065000295639,-2.2861580848693848
1781032544092392200,20.03139208984375,-3.780327081680298,-0.2573699951171875,-2.204375028610229
1781032544111914500,20.05091455078125,-3.4826149940490723,-0.2715030014514923,-2.138437032699585
1781032544131440400,20.0704404296875,-3.197551012039185,-0.0975959971547126,-2.234442949295044
1781032544150967300,20.08996728515625,-2.961313009262085,0.0682220011949539,-2.2346410751342773
1781032544170495700,20.10949584960937,-1.1074910163879397,0.060563001781702,-2.1919970512390137
1781032544190024200,20.129024169921877,-0.5360689759254456,-0.0386249981820583,-2.1631100177764893
1781032544209543700,20.148543701171874,0.00529700005427,-0.2698389887809753,-1.9321600198745728
1781032544229063700,20.168063720703124,0.2926400005817413,-0.3911580145359039,-1.679415941238403
1781032544248588300,20.18758837890625,0.4217840135097503,-0.3234339952468872,-1.4234119653701782
1781032544268109300,20.207109375,0.5607720017433167,-0.2154089957475662,-1.0628279447555542
1781032544287630600,20.22663061523437,0.9157580137252808,-0.1013709977269172,-0.7795959711074829
1781032544307158500,20.246158447265625,1.3793809413909912,-0.0494990013539791,-0.5940629839897156
1781032544326691300,20.26569140625,1.3793809413909912,-0.0494990013539791,-0.5940629839897156
1781032544346222000,20.28522216796875,1.8987669944763184,0.0689570009708404,-0.4375230073928833
1781032544365750800,20.30475073242188,1.9231810569763184,0.0985770002007484,-0.3944770097732544
1781032544385279200,20.324279296875,1.909085035324097,0.1055279970169067,-0.3879930078983307
1781032544404807700,20.3438076171875,1.909085035324097,0.1055279970169067,-0.3879930078983307
1781032544424337400,20.36333740234375,1.8963630199432373,0.0531129986047744,-0.510977029800415
1781032544443864300,20.3828642578125,1.8963630199432373,0.0531129986047744,-0.510977029800415
1781032544463390200,20.40239013671875,1.8369719982147217,0.0788990035653114,-0.9313979744911194
1781032544482918400,20.42191845703125,1.8161540031433103,0.2327090054750442,-1.1136740446090698
1781032544502447600,20.441447509765624,1.9399490356445312,0.3196460008621216,-1.071491003036499
1781032544521975300,20.460975341796875,2.0904760360717773,0.4062690138816833,-0.9338970184326172
1781032544541505500,20.48050561523437,2.041254997253418,0.385697990655899,-0.8073070049285889
1781032544561033700,20.50003369140625,1.7289769649505615,0.2913399934768677,-0.752327024936676
1781032544580557300,20.51955737304688,1.0791629552841189,0.2798269987106323,-0.8878470063209534
1781032544600080600,20.53908056640625,-0.6948620080947876,0.2784349918365478,-1.165511965751648
1781032544619598800,20.558598876953123,-1.1044050455093384,0.263944000005722,-1.4201860427856443
1781032544639120100,20.5781201171875,-1.41081702709198,0.2688780128955841,-1.4750299453735352
1781032544658645000,20.59764501953125,-1.614848017692566,0.2880490124225616,-1.4589999914169312
1781032544678169900,20.617169921875,-1.779873967170715,0.1605899930000305,-1.412700057029724
1781032544697695500,20.636695556640625,-1.825152039527893,-0.1597589999437332,-1.386423945426941
1781032544717214700,20.65621459960937,-1.7982009649276731,-0.5448060035705566,-1.539262056350708
1781032544736730600,20.675730712890623,-2.0259759426116943,-0.8873950242996216,-1.6910099983215332
1781032544756247300,20.695247314453123,-2.329339027404785,-0.912962019443512,-1.796991944313049
1781032544775763000,20.714762939453124,-2.6647770404815674,-0.6445649862289429,-1.961866021156311
1781032544795283700,20.73428369140625,-3.2283871173858643,-0.4247060120105743,-2.052298069000244
1781032544814802400,20.75380249023437,-3.619297981262207,-0.2695569992065429,-2.10605788230896
1781032544834316800,20.77331689453125,-3.624433040618897,-0.1513389945030212,-2.1572749614715576
1781032544853834500,20.79283447265625,-3.3561079502105717,-0.1109680011868476,-2.0688788890838623
1781032544873354800,20.812354736328125,-2.8387250900268555,-0.0437199994921684,-1.9048759937286377
1781032544892873700,20.831873779296878,-2.124255895614624,0.0427539981901645,-1.8713359832763672
1781032544912394000,20.85139404296875,-1.763411045074463,0.1534799933433532,-1.8995729684829712
1781032544931921000,20.8709208984375,-1.6880760192871094,0.3681069910526275,-1.849871039390564
1781032544951447300,20.890447265625,-1.66287100315094,0.7456169724464417,-1.843479037284851
1781032544970972400,20.909972412109376,-1.8910160064697263,1.2124329805374146,-1.839951992034912
1781032544990498800,20.929498779296875,-2.007939100265503,1.5888999700546265,-1.7319279909133911
1781032545010025000,20.94902490234375,-1.887446045875549,1.802351951599121,-1.7526229619979858
1781032545029549800,20.9685498046875,-1.8136370182037356,1.7840280532836914,-1.886636018753052
1781032545049077200,20.9880771484375,-1.5587270259857178,1.6224030256271362,-1.9589829444885252
1781032545068609000,21.00760913085937,-0.973950982093811,1.4446860551834106,-2.1587939262390137
1781032545088138000,21.027137939453127,-0.3256399929523468,1.2585959434509275,-2.155087947845459
1781032545107660800,21.04666088867188,1.6944210529327393,1.2136989831924438,-1.9417599439620967
1781032545127184400,21.066184326171875,1.922219038009644,1.290992021560669,-1.8955930471420288
1781032545146711300,21.085711181640622,1.922219038009644,1.290992021560669,-1.8955930471420288
1781032545166237200,21.1052373046875,2.107733964920044,1.537086009979248,-1.3941880464553833
1781032545185763300,21.124763427734376,2.0286190509796143,1.7362409830093384,-1.2795560359954834
1781032545205287000,21.14428686523437,1.8520649671554563,1.8250130414962769,-1.0333950519561768
1781032545224811300,21.16381127929688,1.4371709823608398,1.7835309505462646,-0.8957549929618835
1781032545244338200,21.183338134765624,1.4371709823608398,1.7835309505462646,-0.8957549929618835
1781032545263865300,21.202865234375,1.4371709823608398,1.7835309505462646,-0.8957549929618835
1781032545283392500,21.222392578125,0.0609220005571842,1.649548053741455,1.4879310131072998
1781032545302923500,21.241923583984374,1.83581805229187,1.686735987663269,1.8206470012664795
1781032545322454300,21.261454345703125,1.9556210041046145,1.6506119966506958,2.227273941040039
1781032545341978000,21.28097802734375,1.7350590229034424,1.1616289615631104,2.5281190872192383
1781032545361500400,21.30050048828125,-0.081277996301651,-0.6451560258865356,2.579137086868286
1781032545381025300,21.320025390625,-0.5806270241737366,-1.009091019630432,2.31631088256836
1781032545400550700,21.33955053710937,-2.108138084411621,-1.46281898021698,2.0640480518341064
1781032545420078600,21.35907861328125,-2.237689971923828,-1.6317540407180786,1.858435034751892
1781032545439609300,21.378609375,-2.0682740211486816,-1.7001479864120483,1.6473400592803955
1781032545459137000,21.398136962890625,-0.5341519713401794,-1.78678297996521,1.5044499635696411
1781032545478658000,21.41765795898437,1.1718699932098389,-1.8000500202178955,1.1187189817428589
1781032545498185200,21.43718530273437,3.28618597984314,-1.9707390069961548,0.7145799994468689
1781032545517716200,21.45671630859375,3.4941060543060303,-2.1934518814086914,0.3222889900207519
1781032545537246200,21.47624609375,1.8969080448150637,-2.478419065475464,-0.0574089996516704
1781032545556774400,21.4957744140625,0.0550529994070529,-2.812558889389038,-0.1315920054912567
1781032545576301300,21.51530126953125,-0.3221180140972137,-2.8853800296783447,-0.4032439887523651
1781032545595827200,21.5348271484375,1.169402003288269,-2.94904899597168,-0.8522469997406006
1781032545615354600,21.55435473632813,4.096362113952637,-2.9548890590667725,-1.3891350030899048
1781032545634884600,21.573884521484374,7.929502964019775,-2.936976909637451,-2.9410300254821777
1781032545654412000,21.593412109375,9.680326461791992,-3.171880960464477,-3.0794460773468018
1781032545673936100,21.61293603515625,9.797392845153809,-3.4630239009857178,-3.0074350833892822
1781032545693460700,21.632460693359373,9.839130401611328,-3.820414066314697,-2.452939987182617
1781032545712985000,21.65198510742188,9.46895694732666,-4.1961541175842285,-1.688992977142334
1781032545732506600,21.671506591796877,7.405163764953613,-4.363842010498047,-0.9252859950065612
1781032545752030000,21.69103002929688,5.213628768920898,-4.20042610168457,-0.3450480103492737
1781032545771555800,21.710555908203126,3.35930609703064,-3.703280925750733,-0.1331360042095184
1781032545791080000,21.730079833984377,2.9939138889312744,-3.0565619468688965,-0.0551260001957416
1781032545810604000,21.74960400390625,2.710434913635254,-2.366342067718506,0.0457670018076896
1781032545830132500,21.76913256835937,2.7034308910369877,-1.7026829719543457,0.1645099967718124
1781032545849658000,21.788658203125,2.714353084564209,-1.2818830013275146,0.1891579926013946
1781032545869185300,21.808185302734376,2.618827104568481,-1.1615309715270996,0.1328220069408416
1781032545888716800,21.827716796875,2.28745698928833,-1.1485819816589355,0.1313810050487518
1781032545908248000,21.847248046875,1.6388369798660278,-1.0270750522613523,0.1552989929914474
1781032545927781000,21.866781005859377,0.9827669858932496,-0.6661369800567627,0.2153059989213943
1781032545947310800,21.886310791015624,-0.8697569966316223,-0.0782100036740303,0.3843370079994201
1781032545966838500,21.90583862304688,-1.5845270156860352,0.5136250257492065,0.4485960006713867
1781032545986370300,21.925370361328124,-1.5845270156860352,0.5136250257492065,0.4485960006713867
1781032546005901800,21.94490185546875,-3.88487696647644,1.1935969591140747,0.5464940071105957
1781032546025432000,21.96443212890625,-3.9184839725494394,1.5335290431976318,0.9732049703598022
1781032546044958000,21.9839580078125,-3.605226993560791,1.8145849704742432,1.279587984085083
1781032546064484400,22.003484375,-3.605226993560791,1.8145849704742432,1.279587984085083
1781032546084016600,22.0230166015625,-3.605226993560791,1.8145849704742432,1.279587984085083
1781032546103547000,22.042546875,-2.4617249965667725,2.515317916870117,2.1420700550079346
1781032546123071700,22.06207177734375,-2.3050780296325684,2.759403944015503,2.434417963027954
1781032546142594800,22.0815947265625,-2.192397117614746,2.928148031234741,2.7109549045562744
1781032546162119000,22.101118896484376,-2.295875072479248,3.0014519691467285,2.8108510971069336
1781032546181646300,22.12064624023437,-2.244982957839966,2.9562549591064453,2.750422954559326
1781032546201171700,22.14017163085937,-2.3197100162506104,2.9240119457244877,2.664505958557129
1781032546220693000,22.15969287109375,-2.60213303565979,2.8886818885803223,2.5651159286499023
1781032546240218000,22.17921801757813,-2.392642021179199,2.765244960784912,2.454797983169556
1781032546259742700,22.19874267578125,-2.2191920280456543,2.765145063400269,2.1811599731445312
1781032546279264300,22.21826416015625,-2.269471883773804,2.82279109954834,1.8974310159683228
1781032546298783500,22.237783447265624,-2.2732861042022705,2.819785118103028,1.6908680200576782
1781032546318303700,22.2573037109375,-2.1779370307922363,2.830415964126587,1.4911259412765503
1781032546337832200,22.276832275390625,-2.214831113815308,2.8284289836883545,1.1431479454040527
1781032546357357600,22.296357666015624,-2.163360118865967,2.654594898223877,0.5753920078277588
1781032546376880400,22.31588037109375,-2.054141998291016,2.4092628955841064,-1.347828984260559
1781032546396407600,22.335407470703124,-2.2251620292663574,2.3909130096435547,-1.7986769676208496
1781032546415934500,22.3549345703125,-2.6155788898468018,2.350092887878418,-2.068272113800049
1781032546435454200,22.3744541015625,-2.7659080028533936,2.3342599868774414,-2.01175308227539
1781032546454972200,22.39397216796875,-2.774925947189331,2.583447933197021,-1.599639058113098
1781032546474494200,22.413494140625,-2.8791449069976807,2.802194118499756,-0.2031130045652389
1781032546494017800,22.433017822265622,-2.340743064880371,2.726677894592285,0.0043029999360442
1781032546513544200,22.452544189453125,-0.6111050248146057,2.5908539295196533,0.0479260012507438
1781032546533072400,22.472072265625,-0.0598959997296333,2.287749052047729,-0.0628539994359016
1781032546552600600,22.4916005859375,0.4703960120677948,1.8892370462417605,-0.2930929958820343
1781032546572126200,22.51112622070313,0.9152250289916992,1.5290989875793457,-0.602632999420166
1781032546591651000,22.53065112304688,1.103340983390808,1.026947021484375,-0.9617249965667723
1781032546611175000,22.5501748046875,1.0802910327911377,0.6200590133666992,-1.4627020359039309
1781032546630696200,22.5696962890625,1.1389449834823608,0.1547320038080215,-1.858319997787476
1781032546650221800,22.589221923828124,1.0317529439926147,-0.3040559887886047,-2.0133919715881348
1781032546669751600,22.60875146484375,0.9714319705963136,-0.5673609972000122,-2.03765606880188
1781032546689279200,22.628279296875,1.072497010231018,-0.852171003818512,-1.90879499912262
1781032546708806400,22.647806396484373,1.183519959449768,-1.1041200160980225,-1.6162220239639282
1781032546728335000,22.667335205078125,1.1925630569458008,-1.1443389654159546,-1.35554301738739
1781032546747862000,22.68686206054688,0.7901719808578491,-1.053761005401611,-1.0637530088424685
1781032546767387000,22.706386962890623,-1.148725986480713,-0.8860549926757812,-0.6307889819145203
1781032546786914600,22.72591455078125,-3.1606009006500244,-0.5567280054092407,-0.416936993598938
1781032546806445800,22.74544580078125,-3.1606009006500244,-0.5567280054092407,-0.416936993598938
1781032546825974800,22.764974853515625,-6.149332046508789,0.3568370044231415,-0.8533170223236084
1781032546845502200,22.784502197265624,-6.234375953674316,0.6899219751358032,-1.150460958480835
1781032546865032400,22.804032470703124,-6.234375953674316,0.6899219751358032,-1.150460958480835
1781032546884560000,22.823559814453127,-5.628757953643799,0.5867570042610168,-1.199347972869873
1781032546904086300,22.843086181640626,-4.690753936767578,0.2258920073509216,-1.120121955871582
1781032546923614500,22.862614501953125,-4.690753936767578,0.2258920073509216,-1.120121955871582
1781032546943145000,22.88214501953125,-3.64386796951294,-0.5564919710159302,-1.0893709659576416
1781032546962677000,22.901677001953125,-3.0554420948028564,-0.9493299722671508,-1.1113699674606323
1781032546982208800,22.921208740234373,-2.2795250415802,-1.3273439407348633,-1.2262239456176758
1781032547001735000,22.94073486328125,-1.5003470182418823,-1.6559139490127563,-1.3536159992218018
1781032547021257200,22.96025732421875,0.3194360136985779,-1.9419759511947632,-1.463137984275818
1781032547040777700,22.97977783203125,0.63925701379776,-2.2103641033172607,-1.541522979736328
1781032547060298800,22.999298828125,1.0376930236816406,-2.467933893203736,-1.5386379957199097
1781032547079825200,23.0188251953125,1.533614993095398,-2.6317849159240723,-1.5370960235595703
1781032547099352300,23.038352294921875,1.982022047042847,-2.635906934738159,-1.5653209686279297
1781032547118879700,23.057879638671874,2.365628957748413,-2.480897903442383,-1.6142250299453735
1781032547138408000,23.077407958984374,2.675920009613037,-2.178881883621216,-1.6751550436019895
1781032547157932800,23.096932861328124,2.932724952697754,-1.8232970237731931,-1.710723042488098
1781032547177461200,23.116461181640624,3.0761160850524902,-1.4136110544204712,-1.8084299564361568
1781032547196989000,23.135989013671875,3.0290091037750244,-1.0230690240859983,-1.9089139699935915
1781032547216517600,23.155517578125,2.91254997253418,-0.6398429870605469,-1.9851449728012085
1781032547236051700,23.1750517578125,2.7749269008636475,-0.3001480102539062,-2.0316500663757324
1781032547255584500,23.19458447265625,2.6483709812164307,-0.0228599999099969,-1.9527239799499512
1781032547275111400,23.214111328125,2.559858083724976,0.2711279988288879,-1.8370180130004885
1781032547294639600,23.2336396484375,2.4531409740448,0.4912750124931335,-1.6439850330352783
1781032547314171000,23.2531708984375,2.304271936416626,0.6555529832839966,-1.4404959678649902
1781032547333703400,23.272703369140626,2.235590934753418,0.8199489712715149,-1.3198959827423096
1781032547353235000,23.29223486328125,2.2454159259796143,0.897799015045166,-1.2506970167160034
1781032547372759800,23.311759765625,2.2291910648345947,0.9070870280265808,-1.2904740571975708
1781032547392280800,23.33128076171875,2.3178439140319824,0.855758011341095,-1.3675789833068848
1781032547411803400,23.35080346679688,2.4826478958129883,0.7717239856719971,-1.432631015777588
1781032547431332000,23.37033203125,2.532558917999268,0.7407749891281128,-1.463461995124817
1781032547450868500,23.389868408203125,2.4533839225769043,0.821986973285675,-1.4102239608764648
1781032547470404400,23.409404296875,2.213253974914551,1.018468976020813,-1.3464360237121582
1781032547489933300,23.428933349609373,1.8722840547561648,1.1410939693450928,-1.3817789554595947
1781032547509459500,23.44845947265625,1.473114013671875,1.109734058380127,-1.4335240125656128
1781032547528982500,23.467982421875,1.165397047996521,0.8572670221328735,-1.507485032081604
1781032547548507000,23.4875068359375,0.8715029954910278,0.4096460044384002,-1.5882879495620728
1781032547568031200,23.50703125,0.43121999502182,-0.0350250005722045,-1.4768999814987185
1781032547587554300,23.52655419921875,0.1566569954156875,-0.4098770022392273,-1.2546989917755127
1781032547607075600,23.54607568359375,0.0498329997062683,-0.735194981098175,-1.0823860168457031
1781032547626596900,23.565596923828124,0.0498329997062683,-0.735194981098175,-1.0823860168457031
1781032547646120200,23.5851201171875,-0.601019024848938,-1.0879850387573242,-0.8009300231933594
1781032547665643800,23.604643798828125,-1.3646420240402222,-1.0506709814071655,-0.5379769802093506
1781032547685167900,23.62416796875,-1.3646420240402222,-1.0506709814071655,-0.5379769802093506
1781032547704695000,23.64369506835937,-3.224029064178467,-0.5801969766616821,-0.0314049981534481
1781032547724217300,23.66321728515625,-3.141982078552246,-0.2680569887161255,0.0470179989933967
1781032547743739600,23.68273974609375,-3.141982078552246,-0.2680569887161255,0.0470179989933967
1781032547763266800,23.702266845703125,-2.4542078971862797,0.2058449983596801,-0.1062100008130073
1781032547782796300,23.72179638671875,-2.310110092163086,0.2862200140953064,-0.1911830008029937
1781032547802327000,23.7413271484375,-2.5927860736846924,0.3233250081539154,-0.3944309949874878
1781032547821858000,23.76085815429688,-3.0699028968811035,0.455020010471344,-0.8002020120620728
1781032547841387800,23.7803876953125,-3.428062915802002,0.5852239727973938,-1.2909499406814575
1781032547860914200,23.7999140625,-3.77691388130188,0.6744340062141418,-1.723019003868103
1781032547880439600,23.819439453125,-3.890503883361816,0.7955440282821655,-2.039011001586914
1781032547899967700,23.8389677734375,-3.834614992141724,0.8587579727172852,-2.1522231101989746
1781032547919497000,23.8584970703125,-4.138155937194824,0.8490179777145386,-2.1292829513549805
1781032547939027700,23.87802783203125,-4.405906200408936,0.7994880080223083,-2.076728105545044
1781032547958558000,23.897557861328124,-4.215917110443115,0.6750209927558899,-1.9918529987335205
1781032547978087000,23.9170869140625,-3.82843804359436,0.4519979953765869,-1.7699129581451416
1781032547997615000,23.93661499023437,-1.9885220527648928,0.398144006729126,-1.5904359817504885
1781032548017143300,23.956143310546874,0.1804369986057281,0.5761280059814453,-1.5308619737625122
1781032548036674300,23.97567431640625,0.7471349835395813,0.8109930157661438,-1.4183659553527832
1781032548056209700,23.995209716796875,1.116387963294983,0.9670450091362,-1.4048399925231934
1781032548075743200,24.0147431640625,1.220250964164734,1.0154759883880615,-1.5609769821166992
1781032548095269400,24.03426928710937,1.2600599527359009,0.9576500058174132,-1.6913989782333374
1781032548114791400,24.05379150390625,1.3046170473098757,0.8497689962387085,-1.7832540273666382
1781032548134313500,24.0733134765625,1.8466390371322632,0.8155440092086792,-1.9084409475326536
1781032548153841000,24.0928408203125,2.3105719089508057,0.6993629932403564,-1.8531140089035036
1781032548173368800,24.112368896484377,2.440500974655152,0.3740020096302032,-1.394731044769287
1781032548192892700,24.131892578125,2.3747620582580566,0.1915960013866424,-0.9925060272216796
1781032548212415000,24.1514150390625,2.0651779174804688,0.2813149988651275,-0.7002699971199036
1781032548231937500,24.1709375,1.5444480180740356,0.489437997341156,-0.4535160064697265
1781032548251459300,24.190459228515625,0.1115840002894401,0.8159739971160889,-0.4241859912872314
1781032548270981600,24.209981689453127,-0.0860629975795745,1.1164829730987549,-0.4384180009365082
1781032548290507800,24.2295078125,-0.634103000164032,1.2281359434127808,-0.5067340135574341
1781032548310035200,24.24903515625,-1.127987027168274,1.00667405128479,-0.5726609826087952
1781032548329565200,24.26856518554688,-1.2909239530563354,0.7161229848861694,-0.5525550246238708
1781032548349096400,24.28809643554688,-1.0985289812088013,0.5908399820327759,-0.4585680067539215
1781032548368620800,24.30762084960937,-0.8579660058021545,0.4709390103816986,-0.2724089920520782
1781032548388143600,24.3271435546875,-0.4929539859294891,0.5291079878807068,0.0836070030927658
1781032548407667500,24.34666748046875,0.0928139984607696,0.6256880164146423,0.2859930098056793
1781032548427186200,24.36618627929688,1.7829489707946775,0.4061309993267059,0.3695929944515228
1781032548446707700,24.385707763671878,1.7829489707946775,0.4061309993267059,0.3695929944515228
1781032548466235100,24.405235107421877,3.993438959121704,-0.1837610006332397,0.6786209940910339
1781032548485758000,24.424758056640623,4.306321144104004,-0.5183560252189636,0.7828270196914673
1781032548505275100,24.444275146484376,4.590256214141846,-0.8252720236778259,0.7135990262031555
1781032548524798700,24.463798828125,4.633838176727295,-1.1590520143508911,0.6066939830780029
1781032548544324400,24.483324462890625,4.633838176727295,-1.1590520143508911,0.6066939830780029
1781032548563842800,24.5028427734375,4.633838176727295,-1.1590520143508911,0.6066939830780029
1781032548583362600,24.522362548828124,2.290900945663452,-1.9283260107040403,0.2349240034818649
1781032548602888000,24.54188793945313,2.0031089782714844,-2.271315097808838,0.4444830119609833
1781032548622414600,24.56141455078125,2.084167957305908,-2.522969007492065,0.6366869807243347
1781032548641939700,24.580939697265624,2.4937520027160645,-2.7273709774017334,0.8514689803123474
1781032548661463600,24.600463623046878,3.844804048538208,-2.910978078842163,1.0844999551773071
1781032548680990000,24.619989990234377,3.881510972976685,-3.12613296508789,1.2577250003814695
1781032548700516400,24.63951635742188,3.892433881759644,-3.3805830478668213,1.4016330242156982
1781032548720039700,24.659039794921878,3.944571971893311,-3.4072461128234863,1.3172659873962402
1781032548739566000,24.678566162109377,3.889174938201904,-3.2615749835968018,1.1356669664382937
1781032548759091700,24.698091796875,3.54972505569458,-3.1101019382476807,1.098649978637695
1781032548778615600,24.717615478515626,1.7607409954071045,-2.928528070449829,1.0970900058746338
1781032548798136000,24.737135986328123,1.422502040863037,-2.7260069847106934,1.172302007675171
1781032548817659100,24.7566591796875,1.0596779584884644,-2.4237680435180664,1.1672929525375366
1781032548837184000,24.77618408203125,0.940814971923828,-2.054287910461426,1.121945023536682
1781032548856707800,24.795707763671874,1.1324750185012815,-1.690060019493103,1.2266230583190918
1781032548876238300,24.81523828125,1.2535419464111328,-1.327883005142212,1.3630239963531494
1781032548895772400,24.8347724609375,1.2840080261230469,-1.1256179809570312,1.6004940271377563
1781032548915303000,24.854302978515623,1.4832359552383425,-0.8603709936141968,1.9563430547714236
1781032548934831000,24.8738310546875,1.5876450538635254,-0.4141109883785248,2.141697883605957
1781032548954361000,24.893361083984374,1.6909120082855225,-0.2702710032463074,2.191519021987915
1781032548973891600,24.9128916015625,1.8761179447174072,-0.0978360027074813,1.9528579711914065
1781032548993420000,24.932419921875,1.9733400344848635,0.4260700047016144,0.5043240189552307
1781032549012949000,24.951948974609376,1.6934349536895752,0.9204570055007936,0.1868219971656799
1781032549032476700,24.9714765625,1.1088080406188965,1.4157079458236694,-0.0471239984035491
1781032549052001500,24.99100146484375,-0.914726972579956,1.847092032432556,-0.1269930005073547
1781032549071530000,25.010530029296877,-1.4050010442733765,1.9549100399017332,-0.1276019960641861
1781032549091064300,25.03006420898437,-1.839455008506775,1.932229995727539,-0.2409150004386901
1781032549110599200,25.04959912109375,-2.029791116714477,1.925678014755249,-0.5244590044021606
1781032549130128100,25.06912817382813,-1.9360480308532717,1.9324549436569212,-0.8932300209999084
1781032549149655300,25.0886552734375,-1.4582669734954834,1.9492379426956177,-1.089627027511597
1781032549169186600,25.1081865234375,-1.1473109722137451,2.052532911300659,-0.9772379994392396
1781032549188716500,25.127716552734373,-1.0333479642868042,2.409148931503296,-0.5644689798355103
1781032549208240000,25.147240234375,-2.598836898803711,4.071178913116455,1.089216947555542
1781032549227765500,25.166765625,-4.312872886657715,4.302649021148682,1.2511600255966189
1781032549247295000,25.186294921875,-4.5083909034729,4.611827850341797,1.5066859722137451
1781032549266825000,25.205824951171877,-5.035702228546143,4.81681489944458,1.6872429847717283
1781032549286358500,25.22535864257813,-5.035702228546143,4.81681489944458,1.6872429847717283
1781032549305895000,25.24489501953125,-5.590301036834717,4.956966876983643,1.3921849727630615
1781032549325426700,25.2644267578125,-5.573423862457275,4.649213790893555,0.9423400163650512
1781032549344952000,25.2839521484375,-5.359993934631348,4.169731140136719,0.259550005197525
1781032549364474000,25.30347412109375,-5.359993934631348,4.169731140136719,0.259550005197525
1781032549383996000,25.322995849609374,-5.359993934631348,4.169731140136719,0.259550005197525
1781032549403519000,25.34251904296875,-5.667692184448242,2.9797050952911377,-0.4979200065135956
1781032549423044900,25.362044921875,-5.310673236846924,2.478898048400879,-0.7868840098381042
1781032549442572000,25.381572021484374,-4.627412796020508,1.9262059926986692,-1.0082459449768066
1781032549462097200,25.40109716796875,-3.870738029479981,1.381253957748413,-1.0330129861831665
1781032549481623000,25.420623046875,-3.317085027694702,1.063020944595337,-1.0922659635543823
1781032549501150000,25.44014990234375,-2.7886059284210205,0.8717139959335327,-1.161620020866394
1781032549520675600,25.459675537109376,-2.052510023117065,0.6863489747047424,-1.0634729862213137
1781032549540204500,25.47920458984375,-1.2286070585250854,0.6215599775314331,-0.8968070149421692
1781032549559734000,25.498734130859376,0.5432289838790894,0.6752690076828003,-0.5293570160865784
1781032549579261700,25.51826171875,1.063068985939026,0.6040160059928894,0.0662050023674964
1781032549598787000,25.537787109375,1.457131028175354,0.5867699980735779,0.4508399963378906
1781032549618311400,25.5573115234375,1.61776602268219,0.5237500071525574,0.6062399744987488
1781032549637836800,25.5768369140625,1.4463740587234497,0.1918320059776306,0.6251490116119385
1781032549657365800,25.59636572265625,1.228113055229187,-0.202233999967575,0.3607479929924011
1781032549676896800,25.615896728515622,0.9392899870872498,-0.5800949931144714,-0.0991899967193603
1781032549696429000,25.63542895507813,0.6214209794998169,-0.9417189955711364,-0.4763450026512146
1781032549715960600,25.65496069335937,0.6133040189743042,-1.0991719961166382,-0.9394779801368712
1781032549735490000,25.67448999023437,0.702455997467041,-1.0486949682235718,-1.364446997642517
1781032549755020300,25.694020263671877,0.5929290056228638,-1.1422679424285889,-1.6260559558868408
1781032549774551600,25.713551513671877,0.3921110033988952,-1.416139006614685,-1.9640330076217647
1781032549794078500,25.733078369140625,0.13680100440979,-1.7604249715805054,-2.3412818908691406
1781032549813602300,25.752602294921875,-0.1247449964284896,-2.14359188079834,-2.5289089679718018
1781032549833127400,25.77212744140625,-0.1188310012221336,-2.249603033065796,-2.6626410484313965
1781032549852655600,25.791655517578125,0.0146679999306797,-2.091792106628418,-2.77321195602417
1781032549872181500,25.811181396484372,-0.2326499968767166,-1.882909059524536,-2.715212106704712
1781032549891704300,25.83070434570313,-0.6097729802131653,-1.6686290502548218,-2.619147062301636
1781032549911232300,25.850232177734377,-0.8549119830131531,-1.5022579431533811,-2.4267020225524902
1781032549930760000,25.869760009765624,-1.0008649826049805,-1.3964999914169312,-2.076627016067505
1781032549950281000,25.88928100585937,-0.7559959888458252,-1.296419978141785,-1.79795503616333
1781032549969802800,25.908802734375,-0.2672710120677948,-1.1900169849395752,-1.6435450315475464
1781032549989332200,25.928332275390623,0.1304610073566436,-1.0783350467681885,-1.5487079620361328
1781032550008861400,25.947861328125,0.4961290061473846,-0.8117629885673523,-1.603201985359192
1781032550028387300,25.96738720703125,0.8383899927139282,-0.4479059875011444,-1.7595789432525637
1781032550047914000,25.9869140625,1.0399869680404663,-0.1419059932231903,-1.8893909454345703
1781032550067445500,26.006445556640625,1.2081010341644287,0.1104329973459243,-2.0081799030303955
1781032550086976000,26.02597607421875,1.4424289464950562,0.1786009967327118,-2.055385112762451
1781032550106504000,26.04550390625,1.4424289464950562,0.1786009967327118,-2.055385112762451
1781032550126035500,26.065035400390624,2.293102979660034,-0.2795180082321167,-1.8155440092086792
1781032550145564200,26.08456420898437,2.6768081188201904,-0.5982139706611633,-1.6197099685668943
1781032550165086200,26.104086181640625,2.921381950378418,-0.8471760153770447,-1.420462965965271
1781032550184608300,26.123608154296875,3.277730941772461,-1.078084945678711,-1.3428490161895752
1781032550204132000,26.143132080078125,3.277730941772461,-1.078084945678711,-1.3428490161895752
1781032550223658800,26.16265869140625,3.2880098819732666,-1.0436769723892212,-1.1756219863891602
1781032550243186400,26.1821865234375,2.916512966156006,-0.7371199727058411,-1.0521639585494995
1781032550262711000,26.2017109375,2.4409139156341557,-0.3789199888706207,-0.8220840096473694
1781032550282236000,26.22123583984375,1.8502459526062007,-0.0956050008535385,-0.7166290283203125
1781032550301760300,26.24076025390625,1.4862109422683716,0.0667150020599365,-0.8347899913787842
1781032550321284600,26.26028466796875,1.3107969760894775,0.0384709984064102,-1.033257007598877
1781032550340817000,26.27981689453125,1.1277209520339966,-0.0747789964079856,-1.3155310153961182
1781032550360348000,26.299347900390625,0.8983240127563477,-0.1114460006356239,-1.513187050819397
1781032550379874000,26.3188740234375,0.5850899815559387,-0.0426619984209537,-1.5827579498291016
1781032550399403000,26.338403076171875,0.0072889998555183,0.1349540054798126,-1.6133610010147097
1781032550418932000,26.357931884765627,-1.55424702167511,0.4085679948329925,-1.6662009954452517
1781032550438456000,26.3774560546875,-1.604375958442688,0.6445450186729431,-1.7439500093460083
1781032550457982500,26.396982421875,-1.5770490169525146,0.7266139984130859,-1.7690659761428833
1781032550477513200,26.41651318359375,-1.539505958557129,0.6936330199241638,-1.764894962310791
1781032550497046300,26.43604638671875,-1.3507369756698608,0.6475430130958557,-1.8295530080795288
1781032550516578000,26.455578125,-1.1155240535736084,0.6360769867897034,-1.9176050424575808
1781032550536107000,26.47510693359375,-1.2338709831237793,0.6640819907188416,-2.092694997787476
1781032550555634700,26.494634765625,-1.611495018005371,0.7699999809265137,-2.349679946899414
1781032550575159300,26.5141591796875,-1.9899369478225708,0.884742021560669,-2.445633888244629
1781032550594684400,26.53368432617188,-2.526681900024414,0.869055986404419,-2.4506289958953857
1781032550614210800,26.5532109375,-2.843372106552124,0.7657340168952942,-2.3697750568389893
1781032550633741300,26.5727412109375,-2.5066580772399902,0.651308000087738,-2.340934991836548
1781032550653269500,26.59226953125,-2.065623998641968,0.4196839928627014,-2.310818910598755
1781032550672792300,26.611792236328125,-1.81392502784729,0.094320997595787,-2.2301149368286133
1781032550692316400,26.63131640625,-1.466676950454712,-0.1531430035829544,-2.216973066329956
1781032550711840500,26.650840576171877,-1.3054410219192505,-0.3999679982662201,-2.101449966430664
1781032550731366400,26.670366455078124,-1.2370500564575195,-0.5424569845199585,-1.9645949602127075
1781032550750891300,26.689891357421875,-0.8668019771575928,-0.4128409922122955,-1.921586990356445
1781032550770412500,26.70941259765625,-0.5726860165596008,-0.1944929957389831,-1.940183997154236
1781032550789935900,26.728935791015623,-0.4719099998474121,0.0561630018055439,-1.9316669702529907
1781032550809462300,26.748462158203125,-0.3680689930915832,0.2939760088920593,-1.7621419429779053
1781032550828988000,26.76798779296875,-0.2865099906921386,0.4573929905891418,-1.4948129653930664
1781032550848511200,26.78751123046875,0.002422000048682,0.6267300248146057,-1.0151599645614624
1781032550868039200,26.8070390625,0.1606100052595138,0.7704229950904846,-0.567907989025116
1781032550887571200,26.8265712890625,0.1821970045566558,0.8934100270271301,-0.4203110039234161
1781032550907101200,26.84610107421875,0.514054000377655,1.1205300092697144,-0.3166669905185699
1781032550926627600,26.86562768554688,0.514054000377655,1.1205300092697144,-0.3166669905185699
1781032550946154000,26.88515405273437,1.4606800079345703,2.0746970176696777,-0.0266570001840591
1781032550965676500,26.904676513671877,1.783511996269226,2.5305190086364746,0.1220540031790733
1781032550985199000,26.92419921875,1.4797990322113037,2.407597064971924,0.1739609986543655
1781032551004728000,26.94372802734375,-0.1545609980821609,0.5808910131454468,0.0950469970703125
1781032551024257500,26.96325756835937,-0.2814480066299438,0.2186319977045059,-0.0677699968218803
1781032551043786000,26.982785888671877,-0.0979380011558532,-0.2188870012760162,-0.0542629994451999
1781032551063314200,27.002314208984377,-0.0979380011558532,-0.2188870012760162,-0.0542629994451999
1781032551082843400,27.021843505859376,0.4258739948272705,-0.5491920113563538,0.4064610004425049
1781032551102374700,27.041374755859376,0.4926680028438568,-0.529964029788971,0.911719024181366
1781032551121901600,27.060901611328124,0.1220439970493316,-0.6125190258026123,1.2737929821014404
1781032551141431800,27.080431884765623,-0.1067640036344528,-0.6602410078048706,1.5577290058135986
1781032551160960000,27.0999599609375,-0.1880819946527481,-0.568934977054596,1.7212159633636477
1781032551180488400,27.119488525390626,-0.0254069995135068,-0.6034070253372192,1.733919978141785
1781032551200022500,27.1390224609375,2.4595930576324463,-0.8958140015602112,1.835616946220398
1781032551219548400,27.15854833984375,4.679437160491943,-0.991129994392395,2.1203548908233643
1781032551239066400,27.17806640625,6.232460975646973,-0.7777460217475891,2.2407751083374023
1781032551258587400,27.19758740234375,6.2982587814331055,-0.5167670249938965,2.0848751068115234
1781032551278111700,27.21711181640625,5.782311916351318,-0.3573080003261566,1.7614589929580688
1781032551297631200,27.23663134765625,3.4535279273986816,-0.3870519995689392,-0.0139239998534321
1781032551317151000,27.25615087890625,1.374163031578064,-0.5652070045471191,-0.1632550060749054
1781032551336678000,27.275677978515624,0.864313006401062,-0.8223900198936462,-0.1401350051164627
1781032551356206300,27.295206298828123,-0.8375149965286255,-1.072633981704712,1.8318840265274048
1781032551375731000,27.31473095703125,-1.3466869592666626,-1.2829519510269165,2.03452205657959
1781032551395255600,27.334255615234376,-1.257351040840149,-1.615349054336548,2.0475590229034424
1781032551414780700,27.35378076171875,0.4295180141925812,-2.011018991470337,1.807528018951416
1781032551434305800,27.373305908203125,2.816098928451538,-2.027395009994507,0.087407000362873
1781032551453833700,27.392833740234376,3.0199239253997803,-1.921097040176392,-0.1088590025901794
1781032551473361000,27.41236083984375,2.679371118545532,-1.9359749555587769,1.7049850225448608
1781032551492886000,27.43188598632813,2.064917087554932,-1.80283796787262,1.9787429571151731
1781032551512407300,27.4514072265625,1.400607943534851,-1.7124500274658203,2.352483034133911
1781032551531927000,27.470927001953125,0.9663119912147522,-1.6283819675445557,2.438662052154541
1781032551551448000,27.490447998046875,0.7992810010910034,-1.4854220151901243,2.044442892074585
1781032551570973200,27.50997314453125,0.7778890132904053,-1.268744945526123,1.6177879571914673
1781032551649085000,27.5880849609375,1.8712300062179563,-1.1184959411621094,2.111517906188965
1781032551668608800,27.60760888671875,1.9469389915466309,-0.5500010251998901,2.326844930648804
1781032551688128300,27.62712817382813,2.010581970214844,1.224756956100464,2.112137079238892
1781032551707641000,27.64664111328125,2.0207619667053223,1.6420270204544067,1.663810968399048
1781032551727148500,27.6661484375,1.7463940382003784,2.123406887054444,1.0817840099334717
1781032551746657000,27.685656982421875,1.1063649654388428,2.6545090675354004,0.4707069993019104
1781032551766171000,27.7051708984375,-0.4314070045948028,2.96091890335083,-0.0691239982843399
1781032551785687800,27.724687744140624,-0.4314070045948028,2.96091890335083,-0.0691239982843399
1781032551805207800,27.744207763671877,-0.7857840061187744,2.998505115509033,-0.6313310265541077
1781032551824726500,27.7637265625,-0.6653270125389099,3.001744031906128,-0.5110399723052979
1781032551844245500,27.78324560546875,-0.6653270125389099,3.001744031906128,-0.5110399723052979
1781032551863766000,27.80276611328125,-0.135683998465538,2.949357032775879,-0.2246509939432144
1781032551883282700,27.82228271484375,-0.0984160006046295,2.8663880825042725,0.1267119944095611
1781032551902798800,27.841798828125,-0.1704870015382766,2.7627010345458984,0.4948390126228332
1781032551922319400,27.8613193359375,-1.8985519409179688,2.709031105041504,1.0021309852600098
1781032551941838300,27.88083837890625,-2.023948907852173,2.885549068450928,1.342610001564026
1781032551961360100,27.900360107421875,-2.109970092773437,2.963921070098877,1.3947319984436035
1781032551980887300,27.91988720703125,-2.1720259189605717,2.939192056655884,1.125164031982422
1781032552000408300,27.939408203125,-1.9525259733200075,2.87955093383789,0.6393359899520874
1781032552019932000,27.958931884765622,-1.5623409748077393,2.726754903793335,-0.0166510008275508
1781032552039461000,27.978461181640625,-1.2180529832839966,2.417387008666992,-0.6771020293235779
1781032552058986000,27.997986083984376,-0.9405249953269958,1.9768630266189573,-1.1686029434204102
1781032552078506200,28.01750634765625,-0.5411540269851685,1.536389946937561,-1.4836180210113523
1781032552098026200,28.037026123046875,-0.2314909994602203,1.131343960762024,-1.5769859552383425
1781032552117546500,28.05654638671875,0.0489000007510185,0.9054700136184692,-1.3784639835357666
1781032552137070300,28.0760703125,0.2355349957942962,1.0660710334777832,-1.067613959312439
1781032552156596000,28.095595947265625,0.1314709931612014,1.2400130033493042,-0.7720670104026794
1781032552176122000,28.1151220703125,-0.0798370018601417,1.362193942070007,-0.5395619869232178
1781032552195647500,28.1346474609375,-0.3864310085773468,1.5660220384597778,-0.4595969915390014
1781032552215167700,28.154167724609376,-0.6415349841117859,1.5430150032043457,-0.4723049998283386
1781032552234689500,28.173689453125,-0.7419930100440979,1.3229559659957886,-0.4581409990787506
1781032552254217500,28.193217529296877,-0.8894879817962646,1.1139960289001465,-0.429311990737915
1781032552273746200,28.21274609375,-0.8803240060806274,0.8633440136909485,-0.4518469870090484
1781032552293272800,28.23227294921875,-0.66389000415802,0.5159739851951599,-0.6788169741630554
1781032552312801500,28.251801513671875,-0.5970420241355896,0.0972360000014305,-1.0239789485931396
1781032552332328400,28.271328369140623,-0.7323650121688843,-0.3825789988040924,-1.344441056251526
1781032552351856000,28.290856201171877,-1.0259079933166504,-0.9896270036697388,-1.7552390098571775
1781032552371382800,28.3103828125,-1.3799619674682615,-1.5478899478912354,-2.010101079940796
1781032552390904600,28.329904541015622,-1.6308579444885254,-1.92999005317688,-2.0247299671173096
1781032552410423800,28.349423828125,-1.7762479782104492,-2.287827014923096,-1.840906023979187
1781032552429945600,28.368945556640625,-1.841235995292664,-2.4924139976501465,-1.6417640447616575
1781032552449471500,28.38847143554688,-1.857347011566162,-2.663291931152344,-1.5567879676818848
1781032552468995300,28.40799536132813,-1.960618019104004,-2.8345229625701904,-1.6229770183563232
1781032552488515600,28.427515625,-2.4468839168548584,-2.980747938156128,-1.7790189981460571
1781032552508037400,28.447037353515626,-2.999073028564453,-3.022656917572021,-1.925938963890076
1781032552527561500,28.4665615234375,-3.344633102416992,-2.9380500316619877,-1.978145956993103
1781032552547084800,28.486084716796874,-3.2170450687408447,-2.8629090785980225,-1.907520055770874
1781032552566603500,28.505603515625,-1.5373849868774414,-2.66471791267395,-1.9195770025253296
1781032552586121000,28.525120849609376,-1.5373849868774414,-2.66471791267395,-1.9195770025253296
1781032552605643300,28.544643310546878,0.4813970029354095,-2.1002368927001958,-1.8654370307922363
1781032552625170200,28.564170166015625,0.4813970029354095,-2.1002368927001958,-1.8654370307922363
1781032552644697000,28.583697021484376,1.0319730043411257,-1.1071189641952517,-1.8352930545806885
1781032552664223500,28.603223388671875,1.0319730043411257,-1.1071189641952517,-1.8352930545806885
1781032552683752000,28.622751953125,1.87841796875,-0.3141460120677948,-1.9257620573043823
1781032552703281400,28.642281494140622,3.3546900749206543,0.0075400001369416,-1.9070310592651367
1781032552722809900,28.661809814453125,3.738394021987915,0.3718819916248321,-1.8968180418014529
1781032552742343000,28.68134301757813,4.096157073974609,0.7071710228919983,-1.887845039367676
1781032552761875200,28.700875244140622,4.270205974578857,0.918874979019165,-1.839970946311951
1781032552781404000,28.72040380859375,4.172722816467285,1.0964380502700806,-1.872033953666687
1781032552800931600,28.739931640625,3.854214906692505,1.16034996509552,-1.9311540126800537
1781032552820458500,28.75945849609375,3.4028139114379883,1.1889569759368896,-1.88715398311615
1781032552839984000,28.77898413085937,2.918040037155152,1.1492669582366943,-1.658259034156799
1781032552859512000,28.798511962890625,2.50793194770813,1.3253450393676758,-1.9780930280685425
1781032552879039200,28.818039306640625,1.952226996421814,0.8613569736480713,-0.1408849954605102
1781032552898562600,28.8375625,1.7824389934539795,0.5273209810256958,-2.2038140296936035
1781032552918086400,28.85708642578125,1.4661420583724976,-1.009526014328003,-0.6126999855041504
1781032552937612500,28.876612548828124,0.8930799961090088,-1.361744999885559,-0.1714179962873459
1781032552957138000,28.896137939453126,0.5679720044136047,-1.1338889598846436,-1.708840012550354
1781032552976663300,28.915663330078125,-1.5396620035171509,-1.237957000732422,0.2266370058059692
1781032552996188700,28.935188720703124,-1.689581036567688,-1.1956390142440796,-0.0792509987950325
1781032553015716400,28.95471630859375,-1.7173540592193604,-0.9027730226516724,-0.5249149799346924
1781032553035243500,28.97424340820313,-1.9674960374832156,-0.8558729887008667,-0.4627430140972137
1781032553054771500,28.993771484375,-2.07385802268982,-0.7910720109939575,-0.522409975528717
1781032553074305500,29.013305419921878,-2.146780014038086,-0.6116870045661926,-0.9987159967422484
1781032553093843000,29.032843017578124,-3.838354110717773,-0.5663679838180542,-1.4915310144424438
1781032553113377800,29.05237768554688,-4.3867621421813965,-0.5400170087814331,-1.85589599609375
1781032553132908800,29.07190869140625,-4.845020771026611,-0.2769330143928528,-1.774999976158142
1781032553152439800,29.091439697265624,-4.921511173248291,0.2175039947032928,-1.448040008544922
1781032553171968500,29.110968505859372,-2.971191883087158,0.8055160045623779,-1.0996010303497314
1781032553191499000,29.1304990234375,-1.3969130516052246,1.285855054855347,-1.266878962516785
1781032553211027200,29.15002709960937,-1.0525720119476318,1.2402379512786863,-1.8977659940719604
1781032553230553300,29.16955322265625,-1.1991029977798462,-0.629423975944519,-2.2524189949035645
1781032553250079000,29.18907885742188,-1.8413009643554688,-0.8921710252761841,-2.343046903610229
1781032553269602300,29.208602294921874,-2.296578884124756,-1.021198034286499,-2.202270030975342
1781032553289130200,29.22813012695313,-2.5623159408569336,-0.816802978515625,-2.078568935394287
1781032553308661200,29.2476611328125,-2.5473880767822266,-0.3325740098953247,-1.9422969818115237
1781032553328192500,29.26719262695313,-2.2516229152679443,0.1377529948949813,-1.6149309873580933
1781032553347723300,29.28672314453125,-2.1485729217529297,0.3998610079288482,-1.2253049612045288
1781032553367250700,29.30625073242188,-2.0135130882263184,0.4357500076293945,-0.9330530166625975
1781032553386777000,29.325777099609372,-2.0135130882263184,0.4357500076293945,-0.9330530166625975
1781032553406300700,29.34530078125,-1.2036960124969482,-0.0186190009117126,-1.0736370086669922
1781032553425824500,29.364824462890624,-0.8314419984817505,0.1135570034384727,-1.366178035736084
1781032553445346800,29.38434692382813,-0.8314419984817505,0.1135570034384727,-1.366178035736084
1781032553464869000,29.403869140625,-0.6770070195198059,1.0113389492034912,-1.3760889768600464
1781032553484394800,29.423394775390623,-0.7244089841842651,1.714324951171875,-1.1714290380477903
1781032553503922400,29.44292236328125,-0.7244089841842651,1.714324951171875,-1.1714290380477903
1781032553523447600,29.462447509765624,-0.8521270155906677,2.2606201171875,-0.2445439994335174
1781032553542967600,29.481967529296877,-0.8389400243759155,2.4849181175231934,0.2635290026664734
1781032553562489000,29.501489013671875,-0.6278949975967407,2.796825885772705,0.4712840020656585
1781032553582013400,29.52101342773437,-0.5442169904708862,3.062189102172852,0.4695029854774475
1781032553601539600,29.54053955078125,-0.6659160256385803,3.132612943649292,0.3445070087909698
1781032553621065200,29.560065185546875,-2.421844959259033,2.9110279083251958,0.1511570066213607
1781032553640591000,29.57959106445313,-2.412416934967041,2.539401054382324,0.1336569935083389
1781032553660110600,29.599110595703124,-2.329507112503052,2.1344120502471924,0.2249139994382858
1781032553679623200,29.618623046875,-2.2029709815979004,1.8965049982070925,0.402875006198883
1781032553699140000,29.63814013671875,-1.7787699699401855,1.8809319734573364,0.7248340249061584
1781032553718662000,29.65766186523437,-1.302474021911621,1.93389904499054,1.265692949295044
1781032553738187000,29.67718701171875,-0.6912029981613159,2.076167106628418,1.7298829555511477
1781032553757708300,29.69670825195313,0.9669309854507446,2.0129261016845703,1.8324910402297971
1781032553777230800,29.71623095703125,1.4312570095062256,1.7665669918060305,1.624181032180786
1781032553796758300,29.73575830078125,1.8535219430923464,1.6403239965438845,1.0906779766082764
1781032553816285200,29.75528515625,2.1215219497680664,1.4343559741973877,0.4273679852485657
1781032553835813400,29.7748134765625,2.376914978027344,1.1474820375442505,-0.1701849997043609
1781032553855336200,29.794336181640624,2.584683895111084,0.997418999671936,-0.5471519827842712
1781032553874855400,29.81385546875,2.924704074859619,0.8194220066070557,-0.7461820244789124
1781032553894376000,29.8333759765625,3.308121919631958,0.3680160045623779,-0.7343659996986389
1781032553913895200,29.85289526367188,3.658453941345215,-0.1070630028843879,-0.5576019883155823
1781032553933419300,29.87241918945313,4.1458940505981445,-0.5282149910926819,-0.3573270142078399
1781032553952943400,29.891943359375,4.446767807006836,-1.1142220497131348,-0.1327549964189529
1781032553972466200,29.911466064453126,4.574832916259766,-1.5965160131454468,0.2518140077590942
1781032553991990500,29.930990478515625,4.283665180206299,-1.6775070428848269,0.5553789734840393
1781032554011515100,29.95051513671875,2.5687479972839355,-1.6569490432739258,0.67364501953125
1781032554031040000,29.9700400390625,0.6395879983901978,-1.5606069564819336,0.6750540137290955
1781032554050565600,29.989565673828125,-1.1391040086746216,-1.3248929977416992,0.4899579882621765
1781032554070092500,30.00909252929688,-1.3934259414672852,-1.1812210083007812,0.3303599953651428
1781032554089616100,30.0286162109375,-1.4422160387039185,-1.116886019706726,0.2383569926023483
1781032554109137700,30.0481376953125,-1.0549659729003906,-1.119986057281494,0.4376710057258606
1781032554128658200,30.067658203125,0.9977620244026184,-1.0436320304870603,0.4065420031547546
1781032554148174600,30.087174560546877,2.769218921661377,-1.0819439888000488,0.3515500128269195
1781032554167689700,30.106689697265622,2.977238893508911,-1.3394659757614136,0.309457004070282
1781032554187210500,30.12621044921875,3.400707960128784,-1.600345015525818,-0.0856660008430481
1781032554206731800,30.145731689453125,3.685600996017456,-1.821457028388977,-0.1797879934310913
