Time (s),Acc_X,Acc_Y,Acc_Z,Gyro_X,Gyro_Y,Gyro_Z,activity_label
4.471808083,0.8140072632,9.767937469,-0.3016227722,-0.00752574252,-0.01758253202,0.007831243798,1
4.491850083,0.8414002991,9.770482178,-0.3261717224,-0.006425177678,-0.01251926646,0.007821283303,1
4.511892083,0.8499325562,9.763746185,-0.3372486877,-0.005892352201,-0.01054602861,0.003536444157,1
4.531934083,0.8704399109,9.754764862,-0.2776725769,-0.00205042446,0.00767825637,0.006798903458,1
4.551977083,0.8610095215,9.774673462,-0.2823129272,0.0004575742641,0.01140751224,0.007311380468,1
4.572019083,0.8431965637,9.747130737,-0.3254232788,-0.003522880608,0.004853947088,0.00607192656,1
4.592061083,0.8120613098,9.743089142,-0.333356781,-0.004402329214,-0.006066245493,0.002334630582,1
4.612103083,0.8312214661,9.796228638,-0.3158432007,-0.01081403531,-0.009662912227,0.0008582712617,1
4.632145083,0.8622070313,9.805659027,-0.2685415649,-0.008557874709,-0.003975925967,-0.0002552133519,1
4.652188083,0.8372090149,9.778715057,-0.2685415649,-0.009822254069,-0.004952418152,0.004792560358,1
4.672230083,0.8240364075,9.798923035,-0.2935395813,-0.01294875797,-0.01592008211,0.00515796151,1
4.692272083,0.808768158,9.774523773,-0.2820135498,-0.0086140614,-0.01838578284,0.003975286148,1
4.712314083,0.878972168,9.794132996,-0.3040177917,-0.009745184332,-0.01698803157,0.00611897558,1
4.732356083,0.8810678101,9.763596497,-0.3014730835,-0.01561983116,-0.008385857567,0.004727480933,1
4.752398083,0.8487350464,9.783804474,-0.2977308655,-0.01124326978,-0.004276742227,0.003573114518,1
4.772441083,0.8056246948,9.758656769,-0.277073822,-0.002146956045,0.001491026953,0.008906095289,1
4.792483083,0.8334667969,9.778265991,-0.3321592712,-0.008430376649,-0.005686667282,0.009629357606,1
4.812525083,0.841999054,9.87316864,-0.2874023438,-0.01640841924,-0.02619322389,0.006245405879,1
4.832567083,0.7768844604,9.848170624,-0.2185455322,-0.02006751299,-0.0340132378,0.006377258338,1
4.852609083,0.8101153564,9.704319763,-0.2380050659,-0.03116131946,-0.0437823385,0.01014766004,1
4.872652083,0.845741272,9.745184784,-0.228874054,-0.02618592791,-0.04596543312,0.01902379468,1
4.892694083,0.845741272,9.781708832,-0.2037263489,-0.01622765698,-0.02956737578,0.01440744475,1
4.912736083,0.785716095,9.708061981,-0.1826202393,-0.01210778393,-0.0278742183,0.01899459958,1
4.932778083,0.8409512329,9.721833344,-0.2477348328,-0.01186429709,-0.02012691647,0.005854112562,1
4.952820083,0.759969635,9.72692276,-0.229921875,0.00289932685,-0.01385047194,0.0007162438706,1
4.972862083,0.8050259399,9.723629608,-0.2531236267,0.008378300816,-0.008964898065,-0.01065989956,1
4.992905083,0.8396040344,9.824519806,-0.1859133911,0.01913639531,0.00691158697,-0.01228456758,1
5.012947083,0.8228388977,9.933343506,-0.2297721863,0.01571890153,-0.005872821901,-0.007030046079,1
5.032989083,0.7542814636,9.996212769,-0.1477427673,0.00323532382,-0.02330183052,0.006880303845,1
5.053031083,0.7493417358,10.02555176,-0.001347198486,0.002974067815,-0.07162196189,0.01149423048,1
5.073073208,0.6015989685,10.26460464,0.3614982605,0.01361574046,-0.1935127228,0.004679657985,1
5.093115208,0.4219725037,10.54557037,0.7873626709,-0.0751966238,-0.3056477904,0.02827574499,1
5.113158208,0.8855584717,10.24963577,0.6587800598,-0.05650781468,-0.400143832,0.06804221869,1
5.133200208,1.250948639,10.15353561,0.7391629028,0.04442791641,-0.4234166741,0.1624018997,1
5.153242208,1.493444366,10.31055908,0.1451980591,-0.02871247754,-0.2648276687,0.266176194,1
5.173284208,1.727856903,10.11835876,0.2799179077,-0.1612031013,-0.06831622124,0.3012900651,1
5.193326208,1.814227295,10.11895752,-1.223705292,-0.02438737452,0.03039664961,0.2111754864,1
5.213368208,1.818119202,7.794141998,-0.1097218323,-0.1975812614,0.3536732793,0.163293317,1
5.233411208,2.42091568,6.680607605,0.3956272888,0.01827007532,0.3545994759,-0.005025519058,1
5.253453208,1.319057007,8.414452057,1.161584473,0.2972978652,0.9551994205,0.01399081759,1
5.273495208,0.5637277222,10.55170761,0.7685018921,0.2923873067,1.144806862,-0.102255486,1
5.293537208,-0.8048762512,10.65978287,-0.5680686951,0.2122597843,0.6830441952,-0.08249147981,1
5.313579208,-0.8464897156,10.22373962,-0.2222877502,0.1838753521,0.186222896,-0.05083739758,1
5.333621208,-0.999022522,9.842632141,-0.2983296204,0.1784455478,-0.06816898286,0.03752318397,1
5.353664208,-0.1423539734,9.377998352,0.06706054688,0.1559707969,-0.1385122687,0.04486216232,1
5.373706208,0.1748364258,9.612410889,0.139360199,0.1809643358,-0.16198048,0.1449306607,1
5.393748208,0.009280700684,9.727521515,-0.1788780212,0.1945993751,-0.1597571075,0.2201257795,1
5.413790208,-0.03098556519,9.963880005,-0.8391549683,0.08944445848,-0.1078824699,0.2533820868,1
5.433832208,-0.1294807434,10.05459137,-0.9610015869,0.04144583642,-0.2186269015,0.2302554697,1
5.453874208,-0.1095721436,9.7609021,-1.527872772,-0.0856327042,-0.4926048815,0.162081942,1
5.473917208,0.7614665222,9.335636444,-1.649569702,-0.1493961662,-0.7230552435,0.0496282652,1
5.493959208,1.842967529,9.538314972,-1.153800659,-0.05001778901,-0.5164529085,-0.001075500157,1
5.514001208,2.962190094,9.769883423,-0.8273295593,0.168760106,-0.2644300759,-0.0422793813,1
5.534043208,3.444337463,9.444011078,-1.307231598,0.2493107468,-0.2374501824,-0.003017973853,1
5.554085208,4.095184021,9.373208313,-1.102756805,0.201380372,-0.4892772734,-0.01573998481,1
5.574127208,4.136947174,9.03775589,0.4001179504,0.1296293437,-0.57976228,-0.01672652364,1
5.594169208,3.845652924,9.246721344,-0.3195854187,0.01399628632,-0.6813283563,-0.04114217311,1
5.614212208,3.109932861,9.714199219,-0.4767585754,0.04383134469,-0.5411818624,0.008961723186,1
5.634254208,3.002306671,9.186546478,0.07484436035,0.1366652101,-0.2580542862,0.03637491912,1
5.654296208,3.409759369,8.636141052,0.3623963928,0.1845834851,-0.08126419783,0.02300460264,1
5.674338208,3.623215485,8.863218842,0.1742376709,0.1768619567,-0.03245666251,-0.006755223963,1
5.694380208,3.459306335,9.220825195,-0.3213816833,0.1897323579,-0.1001397148,-0.05989936367,1
5.714422208,2.84917511,9.320966949,0.03233276367,0.229447484,-0.03476170078,-0.1308265477,1
5.734465208,2.449805603,9.035211182,0.04026626587,0.253644228,-0.1012649238,-0.1874937266,1
5.754507208,2.075134735,8.950637054,0.05433700562,0.2503253222,-0.21994479,-0.2181864381,1
5.774549208,2.273921356,9.36183197,0.003742218018,0.2832842767,-0.2683146894,-0.2716858387,1
5.794591208,2.264191589,9.464668121,-0.3164419556,0.2793789804,-0.3480210602,-0.3362502158,1
5.814633208,2.410287781,9.440717926,-0.2737806702,0.2177679986,-0.3907569051,-0.4120853841,1
5.834675208,2.284249878,9.379644928,-0.05957611084,0.1644727439,-0.2739522159,-0.4135156274,1
5.854717208,2.35654953,9.476942596,-0.07259902954,0.1354338229,-0.1192227229,-0.3733020425,1
5.874760208,2.798430634,9.81239502,-0.6680607605,0.1177659631,-0.02004938386,-0.376924336,1
5.894802208,3.089126129,10.18077896,-1.026565247,0.1391248405,-0.08491655439,-0.4069907367,1
5.914844208,3.292702789,10.2120639,-0.8795709229,0.1652127504,-0.1265934557,-0.4421589077,1
5.934886208,3.370091858,9.8790065,-0.8292755127,0.1263284087,-0.1857579648,-0.4564633369,1
5.954928208,3.509901123,10.06192612,-0.7310797119,0.09395296872,-0.2731036246,-0.3589350879,1
5.974970208,3.348237305,11.0389444,-0.8689430237,-0.06722631305,-0.2456840724,-0.06798554212,1
5.995012208,3.638633423,11.65880539,-0.5508544922,-0.3533923328,0.08441516757,0.2401044071,1
6.015055208,4.203558655,11.66434387,-0.1080752563,-0.6074502468,0.528762579,0.6144749522,1
6.035097208,4.243824921,12.12418762,0.05149291992,-0.9301633835,0.7267436981,0.8912507296,1
6.055139208,3.228785706,12.14514404,-0.9744735718,-1.260824561,0.7703482509,0.9711486697,1
6.075184958,2.091301117,10.5558989,-1.417552185,-1.864003301,0.3240805268,0.8503388762,1
6.095226958,1.080602875,9.09388916,-1.223405914,-2.397478104,-0.553478837,0.669088006,1
6.115268958,0.2712359619,9.38413559,1.655108185,-1.800529718,-1.2032516,0.3832179904,1
6.135311958,0.6304888916,11.04148911,1.164727936,-1.678104043,-1.04766047,-0.03571179509,1
6.155353958,0.8074209595,12.4018602,1.432820435,-1.823662877,-0.5428614616,-0.3660111725,1
6.175395958,0.4779560852,12.59705429,2.027982788,-1.739904642,0.2282352298,-0.3996618688,1
6.195437958,-0.3760180664,11.68305496,1.669178925,-1.531336665,0.8958187699,-0.04667470977,1
6.215479958,-1.138981476,10.93910202,0.8768765259,-1.36442709,0.632961154,0.5577293634,1
6.235521958,-1.280137939,11.02083206,1.433119812,-1.204793453,0.6254376769,0.9424019456,1
6.255563958,-1.459015961,10.30247589,1.746118927,-1.269299388,1.029173017,1.222279429,1
6.275606958,-1.197210388,9.426048431,1.974843292,-1.130908608,1.551344275,1.474167347,1
6.295648958,0.2155517578,8.896749115,1.028960266,-1.132258177,1.768210173,1.360058069,1
6.315690958,0.6905140686,8.286318512,0.4071533203,-1.212880373,1.696182489,1.109279275,1
6.335732958,0.4064048767,8.126151581,1.526824951,-1.081932425,1.581876993,0.8600401878,1
6.355774958,0.2312690735,7.507188721,3.121009827,-0.7745128274,1.594942451,0.5580260158,1
6.375816958,-0.2130070496,6.458020477,3.637435913,-0.3989513516,1.423377514,0.3127464354,1
6.395858958,-0.2330653381,5.617218933,3.525019684,0.002832628787,1.172252536,0.1478410661,1
6.415900958,0.2514770508,5.329966278,3.557801514,0.3185653389,1.114865541,0.0008938529063,1
6.435943958,1.076411591,5.812113647,3.915407867,0.549920857,1.163259506,-0.1016539112,1
6.455985958,2.092199249,6.177503815,3.691922607,0.7050184608,0.8770781755,-0.2415800095,1
6.476027958,2.328707428,6.212530975,4.366569672,0.866299808,0.7089781761,-0.481402427,1
6.496069958,1.134341125,5.687872009,5.908213806,1.156586051,1.153348804,-0.6598367691,1
6.516111958,1.108145599,5.741909637,5.910608826,1.319859505,1.537239075,-0.6753387451,1
6.536153958,2.016456757,7.889194336,5.884562988,1.201487541,1.468491316,-0.5429232121,1
6.556195958,2.882406006,10.84554657,4.544699249,0.6650039554,0.7504757643,-0.3221417964,1
6.576238958,2.043999481,12.68971161,4.040697327,0.02287363261,0.2134052515,0.08671487123,1
6.596280958,0.4959187317,11.15375565,5.130281525,-0.3070073426,0.2095194161,0.4822752476,1
6.616322958,0.8244854736,8.203540649,4.076921997,0.03891931102,-0.2982142568,0.4731347859,1
6.636364958,-1.209784241,8.370293884,2.415377197,1.15160203,-1.372150421,0.1508553922,1
6.656406958,-3.968547363,12.14244965,3.466042328,1.574464798,-1.119160175,-0.298214227,1
6.676448958,-3.805536346,18.37039856,0.0347277832,-0.4478978515,-0.7435621023,-0.2463750541,1
6.696490958,-1.529070282,17.50819153,2.768343201,0.6862969398,-1.305812836,0.6855649352,1
6.716532958,2.398911438,6.886279907,-1.338366852,1.567600369,-1.473061085,0.2657469809,1
6.736575958,0.05748046875,3.519181824,-1.219364319,1.093724489,-1.180729032,-0.5793653727,1
6.756617958,-1.250649261,5.855822754,-0.346230011,1.196144938,-0.3308165073,-1.084548235,1
6.776659958,-1.058448944,9.88259903,-3.491190033,0.8495461345,0.1752065718,-1.228362203,1
6.796701958,-0.8155041504,11.2672197,-2.955753479,0.4556566179,0.04673797637,-0.9450007677,1
6.816743958,0.7770341492,11.22620499,1.646725616,0.7676343918,-0.5406721234,-0.6937672496,1
6.836785958,1.276395721,10.11147308,2.285297699,1.104802728,-0.623554647,-0.6252804995,1
6.856827958,0.2453398132,9.477391663,-0.3637435913,1.008873701,-0.7864952683,-0.494776845,1
6.876869958,0.3320095825,8.909472656,0.1170565796,0.9920812249,-0.8437126875,-0.4437226355,1
6.896912958,0.8487350464,8.997190247,0.2237846375,0.9504984021,-0.5600938797,-0.3804292381,1
6.916954958,1.562001801,9.279054108,-0.9364526367,0.6884274483,-0.1067379639,-0.3795054853,1
6.936996958,1.953587494,9.380992126,-0.4261637878,0.6334035397,0.02451954409,-0.4103167057,1
6.957038958,1.647024994,9.167835388,0.01646575928,0.6350551248,-0.02883447707,-0.3954744935,1
6.977080958,0.330662384,9.310937805,0.1445993042,0.6418626904,-0.1045963019,-0.3154783547,1
6.997122958,-0.2709365845,9.607022095,0.1957928467,0.621471107,-0.2857369483,-0.3510721922,1
7.017164958,-0.2550695801,9.365274811,-0.2145039368,0.5723909736,-0.2617989779,-0.4406622946,1
7.037206958,0.09310638428,9.304800568,-0.5313949585,0.6081023812,-0.2751659155,-0.5414259434,1
7.057249958,0.2386038208,9.221873016,-0.1938468933,0.723898232,-0.2427315265,-0.5559735298,1
7.077288333,0.682281189,9.161249084,-0.4659809875,0.8121367097,-0.1810277253,-0.5693435669,1
7.097330333,0.6954537964,9.407187653,-0.7646099854,0.8987136483,-0.2729099393,-0.5904753804,1
7.117372333,-0.2035766602,9.327403564,-0.6102809143,0.8494471908,-0.3806452751,-0.53940624,1
7.137414333,-0.8123606873,9.283095703,0.2351609802,0.7141202688,-0.5221664906,-0.5843394399,1
7.157456333,-1.263522491,9.741442566,0.5412744141,0.4719023108,-0.7281434536,-0.6632231474,1
7.177498333,-0.7162605286,10.65110092,-0.9885443115,0.1396578401,-0.7262880206,-0.6681836843,1
7.197540333,0.3900888062,11.00511475,-1.701960754,-0.03304408863,-0.5623652339,-0.5701347589,1
7.217583333,2.450554047,10.37387741,-0.4704716492,0.1109628752,-0.2061655223,-0.4100520611,1
7.237625333,4.189188538,10.23406815,-0.3683839417,0.2396029383,0.1515516043,-0.1755737215,1
7.257667333,4.234843597,11.37080429,-0.9351054382,0.1274789274,0.1958709955,0.1175098494,1
7.277709333,2.730471954,12.91903473,-0.08247848511,-0.09051318467,0.3585207164,0.3115010262,1
7.297751333,1.403631134,13.2086824,-0.3781137085,-0.6251990795,0.738337636,0.4691253304,1
7.317793333,1.05545517,12.13556396,-1.309776306,-1.263033152,1.122934103,0.6608732343,1
7.337835333,0.6459068298,11.78125076,-1.923949127,-1.700974107,0.8898898959,0.8989748359,1
7.357877333,-0.6291416931,11.71014862,-1.383273468,-2.202851534,-0.1873022318,0.8831263781,1
7.377919333,-1.58550293,10.55904236,-0.6502478027,-2.761790514,-0.9828907251,0.4155906141,1
7.397962333,-3.173849945,9.463470612,1.902843018,-2.528785229,-1.102435827,-0.04173079878,1
7.418004333,-4.982838135,11.32320328,2.699037323,-1.997911215,-1.694254398,0.0186261069,1
7.438046333,-5.776338043,12.71441025,0.9886940002,-2.082541466,-1.947096586,0.611096561,1
7.458088333,-5.140610046,12.5677153,0.7854167175,-1.99751997,-0.982747972,1.20511055,1
7.478130333,-1.189725952,12.13586334,1.927990723,-1.64962709,0.06386225671,1.212655663,1
7.498172333,-0.117355957,11.16483261,1.804198151,-1.588656545,0.3253698945,1.377835751,1
7.518214333,-0.03023712158,10.83656525,1.493594055,-1.63766706,0.6149721146,1.399962783,1
7.538256333,-0.4962181091,9.618847504,1.34555191,-1.68201673,0.9268043041,1.223828912,1
7.558298333,-1.285227356,8.161777496,1.048120422,-1.737089396,1.541338563,1.092125177,1
7.578341333,-1.285227356,7.478298798,0.7366181946,-1.698435187,1.660001278,0.8937775493,1
7.598383333,-1.324445801,7.15736618,0.6917115784,-1.616288304,1.58474946,0.7161966562,1
7.618425333,-1.514700165,6.950496368,1.886976013,-1.354562402,1.629539013,0.5317231417,1
7.638467333,-1.686393127,6.496939545,2.898871765,-0.9287826419,1.659869194,0.2856588364,1
7.658509333,-1.781744843,5.688470764,3.48565155,-0.389090389,1.346215248,0.06912150979,1
7.678551333,-1.738634491,5.135670319,3.574267273,0.1557812691,1.005984664,-0.04101796448,1
7.698593333,-1.211879883,5.013075256,4.063150635,0.6903321743,0.9800989628,-0.1131772399,1
7.718635333,-0.2393522644,4.939877472,4.516108704,1.075917244,1.112172246,-0.2555766404,1
7.738677333,0.4258644104,5.416186981,5.128634949,1.370652676,0.9009847045,-0.3732884526,1
7.758720333,0.4977149963,5.978417816,5.557343445,1.595498443,0.6541466117,-0.5154824257,1
7.778762333,-0.340841217,6.456373901,5.363945618,1.746177673,0.6772135496,-0.5760447979,1
7.798804333,-0.7747888184,7.835605774,5.233716431,1.643405318,0.8931052089,-0.5973598957,1
7.818846333,-1.26367218,11.05361389,5.73113205,1.133337855,0.9132784009,-0.4188598096,1
7.838888333,-0.4043092346,13.98032776,5.492677917,0.3734358251,0.461944133,-0.01797734015,1
7.858930333,1.652713165,13.44384338,6.250701599,-0.1017118171,0.07095567882,0.3951334655,1
7.878972333,3.203488312,9.742041321,6.323749695,0.1674152762,-0.3858758509,0.6079003215,1
7.899014333,2.152523804,8.370593262,3.339555359,0.7397719622,-0.9288731217,0.4288489223,1
7.919056333,-2.988684998,8.691825256,2.561024323,1.397107959,-0.9208233356,0.3033829331,1
7.939098333,-5.87034256,11.8828894,1.577419739,1.205863595,-0.4655974209,0.2230140716,1
7.959141333,-4.28947998,16.42369675,0.4185296631,0.6209036708,-0.8903027773,0.7220679522,1
7.979183333,1.05545517,11.01319794,1.291663971,1.718161106,-1.173140287,0.6534141898,1
7.999225333,0.4318519592,5.804329834,-3.331621857,0.9031293392,-1.491962075,-0.05183573067,1
8.019267333,-0.8830137634,5.107079773,-0.7277865601,0.4560445547,-0.5642848611,-0.8327246308,1
8.039309333,-1.914369049,8.303383026,-1.248852997,0.6382578611,0.134268865,-1.032205462,1
8.059351333,-1.892215118,10.20712418,-2.339934082,0.8104573488,0.3183943927,-0.7158463597,1
8.079393333,0.182769928,11.40867554,-0.2049238586,1.015829206,0.009005913511,-0.4198133349,1
8.099435333,0.896635437,10.84045715,0.1848655701,1.170389295,-0.5958246589,-0.2409069985,1
8.119477333,-0.6165678406,10.08378067,-0.5960604858,1.26153028,-0.8159070611,-0.1895571798,1
8.139519333,-1.345252533,9.298513641,-0.9713301086,1.220539451,-0.9321750998,-0.2827740312,1
8.159562333,-1.355730743,8.810079346,-0.3426374817,0.9314604998,-0.7830292583,-0.4899500012,1
8.179604333,-1.409468994,8.958420868,0.009430389404,0.5618882179,-0.3116217852,-0.5971614718,1
8.199646333,-0.4296066284,9.241781616,0.2692900085,0.5492014885,0.3828576505,-0.6477168202,1
8.219688333,0.5307962036,9.849368134,-0.9559121704,0.5983688235,0.5345391035,-0.5849121213,1
8.239730333,0.4918771362,10.12569351,-1.737137604,0.6840535402,0.1086636335,-0.4107592702,1
8.259772333,-0.05897735596,9.696685638,-1.441652069,0.7914050817,-0.4306614101,-0.2759882808,1
8.279814333,-0.7457492065,9.473948822,-0.8044271851,0.7434970737,-0.4933041036,-0.2939302027,1
8.299856333,-1.27774292,9.24253006,-0.4120930481,0.6289031506,-0.1704760939,-0.4299322963,1
8.319898333,-1.306034088,9.089099121,-0.2903961182,0.5633568764,0.0482358411,-0.5569649339,1
8.339940333,-1.245559845,9.196725311,-0.6698570251,0.6350594163,-0.0700622499,-0.6066416502,1
8.359982333,-0.9801617432,9.515562286,-0.6475534058,0.7596594691,-0.233709842,-0.669931829,1
8.380025333,-0.8904981995,9.905351715,-0.2097138977,0.8615864515,-0.3461285532,-0.723357439,1
8.400067333,-0.8367599487,10.02884491,0.6159690857,0.9422875047,-0.3743941188,-0.7770118117,1
8.420109333,-0.8595126343,10.03887405,0.6905140686,0.882060945,-0.2840383351,-0.7718010545,1
8.440151333,-0.6659651184,10.1231488,0.3758683777,0.7025029659,-0.3542856872,-0.689509511,1
8.460193333,0.2040257263,10.02869522,-0.383203125,0.4083103538,-0.4257203937,-0.4997795224,1
8.480235333,1.331930237,10.64286804,-0.8617579651,0.2201171517,-0.3195783496,-0.2988838255,1
8.500277333,1.935624847,11.28428421,-0.7258406067,0.1007994264,-0.2646124661,-0.1558985561,1
8.520319333,1.953288116,11.24311981,-0.8915460205,-0.122027047,-0.03544557095,0.04679112509,1
8.540361333,1.083746338,12.09185486,-0.9107061768,-0.2186885476,0.3248382807,0.3351987898,1
8.560403333,0.4604425049,13.46988922,-1.328786774,-0.6933804154,0.5067090392,0.600676477,1
8.580445333,-0.1146615601,13.79052246,-2.073937225,-1.299474001,0.6556348205,0.78934443,1
8.600487333,-1.332828369,11.4038855,-1.039737854,-1.864002943,0.7751485705,1.055379152,1
8.620530333,-1.806293793,8.389603729,-1.185085602,-2.483555555,0.4214539528,0.9964870811,1
8.640572333,-3.177741852,6.077511749,-0.9922865295,-2.688009501,-0.2258690149,0.8048285842,1
8.660614333,-4.965923309,7.458240509,0.2995271301,-2.470538139,-1.12883687,0.5899919868,1
8.680656333,-5.958808594,11.95803314,1.384920044,-2.17860651,-2.107723713,0.531360209,1
8.700698333,-5.814808044,14.15261948,0.8312214661,-2.199733734,-2.191803455,0.7818138003,1
8.720740333,-2.597248993,13.09267365,0.5261558533,-2.121258259,-1.109475017,0.6998949051,1
8.740782333,-1.187330933,11.53201904,0.9005273438,-1.869152665,-0.1855558008,0.9075856209,1
8.760824333,-0.3939807129,10.90033264,-0.0043409729,-2.038283587,-0.7600737214,1.1794554,1
8.780866333,0.04281097412,11.14552277,2.000290375,-1.752271771,-0.2802251875,1.343201399,1
8.800908333,-0.36389328,10.43045975,2.693199463,-1.670154929,0.3996255994,1.25033319,1
8.820950333,-1.114881592,9.124874725,2.773582306,-1.476078749,0.992135644,1.146612406,1
8.840993333,-1.045276337,8.528065796,1.567091217,-1.423923969,1.585207701,0.9490913153,1
8.861035333,-1.23208786,8.22569458,0.5239105225,-1.498917103,1.804945111,0.8025941253,1
8.881077333,-1.535357208,7.814499664,1.044976959,-1.305216312,1.558649302,0.7461283803,1
8.901119333,-1.645079041,7.08491684,2.432890778,-0.9689155221,1.598750949,0.5607568026,1
8.921161333,-1.725611572,5.997278595,3.060086517,-0.5615124106,1.508148432,0.3295378387,1
8.941203333,-2.027533722,5.366789703,3.721710663,-0.01100867987,1.141629696,0.1718055457,1
8.961245333,-1.7703685,5.418881378,3.969146118,0.5260967016,0.7485346794,0.02464097925,1
8.981287333,-1.330283661,5.244793396,3.895798645,0.8696624637,0.6005698442,-0.1051469743,1
9.001329333,-0.5767506409,5.288053436,4.129762115,1.114474893,0.5872021914,-0.2902709246,1
9.021371333,-0.110919342,5.420378265,4.450545044,1.315649033,0.4755735397,-0.4938204885,1
9.041413333,-0.4761598206,5.381159821,4.240681458,1.467003822,0.4617229402,-0.6583623886,1
9.061455333,-0.9553134155,6.291416931,5.135370941,1.643498778,0.8548611999,-0.6595653296,1
9.081497125,-0.7565267944,8.908574524,5.931864624,1.574621797,1.336643219,-0.5160063505,1
9.101540125,0.6789880371,12.3593486,7.188800812,1.256334066,1.55132556,-0.2980554104,1
9.121582125,2.501747589,14.93294678,6.146218872,0.5269925594,0.9540634155,0.2708082497,1
9.141624125,4.753664703,14.15441574,5.109624481,-0.04950906336,-0.07535386086,0.6551067233,1
9.161666125,3.141367493,9.832153931,4.278253326,-0.04338537902,-0.6715496778,0.8675708175,1
9.181708125,0.7833210754,7.597451019,4.186793518,0.5978111625,-0.726957202,0.6139805913,1
9.201750125,-2.678529968,7.448959808,3.168461151,1.352136254,-0.1302809566,0.2684109211,1
9.221792125,-5.238057404,8.600814514,1.940115509,1.519702315,0.6708130836,-0.007071688306,1
9.241834125,-5.680387573,12.92562103,1.616787872,0.1185527816,0.857429862,-0.4097557962,1
9.261876125,-5.248685303,16.67966446,3.557352448,0.2229028791,-0.9668471813,0.09176475555,1
9.281918125,-0.2005828857,10.40830582,-1.014889526,1.355179906,-1.705566645,0.506916225,1
9.301960125,0.1663041687,5.166955261,-5.01262619,0.9643377066,-1.492209315,0.04095542803,1
9.322002125,-1.721869354,4.371659088,-1.902843018,0.417360425,-0.4900403023,-0.4142690599,1
9.342044125,-0.7788304138,8.556656342,-1.798360291,0.6196880341,-0.168515563,-0.337862581,1
9.362086125,0.2176473999,10.80737595,-2.885699158,0.6814779639,-0.1796537638,-0.1914722323,1
9.382128125,1.653910675,11.94875244,-0.5014572144,0.5171524882,-0.8330026865,-0.2173554152,1
9.402171125,-0.650098114,10.68268524,2.922073517,0.8665954471,-0.4589904845,-0.1722841412,1
9.422213125,-2.190694427,9.294322357,0.2357597351,0.9236753583,-0.3675532937,-0.2772410512,1
9.442255125,-1.669777679,8.591384125,-0.9693841553,0.8196308613,-0.1990102381,-0.5115032196,1
9.462297125,-1.107546844,9.322314148,0.01362167358,0.8652006388,0.153525278,-0.589112103,1
9.482339125,-0.6295907593,10.0342337,-0.5698649597,0.9108290076,0.2803520858,-0.5518931746,1
9.502381125,0.09475296021,10.28960266,-0.4251159668,0.998947382,0.2580379844,-0.5795650482,1
9.522423125,0.0679586792,9.641899567,0.08592132568,1.112012267,0.09312724322,-0.5336264968,1
9.542465125,-0.623303833,9.20510788,-0.5993536377,1.0289464,-0.1190391332,-0.4288175404,1
9.562507125,-1.216520233,9.051527252,-0.8150550842,0.8312793374,-0.2737849355,-0.4080802202,1
9.582549125,-1.476529541,9.193881226,-0.08666976929,0.7683429718,-0.286518544,-0.4571724832,1
9.602591125,-1.442250824,9.286388855,-0.505947876,0.7718015909,-0.3825268149,-0.4421238601,1
9.622633125,-0.8659492493,9.228609009,-1.117575989,0.7781727314,-0.4919276536,-0.4039403498,1
9.642675125,-0.3011737061,9.385782166,-0.8460406494,0.7793411016,-0.4564493001,-0.4348230362,1
9.662717125,-0.09610015869,9.665849762,-0.1438508606,0.8133493066,-0.3187044263,-0.539983809,1
9.682760125,-0.3668870544,9.723330231,0.3523672485,0.8762847185,-0.2794621289,-0.6310306787,1
9.702802125,-0.7438032532,9.726623383,1.163680115,0.9662368894,-0.2351634949,-0.6510680914,1
9.722844125,-0.972228241,9.925260315,1.065634003,0.9676540494,-0.2198704481,-0.6041806936,1
9.742886125,-0.7086264038,9.896520081,0.1029858398,0.6394805312,-0.3264443874,-0.5504974723,1
9.762928125,-0.1516346741,10.28556107,-0.7189549255,0.3139347732,-0.39654845,-0.4475227594,1
9.782970125,0.4680766296,10.43001068,-0.8836125183,0.2122317702,-0.3970306516,-0.3247436881,1
9.803012125,1.354533234,10.78207855,-0.6752458191,0.1512921751,-0.4043763876,-0.2352117151,1
9.823054125,1.017434235,11.0084079,-0.4342469788,-0.03172696382,-0.2862693965,0.009762420319,1
9.843096125,0.3050656128,12.19693634,-1.107397156,-0.3306429088,-0.01948637143,0.3674872518,1
9.863138125,0.1261875916,13.53799759,-2.090702362,-1.034641743,0.2018406391,0.6979755759,1
9.883180125,0.5468128967,13.28083237,-2.433339844,-1.678333521,0.5193133354,1.047286034,1
9.903222125,0.03951782227,12.65842667,-1.806144104,-1.931044698,0.3954318762,1.244856477,1
9.923264125,-2.351160736,9.922416229,-1.277892609,-2.453945398,-0.4162560701,1.057554245,1
9.943306125,-4.416715393,8.922495575,-0.5879772949,-2.549298286,-0.8740820885,0.7146933675,1
9.963348125,-6.490802307,10.35337006,1.700014801,-2.231992006,-1.209643841,0.5787464976,1
9.983390125,-6.590944061,12.54151978,1.854942627,-1.850747585,-1.456891298,0.5738063455,1
10.00343212,-4.553830261,11.94770462,-0.2716850281,-1.88890183,-1.330782771,0.5920575261,1
10.02347513,-1.863624573,9.64264801,-1.51754425,-2.138088703,-0.8628380895,0.5647300482,1
10.04351712,-1.029559021,9.347162476,-1.263073425,-2.398216009,-0.7250941396,0.6202386618,1
10.06355913,-0.6968009949,10.61143341,1.076860657,-2.247215271,-0.4639751017,0.7321490049,1
10.08360088,-1.265169067,10.89524323,3.019820251,-1.818142176,0.1394857466,0.9610646367,1
10.10364288,-1.527423706,10.06057892,2.489323425,-1.560729742,0.8920770884,1.111637235,1
10.12368488,-1.072669373,9.297166443,1.053359528,-1.412464738,1.437051892,1.009327173,1
10.14372688,-0.9815089417,8.319250031,-0.326920166,-1.408741832,1.337663651,0.8554663062,1
10.16376887,-1.690285034,7.854915619,0.5881269836,-1.186900258,1.053061962,0.8453133106,1
10.18381088,-1.780098267,7.573650513,2.682571564,-0.7736178637,1.215725183,0.7723355889,1
10.20385287,-1.54104538,6.959777069,3.637585602,-0.3647374213,1.322538495,0.5717753172,1
10.22389488,-1.498084717,6.511908417,3.20019516,0.02042364888,0.9898454547,0.3629022241,1
10.24393687,-1.557960205,6.065836029,2.919977875,0.3476802111,0.6832617521,0.1551961899,1
10.26397888,-1.927841034,5.604944458,3.101550293,0.5524673462,0.6902261376,0.01186973508,1
10.28402087,-1.201551361,5.956413574,4.015549622,0.7545747757,0.80377841,-0.2064499408,1
10.30406288,-0.5737568665,6.109694824,4.245770874,0.93171525,0.7895794511,-0.3996520638,1
10.32410487,-0.2011816406,6.162385254,3.776496735,1.025992513,0.8366276026,-0.5601575375,1
10.34414688,-0.06825805664,6.581064606,3.519181824,1.065943241,0.8157762885,-0.6240212321,1
10.36418887,-0.6280938721,7.818990326,4.232897644,0.9329621792,1.090615988,-0.5455369353,1
10.38423188,-0.2194436646,10.5253624,6.790479126,0.8305826187,1.562042236,-0.3928751647,1
10.40427387,0.8813671875,13.1663205,6.72102356,0.7164207697,1.20578742,0.0423030518,1
10.42431588,2.423310699,12.83969971,4.979694672,0.3171770871,0.6969829202,0.4553580582,1
10.44435787,3.656296692,10.86994583,4.319268036,-0.03585634008,0.2203758806,0.5682205558,1
10.46439988,1.924547882,8.476722565,4.097579041,-0.1037838086,-0.168724075,0.6978977919,1
10.48444187,0.2489323425,7.676037598,4.229604492,0.6258359551,-0.4844790399,0.5180563331,1
10.50448388,-2.831212463,7.742349701,2.760409698,1.475718141,-0.4862866998,0.2314761132,1
10.52452588,-5.590574341,9.854307861,2.078727264,1.772347331,-0.07762648165,-0.01480007265,1
10.54456788,-5.879323883,15.59786407,2.192191315,0.2558009923,0.2455452681,-0.3946169317,1
10.56460988,-5.133874054,18.58445343,3.556454315,0.2517947555,-0.2480622977,-0.04851385951,1
10.58465188,-0.9111552429,10.02240829,-2.33080307,1.317636132,-0.6993766427,0.3466808498,1
10.60469388,-0.5366340637,4.172423401,-5.444927216,1.193658113,-1.1767205,0.1022933275,1
10.62473588,-1.464255066,2.374661865,-3.661086731,0.2801772654,-1.10537982,-0.4425308704,1
10.64477788,-1.87799469,7.254065094,-0.001646575928,0.6485155225,0.01387651917,-0.6352741122,1
10.66481988,-1.258732452,10.8319249,-0.05598358154,1.201671124,0.8389329314,-0.4226859212,1
10.68486188,0.4288581848,13.04926392,-0.8933422852,1.142970443,0.3619787693,-0.3107648492,1
10.70490388,1.212029572,12.00084412,-0.4520599365,0.9358141422,-0.4847007096,-0.3088653386,1
10.72494588,-1.513802032,9.441166992,0.3216810608,0.963319838,-0.7576084137,-0.2363983542,1
10.74498788,-2.765648804,8.212372284,0.2522254944,0.9587734938,-0.8058667779,-0.2449596077,1
10.76502988,-2.58242981,8.00804718,-0.05284011841,0.9001793265,-0.598759234,-0.3566235304,1
10.78507187,-1.317260742,8.715775452,-0.3324586487,0.9671601057,-0.1010638699,-0.4404911101,1
10.80511388,-0.5141807556,9.444011078,-1.29765152,0.9888508916,0.03709093481,-0.4579092264,1
10.82515687,-0.4053570557,9.651779022,-2.111808472,0.9623811245,-0.4183012843,-0.4091278315,1
10.84519888,-1.02147583,9.361083527,-1.525178375,0.9214395285,-0.7103773355,-0.3262257576,1
10.86524087,-1.435514832,9.376202087,-0.5625302124,0.7429400682,-0.6295349002,-0.321346879,1
10.88528288,-1.618584137,9.661508789,-0.3710783386,0.6064876318,-0.4971320331,-0.371465981,1
10.90532487,-1.44509491,9.759405212,-0.8009843445,0.6158547401,-0.472310096,-0.3498325944,1
10.92536688,-0.7146139526,9.700278168,-0.7521858215,0.6431879997,-0.4063006043,-0.3264190853,1
10.94540887,-0.09265731812,9.736652527,-0.2983296204,0.6780972481,-0.3923051357,-0.3539095819,1
10.96545088,-0.07978408813,9.931247864,-0.1540296936,0.7684156299,-0.3956969082,-0.3365521729,1
10.98549287,-0.1920506287,9.913734283,0.1466949463,0.7924442887,-0.339117527,-0.3382725716,1
11.00553488,-0.1833686829,9.266180878,0.7078779602,0.6943906546,-0.2728534937,-0.3466853499,1
11.02557687,-0.4492158508,9.824519806,0.3300636292,0.6333086491,-0.2311222553,-0.3696968257,1
11.04561888,-0.5310955811,11.3547876,-0.6589297485,0.5248066187,-0.2107139826,-0.4057456255,1
11.06566087,0.2368075562,11.73739197,-1.188678131,0.3480982482,-0.1195095032,-0.4241577387,1
11.08570371,0.8619076538,10.69525909,-0.3899391174,0.2268385142,-0.08440408111,-0.3339287341,1
11.10574571,0.9439370728,10.50350784,-0.9910890198,0.07581165433,-0.09017908573,-0.1820006669,1
11.12578771,0.2921923828,10.59751236,-1.140328674,-0.04663609713,-0.08100144565,0.0687122941,1
11.14582971,-0.4800517273,11.81014069,-0.5777984619,-0.1862373948,-0.0636318177,0.3457132876,1
11.16587171,-0.6716532898,12.79299683,-0.9843530273,-0.7140856981,0.2375985533,0.5092445612,1
11.18591371,-0.9369017029,13.9399118,-3.322191467,-1.145792842,0.5740295649,0.6449429393,1
11.20595571,-2.107467499,12.58852203,-1.18179245,-1.648048639,0.2959812582,0.7885377407,1
11.22599771,-2.641706543,8.733588409,-1.937121735,-2.341130257,-0.2571968436,0.7691124678,1
11.24603971,-3.25288559,5.611081696,-1.451980591,-2.660743713,-0.7364442348,0.5831884742,1
11.26608171,-5.001549225,6.063291321,0.4867877197,-2.490682602,-1.165709019,0.5060743093,1
11.28612371,-6.270759888,10.09096573,1.562750244,-2.228843212,-1.854657412,0.6214942336,1
11.30616571,-5.041965179,13.03399567,0.6761439514,-2.327449799,-1.905465841,0.6176388264,1
11.32620771,-2.064656525,12.56726624,0.2906954956,-2.437443972,-1.013127565,0.468827486,1
11.34624971,-1.581012268,11.11154343,0.9517208862,-1.96060729,-0.2057234347,0.5389441848,1
11.36629271,-1.744023285,10.94179642,0.553099823,-1.707293987,-0.6554996371,0.8164584637,1
11.38633471,-1.057101746,11.04328537,0.5936654663,-1.668205142,-0.9723559618,1.063861012,1
11.40637671,-0.8045768738,10.95077774,2.609224091,-1.492803574,-0.4866502583,1.131253481,1
11.42641871,-1.29884903,10.16865417,3.163671112,-1.321377873,0.4285704792,1.08246839,1
11.44646071,-1.203497314,9.204658813,2.338886261,-1.156405926,1.126222849,0.9872642159,1
11.46650271,-1.282532959,8.263865204,0.486638031,-1.25830555,1.325837731,0.9131757021,1
11.48654471,-1.2063414,7.540269928,0.5318440247,-1.238424301,1.290268421,0.8517199159,1
11.50658671,-0.9243278503,6.996600494,1.965562592,-0.9243271351,1.292005777,0.6518551707,1
11.52662871,-1.171164551,6.269861755,3.190914459,-0.5374534726,1.263777137,0.4246054292,1
11.54667071,-1.814376984,5.869743805,3.882476349,-0.05619611591,0.9939878583,0.2920304835,1
11.56671271,-1.757046204,5.893694,4.319118347,0.4643910527,0.6593878865,0.0905726999,1
11.58675471,-1.399290161,5.557193756,4.046684875,0.8257308006,0.4031181037,-0.09986340255,1
11.60679671,-0.632434845,5.538332977,3.959116974,1.049305081,0.3014181256,-0.2953675985,1
11.62683871,-0.03667373657,5.565127258,4.351301422,1.229732633,0.4415362775,-0.5188547373,1
11.64688071,0.1567240906,5.237009583,4.251309357,1.367186546,0.7004324198,-0.7923830152,1
11.66692271,-0.3023712158,5.501958618,3.830384674,1.467759967,0.9613283873,-0.8574381471,1
11.68696471,-0.3106040955,7.449408875,4.541256409,1.357664704,1.52349937,-0.7249101996,1
11.70700671,0.7777825928,10.88192093,6.019282837,1.086246252,1.730817199,-0.5635962486,1
11.72704871,1.708097992,14.56471252,5.532944183,0.5680290461,0.9946585894,-0.09372295439,1
11.74709071,2.211650848,15.06856476,4.91323288,-0.00900705345,0.304887563,0.5149546862,1
11.76713271,2.204166412,10.71561676,4.877008209,-0.005702383816,-0.3570669591,0.8911175728,1
11.78717471,1.426832886,7.549999695,4.113446045,0.5467996001,-0.6816348433,0.8283222318,1
11.80721671,-1.05186264,8.443791046,3.284320221,1.340388775,-0.5183676481,0.3603847325,1
11.82725871,-5.23266861,10.92113937,1.389710083,1.679627538,0.1499721408,0.04235666245,1
11.84730071,-7.040010223,15.87029755,0.1957928467,0.07110755146,0.8109381795,-0.1699382365,1
11.86734271,-5.093009033,16.73460022,2.42795105,0.5723767281,-0.03285907581,0.1522950977,1
11.88738471,-2.353256378,8.093369751,-2.163301392,1.760381818,-0.4522716701,0.3282496035,1
11.90742671,-1.502276001,3.708538055,-6.123615875,0.8698818684,-1.249114752,-0.2397763729,1
11.92746871,-2.802023163,3.482657776,-2.21614151,0.4784247279,-0.7939765453,-0.7994594574,1
11.94751071,-2.624791718,8.851543121,-0.009879455566,1.027210474,0.2663356364,-0.899292469,1
11.96755271,-1.631906433,11.45897095,-3.22010376,1.056415439,0.6313512325,-0.7113491893,1
11.98759471,0.4572990417,11.6918866,-2.130070496,0.9251090288,-0.04786368832,-0.5005706549,1
12.00763671,-0.182769928,10.01402573,-0.5141807556,0.9493060708,-0.823667109,-0.1906486005,1
12.02767871,-1.977837067,9.174122314,0.3059637451,0.9713752866,-1.020415187,-0.1043865606,1
12.04772071,-2.049537964,8.613837433,0.7768844604,0.890625596,-0.7926883101,-0.2524119616,1
12.06776271,-0.9383985901,8.942104797,0.6342311096,0.795525372,-0.2144339383,-0.3651069403,1
12.08780458,0.250279541,9.405840454,-0.8662486267,0.6500393748,-0.01202098746,-0.4302693903,1
12.10784658,0.5637277222,9.900262299,-1.55975647,0.5049957633,-0.2884676456,-0.3833563328,1
12.12788858,-0.2152523804,10.20248383,-0.6086343384,0.6069722176,-0.4051010311,-0.2368218601,1
12.14793058,-0.800684967,9.881102142,-0.07484436035,0.6614927649,-0.3374802768,-0.1610173583,1
12.16797258,-1.079405365,9.506580963,-0.1872605896,0.6502962708,-0.2164778858,-0.1643274128,1
12.18801458,-1.263372803,9.507479095,-0.7375163269,0.6252358556,-0.1090487763,-0.1919070631,1
12.20805758,-1.252595215,9.343569946,-0.7878117371,0.6006373167,-0.1569535583,-0.2460770458,1
12.22809958,-1.104253693,9.252559204,-0.5168751526,0.5881722569,-0.2197193354,-0.2981642783,1
12.24814158,-0.8665480042,9.427695007,-0.4956193542,0.6135116816,-0.2961730361,-0.3525971174,1
12.26818358,-0.8186476135,9.687404938,-0.5195695496,0.6992624998,-0.3199587166,-0.4102992117,1
12.28822558,-0.8602610779,9.835896149,-0.3215313721,0.785884738,-0.2720588744,-0.4876134992,1
12.30826758,-0.8360115051,9.954299927,0.325872345,0.8537045717,-0.1905107647,-0.5654331446,1
12.32830958,-1.022523651,10.4032164,0.2378553772,0.807677865,-0.22023426,-0.5699786544,1
12.34835158,-0.7607180786,11.08519821,-0.7226971436,0.5731367469,-0.3569105864,-0.5165376663,1
12.36839358,0.0889151001,10.20383102,-0.8334667969,0.3473290205,-0.360652715,-0.3698303699,1
12.38843558,0.6620732117,9.857750702,-1.044677582,0.1214382201,-0.3307180703,-0.1712959111,1
12.40847758,0.490380249,11.04044128,-0.7041357422,-0.02434373647,-0.3157538176,0.05180901289,1
12.42851958,-0.08622070312,12.08481949,-0.6623725891,-0.1694112271,-0.1921080202,0.2984871864,1
12.44856158,-0.5242098999,12.85661453,-0.3900888062,-0.3664861023,-0.0868037641,0.4537686408,1
12.46860358,-0.9851014709,12.54047195,-1.255738678,-0.8204903007,0.05182144046,0.5139493346,1
12.48864558,-1.246457977,12.60139526,-2.673141174,-1.280250669,0.3653429151,0.4920699596,1
12.50868758,-2.614612885,12.09230392,-1.051563263,-1.543563485,0.2877199352,0.5929250121,1
12.52872958,-2.808310089,9.581275635,-1.007704468,-2.16126132,-0.1890504658,0.6408245564,1
12.54877158,-2.848875732,6.524631958,-1.487756195,-2.507395744,-0.8274219036,0.5489975214,1
12.56881358,-4.194277954,6.207142181,0.5080435181,-2.238059044,-1.44833982,0.4975880682,1
12.58885558,-5.531896362,9.130263519,1.780098267,-1.911866307,-1.525555491,0.6961730123,1
12.60889758,-2.926264801,12.40305771,0.3606001282,-1.953915834,-0.8591387868,0.5276249647,1
12.62893958,-2.03591629,12.38928635,-0.8114625549,-2.068324566,-0.5747262239,0.5682370067,1
12.64898158,-1.592837677,10.77728851,0.333356781,-1.827877998,-0.9967797995,0.8182684183,1
12.66902358,-0.6971003723,10.09874954,1.13613739,-1.405063987,-1.450777411,0.9198337793,1
12.68906558,-1.16308136,10.01282822,1.26951004,-1.221546054,-1.08901155,0.9224717617,1
12.70910758,-1.654060364,9.618997192,1.609752502,-1.328585148,-0.3774101734,0.9342207313,1
12.72914958,-2.132914581,9.686656494,2.669249268,-1.173466206,0.5952298045,0.9715551734,1
12.74919158,-1.983225861,9.477990417,1.661245422,-1.113694787,0.9856203198,0.9562820792,1
12.76923358,-1.272653503,8.94300293,1.109941864,-1.157884359,1.203027606,0.9480327964,1
12.78927558,-0.8746311951,8.338859253,1.404978333,-0.9579303861,1.183446527,0.9675776362,1
12.80931758,-0.3680845642,7.998317413,2.116299133,-0.5862675309,1.267025948,0.7682932615,1
12.82935958,-0.4824467468,7.341483307,2.01840271,-0.3949884474,1.325922847,0.5060648918,1
12.84940158,-1.494791565,6.868616638,2.476300507,-0.24162139,1.250074744,0.3029835224,1
12.86944358,-1.974992981,6.591842194,3.560944977,0.1042400151,1.049824953,0.09501205385,1
12.88948558,-2.283202057,6.063141632,3.750899963,0.4756249487,0.8797917962,-0.03418457136,1
12.90952758,-1.417552185,6.044131165,3.838018799,0.7645475864,0.8658109307,-0.1739248037,1
12.92956958,-0.4323010254,6.114185486,3.109334106,0.8716180325,0.783064723,-0.3490902781,1
12.94961158,-0.3109034729,6.077661438,2.891836395,0.9359989166,0.8083607554,-0.5189728141,1
12.96965358,-0.4378395081,6.68584671,3.40257431,1.114536881,0.8158416152,-0.6373155713,1
12.98969558,-0.5102888489,8.212222595,3.586691437,1.125736952,0.8677563667,-0.6840946674,1
13.00973758,-0.7002438354,10.09874954,5.148992615,0.8788171411,1.439255357,-0.5594960451,1
13.02977958,0.04101470947,12.25890747,7.253017273,0.6296243072,1.666309476,-0.108402811,1
13.04982158,1.81602356,13.15674042,5.736670532,0.2645705044,1.039954305,0.4199587405,1
13.06986358,3.866609344,12.38314911,4.355193329,0.02897269093,-0.005862217396,0.5942422152,1
13.08990571,1.776056671,10.22837997,3.564387817,-0.1173703372,-0.6366527677,0.7758296728,1
13.10994771,0.08472381592,9.89771759,5.131179657,0.3091809154,-0.5852701664,0.6726421714,1
13.12998971,-2.606679382,9.246421967,3.880829773,1.005655766,-0.3094509542,0.54519701,1
13.15003171,-4.501139832,9.471104736,2.386337585,1.48775506,-0.02370180376,0.3151426613,1
13.17007371,-4.53062851,12.65618134,0.09086105347,0.6016820669,-0.3681887388,-0.03808875382,1
13.19011571,-4.57508606,14.66754868,2.677332458,0.4935635626,-0.4890554845,-0.01394931134,1
13.21015771,-1.817520447,9.558672638,0.5108876038,1.068028927,-0.8338993788,0.1336307079,1
13.23019971,-1.07416626,5.034780121,-4.729564819,0.3894285262,-1.233460546,-0.04680446908,1
13.25024171,-1.392853546,4.459825745,-4.134252777,-0.4032126069,-0.9899486303,-0.5207499862,1
13.27028371,-2.235750732,5.96045517,-1.600920868,-0.3869212568,-0.3470919132,-0.762496829,1
13.29032571,-0.05224136353,8.95467865,0.9074130249,0.03547864407,-0.006513437722,-0.5487976074,1
13.31036771,1.403631134,12.14738937,-0.02694396973,0.4496697783,0.0209388528,-0.0425029546,1
13.33040971,2.055974579,13.4781221,-1.896556091,0.6727102995,-0.5444571376,0.1814016849,1
13.35045171,0.8358618164,11.81537979,-1.080153809,0.4486997128,-1.267428517,0.2289797664,1
13.37049371,-0.9713301086,9.010362854,1.925595703,0.4267111421,-0.4888292849,-0.005612944253,1
13.39053571,-1.859732666,8.076903992,0.4842430115,0.4374772012,0.2622645199,-0.222457543,1
13.41057771,-1.204844513,8.82594635,-0.302820282,0.468727529,0.2669303715,-0.3587480783,1
13.43061971,-0.9422904968,9.965077515,-0.09415420532,0.5507380366,0.02952419221,-0.3566492498,1
13.45066171,-0.6680607605,10.60634399,0.05179229736,0.5690506697,-0.2944162786,-0.3132173121,1
13.47070371,-0.7384144592,10.69436096,1.032552795,0.6634864211,-0.290566504,-0.2731567919,1
13.49074571,-0.8836125183,10.29723679,0.6550378418,0.7755372524,-0.06655947864,-0.2743875384,1
13.51078771,-1.058299255,9.698182526,-0.7822732544,0.8640031219,0.03054486588,-0.3040167987,1
13.53082971,-1.313368835,8.834029541,-0.214354248,0.8729907274,-0.01962456107,-0.3751125634,1
13.55087171,-1.722767487,8.494535522,0.5435197449,0.8809154034,-0.1591490358,-0.4814198613,1
13.57091371,-1.941911774,8.945098572,0.6807843018,0.9440324903,-0.2585986257,-0.5737068057,1
13.59095571,-1.635349274,9.232351227,0.1862127686,1.024088264,-0.2845971882,-0.5919032097,1
13.61099771,-1.296304321,9.27875473,0.1354682922,1.073879719,-0.4020344019,-0.5427753925,1
13.63103971,-0.8493338013,9.282946014,1.255289612,1.070466995,-0.5266016722,-0.518409729,1
13.65108171,-0.7246430969,9.81583786,1.509910126,0.9162380695,-0.5867795944,-0.5632500648,1
13.67112371,-0.7173083496,10.67624863,1.247655487,0.7560523748,-0.665157795,-0.6394480467,1
13.69116571,-0.4290078735,10.45141617,0.6679110718,0.4923108816,-0.7321557999,-0.6694490314,1
13.71120771,0.2308200073,10.11581406,0.05418731689,0.4173262119,-0.5147472024,-0.7022581697,1
13.73124971,0.9011260986,10.15248779,-0.149539032,0.4252588749,-0.3004307747,-0.675062716,1
13.75129171,1.369801483,10.8835675,-0.2411485291,0.3719659448,-0.1140083,-0.4990091026,1
13.77133371,1.347048798,12.07089844,-0.6285429382,0.166945383,0.1539848149,-0.1971636713,1
13.79137571,1.054706726,13.63574432,-1.110241241,-0.3254138827,0.1293614209,0.107151337,1
13.81141771,0.06960525513,13.79231873,-1.340761871,-1.029981017,0.1812014431,0.4252313673,1
13.83145971,-1.600172424,12.57654694,-0.1701960754,-1.54133904,0.2971372306,0.6827149987,1
13.85150171,-2.500250702,10.80737595,-0.2442919922,-1.836611867,0.6131721139,0.7101642489,1
13.87154371,-3.315754852,8.803043976,-0.8604107666,-2.135859966,0.2629152238,0.5904455781,1
13.89158571,-4.95529541,7.625592499,0.2802172852,-2.199869633,-0.8992401958,0.5277386308,1
13.91162771,-5.761369171,8.920848999,1.529070282,-1.840682507,-1.266033173,0.4662911296,1
13.93166971,-4.17721344,10.94029953,-0.2517764282,-1.617392063,-0.9284467697,0.4200596213,1
13.95171171,-2.326611786,11.3163176,-1.651365967,-1.812063217,-1.062544942,0.4611926675,1
13.97175371,-2.327809296,10.98355957,0.1137634277,-1.698540568,-1.1437639,0.6802489758,1
13.99179571,-2.330952759,10.63912582,1.809437256,-1.262323499,-1.141774535,0.8767657876,1
14.01183771,-1.995799713,10.07524841,1.431772614,-1.04252255,-1.064726114,0.9400558472,1
14.03187971,-1.565744019,9.318721619,1.282532959,-1.093010306,-0.416105777,0.9950807691,1
14.05192171,-1.160087585,8.863218842,1.170715485,-1.168803811,0.433029443,1.049060702,1
14.07196371,-0.3535647583,8.893905029,1.384920044,-1.059307456,0.6569116116,1.039949298,1
14.09200558,0.1552272034,8.719218292,1.600471802,-0.9104251266,0.9172166586,0.9376177788,1
14.11204758,-0.2613565063,8.674760742,1.575024719,-0.7404646277,1.033547163,0.7815927267,1
14.13208958,-0.9830058289,8.27838501,1.803898773,-0.6306670308,1.178499699,0.6050428152,1
14.15213158,-1.733245697,7.717800751,2.306403809,-0.507304728,1.424790263,0.4722126126,1
14.17217358,-1.678309937,7.327711945,2.644101562,-0.2899717987,1.333354712,0.3031397164,1
14.19221558,-1.612746277,6.870412903,2.930007019,-0.04026073217,1.156371474,0.1614278555,1
14.21225758,-1.411564636,6.583160248,3.117417297,0.1840840131,1.049200773,0.03262138739,1
14.23229958,-0.9434880066,6.592590637,3.285817108,0.3453025818,0.9588112831,-0.1254626513,1
14.25234158,-0.4604425049,6.625372467,3.989204407,0.5362161398,0.860794127,-0.287830472,1
14.27238358,-0.08681945801,6.628066864,4.203259277,0.6647745371,0.7306983471,-0.4438673854,1
14.29242558,-0.45984375,7.112309875,4.37959259,0.6618872285,0.8958266973,-0.4413275123,1
14.31246658,0.1047821045,8.393495636,5.486840057,0.6863218546,1.186360478,-0.37611866,1
14.33250858,1.059047699,9.804611206,5.586233368,0.685936451,1.113160849,-0.2405851185,1
14.35255058,1.335223389,10.62176193,4.852758636,0.439727366,0.8481369615,-0.01399176382,1
14.37259258,0.8005352783,11.10540619,4.574337616,0.2179003805,0.5934098959,0.2183421552,1
14.39263458,0.5640270996,11.03729782,4.525688782,0.1437054425,0.244425416,0.4162039161,1
14.41267658,0.4793032837,10.009086,4.849764862,0.220553562,0.1228039563,0.4929277599,1
14.43271858,-0.299078064,10.42956161,4.568200378,0.6017730236,-0.1837597191,0.3133346736,1
14.45276058,-3.698359222,11.62841858,3.064277802,1.217998266,-0.3691054285,0.1518696696,1
14.47280258,-6.487658844,13.98975815,1.235381012,1.19710207,-0.2291207165,0.189989686,1
14.49284458,-6.674620056,14.36981781,0.4040098572,0.2757175267,-0.7688410878,0.431329608,1
14.51288658,-1.253044281,8.476872253,0.4537065125,0.7573196888,-1.442902446,0.3739947081,1
14.53292858,-1.692979431,4.01225647,-1.997895355,1.279828906,-1.618247509,0.2308978289,1
14.55297058,-1.130000153,3.113525391,-0.5933660889,0.9313572645,-1.468306303,-0.5697193146,1
14.57301258,-2.330354004,6.744075623,-0.572409668,0.432348758,-0.1720597446,-0.9957463741,1
14.59305458,-0.7339237976,10.98730179,-0.8696914673,0.726721704,1.044252038,-0.9296719432,1
14.61309658,1.053958282,12.9579538,-2.709066467,0.8630083799,0.7160529494,-0.5410639048,1
14.63313858,2.868934021,12.79554153,-2.398911438,0.7937666178,-0.1211033463,-0.1631306112,1
14.65318058,0.4140390015,9.754764862,0.1907034302,0.8998724818,-0.9924781919,0.08905225247,1
14.67322258,-2.201022949,8.44334198,2.312391357,1.052089691,-0.6298888922,0.09310473502,1
14.69326458,-2.602488098,8.922196198,-0.03697311401,0.7606157064,-0.1503471434,-0.155302003,1
14.71330658,-2.396965485,9.606273651,-1.298998718,0.5180514455,-0.1263669133,-0.3588002622,1
14.73334858,-1.622026978,9.681118011,0.08547225952,0.5242487788,0.08560169488,-0.4756785929,1
14.75339058,-0.4411326599,9.42619812,-0.17902771,0.5182115436,0.4805320799,-0.5024204254,1
14.77343258,-0.08128097534,9.280251617,-0.6090834045,0.5913451314,0.5106487274,-0.3449816108,1
14.79347458,0.03772155762,9.672585754,-1.595083008,0.725333631,-0.108180292,-0.1540843099,1
14.81351658,-0.4924758911,9.706116028,-1.416055298,0.9251680374,-0.5594103932,-0.00825251732,1
14.83355858,-0.6316864014,9.254804535,-0.8782237244,0.8524090052,-0.4764837027,-0.05884613469,1
14.85360058,-1.269360352,9.0190448,-0.07604187012,0.7193254828,-0.4017742276,-0.1179089174,1
14.87364258,-1.533860321,8.97578476,-0.3143463135,0.6301355958,-0.4267537594,-0.2460853159,1
14.89368458,-1.779798889,9.074878693,-0.7696994019,0.5498144627,-0.4236422181,-0.3470290601,1
14.91372658,-1.570384369,9.678124237,-0.7623646545,0.5185931921,-0.4255906343,-0.464318037,1
14.93376858,-1.290316772,9.988129578,-0.5996530151,0.5273063779,-0.3860713243,-0.5443837047,1
14.95381058,-0.7066804504,10.01522324,0.5264552307,0.7089604139,-0.3264808059,-0.5538560152,1
14.97385258,0.06541397095,10.11880783,0.7623646545,0.8041847348,-0.3865375221,-0.5334568024,1
14.99389458,-0.09101074219,10.54018158,0.4110452271,0.6781867146,-0.5033234358,-0.5212001204,1
15.01393658,-0.002844085693,10.76426559,-0.2731819153,0.3814879656,-0.530127883,-0.5401238203,1
15.03397858,0.8445437622,10.6473587,-1.049317932,0.1565252841,-0.4614831805,-0.5322394371,1
15.05402058,1.639989624,10.55619827,-0.08846603394,0.2159578502,-0.2837271392,-0.373219043,1
15.07406571,1.826801147,10.92563004,-0.2842588806,0.1444187462,0.01518813521,-0.1652512103,1
15.09410771,1.261127472,11.78259796,-0.1942959595,0.03133954853,0.1723415405,0.09601763636,1
15.11414971,0.4626878357,12.51532425,-0.3384461975,-0.3402995467,0.08106868714,0.3727259338,1
15.13419171,-0.2522254944,13.23697357,-1.564696198,-0.9364048839,0.3932605088,0.5443487763,1
15.15423371,-1.491648102,13.11662384,-2.227368164,-1.289443374,0.6278199553,0.733404398,1
15.17427471,-2.424059143,11.06349335,-1.189127197,-1.723651886,0.1477048546,0.8706017137,1
15.19431671,-2.598596191,9.006620636,-1.670226746,-2.314496756,-0.7453630567,0.6641638875,1
15.21435871,-4.38318512,7.195087738,0.4444258118,-2.488659859,-1.295772433,0.4520637691,1
15.23440071,-6.201753387,8.005203094,2.112257538,-2.03433609,-1.662796974,0.4391579628,1
15.25444271,-6.946305084,10.62131287,0.9587562561,-1.756246209,-1.767472506,0.6074390411,1
15.27448471,-2.785707092,12.01955521,-0.7453001404,-2.07986021,-1.001246333,0.4697512686,1
15.29452671,-1.782343597,10.89674011,-0.04879852295,-2.205495596,-0.09425020963,0.551741004,1
15.31456871,-1.574126587,10.14081207,1.300196228,-1.821864724,-0.216488421,0.6277572513,1
15.33461071,-2.0570224,10.7163652,1.021326141,-1.507210135,-0.6476121545,0.7929252982,1
15.35465271,-1.944306793,11.00002533,0.8949888611,-1.439942837,-0.5431490541,0.9480831027,1
15.37469471,-1.733844452,10.08153534,1.839674377,-1.331944346,-0.2243569344,1.001371145,1
15.39473671,-1.211430817,9.028175812,2.324067078,-1.211119294,0.5803990364,0.9496243,1
15.41477871,-1.188378754,8.72535553,1.853296051,-1.175847173,1.157269716,0.9288405776,1
15.43482071,-1.114282837,8.310717773,1.25319397,-1.158059955,1.306250095,0.8902525902,1
15.45486271,-0.7393125916,7.824079742,2.178569641,-0.8436789513,1.284343839,0.6924725771,1
15.47490471,-1.122815094,7.186405792,2.602188721,-0.5298410058,1.181295156,0.4420423508,1
15.49494671,-2.227068787,6.889273682,2.719095612,-0.2433495522,0.9689154625,0.3343870342,1
15.51498871,-2.472258911,6.837780762,3.53953949,0.09704058617,0.7901352644,0.2592229545,1
15.53503071,-1.953138428,6.703060913,4.202211456,0.3860778511,0.7946419716,0.1701137275,1
15.55507271,-0.9334588623,6.647526398,4.324207764,0.6264885068,0.8459990621,0.06360471249,1
15.57511471,0.0462538147,6.824757843,3.435505829,0.7157225013,0.7199257612,-0.1059745476,1
15.59515671,0.06376739502,6.745123444,3.072959747,0.711520493,0.7312861085,-0.2917271554,1
15.61519871,-0.5481600952,6.804849243,4.125271454,0.8890188932,1.011638284,-0.4108906388,1
15.63524071,-0.2513273621,7.682025146,4.741090851,1.098497748,1.231387377,-0.498642683,1
15.65528271,0.1757345581,8.458460541,4.697531433,1.164491773,1.249731541,-0.4546779096,1
15.67532471,0.3652404785,9.299112396,4.9540979,0.9864892364,1.143192053,-0.2383818477,1
15.69536671,1.05306015,10.5292543,4.864883423,0.6692191362,0.6756581664,-0.03426912427,1
15.71540871,0.6515950012,11.52109177,5.104385376,0.3774282932,0.1993649155,0.2056004107,1
15.73545071,-0.1203497314,10.300979,6.071075134,0.3073093891,0.09841325134,0.5311334729,1
15.75549271,1.211730194,8.829987946,5.460195465,0.5065552592,0.2371230721,0.5784534216,1
15.77553371,0.8922944641,9.329499207,2.975063324,0.9442667365,-0.226886332,0.2700353563,1
15.79557571,-3.185675354,11.65760788,0.01137634277,1.222868204,-0.5397292376,-0.09627649188,1
15.81561771,-8.703800354,14.91214005,-1.148262177,1.058449268,-0.3562087119,0.06935308874,1
15.83565971,-8.723110199,16.49255356,0.7261399841,0.08487392962,-0.8092663288,0.3761754632,1
15.85570171,-0.762664032,8.142018585,1.562600555,1.243340969,-1.2546345,0.2045388073,1
15.87574371,-1.635049896,3.246448975,-2.52509903,1.341097474,-1.587552309,0.04317871481,1
15.89578571,-1.142274628,3.429368591,-2.398312683,0.8049813509,-1.458464742,-0.6387779117,1
15.91582771,-1.466650085,8.703650665,-0.9900411987,1.128699899,-0.3505950868,-0.9104785919,1
15.93586971,-1.242117004,11.56719589,-3.322490845,0.9977219105,0.2346933484,-0.7328686714,1
15.95591171,1.074765015,11.78140045,-2.689457245,0.7726988196,-0.01743819192,-0.4890728891,1
15.97595371,2.394720154,10.96918945,-0.1281335449,0.8379392624,-0.3024598956,-0.1812589765,1
15.99599571,-0.6138734436,9.830058289,0.5325924683,0.8722163439,-0.5345926285,0.08156535774,1
16.01603771,-2.168540497,9.226812744,-0.03861968994,0.7183796167,-0.4763652086,0.04846543446,1
16.03607971,-2.244732056,8.853040009,0.1595681763,0.5587342978,-0.2477381527,-0.1376968771,1
16.05612171,-1.18763031,8.92189682,-0.4043092346,0.4875939488,-0.01202561613,-0.3165291846,1
16.07616121,-0.2417472839,9.013656006,-0.7397616577,0.4727952182,-0.07134641707,-0.3776939809,1
16.09620321,0.0419128418,9.570048981,-0.5547463989,0.6263666749,-0.08983461559,-0.2991412282,1
16.11624521,0.103434906,10.2027832,-0.6060896301,0.7845438719,-0.2784509659,-0.2377790064,1
16.13628721,-0.2953358459,9.824819183,-1.417851562,0.7354618311,-0.4431621432,-0.1893565506,1
16.15632921,-0.7168592834,9.157207489,-0.9301657104,0.650501132,-0.4022690058,-0.2440422326,1
16.17637121,-0.9931846619,9.121731262,-0.6243516541,0.5072070956,-0.2708167136,-0.3469651937,1
16.19641321,-1.101409607,9.383985901,-0.8208929443,0.4134089947,-0.2097547501,-0.4133690596,1
16.21645521,-0.9984237671,9.417516174,-0.9672885132,0.4306755364,-0.1982192099,-0.4619473219,1
16.23649721,-1.118773499,9.243128815,-0.8973838806,0.5258378386,-0.3161131442,-0.4454804957,1
16.25653821,-1.369202728,9.530680847,-0.3887416077,0.6133962274,-0.3463257253,-0.462394774,1
16.27658021,-1.573976898,9.948911133,0.4348457336,0.6668376327,-0.3329673111,-0.4506819546,1
16.29662221,-1.266965332,10.20472916,0.4731660461,0.5745352507,-0.4708699286,-0.404435277,1
16.31666421,-0.5403762817,11.15195938,-0.247585144,0.3752886951,-0.6852633953,-0.361882776,1
16.33670621,0.1019380188,11.45477966,-0.5831872559,0.2549115717,-0.7366287708,-0.3044652641,1
16.35674821,0.9783654785,10.92353439,-0.5536985779,0.1138801351,-0.5205243826,-0.2890478373,1
16.37679021,1.77500885,11.18578903,-0.1095721436,0.07282032818,-0.1435744762,-0.2142840624,1
16.39683221,2.3635849,12.11939758,-0.749790802,-0.01143955998,0.3516412675,-0.07000922412,1
16.41687421,1.940414886,13.22978851,-0.2802172852,-0.1707109809,0.3785477281,0.1361463368,1
16.43691621,0.6038442993,13.13189209,-1.00980011,-0.6591844559,0.4795008898,0.4480013549,1
16.45695821,-1.207089844,12.81215698,-1.152902527,-1.072294712,0.6764315367,0.6772438884,1
16.47700021,-2.086361389,10.87159241,-0.8663983154,-1.706842661,0.5878578424,0.7182229757,1
16.49704221,-2.609224091,8.558901672,-1.893562317,-2.349275827,-0.03025395423,0.6468528509,1
16.51708421,-3.42832077,6.460714874,-0.9854008484,-2.540963888,-0.7937030792,0.4255319238,1
16.53712621,-5.028493195,6.749763794,0.7083270264,-2.33116889,-1.375761271,0.4002181888,1
16.55716821,-6.928641815,9.894873505,2.21030365,-1.834907413,-1.845770001,0.8226719499,1
16.57721021,-2.615810394,12.17418365,0.9608518982,-1.620892525,-1.447172403,0.7550076246,1
16.59725221,-1.160536652,11.97270264,-0.4321513367,-1.696873307,-0.7411106229,0.7745220661,1
16.61729421,-1.335971832,11.03849533,0.06960525513,-1.580947876,-0.4884929359,0.9440220594,1
16.63733621,-0.8740324402,11.23069565,0.4806504822,-1.466533065,-0.9993177056,1.012838125,1
16.65737821,-0.5620811462,11.18474121,1.501527557,-1.369802833,-0.8412261009,1.0503968,1
16.67742021,-0.9946815491,10.26475433,2.550695801,-1.348637223,0.2134295553,1.010616422,1
16.69746121,-1.470392303,9.417067108,2.345771942,-1.276334286,1.270047069,0.9579625726,1
16.71750321,-1.731299744,8.902287598,1.008303223,-1.295483351,1.79002142,0.9662972689,1
16.73754521,-1.457219696,8.432265015,-0.01631607056,-1.35514605,1.63310945,0.9622756243,1
16.75758721,-1.122964783,8.238717499,0.7598199463,-1.15359807,1.391282082,0.8868787885,1
16.77762921,-1.028361511,7.92496994,2.595752106,-0.753192842,1.388228297,0.6659275293,1
16.79767121,-1.678459625,7.364385681,3.141966248,-0.4032279849,1.300156355,0.4538121819,1
16.81771321,-2.301314392,7.185058594,3.359463959,-0.05051220953,1.005508661,0.2874622643,1
16.83775521,-2.625989227,6.80874115,3.5699263,0.2989211679,0.7723510265,0.1671499014,1
16.85779721,-2.080972595,6.233786774,3.685036926,0.5422942042,0.7681652904,0.03736909851,1
16.87783921,-0.8690927124,6.291716309,3.729494476,0.695813179,0.75045681,-0.1668898016,1
16.89788121,-0.452359314,6.487509155,3.178190918,0.7662838101,0.5584887862,-0.3641754389,1
16.91792321,-0.6277944946,6.429729309,3.070714417,0.8270184994,0.505346179,-0.5135094523,1
16.93796521,-0.2773731995,7.031927032,3.756588135,0.9645411372,0.636898756,-0.6151302457,1
16.95800721,-0.1731898499,7.882757721,3.878285065,0.9655525088,0.7981657982,-0.599383235,1
16.97804921,-0.2344125366,8.916208649,5.350473633,0.868729651,1.192221642,-0.385206759,1
16.99809121,1.239572296,10.98370926,6.484066315,0.8004853725,1.17644906,-0.08211295307,1
17.01813321,2.566712494,12.522659,5.070705414,0.4736393094,0.6459969878,0.2502794266,1
17.03817521,3.203338623,12.23420883,4.493954773,0.1722460985,-0.08200202137,0.5292682052,1
17.05821721,2.368524628,10.38869659,5.55434967,0.2166582346,-0.07874195278,0.7287774086,1
17.07825833,1.55032608,9.379195862,4.711003418,0.6379880309,-0.0167170465,0.5899518132,1
17.09830033,-1.26486969,9.090596008,1.677411804,1.0703336,-0.2105278224,0.3187877834,1
17.11834233,-4.552033997,9.180558929,1.648521881,1.34916544,0.3586267531,0.1153082103,1
17.13838433,-5.765111389,11.92495193,3.186274109,0.5157058835,0.5450955629,-0.1044166312,1
17.15842633,-6.040388947,15.03922577,3.788621521,-0.2855366766,-0.778070569,0.1956274807,1
17.17846833,-0.6586303711,10.29559021,1.289568329,0.7107641101,-1.61707139,0.3030090034,1
17.19851033,-0.9101074219,5.10857666,-2.227667542,1.07103467,-1.136550903,0.01735405624,1
17.21855233,-3.719315643,3.197051697,-3.074456635,0.4786549807,-0.4583931565,-0.5370903611,1
17.23859433,-1.651216278,7.72019577,-0.7429051208,0.6189098954,0.571615696,-0.9374240637,1
17.25863633,0.9232800293,11.05945175,-3.202590179,0.6217648387,0.387477845,-0.5071939826,1
17.27867833,2.347418518,13.27529388,-2.365530853,0.7240260839,-0.1332890987,-0.08986382186,1
17.29872033,2.239343262,12.34827164,0.004640350342,0.8733409643,-0.5544506907,0.09380222857,1
17.31876233,-0.7339237976,9.812694397,0.5637277222,0.9434676766,-0.7466252446,0.081192635,1
17.33880433,-2.371668091,8.403674469,0.2365081787,0.8601232767,-0.5979002714,-0.150924325,1
17.35884633,-2.883004761,8.486751709,0.8105644226,0.8393082023,-0.113539353,-0.3585911095,1
17.37888833,-1.79491745,9.45194458,-0.4418811035,0.758046329,0.03861963004,-0.4618601203,1
17.39893033,-0.9237290955,9.965825958,-0.999022522,0.7313601971,-0.2111868262,-0.4094014764,1
17.41897233,-0.2198927307,9.869127045,-0.2264790344,0.8513724804,-0.2379696071,-0.3220977485,1
17.43901333,-0.2167492676,9.463769989,-0.4623884583,0.9353951216,-0.2228145301,-0.2384148091,1
17.45905533,-0.6023474121,9.563612366,-1.195414124,0.8170718551,-0.5208953023,-0.2187353224,1
17.47909733,-1.027463379,9.615254974,-0.7848179626,0.7455790639,-0.562826097,-0.2401177436,1
17.49913933,-0.9789642334,9.730515289,-0.6471043396,0.7175531983,-0.3320141137,-0.306602031,1
17.51918133,-0.9792636108,9.773925018,-0.9042695618,0.6846011281,-0.1689372957,-0.3411274552,1
17.53922333,-0.7934999084,9.637857971,-1.152154083,0.670052886,-0.2853292227,-0.4029436409,1
17.55926533,-0.8590635681,9.393116913,-0.784069519,0.6681635976,-0.3510964811,-0.4368334115,1
17.57930733,-0.9780661011,9.497749329,-0.6830296326,0.6628073454,-0.3694242835,-0.4378452897,1
17.59934933,-1.003662872,9.512269135,-0.4694238281,0.7069190145,-0.3535128236,-0.4740358591,1
17.61939133,-1.392853546,9.421707458,-0.1288819885,0.7028622627,-0.4862376153,-0.5213816166,1
17.63943333,-1.59837616,9.661059723,0.909508667,0.6432822347,-0.5956801772,-0.563834846,1
17.65947533,-0.983454895,10.25966492,0.7077282715,0.5070502162,-0.6125633717,-0.5892341137,1
17.67951733,-0.4914280701,10.85288132,0.1074765015,0.3604339063,-0.401522845,-0.571006,1
17.69955933,0.1752854919,10.83611618,-0.3761677551,0.341119796,-0.4739391506,-0.5067950487,1
17.71960133,0.9599537659,10.28196854,-0.4490661621,0.1877018958,-0.50913167,-0.3183007538,1
17.73964333,1.963766327,10.30741562,-0.2857557678,0.07819357514,-0.3733549714,-0.1433034986,1
17.75968433,1.682052155,11.08430008,0.04954696655,0.02399923466,-0.3271378577,0.0933547467,1
17.77972633,0.2216889954,12.77248947,-0.5310955811,-0.3291410506,-0.1843777299,0.3484605849,1
17.79976833,-0.7131170654,13.62436798,-1.170715485,-0.9062139988,0.1610798389,0.4585048854,1
17.81981033,-1.047821045,13.0534552,-2.164199524,-1.398126841,0.425503701,0.6131549478,1
17.83985233,-2.088307343,11.45672562,-1.654359741,-1.843191624,-0.01790604927,0.9325366616,1
17.85989433,-2.013612671,9.142088928,-1.529818726,-2.363034487,-0.8210679293,0.8240802884,1
17.87993633,-3.54417984,7.128027191,-0.6894662476,-2.477216482,-1.67084372,0.5553617477,1
17.89997833,-5.506299591,7.901319122,1.420396271,-2.158900499,-2.293862581,0.5919327736,1
17.92002033,-6.4179039,10.81620758,2.410587158,-1.866546273,-2.123829842,0.8093361259,1
17.94006233,-1.814676361,12.76320877,0.2297721863,-2.06092906,-1.178889751,0.5455431938,1
17.96010433,-1.363813934,11.51764893,-0.2195933533,-2.127003193,-0.5000222325,0.729491353,1
17.98014633,-0.2537223816,10.44692551,0.910556488,-1.737189889,-0.2585963607,1.045049667,1
18.00018833,0.7152127075,10.53793625,0.7195536804,-1.457071424,-0.3272438645,1.099677444,1
18.02023033,-0.110919342,10.30831375,0.8059240723,-1.41522491,-0.1193881631,1.10608995,1
18.04027233,-1.244212646,10.02345612,1.61005188,-1.448944449,0.4105788767,1.124042511,1
18.06031433,-1.622775421,9.358688507,2.65727417,-1.308485508,1.18042469,1.14033103,1
18.08035463,-1.141077118,8.65859436,1.728305969,-1.133047342,1.272427201,0.9941070676,1
18.10039662,-1.130898285,7.921676788,0.8710386658,-1.066486001,1.07814002,0.8619775176,1
18.12043863,-1.359323273,7.716004486,2.069446564,-0.8725745678,1.19801414,0.7965977788,1
18.14048062,-1.259929962,7.67813324,3.366199951,-0.5104519129,1.187843561,0.665389061,1
18.16052263,-1.041683807,7.3575,3.404370575,-0.2101682723,1.029789329,0.5062270164,1
18.18056462,-1.084494781,7.035070496,3.554059296,0.1208384261,0.827311337,0.3494737744,1
18.20060663,-0.7200027466,6.653364258,3.539689178,0.4028376043,0.6113518476,0.106885314,1
18.22064862,-0.669407959,6.314468994,3.512445831,0.5487366319,0.685611546,-0.09393702447,1
18.24069063,-0.4567002869,6.38287674,3.392844543,0.6314973831,0.7707839608,-0.2616003454,1
18.26073262,-0.3135978699,6.532116394,3.387156372,0.6998659968,0.8455320001,-0.4113238752,1
18.28077463,-0.4822970581,6.71743103,3.00245636,0.7795158029,0.7356712222,-0.5269593,1
18.30081663,-0.8265811157,6.943161621,3.00829422,0.8775149584,0.6660915613,-0.5989301205,1
18.32085863,-0.9181906128,8.088729401,3.915557556,0.9329432845,0.760533154,-0.5959117413,1
18.34090063,-0.8020321655,9.555379486,4.527485046,0.8319002986,0.8042187691,-0.4488837123,1
18.36094163,-0.4306544495,11.0866951,5.214855652,0.7043850422,0.7696495056,-0.104271993,1
18.38098363,1.247954865,11.83693497,4.281546478,0.4783346951,0.4992248714,0.1775488406,1
18.40102563,2.013313293,11.52573212,4.134252777,0.2480364442,0.3739178777,0.3399513066,1
18.42106763,1.48955246,11.3812825,5.39642807,0.2721723318,0.3466687202,0.4891557992,1
18.44110963,1.425934753,11.42095001,5.426515503,0.4506121576,0.1770096421,0.419554472,1
18.46115163,0.36389328,11.87914719,4.01809433,0.6334697008,-0.0462179631,0.2168320715,1
18.48119363,-2.695295105,11.94111832,3.233875122,0.669664681,0.1923698485,0.1875562072,1
18.50123563,-4.564009094,13.5909874,3.036585388,0.1505797356,0.3678535223,0.2222010344,1
18.52127763,-4.115990753,13.39250015,0.4999603271,-0.2495724559,-0.8609521389,0.5029448271,1
18.54131963,-1.67786087,4.953798523,-2.780917053,0.6422830224,-1.88660109,0.6334995031,1
18.56136163,-3.331621857,0.03562591553,2.312840424,1.055392742,-1.585361242,0.1184537113,1
18.58140363,-3.420087891,1.654060364,4.399052124,0.8374993801,-0.5327345133,-1.086534619,1
18.60144562,-3.528163147,8.828940125,2.238594818,1.833239317,0.4041535854,-1.158594966,1
18.62148763,-0.6174659729,14.16743866,-6.511758728,1.618218303,-0.03188866377,-0.673034966,1
18.64152863,3.713328094,15.56717789,-9.053323517,0.4192487001,-0.9901305437,-0.7016513348,1
18.66157063,3.636687469,12.39766891,-1.632954254,-0.06414107978,-1.603343487,-0.355322808,1
18.68161262,0.01930984497,8.477171631,6.330635376,0.6425359845,-0.9287776351,-0.1879352182,1
18.70165463,-2.803070984,7.853119354,4.145778809,1.11465919,-0.5802131295,-0.1965489686,1
18.72169662,-1.992506561,8.436156921,-1.440155182,0.7704823017,-0.6545836329,-0.3357630968,1
18.74173863,-0.03562591553,10.28481262,-2.164349213,0.4988349974,-0.2435156852,-0.3220432997,1
18.76178062,1.552421722,11.06992996,-1.159638519,0.4143354297,0.105779089,-0.3235887289,1
18.78182263,1.934427338,10.33929932,-0.1390608215,0.4663399458,0.4637959301,-0.3430935442,1
18.80186462,-0.01002914429,9.241781616,0.5143304443,0.6687110662,0.5188781619,-0.2803001702,1
18.82190663,-1.099164276,9.007069702,0.2257305908,0.6423917413,0.5530767441,-0.3255939484,1
18.84194862,-1.649270325,8.835526428,0.4200265503,0.6750580072,0.4920757413,-0.4207080901,1
18.86199063,-1.922901306,9.097781067,-0.04236190796,0.7222281694,0.3321947157,-0.4769001603,1
18.88203262,-1.811532898,9.060358887,-0.4339476013,0.6825518012,0.1596816629,-0.4875836372,1
18.90207363,-1.1174263,8.935368805,-0.3073109436,0.6125645638,0.02579353377,-0.5315125585,1
18.92211562,-0.526305542,9.053622894,0.2534230042,0.69257164,-0.0667860806,-0.5534753799,1
18.94215763,-0.0470022583,9.1477771,-0.3936813354,0.7323197722,-0.06951444596,-0.5383190513,1
18.96219962,-0.2240840149,9.398805084,-0.5351371765,0.6364026666,0.08589587361,-0.4498131871,1
18.98224163,-0.1472937012,9.721533966,0.112565918,0.6194901466,0.0330148451,-0.4079262018,1
19.00228362,-0.4583468628,9.966873779,1.039887543,0.5109856725,-0.1465140134,-0.3377909064,1
19.02232563,-0.6584806824,9.947114868,1.160985718,0.3194134533,-0.5734151602,-0.2673474252,1
19.04236762,-0.2411485291,9.874216461,0.1558259583,0.1657910496,-0.8911222219,-0.2295084298,1
19.06240963,-0.01556762695,9.75970459,-1.037941589,0.01734738238,-0.7603224516,-0.1907760352,1
19.08245133,0.2522254944,10.10353958,-1.55391861,-0.1699859649,-0.5098953843,-0.1544169784,1
19.10249333,0.4676275635,10.5093457,-0.5653742981,-0.1743147224,-0.3576189876,0.0008780453354,1
19.12253533,0.8635542297,12.10427902,0.2981799316,-0.1586749852,-0.06889110804,0.217903778,1
19.14257633,0.4258644104,14.39212143,-0.3626957703,-0.4851142466,0.1576058269,0.6086661816,1
19.16261833,-0.3547622681,15.59726532,-1.296903076,-1.03790772,0.2143170834,1.053824544,1
19.18266033,-0.7129673767,14.08780426,0.1041833496,-1.372372866,0.3180141151,1.241521358,1
19.20270233,-0.7981402588,11.41870468,0.5578898621,-2.152672529,-0.1746914983,1.21794641,1
19.22274433,-1.47548172,8.78388382,-0.2763253784,-3.011423111,-1.056013465,0.7595445514,1
19.24278633,-3.104095001,8.402776337,3.955823822,-2.284167767,-1.320801258,-0.01652481221,1
19.26282833,-9.252559204,9.490863647,4.218527527,-1.064380407,-1.946410298,0.4666100144,1
19.28287033,-6.653963013,9.926308136,-0.3688330078,-1.413289547,-1.683384418,0.5043478608,1
19.30291233,-3.277584229,10.93311447,-1.034798126,-1.899359584,0.0410464555,0.5921049118,1
19.32295433,-0.7574249268,10.42252625,0.09654922485,-1.605305672,0.6159143448,1.107615113,1
19.34299633,1.51754425,10.59317139,0.2710862732,-1.064425826,-0.4388699532,1.437602162,1
19.36303833,2.085163879,10.82818268,1.349743195,-0.961593926,-0.4530716836,1.258972287,1
19.38308033,0.4647834778,9.799222412,2.824476471,-1.122888088,1.073863387,1.082455158,1
19.40312133,-1.315614166,9.202563171,2.304457855,-1.068599463,1.832307816,1.135358095,1
19.42316333,-1.194216614,9.040599976,0.853225708,-0.9883056879,1.73809433,1.112423897,1
19.44320533,-0.7788304138,8.775950317,-0.3697311401,-1.130409837,1.155789256,0.8908123374,5
19.46324733,-1.362167358,8.015381927,1.584455109,-1.079976201,1.045535326,0.7635926604,5
19.48328933,-1.845512238,7.5260495,4.885540466,-0.5264031887,1.222603798,0.6643251181,5
19.50333133,-0.933608551,6.749763794,4.429289246,-0.04738879576,1.027372599,0.4745135009,5
19.52337333,-0.4788542175,6.379433899,3.884122925,0.2974456251,0.7690243721,0.3054615557,5
19.54341533,-0.4896318054,6.748416595,3.814817047,0.5891643167,0.6750757098,0.1394814551,5
19.56345733,-0.3264710999,6.854994965,3.303480377,0.6669136286,0.6818341613,-0.03534919024,5
19.58349933,-0.09460327148,7.092850342,3.292253723,0.6805201173,0.7457991838,-0.1953483671,5
19.60354133,0.129181366,7.314090271,3.401227112,0.6917909384,0.5332860351,-0.3495352268,5
19.62358333,0.1085243225,6.909182281,4.054319,0.7201915383,0.5632323623,-0.5298243761,5
19.64362433,-0.1203497314,6.547234955,4.72836731,0.8866525292,0.9534702301,-0.7148496509,5
19.66366633,0.2814147949,7.024741974,4.642296295,1.04769659,1.242769837,-0.8413300514,5
19.68370833,0.1920506287,8.243357849,4.059707794,0.9319759607,1.19003129,-0.7383096218,5
19.70375033,-0.2001338196,10.19949005,4.316873016,0.6703109145,0.6275187731,-0.4224898815,5
19.72379233,-0.1363664246,12.28255829,4.674179993,0.2933974564,0.03724513203,0.1427280307,5
19.74383433,1.626218262,11.97539703,5.019511871,0.1737217456,-0.1600746959,0.5465609431,5
19.76387633,3.244203644,9.528435516,3.493585052,0.2812973857,-0.2496993095,0.5321608782,5
19.78391833,1.472937012,9.528734894,1.558109894,0.403480351,-0.4637232125,0.2626880407,5
19.80396033,-2.308948517,12.62310013,2.244881744,0.5738275647,0.07520869374,-0.06937275827,5
19.82400233,-4.719236298,16.59314438,2.228865051,0.2208552808,0.2585767806,0.09356790036,5
19.84404433,-4.381089478,15.46194672,-0.8836125183,0.3494138122,-0.7439598441,0.742485404,5
19.86408533,-0.6945556641,8.164771271,-0.8487350464,0.3455863595,-0.8160759211,0.5090923309,5
19.88412733,-2.101629639,3.14166687,-0.9042695618,-0.4848715365,-0.6749204993,-0.2021511346,5
19.90416933,-4.33513504,4.017196198,3.938160553,0.6024306417,0.3913023174,-0.8705089688,5
19.92421133,-3.666924591,8.268655243,-1.20514389,1.400206923,1.108253717,-1.027787209,5
19.94425333,-1.522633667,11.77376633,-6.634802856,0.6145325303,1.343214393,-0.7957265973,5
19.96429533,-0.08113128662,13.83123779,-3.822002106,0.2133608758,0.02024731785,-0.1361524612,5
19.98433733,1.848655701,12.79479309,1.720821533,0.6939881444,-0.6454526186,0.105009988,5
20.00437933,-0.4749623108,10.05938141,0.8791218567,0.6659290791,-0.7823622227,0.2868726254,5
20.02442133,-1.240171051,8.525670776,0.5864804077,0.3680853546,-0.8263264298,0.1282831877,5
20.04446333,-1.758094025,8.070916443,1.24735611,0.3499594331,-0.6109169722,-0.0955331102,5
20.06450533,-1.427132263,9.140442352,0.3170407104,0.5292545557,-0.4473858774,-0.3137170076,5
20.08454708,-1.17011673,9.907896423,-1.369502106,0.4421814978,-0.1489113122,-0.346241802,5
20.10458808,-0.895587616,9.839937744,-1.146465912,0.3189871907,0.09355800599,-0.3305977583,5
20.12463008,-0.5355862427,9.237740021,-0.02499801636,0.2654348016,0.2182982564,-0.3008718491,5
20.14467208,-0.8566685486,9.848769379,0.6147715759,0.2298551053,0.0107665211,-0.2258998603,5
20.16471408,-1.231788483,10.52236862,0.8904981995,0.2164948434,-0.1812777668,-0.1225933656,5
20.18475608,-1.506317596,9.936486969,-0.1026864624,0.08637519181,-0.3207134306,-0.04845298082,5
20.20479808,-1.44973526,9.281598816,0.6012995911,0.02764760889,-0.424357444,-0.09118337184,5
20.22484008,-1.095122681,9.239685974,1.305734711,0.04451634362,-0.4513107538,-0.1716753095,5
20.24488208,-0.3950285339,9.701475677,0.7349716187,0.06437712908,-0.3381980658,-0.2106634229,5
20.26492408,0.2885998535,10.13901581,0.08562194824,0.06215590984,-0.09152528644,-0.2463346273,5
20.28496608,0.3664379883,10.34663406,0.5288502502,0.1052997187,0.03388796747,-0.2481097281,5
20.30500708,0.6764433289,10.30277527,0.4370910645,0.1591903865,0.3099624217,-0.2785899341,5
20.32504908,0.4200265503,10.42671753,-0.703686676,0.1123147011,0.653136313,-0.2325052023,5
20.34509108,-0.4614903259,10.32956955,-0.8488847351,0.08848426491,0.7295572758,-0.1780622452,5
20.36513308,-1.599274292,9.814041595,-0.3450325012,0.03789579868,0.69809407,-0.1611180156,5
20.38517508,-2.639161835,9.482481079,0.5676196289,0.07670250535,0.6588543057,-0.1708912402,5
20.40521708,-2.980452118,9.110803986,0.4083508301,0.1293841451,0.541977644,-0.2154404074,5
20.42525908,-3.294199677,8.9500383,-0.2418969727,0.1059854999,0.2978109419,-0.2643755972,5
20.44530108,-2.954555969,8.985514526,0.310304718,0.09594316781,0.10333848,-0.3047688007,5
20.46534308,-2.424957275,9.58067688,0.8506809998,0.1632201374,0.02330415696,-0.2631581426,5
20.48538508,-1.880240021,9.946965179,0.5782475281,0.2226013988,-0.09629490972,-0.1486006528,5
20.50542708,-1.580563202,9.774224396,0.1877096558,0.2148575336,-0.2346448451,-0.084132649,5
20.52546808,-1.438957672,9.448801117,0.1122665405,0.1494586021,-0.2056201696,-0.1107941195,5
20.54551008,-1.407972107,9.564809875,0.5536985779,0.1099091321,-0.06176640093,-0.1842778027,5
20.56555208,-1.316661987,9.726773071,0.8470884705,0.1087231562,0.1121058464,-0.2124741971,5
20.58559408,-1.100212097,9.657766571,0.4290078735,0.1038120165,0.2136085182,-0.1819106638,5
20.60563608,-0.978664856,9.645192719,-0.08831634521,0.07475626469,0.1811420619,-0.1420321614,5
20.62567808,-1.423390045,9.682165833,0.2073188782,0.08371439576,0.08914975822,-0.08178753406,5
20.64572008,-1.755549316,9.723030853,0.5963598633,0.110687837,0.06464825571,-0.05868392438,5
20.66576208,-2.078427887,9.649384003,0.3890409851,0.1022817045,0.02611430734,-0.05811036751,5
20.68580408,-2.185605011,9.526639252,0.3014730835,0.06396958977,0.004092516843,-0.0829853639,5
20.70584608,-2.117646332,9.427096252,0.2136058044,0.02850880846,0.02327259444,-0.09693370014,5
20.72588808,-2.002236328,9.510323181,0.4161346436,0.06849830598,-0.003879935015,-0.08319113404,5
20.74592908,-1.818418579,9.62513443,0.1863624573,0.09345012903,-0.0529288277,-0.06633163989,5
20.76597108,-1.785786438,9.62633194,0.1440005493,0.1109211892,-0.04325429723,-0.06293400377,5
20.78601308,-1.812880096,9.543105011,0.1860630798,0.1136473343,-0.03439888731,-0.06149543077,5
20.80605508,-1.905836792,9.578581238,0.09610015869,0.09490513057,-0.04127655923,-0.0706731528,5
20.82609708,-1.881736908,9.619595947,0.2698887634,0.07326729596,-0.04437496141,-0.08274833858,5
20.84613908,-1.741328888,9.685159607,0.1306782532,0.05845953152,-0.03078879789,-0.06945073605,5
20.86618108,-1.707948303,9.652377777,0.02948867798,0.07359152287,-0.02014777809,-0.05377918482,5
20.88622308,-1.677411804,9.554331665,0.08666976929,0.108333461,-0.01567439735,-0.05183617026,5
20.90626508,-1.70360733,9.610764313,0.07634124756,0.1419351697,-0.01386830676,-0.0525553152,5
20.92630708,-1.719773712,9.571695557,-0.03817062378,0.1631266177,-0.02444866672,-0.04901437089,5
20.94634808,-1.894011383,9.564510498,-0.07484436035,0.1696932316,-0.05357865244,-0.0447707139,5
20.96639008,-2.054777069,9.450148315,-0.1311273193,0.1499660611,-0.1137811989,-0.05673377961,5
20.98643208,-2.123484192,9.376052399,-0.1715432739,0.1474592984,-0.1329466999,-0.05950781703,5
21.00647408,-2.069745941,9.343719635,-0.2186952209,0.1517445445,-0.09220829606,-0.1007519364,5
21.02651608,-2.105970612,9.36183197,-0.3751199341,0.1314982474,-0.01045653876,-0.1600666195,5
21.04655808,-2.021845551,9.491612091,-0.5370831299,0.1003502458,0.07716112584,-0.2222904265,5
21.06660008,-1.936822357,9.534273376,-0.4519102478,0.08821973205,0.1412672102,-0.2574252486,5
21.0866425,-1.768721924,9.515262909,-0.3263214111,0.1102880165,0.2022517473,-0.2779586315,5
21.1066845,-1.819167023,9.429940338,-0.2092648315,0.1539950222,0.2411187142,-0.2455698997,5
21.1267265,-1.799408112,9.642348633,-0.21061203,0.1961536705,0.2266271263,-0.2180156708,5
21.1467675,-1.933379517,9.762997742,-0.2267784119,0.2190297991,0.2486603856,-0.1827843487,5
21.1668095,-2.188299408,9.659712524,-0.2429447937,0.2220136821,0.1706267595,-0.1169303656,5
21.1868515,-2.464924164,9.579778748,-0.2945874023,0.1808245629,0.1006611362,-0.06095542759,5
21.2068935,-2.483934631,9.600735168,-0.2016307068,0.15095523,0.03485774249,-0.02870637737,5
21.2269355,-2.496209106,9.713600464,-0.1975891113,0.09722835571,-0.002297892235,-0.02299658954,5
21.2469775,-2.586172028,9.743388519,-0.03951782227,0.05032275617,-0.03753375262,-0.02140322328,5
21.2670195,-2.452200623,9.72572525,-0.1556762695,0.005813012831,-0.0836654976,-0.0147364419,5
21.2870615,-2.231858826,9.570947113,-0.2489323425,-0.01205347385,-0.1211544126,-0.002938287333,5
21.3071035,-2.084415436,9.561516724,-0.2646496582,0.004710130394,-0.08816085011,0.001083503244,5
21.3271455,-2.071542206,9.500892792,-0.4102967834,0.01585905626,-0.05798763409,-0.003525037318,5
21.3471865,-2.077679443,9.371561737,-0.4104464722,0.03350581974,-0.01637320407,-0.008085737005,5
21.3672285,-2.129471741,9.341324615,-0.4540058899,0.04806400463,0.009159569629,-0.01711949706,5
21.3872705,-2.240989838,9.386231232,-0.5200186157,0.05559688061,0.01201648638,-0.02734073997,5
21.4073125,-2.372117157,9.399553528,-0.4969665527,0.07141678035,0.0159804076,-0.033514902,5
21.4273545,-2.469115448,9.459279327,-0.4704716492,0.0761384517,0.01454241853,-0.04350266233,5
21.4473965,-2.523751831,9.490863647,-0.55579422,0.07577997446,-0.008792988956,-0.04601506516,5
21.4674385,-2.460583191,9.504784698,-0.5662724304,0.07371243834,-0.01747263782,-0.03991517797,5
21.4874805,-2.393073578,9.491013336,-0.5647755432,0.07501650602,-0.02784849331,-0.02766181529,5
21.5075225,-2.273023224,9.468410339,-0.5737568665,0.07057084143,-0.02602977306,-0.01547182817,5
21.5275645,-2.233056335,9.509874115,-0.5363346863,0.07538283616,0.01243007183,-0.008486240171,5
21.5476055,-2.261946259,9.49056427,-0.5773493958,0.08110010624,0.03203653917,-0.001181697007,5
21.5676475,-2.233056335,9.521998901,-0.6018983459,0.07963489741,0.02055372484,0.007246993482,5
21.5876895,-2.308948517,9.434131622,-0.6128256226,0.07830258459,0.01526807528,0.01772307791,5
21.6077315,-2.344275055,9.398056641,-0.6280938721,0.06844609231,0.01230198145,0.0184263587,5
21.6277735,-2.434687042,9.427096252,-0.6391708374,0.06808304042,-0.002023368608,0.02542668954,5
21.6478155,-2.422412567,9.50927536,-0.7295828247,0.06436780095,-0.01094802283,0.03653639555,5
21.6678575,-2.371069336,9.661808167,-0.7680528259,0.04249173403,0.02097961679,0.03788205981,5
21.6878995,-2.394720154,9.673034821,-0.692460022,0.04132319614,0.04383214563,0.04810480028,5
21.7079415,-2.397414551,9.552385712,-0.6268963623,0.02992893755,0.02765895799,0.06756890565,5
21.7279835,-2.479743347,9.584419098,-0.7012916565,0.004511734471,-0.03911848739,0.08454120159,5
21.7480245,-2.585573273,9.575587463,-0.5477110291,-0.002831611549,-0.06899999827,0.08682548255,5
21.7680665,-2.596799927,9.567504272,-0.5231620789,-0.006544112694,-0.08490248024,0.08604029566,5
21.7881085,-2.469414825,9.570647736,-0.6300398254,-0.01482864842,-0.1280947328,0.09069526196,5
21.8081505,-2.317480774,9.555080109,-0.7176077271,-0.009528470226,-0.1212881729,0.09536090493,5
21.8281925,-2.185605011,9.538464661,-0.7110214233,0.006455427967,-0.1297606081,0.1034195498,5
21.8482345,-2.186802521,9.405391388,-0.8015830994,0.01788358763,-0.1510890871,0.09397396445,5
21.8682765,-2.143243103,9.368418274,-0.7421566772,0.03029344976,-0.1600874364,0.06326283514,5
21.8883185,-2.110760651,9.355245667,-0.7514373779,0.04493417218,-0.1596237719,0.04429262877,5
21.9083605,-2.001038818,9.427245941,-0.7463479614,0.06095495448,-0.1481956095,0.01905237697,5
21.9284015,-1.775607605,9.453291779,-0.688717804,0.0736066848,-0.07489835471,0.004907362163,5
21.9484435,-1.753753052,9.463919678,-0.7671546936,0.06130189821,-0.0202695448,0.004747564904,5
21.9684855,-1.762584686,9.554481354,-0.6623725891,0.05710162222,-0.005306100938,0.004920189735,5
21.9885275,-1.807491302,9.613159332,-0.5929170227,0.0558183901,-0.03615177795,0.01879089139,5
22.0085695,-1.885628815,9.686357117,-0.6239025879,0.05896284431,-0.05547120795,0.02955544181,5
22.0286115,-1.976789246,9.692793732,-0.68332901,0.05181406066,-0.03182494268,0.03511101007,5
22.0486535,-1.973346405,9.670041046,-0.7327262878,0.03125378117,-0.002559320536,0.03393252194,5
22.0686955,-1.932032318,9.588011627,-0.6815327454,0.01939979941,-0.03057765588,0.04000474885,5
22.08873758,-1.979932709,9.546847229,-0.7150630188,0.008671845309,-0.08375810832,0.05502571166,5
22.10877858,-2.023941193,9.462273102,-0.7580236816,0.01265193615,-0.1087305695,0.05426392332,5
22.12882058,-2.033521271,9.415121155,-0.757275238,0.01240552962,-0.07922134548,0.03593960404,5
22.14886258,-1.989512787,9.455986176,-0.7680528259,0.01724142954,-0.02791620977,0.02863848582,5
22.16890458,-1.857187958,9.560618591,-0.8836125183,0.0185983181,-0.02221466228,0.0225985311,5
22.18894658,-1.933978271,9.468110962,-0.7848179626,0.0222615581,-0.01159856282,0.02563618869,5
22.20898858,-1.955982513,9.488917694,-0.8143066406,0.02287201211,-0.01862377115,0.01561464556,5
22.22903058,-2.020198975,9.518556061,-0.8460406494,0.01681378298,0.0007766282652,0.004366363864,5
22.24907258,-2.02888092,9.514215088,-0.8794212341,0.01930024847,0.03155064955,0.005722897127,5
22.26911458,-2.046993256,9.534123688,-0.9541159058,0.01414836012,0.01779862121,0.01541162003,5
22.28915558,-2.101779327,9.517957306,-0.8575666809,0.008972846903,-0.00381992897,0.01570724137,5
22.30919758,-2.144889679,9.494456177,-0.7695497131,0.01011600066,-0.02013244852,0.01041523274,5
22.32923958,-2.11555069,9.521100769,-0.835562439,0.005572840571,-0.03269903734,0.003602052573,5
22.34928158,-2.028132477,9.606123962,-0.8855584717,0.007097249851,-0.01114688627,0.004676458426,5
22.36932358,-1.922601929,9.532177734,-0.8568182373,0.006705296226,0.002968070563,0.008727833629,5
22.38936558,-1.903591461,9.495803375,-0.8210426331,0.003862240352,0.012684213,0.0104789231,5
22.40940758,-1.969155121,9.529483337,-0.8416996765,-0.004451615736,0.007252429612,0.006388041656,5
22.42944958,-1.998344421,9.6122612,-0.7704478455,-0.001527807908,0.01800874621,0.003832337679,5
22.44949158,-1.968855743,9.590855713,-0.7903564453,-0.006604323164,0.02670636214,0.007790984586,5
22.46953258,-1.997446289,9.535919952,-0.8152047729,-0.01671088859,0.01807758771,0.01621023938,5
22.48957458,-2.004781036,9.533225555,-0.7833210754,-0.02146009356,0.02339031734,0.01421989687,5
22.50961658,-2.022294617,9.515861664,-0.8026309204,-0.02487113699,0.02086837403,0.01641936973,5
22.52965858,-2.008672943,9.49879715,-0.7987390137,-0.0274792444,0.0116238147,0.01911021769,5
22.54970058,-2.009720764,9.499994659,-0.7909552002,-0.02331898175,0.01411559805,0.01598251984,5
22.56974258,-1.95643158,9.561816101,-0.7704478455,-0.02087312937,0.02717679739,0.008548816666,5
22.58978458,-1.95987442,9.559720459,-0.7580236816,-0.02349242754,0.03663269803,0.009733667597,5
22.60982658,-2.011067963,9.595046997,-0.7686515808,-0.02757696807,0.030331444,0.008882303722,5
22.62986858,-2.015109558,9.651329956,-0.7243437195,-0.03172611073,0.03219612315,0.01863337681,5
22.64990958,-1.996997223,9.591005402,-0.7467970276,-0.03516372293,0.03009330109,0.02830653265,5
22.66995158,-2.002835083,9.559720459,-0.7937992859,-0.04352325201,0.02040831372,0.02906879224,5
22.68999358,-1.971101074,9.5631633,-0.7330256653,-0.04592010006,0.02709658071,0.02623240277,5
22.71003558,-1.939217377,9.5034375,-0.7702981567,-0.04807460308,0.02454314195,0.0228380803,5
22.73007758,-1.914818115,9.4835289,-0.8026309204,-0.04595266283,0.0241301544,0.01610078476,5
22.75011958,-1.907034302,9.501341858,-0.7357200623,-0.0420486629,0.05679082498,0.01179087907,5
22.77016158,-1.88967041,9.502838745,-0.7991880798,-0.03860466182,0.04984449595,0.003469421994,5
22.79020358,-1.925745392,9.4835289,-0.6861730957,-0.02086362615,0.04773434997,-0.002601154381,5
22.81024558,-1.973196716,9.481732635,-0.6303392029,-0.0139994463,0.04612325877,-0.008896578103,5
22.83028658,-1.978884888,9.492210846,-0.6903643799,-0.01814958826,0.04302508011,-0.01929267682,5
22.85032858,-1.964365082,9.503886566,-0.6328839111,-0.01426023431,0.05610298738,-0.01812034473,5
22.87037058,-1.942660217,9.542506256,-0.6237528992,-0.007297797129,0.0553361252,-0.01417161524,5
22.89041258,-1.973795471,9.562714233,-0.6036946106,0.001048463397,0.05007460713,-0.01973998919,5
22.91045458,-2.039957886,9.519753571,-0.5751040649,-0.001019738149,0.04916752875,-0.02306936681,5
22.93049658,-2.025737457,9.533524933,-0.5655239868,0.000732952496,0.0550818108,-0.02091735974,5
22.95053858,-1.925895081,9.615704041,-0.5872288513,-0.001975889783,0.0384776704,-0.0201706551,5
22.97058058,-1.993255005,9.633816376,-0.5742059326,0.002580451546,0.04691889137,-0.01630592346,5
22.99062158,-2.02888092,9.57947937,-0.5924679565,0.002237044973,0.05097287893,-0.009492449462,5
23.01066358,-1.954785004,9.588610382,-0.5746549988,0.005198146217,0.04333686829,-0.004872694146,5
23.03070558,-1.943109283,9.586814117,-0.6477030945,-0.004464601167,0.0256737154,0.007285967935,5
23.05074758,-1.970801697,9.58187439,-0.636177063,-0.01048954669,0.02431291714,0.01288406178,5
23.07078958,-2.016307068,9.562863922,-0.6026467896,-0.006595482118,0.02071339265,0.005047863815,5
23.09083125,-2.020797729,9.516161041,-0.7235952759,-0.003340224037,0.01770128682,0.007672287058,5
23.11087325,-1.995350647,9.513167267,-0.6560856628,0.008187538013,0.02463588864,0.002936512697,5
23.13091525,-1.971699829,9.507628784,-0.6807843018,0.01180649549,0.02230323292,3.795721568e-05,5
23.15095725,-2.002984772,9.508227539,-0.6460565186,0.0168247018,0.01291212067,0.006911280565,5
23.17099825,-2.039658508,9.530980225,-0.6502478027,0.01663729548,-0.003203546628,0.008619686589,5
23.19104025,-2.066452789,9.52678894,-0.612077179,0.01905750297,-0.01306036301,-0.004849524703,5
23.21108225,-2.013013916,9.469607849,-0.6030958557,0.018460894,-0.03082598373,-0.006606997922,5
23.23112425,-1.950444031,9.504784698,-0.6346801758,0.02050152235,-0.02133832499,-0.0120407911,5
23.25116625,-1.898951111,9.647288361,-0.7084767151,0.01419762522,-0.003103196621,-0.006812050473,5
23.27120825,-1.891017609,9.571545868,-0.7981402588,0.01110382844,-0.0333391279,0.004226626828,5
23.29125025,-2.067201233,9.480535126,-0.8562194824,0.01336478442,-0.08737459779,0.01400013082,5
23.31129225,-2.127974854,9.526489563,-0.7673043823,0.0137772439,-0.1051458046,0.01692357659,5
23.33133325,-2.163002014,9.613159332,-0.7911048889,0.004514702596,-0.1047095135,0.008944448084,5
23.35137525,-2.058369598,9.588161316,-0.7426057434,-0.001926162047,-0.06901036203,0.009756065905,5
23.37141725,-1.751807098,9.613309021,-0.6393205261,-0.009361376986,-0.009018469602,0.006635012105,5
23.39145925,-1.601519623,9.66255661,-0.5565426636,-0.01787036657,0.02929875255,0.0199589543,5
23.41150125,-1.331481171,9.688153381,-0.6355783081,-0.0430303663,0.07365934551,0.008544167504,5
23.43154325,-1.409768372,9.713450775,-0.6866221619,-0.05028922111,0.1496101767,0.01288348157,5
23.45158525,-1.337169342,9.619745636,-0.5526507568,-0.03605949506,0.2450672686,0.01490095165,5
23.47162725,-1.330583038,9.59474762,-0.6319857788,-0.05213107169,0.3135626316,0.01773831621,5
23.49166825,-1.501677246,9.663305054,-0.6584806824,-0.05499942228,0.360733211,0.01929778419,5
23.51171025,-1.612297211,9.630523224,-0.6486012268,-0.05956127122,0.3856844902,0.01952630468,5
23.53175225,-1.598974915,9.649234314,-0.6503974915,-0.08114867657,0.3806171119,0.007330117747,5
23.55179425,-1.582209778,9.573940887,-0.6444099426,-0.1068811268,0.3745871186,0.003440852975,5
23.57183625,-1.594933319,9.568402405,-0.6803352356,-0.1058662683,0.3806482553,0.008689645678,5
23.59187825,-1.467847595,9.556427307,-0.7334747314,-0.1022332385,0.4126874804,0.01696721278,5
23.61192025,-1.354084167,9.568252716,-0.6512956238,-0.07400001585,0.4498284459,0.006055496633,5
23.63196225,-1.416504364,9.596693573,-0.5924679565,-0.07184331119,0.5368493199,0.01177596487,5
23.65200325,-1.406026154,9.61106369,-0.4701722717,-0.07171274722,0.6175334454,0.0148619432,5
23.67204525,-1.418450317,9.649833069,-0.5486091614,-0.08129408211,0.6408271194,0.01684545167,5
23.69208725,-1.539548492,9.673633575,-0.6686595154,-0.1003747508,0.6397601366,0.01835373789,5
23.71212925,-1.628164215,9.596244507,-0.5884263611,-0.1054596752,0.6706324816,0.01755781472,5
23.73217125,-1.713337097,9.544003143,-0.6122268677,-0.1067901775,0.691413939,0.02715169452,5
23.75221325,-1.689985657,9.615254974,-0.5990542603,-0.1046020687,0.7195083499,0.02909878083,5
23.77225525,-1.779798889,9.658664703,-0.5495072937,-0.1059919745,0.7520532608,0.02551897429,5
23.79229725,-1.942510529,9.537566528,-0.6179150391,-0.1059870943,0.733797431,0.02269026265,5
23.81233825,-2.083068237,9.462123413,-0.6815327454,-0.1226323247,0.7145951986,0.01023712941,5
23.83238025,-2.067799988,9.55612793,-0.6816824341,-0.1388287991,0.7025552988,-0.01910100505,5
23.85242225,-1.892963562,9.728868713,-0.7307803345,-0.1543615609,0.7101120949,-0.0477649197,5
23.87246425,-1.613045654,9.674831085,-0.7650590515,-0.1651186794,0.7079760432,-0.04747334868,5
23.89250625,-1.335373077,9.665849762,-0.8475375366,-0.1459152848,0.7091634274,-0.01791846752,5
23.91254825,-1.259480896,9.64848587,-0.9568103027,-0.1299951077,0.7654759288,0.003387541976,5
23.93259025,-1.362317047,9.565708008,-0.9506730652,-0.1179227382,0.7943096757,0.02203845792,5
23.95263225,-1.553619232,9.592053223,-0.845741272,-0.1102698594,0.8513724208,0.03347204998,5
23.97267325,-1.854194183,9.641600189,-0.8931925964,-0.106491439,0.8390862346,0.05215862021,5
23.99271525,-2.09100174,9.5923526,-1.026265869,-0.09665612876,0.7568199039,0.07183714211,5
24.01275725,-2.287842407,9.552236023,-1.028211823,-0.05570176616,0.6872136593,0.07850594819,5
24.03279925,-2.475402374,9.477241974,-1.191671906,-0.04769629985,0.6014481187,0.08098041266,5
24.05284125,-2.623893585,9.458830261,-1.32923584,-0.06119619682,0.4876372218,0.06184344366,5
24.07288325,-2.690954132,9.44146637,-1.245410156,-0.06439419836,0.4258543551,0.04347867519,5
24.09292788,-2.629881134,9.49056427,-1.088087311,-0.0458352156,0.3490144908,0.0346419774,5
24.11296988,-2.522105255,9.561217346,-1.168320465,-0.03464281932,0.2462455779,0.02126902342,5
24.13301088,-2.404599609,9.489516449,-1.247655487,-0.01477583777,0.1372223645,0.013360532,5
24.15305288,-2.213896179,9.444310455,-1.306632843,-0.003469730029,0.04800919443,0.008020751178,5
24.17309488,-1.995500336,9.468410339,-1.244212646,0.02813965641,0.001199014718,0.01130207255,5
24.19313688,-1.760189667,9.536818085,-1.101708984,0.05389642715,0.01353796758,0.02043509483,5
24.21317888,-1.614841919,9.56780365,-1.122216339,0.05906322598,-0.002071617637,0.02449987829,5
24.23322088,-1.627266083,9.61929657,-1.018631744,0.0356034413,-0.02952161618,0.01163787488,5
24.25326287,-1.573378143,9.674831085,-0.9509724426,0.02230542339,-0.1005296856,0.02349620871,5
24.27330388,-1.360520782,9.677974548,-0.9391470337,0.04916378856,-0.05076731741,0.03578533232,1
24.29334588,-1.218765564,9.697134705,-1.054557037,0.0342810452,-0.01052488759,0.02959111892,1
24.31338788,-1.268611908,9.728419647,-0.877325592,0.0311445836,0.04739066958,0.03297527879,1
24.33342987,-1.306632843,9.760153656,-0.8554710388,0.04841724783,0.1029996723,0.04729320109,1
24.35347188,-1.339264984,9.714348907,-1.019380188,0.002227389952,0.04325191304,0.05354055017,1
24.37351387,-1.430275726,9.671088867,-0.9357041931,-0.04108535498,-0.01021755766,0.04661085829,1
24.39355588,-1.364712067,9.7011763,-0.7583230591,-0.02115678042,0.01897135191,0.05132218078,1
24.41359787,-1.26367218,9.694290619,-0.9520202637,-0.03520853817,0.02218458429,0.05665906891,1
24.43363888,-1.342558136,9.671687622,-0.9650431824,-0.04042248428,-0.02625484951,0.06960883737,1
24.45368087,-1.560804291,9.719288635,-0.9021739197,-0.03948863968,-0.06684102863,0.08617189527,1
24.47372288,-1.981878662,9.482481079,-0.4444258118,0.01191442367,-0.1031623483,0.08682787418,1
24.49376487,-1.912572784,9.544302521,-0.3715274048,-0.02221978456,-0.1347054243,0.04084737226,1
24.51380688,-1.496438141,9.746382294,-1.30693222,-0.1034308746,-0.1847335696,0.03566317633,1
24.53384887,-1.317111053,9.61106369,-1.069525909,-0.05720333382,-0.1357523054,0.03908595815,1
24.55389088,-1.318458252,9.455836487,-0.9250762939,-0.01548650116,-0.08966391534,0.04114402458,1
24.57393287,-1.313817902,9.469009094,-1.076261902,-0.04847668111,-0.1544935107,0.03605420515,1
24.59397388,-1.365909576,9.760303345,-0.8876541138,-0.05995816737,-0.1613814533,0.02398073301,1
24.61401587,-1.574126587,10.0780925,-0.8241860962,-0.06277712435,-0.2432864308,0.05272730067,1
24.63405788,-1.575473785,10.28406418,-0.6173162842,-0.1862019151,-0.2628614008,0.05727006122,1
24.65409987,-1.382974091,10.74360855,-0.187559967,-0.3724586666,-0.1275253594,0.08984687924,1
24.67414188,-1.110540619,11.11618378,0.5057981873,-0.557164371,0.01237290632,0.1517893672,1
24.69418387,-0.7075785828,10.89569229,0.2142045593,-0.8532677293,0.2539661527,0.3272681832,1
24.71422588,-0.8481362915,10.45964905,-1.832489319,-1.111527801,0.6560603976,0.4952711761,1
24.73426687,-1.325792999,9.918075256,-3.34060318,-1.272532225,0.6269960999,0.4059730172,1
24.75430888,-1.196312256,8.778794403,-2.86085083,-1.355462193,0.3805326819,0.1963486522,1
24.77435087,-1.510658569,6.653813324,-0.8556207275,-1.621752858,0.1492898166,0.1072444916,1
24.79439288,-2.605631561,6.857988739,2.917582855,-1.032447934,-0.2741639316,0.05551481619,1
24.81443487,-2.328707428,8.988358612,0.913250885,0.3534004986,-0.1233452484,0.2891784012,1
24.83447688,-0.4761598206,8.901389465,-5.320535889,-0.02184175141,0.9537264705,0.2450032532,1
24.85451887,-0.4221221924,8.790170746,-5.033283234,-0.5086749792,0.9972220063,0.05883991346,1
24.87456088,-1.36905304,9.423054657,-1.460063782,-0.8080345988,1.102111101,-0.1431374401,1
24.89460187,-2.064955902,11.33907028,2.264490967,-1.046886921,1.656913996,-0.401865989,1
24.91464388,-3.612138519,12.04605011,4.946912842,-0.7733419538,1.71895504,-0.4152234197,1
24.93468587,-3.065325623,10.65499283,2.847378845,-0.5239189863,1.101393223,-0.3388286233,1
24.95472788,-1.685045929,9.450896759,0.1037342834,-0.5657835007,1.031010509,-0.02205675468,1
24.97476987,0.2856060791,9.518406372,-0.9065148926,-0.7961485982,0.8822619319,0.3406438231,1
24.99481188,2.299667816,10.28855484,0.5325924683,-0.945313096,0.8741405606,0.5297225714,1
25.01485387,3.382815399,10.45680496,4.645140381,-0.6728684902,1.264369011,0.4381355345,1
25.03489488,2.416574707,9.272767181,6.220464478,-0.1424854845,1.54975009,0.221897319,1
25.05493687,0.4905299377,8.516090698,2.870879974,0.01302875206,1.296518326,0.05668572336,1
25.07497888,-0.5183720398,9.671687622,0.2710862732,-0.3495782614,1.299303055,-0.02806342021,1
25.0950215,-0.9358538818,10.5491629,0.9131011963,-0.5745421052,1.417743564,-0.009736783803,1
25.1150635,-0.7942483521,10.14739838,1.93532547,-0.5517563224,1.558385968,0.01826442964,1
25.1351055,-0.2002835083,9.364077301,0.9074130249,-0.5701749325,1.783232808,0.01871320233,1
25.1551475,0.09729766846,9.158854065,0.4739144897,-0.562083602,2.071542501,0.02815338597,1
25.1751885,0.1737886047,9.404792633,0.2799179077,-0.5609673262,2.345164776,0.05558430403,1
25.1952305,0.5146298218,9.661808167,-0.05104385376,-0.5357964635,2.209962368,0.02608848363,1
25.2152725,0.5306465149,10.03094055,0.4833448792,-0.5211336017,2.196832657,-0.06012496725,1
25.2353145,0.1666035461,10.46758255,0.7929011536,-0.5660504699,2.529216528,-0.1049092263,1
25.2553565,-0.9178912354,10.79525116,0.7884104919,-0.6377084255,2.528033257,-0.0220089145,1
25.2753985,-1.868115234,10.21580612,1.45213028,-0.6031875014,2.298976421,0.04045539722,1
25.2954405,-0.7646099854,9.826465759,0.8018824768,-0.5876668096,2.472435951,-0.03550474346,1
25.3154825,-0.162412262,9.549242249,-0.4369413757,-0.5660284162,2.560936451,-0.05217414722,1
25.3355235,0.4447251892,9.649384003,-0.7463479614,-0.4939960539,2.51291132,-0.1042803451,1
25.3555655,0.5462141418,10.21700363,-1.272054749,-0.4738238454,2.013598442,-0.154165715,1
25.3756075,-0.2185455322,10.63089294,-1.520538025,-0.5113330483,1.411670804,-0.07300400734,1
25.3956495,-1.39824234,9.870773621,-0.9309141541,-0.4149602652,0.983594656,0.1004158109,1
25.4156915,-1.556912384,8.504414978,-0.03861968994,-0.3214804828,1.074672222,0.01214159839,1
25.4357335,-2.084415436,8.071814575,0.6718029785,-0.501208663,1.560020804,-0.2008967698,1
25.4557745,-2.90186554,9.287885742,2.415826263,-0.9323277473,2.320366144,-0.3624710739,1
25.4758165,-2.314936066,10.25023453,4.535119171,-1.103634357,2.173126459,-0.179370448,1
25.4958585,-1.23089035,11.88019501,3.971990204,-1.153992176,1.227215528,0.08939038217,1
25.5159005,-1.276246033,13.44399307,3.636837158,-1.192747355,1.162613869,0.2340852469,1
25.5359425,-2.015858002,12.00398758,3.12999115,-1.191085577,2.017729759,0.3874646425,1
25.5559845,-3.052153015,9.067843323,3.399580536,-1.206453562,2.975875139,0.6061692238,1
25.5760265,-3.016676788,8.300838318,3.867657166,-1.111606121,2.943448305,0.8659024835,1
25.5960685,-2.220482483,8.397237854,2.656525726,-1.20189476,2.621359587,1.111439586,1
25.6161095,-1.567689972,8.662635956,2.201172638,-1.252620339,1.993410587,1.255033374,1
25.6361515,-1.461860046,8.769663391,1.370549927,-1.235970497,1.161834002,1.30673492,1
25.6561935,-1.855990448,9.094338226,0.4954696655,-1.090772748,0.722022593,1.268939137,1
25.6762355,-2.52030899,9.289831696,-0.2082170105,-0.775034368,1.057209253,1.20924449,1
25.6962775,-3.63548996,8.657097473,-0.9165440369,-0.7048452497,2.046077967,1.281451702,1
25.7163195,-3.790417786,8.804690552,0.3571572876,-0.941518724,3.057872772,1.287760496,1
25.7363615,-4.463118896,9.645641785,1.368603973,-1.456895113,3.815061569,1.158416271,1
25.7564025,-4.932991791,9.65088089,2.077080688,-1.963342071,4.055649281,1.006088495,1
25.7764445,-4.105662231,10.05084915,3.698957977,-1.909230232,3.390266657,1.284476757,1
25.7964865,-1.122964783,10.94643677,4.874164124,-0.9900256991,2.503832817,1.942967534,1
25.8165285,0.9618997192,11.42813507,1.419947205,-0.3628148735,2.073140144,2.486763477,1
25.8365705,1.568737793,11.02786743,-2.460433502,-0.6059514284,2.211233616,2.377534389,1
25.8566125,-0.4114942932,10.18931122,-2.412084045,-1.012014389,2.327835798,2.191145182,1
25.8766545,-1.994751892,9.370364227,0.494122467,-0.8955513239,2.352712154,1.976402283,1
25.8966955,-4.543202362,8.108937378,5.163811798,-0.2015624344,2.698590517,2.012162924,1
25.9167375,-5.337450714,7.723339233,5.824088745,0.3397037387,3.130960464,1.96607542,1
25.9367795,-2.578687592,7.550149384,3.773353271,0.5087679625,2.823915005,1.671502471,1
25.9568215,-1.09871521,7.120393066,2.169887695,0.4262870848,2.253255367,1.415323734,1
25.9768635,-0.6054908752,6.757397919,1.961371307,0.3132178783,2.002316952,1.094841123,1
25.9969055,-1.1572435,6.345604248,3.036435699,0.4041405618,1.946909189,0.7896556258,1
26.0169475,-1.360520782,6.3488974,4.537963257,0.7017237544,2.173803329,0.5840719938,1
26.0369885,-0.4462220764,6.932683411,5.240153046,0.8822780848,2.279199123,0.4676929414,1
26.0570305,1.180295563,8.08408905,4.308939514,0.8374949098,1.550948262,0.3124380112,1
26.0770725,1.11982132,8.942104797,3.435954895,0.6529442668,0.9856800437,0.2870171964,1
26.09711096,0.895587616,10.57954971,4.161047058,0.2950417995,1.348937631,0.3299867511,1
26.11715296,1.51993927,11.67961212,3.866759033,-0.1757251173,1.657476187,0.4580889642,1
26.13719496,2.658920746,9.609267426,4.243824921,-0.1574701518,1.251325965,0.5713815093,1
26.15723596,2.049837341,6.544839935,3.777245178,0.21124883,0.6135928631,0.6054312587,1
26.17727796,-0.07424560547,6.255042572,1.441053314,0.9896051884,-0.1109112129,0.375567615,1
26.19731996,-4.188140717,9.837393036,0.5620811462,1.497283578,-0.3672585189,0.07151073217,1
26.21736196,-7.71899826,18.26112579,-1.890269165,0.2714500725,-0.7500302196,-0.4159843922,1
26.23740396,-9.10676239,25.18512726,-1.260977783,-1.234239221,0.3129876554,-0.3101035953,1
26.25744596,-0.7241940308,9.231602783,3.711082764,0.8760691881,1.557513714,-0.04756320268,1
26.27748796,-0.1710942078,1.090332642,-2.931354218,0.9782684445,1.052528143,-0.1331429929,1
26.29752896,-1.289268951,1.138831787,-3.976630554,0.6352014542,-1.060536981,-0.1422316432,1
26.31757096,-1.046623535,7.531438293,-2.632276154,1.155374289,-1.966605425,-0.5886309743,1
26.33761296,-3.180136871,10.60110489,-2.772085419,1.298174262,-1.575457573,-0.7464724779,1
26.35765496,-2.729723511,12.85661453,-1.366957397,0.7894453406,-0.3200557828,-0.5669672489,1
26.37769696,0.3978726196,12.61187347,1.785487061,0.6628032327,1.34425354,-0.2908135653,1
26.39773896,2.602488098,10.56981995,1.775607605,0.8260668516,1.696059823,-0.3128891289,1
26.41778096,1.347647552,9.509425049,-1.194515991,0.8059915304,0.9253858924,-0.1850538254,1
26.43782196,-2.059267731,9.183403015,-1.001716919,1.181579709,-0.09718202055,0.1881292313,1
26.45786396,-2.349663849,9.521998901,0.329614563,1.327714801,-0.2469910234,0.1109814942,1
26.47790596,-2.240391083,9.34776123,-0.6294410706,0.9911770225,-0.2209749371,-0.1559990346,1
26.49794796,-2.771636353,8.972341919,-0.3206332397,0.9768763185,-0.2640621364,-0.3059542179,1
26.51798996,-2.704875183,8.767567749,-0.4806504822,1.007612109,-0.2922641635,-0.3014906645,1
26.53803196,-1.555265808,8.768016815,-1.223405914,0.8991770744,-0.4905416965,-0.3242107034,1
26.55807396,-0.9889933777,9.169481964,-1.390757904,0.8103078008,-0.7354496121,-0.2747385502,1
26.57811496,-0.5821394348,9.966873779,-1.102756805,0.8503022194,-0.8663563728,-0.2302165031,1
26.59815696,-0.436791687,10.44722488,-1.002165985,0.9020067453,-0.9282032847,-0.2780985534,1
26.61819896,-1.156495056,10.0767453,-0.9098080444,0.9385542274,-0.9575410485,-0.3159330785,1
26.63824096,-1.753303986,8.950187988,0.1119671631,0.9862621427,-0.7861312628,-0.4122885764,1
26.65828296,-1.763782196,8.622220001,1.017134857,0.8422496915,-0.5498176217,-0.527363658,1
26.67832496,-0.9735754395,9.897567902,-0.008382568359,0.4550184608,-0.872469008,-0.5704984069,1
26.69836596,-0.5105882263,11.54743698,-1.375938721,0.2095716298,-1.076380849,-0.4070036411,1
26.71840796,-0.01332229614,11.43876297,0.1038839722,0.0952892527,-0.8742021322,-0.1473267823,1
26.73844996,1.765129395,10.27897476,0.5920188904,-0.03994499147,-0.7579349279,0.0214228183,1
26.75849196,2.777623901,11.03864502,0.841999054,-0.06512591988,-0.6192737818,0.0912810415,1
26.77853396,2.015109558,11.96761322,0.1345701599,-0.2531671226,-0.4518606067,0.1859005243,1
26.79857596,1.132544861,12.83535873,0.7231462097,-0.5535976887,-0.118832916,0.1802918017,1
26.81861796,0.6010002136,13.27963486,0.1776805115,-1.150823474,0.3094351888,0.1612264365,1
26.83865896,-0.5647755432,13.25658279,-1.357527008,-1.736233354,0.5040915608,0.3891379833,1
26.85870096,-1.027613068,11.43232635,-1.833088074,-2.310150146,0.5523175001,0.6203538775,1
26.87874296,-1.623972931,9.079219666,-1.74102951,-2.904969215,0.05459039658,0.7427366972,1
26.89878496,-3.966152344,8.34499649,1.191821594,-2.703147173,-0.8700187206,0.8276617527,1
26.91882696,-6.256240082,10.98550552,2.355501709,-1.90689218,-1.186298132,0.9689498544,1
26.93886896,-6.125861206,12.8676915,-0.5230123901,-1.704310179,-1.600988984,0.8713752031,1
26.95891096,-3.982169037,12.31788483,-0.8672964478,-1.997727752,-1.518020034,0.6190738082,1
26.97895196,-2.48647934,10.0740509,0.6682104492,-1.885848403,-0.9524561763,0.6170571446,1
26.99899396,-2.016606445,9.362730103,1.381477203,-1.426734447,-0.4222601652,0.7909801006,1
27.01903596,-0.8309220886,9.866282959,1.044527893,-1.236558318,-0.4373589158,0.9042124152,1
27.03907796,-0.04146377563,10.31040939,1.202150116,-1.282137275,-0.02173572779,1.100245714,1
27.05911996,0.2489323425,10.25966492,1.523382111,-1.423243403,0.860728085,1.09498477,1
27.07916196,-0.1685494995,9.541009369,1.132245483,-1.422381163,1.689571977,0.9815214276,1
27.09920433,-1.330583038,8.429121552,0.3168910217,-1.281651139,1.776503444,0.9596219063,1
27.11924633,-2.194885712,7.671696625,0.2710862732,-1.076964855,1.541579127,0.8784559369,1
27.13928833,-2.741997986,6.725963287,0.4147874451,-0.9521855712,1.465098858,0.7453468442,1
27.15933033,-2.881358185,5.94398941,1.967358856,-0.6220008135,1.46590054,0.6355175972,1
27.17937233,-1.830693054,5.962550812,3.639531555,-0.001370506594,1.149389744,0.4648486972,1
27.19941433,-1.192719727,5.77319458,3.325035553,0.4522884488,0.9094485641,0.3243121803,1
27.21945633,-0.7843688965,5.700595551,3.193309479,0.6931445003,0.8507754207,0.167684719,1
27.23949733,-0.1219963074,5.915249176,3.745062103,0.9283843637,0.8898637295,-0.09106963128,1
27.25953933,-0.09220825195,5.810766449,4.054169312,1.192664981,1.011795759,-0.3824114203,1
27.27958133,-0.2574645996,5.761818237,4.006568298,1.451876402,1.161924005,-0.5635139942,1
27.29962333,-0.09969268799,6.352639618,3.813020782,1.60255909,1.054882526,-0.7126649022,1
27.31966533,-0.7336244202,8.086933136,3.606300659,1.520328879,0.9448165298,-0.764644742,1
27.33970733,-1.545086975,10.99523529,4.8359935,1.048142672,1.408070445,-0.7153773308,1
27.35974833,-1.265618134,14.35784271,5.592520294,0.352088958,1.288541555,-0.3271252215,1
27.37979033,0.3378474426,15.24025772,6.121370544,-0.1842561513,0.5948750973,0.4343339205,1
27.39983233,3.036585388,12.34677475,5.674100647,-0.3489195704,-0.323538512,0.6586435437,1
27.41987433,1.030008087,9.501641235,5.5380336,-0.2557384372,-0.3954425454,0.6688117385,1
27.43991633,-1.167272644,9.715097351,4.077520752,0.3007417023,-0.7730301619,0.49296543,1
27.45995833,-4.329446869,10.80887283,3.128045197,0.8175833225,-0.4946710467,0.2354124784,1
27.47999933,-7.06620575,14.39242081,1.839075623,0.769405961,0.1827060282,0.1266045272,1
27.50004133,-5.823040924,15.35177582,-0.3920347595,0.04496437311,-0.4072818756,0.3250808716,1
27.52008333,-0.7324269104,7.779771881,-1.893262939,1.183299303,-0.6558994055,0.4110879302,1
27.54012533,-0.5770500183,3.698359222,-3.431613922,1.149697065,-1.340693235,0.1538130343,1
27.56016733,-0.6283932495,3.991000671,-2.178569641,0.7862913013,-0.6815693974,-0.5651209354,1
27.58020933,-2.160457306,8.566386108,-2.364183655,1.124609113,-0.06999367476,-0.6852459908,1
27.60025133,-1.097368011,11.6559613,-3.541485443,1.074048877,0.08918126673,-0.7212902308,1
27.62029233,-0.05867797852,12.29109055,-1.645228729,0.7814683318,0.05069965497,-0.5395305753,1
27.64033433,-0.3179388428,10.384655,1.152303772,0.8697072864,-0.2270942777,-0.1187600866,1
27.66037633,-1.482966156,8.977880402,0.7373666382,1.127009749,-0.7892881632,0.1661981791,1
27.68041833,-1.936972046,8.644523621,-1.197958832,0.9948821068,-1.37685132,0.1644969881,1
27.70046033,-1.605261841,9.075627136,0.009729766846,0.8157998919,-1.200553536,-0.003586999141,1
27.72050233,-0.56866745,9.202563171,0.5376818848,0.8044028282,-0.7492021918,-0.2099006474,1
27.74054333,0.6959028625,9.325008545,-0.1630110168,0.7712764144,-0.5242704749,-0.3055129945,1
27.76058533,1.063538361,9.533674622,-0.2579136658,0.6701421142,-0.6682049632,-0.2982393801,1
27.78062733,0.7352709961,9.775571594,0.3811074829,0.7301079035,-0.6092989445,-0.1856583953,1
27.80066933,0.2850073242,9.805209961,0.005837860107,0.6979601383,-0.4999448657,-0.09666829556,1
27.82071133,-0.1703457642,9.419013062,-0.243842926,0.633939445,-0.4764449894,-0.09659272432,1
27.84075333,-0.7280859375,9.074729004,-0.1028361511,0.6208732128,-0.4218885303,-0.1508980393,1
27.86079433,-0.9870474243,8.820707245,0.1504371643,0.6278070211,-0.2784919739,-0.2630481422,1
27.88083633,-0.9548643494,9.062155151,0.6668632507,0.6364830136,-0.2124934345,-0.4057004154,1
27.90087833,-0.6179150391,9.392817535,0.7345225525,0.7113992572,-0.4017730057,-0.4682217538,1
27.92092033,-0.2878514099,9.476343842,-0.2022294617,0.7923771143,-0.5743169188,-0.4646728635,1
27.94096233,-0.269589386,9.732461243,-0.5653742981,0.7853175998,-0.4813356698,-0.4720713794,1
27.96100433,-0.2682421875,10.00519409,0.5505551147,0.7531642914,-0.2642702758,-0.5066537857,1
27.98104633,0.0347277832,10.67385361,0.4703219604,0.558557272,-0.1102018729,-0.4851070046,1
28.00108733,0.9214837646,11.74008636,-0.05598358154,0.3895166814,-0.3414890468,-0.370076865,1
28.02112933,1.622026978,12.32896179,-0.1707948303,0.3548677266,-0.5305375457,-0.1186810806,1
28.04117133,2.09324707,11.84516785,-0.05149291992,0.3522510529,-0.4653838277,0.05405151099,1
28.06121333,2.201472015,11.54863449,0.9249266052,0.2162331641,-0.3202715218,0.05127029866,1
28.08125533,1.595382385,11.8138829,1.358275452,-0.1072262377,-0.1530224383,0.09351090342,1
28.10129925,0.7937992859,11.75730057,0.5257067871,-0.5587453842,0.3769283593,0.1998832226,1
28.12134025,0.09654922485,11.96821198,-1.847158813,-1.079645276,1.028551936,0.4092743397,1
28.14138225,-0.7683522034,12.13271988,-3.329675903,-1.353463292,1.321087837,0.5882072449,1
28.16142425,-2.458487549,10.99987564,-2.481090546,-1.873294711,0.7845371366,0.8317044377,1
28.18146625,-3.03404068,9.408235474,-1.617536316,-2.469667673,-0.657315731,0.9126230478,1
28.20150825,-3.645369415,8.944050751,0.1437011719,-2.352526426,-1.08055687,0.5987696052,1
28.22155025,-5.343288574,10.28256729,0.6529421997,-2.253591061,-1.38433814,0.5365447402,1
28.24159125,-6.465355225,11.89815765,0.5215155029,-2.091383219,-2.151843309,0.651068449,1
28.26163325,-3.393592987,11.58186539,0.887504425,-2.041840076,-2.093859911,0.5342042446,1
28.28167525,-1.883084106,9.769434357,0.9821076965,-1.854249835,-1.148530126,0.6355475187,1
28.30171725,-1.468596039,10.09605515,0.5855822754,-1.754511952,-0.698810935,0.8052808642,1
28.32175925,-0.2573149109,11.36496643,1.405128021,-1.562031388,-0.2066842169,1.002843738,1
28.34180125,0.8110134888,12.46787292,2.412383423,-1.566898465,0.0273625087,1.345914841,1
28.36184225,1.524878998,11.74337952,2.565215607,-1.516105294,0.968180418,1.162558317,1
28.38188425,1.126407623,9.685309296,0.9485774231,-1.558265567,1.722436547,0.7392131686,1
28.40192625,-0.6719526672,8.201744385,-0.4926255798,-1.862297297,1.969105124,0.4909947515,1
28.42196825,-2.561772766,7.154971161,-0.707428894,-1.922374249,1.597776055,0.4299604297,1
28.44201025,-3.100951538,6.014492798,2.472707977,-1.427258611,1.704868078,0.3655890822,1
28.46205225,-2.580783234,5.068460083,3.718118134,-0.7540848851,1.598698378,0.2357166409,1
28.48209325,-1.679956512,4.594246216,2.943628693,-0.1935345531,1.106391072,0.1165052652,1
28.50213525,-1.31172226,4.736001434,3.344794464,0.3576330543,0.8091699481,0.03670101613,1
28.52217725,-1.097667389,4.440964966,3.958967285,0.8942337632,0.7316179872,-0.07004400343,1
28.54221925,-0.5414241028,4.019890594,4.413122864,1.308766246,0.703758955,-0.2653899193,1
28.56226125,-0.3233276367,4.086202698,4.739893341,1.689302802,0.5106403232,-0.4670809507,1
28.58230325,-0.3366499329,4.575684814,5.616620178,2.043354034,0.4565823972,-0.7182255983,1
28.60234425,-0.8677455139,5.925428009,6.118975525,2.122481823,0.7066845894,-0.7364564538,1
28.62238625,-0.6930587769,9.586215363,7.316335602,1.61157918,1.538784742,-0.6406495571,1
28.64242825,0.8675958252,14.27012512,6.881789246,0.3533571362,1.766168833,-0.3116779923,1
28.66247025,2.900368652,16.3844783,6.083199921,-0.6911292672,0.921333909,0.4113875628,1
28.68251225,4.537963257,11.83588715,5.579796753,-0.8570436239,-0.6192308068,0.6587908864,1
28.70255425,0.5215155029,9.195976868,4.229604492,0.02131222188,-1.936659336,0.6701492667,1
28.72259525,-5.793701935,9.502090302,3.168910217,1.176799893,-1.59752655,0.7089498639,1
28.74263725,-8.807983704,13.94889313,0.1853146362,1.416431427,-0.3332361579,0.5752804875,1
28.76267925,-7.697293396,18.92783936,0.2353106689,0.3756990135,-0.2260278016,0.4254630804,1
28.78272125,1.331780548,10.71292236,2.474354553,1.167218924,-0.3166296184,0.398958087,1
28.80276325,1.245559845,4.298311615,-4.459376678,0.892878592,-0.6451583505,-0.07741130888,1
28.82280525,0.4812492371,3.453917542,-3.625161438,0.9022864103,-0.6044406295,-0.724636972,1
28.84284625,-0.8544232178,7.11650116,-2.78944931,0.981368959,-0.2591966689,-0.7349498272,1
28.86288825,-1.057999878,11.59204422,-2.547702026,1.08215332,0.4075336754,-0.4735364616,1
28.88293025,0.2595602417,12.51981491,-1.381477203,0.9136509299,0.5066644549,-0.2422992289,1
28.90297225,0.458795929,10.79225739,0.8747808838,1.020615458,-0.08270188421,-0.159617275,1
28.92301425,-1.909129944,9.35255127,1.691183167,1.202976584,-0.6868761778,-0.07234321535,1
28.94305625,-2.653981018,8.864116974,0.4477189636,0.9997944832,-0.9345897436,-0.1560204774,1
28.96309725,-1.889520721,8.321944427,0.2689906311,0.9005275369,-0.7577217221,-0.3353282213,1
28.98313925,-0.4852908325,8.297395477,0.310304718,0.8818379641,-0.2511181235,-0.4706192017,1
29.00318125,0.6144721985,9.269623718,-0.8657995605,0.7489862442,0.01607596502,-0.4297453463,1
29.02322325,0.8334667969,10.33944901,-1.403780823,0.773252666,-0.3609575331,-0.2316755801,1
29.04326525,0.8107141113,10.19499939,-1.338666229,0.8164268136,-0.481955409,-0.08815074712,1
29.06330725,-0.06032455444,9.218430176,-0.6191125488,0.8084819913,-0.3202519119,-0.08227983117,1
29.08334825,-1.007854156,8.913364563,-0.2377056885,0.7173950076,-0.1529218554,-0.1797400415,1
29.10338713,-1.409169617,9.162446594,-0.1504371643,0.6717520952,-0.05713267252,-0.300719738,1
29.12342913,-1.234033813,9.628726959,-0.3963757324,0.7177460194,-0.2260144353,-0.3866050541,1
29.14347113,-0.8361611938,10.15608032,-0.7223977661,0.811612308,-0.4883644879,-0.4443457723,1
29.16351313,-0.6445596313,10.31669632,-0.8527766418,0.9030941725,-0.4887881279,-0.519440949,1
29.18355513,-0.5899232483,10.14485367,0.4426295471,1.111097693,-0.3862998188,-0.6446906328,1
29.20359613,-0.9674382019,9.639953613,1.486708374,1.267872453,-0.2532342672,-0.6993535161,1
29.22363813,-0.7243437195,9.436975708,0.6712042236,0.9971789718,-0.2614096999,-0.6687430143,1
29.24368013,0.3086581421,10.2412532,-1.059496765,0.5064806938,-0.3948354125,-0.5629738569,1
29.26372213,1.081650696,10.90661957,-1.010398865,0.3096112013,-0.2861940861,-0.3516054451,1
29.28376413,1.924697571,11.03714813,-0.3670367432,0.2337747663,-0.1599274874,-0.2053487748,1
29.30380613,2.108365631,11.45612686,-0.3734733582,0.2551064193,-0.2755036354,-0.08851003647,1
29.32384713,1.675166473,11.35373978,0.01631607056,0.1995147765,-0.3875372112,0.05088048428,1
29.34388913,0.832868042,11.28533203,0.0817300415,0.02097086608,-0.3062226474,0.1646698862,1
29.36393113,-0.08726852417,11.57078842,0.2851570129,-0.3087529242,-0.1334003359,0.1840867847,1
29.38397313,-0.460891571,12.17717743,-0.650098114,-0.9325771332,0.3433279097,0.1750088185,1
29.40401513,-0.5050497437,12.45919098,-2.299967194,-1.513012409,0.8603413105,0.3070388436,1
29.42405713,-0.01272354126,11.02068237,-2.221829681,-1.957271338,1.095605493,0.5102832317,1
29.44409813,-1.138083344,8.255332947,-2.021246796,-2.460885286,0.5085604787,0.8115538955,1
29.46414013,-2.734363861,7.282356262,-0.5682183838,-2.406462193,-0.276663214,0.9046296477,1
29.48418213,-4.319717102,9.602681122,-0.1091230774,-2.317395449,-0.9203543663,0.8187078238,1
29.50422413,-4.913981323,12.72369095,0.1384620667,-2.206658602,-1.328486681,0.7763915062,1
29.52426613,-4.233197021,13.94380371,-0.02320175171,-2.139830112,-1.614834428,0.7366697192,1
29.54430812,-2.927761688,12.29273712,0.5565426636,-1.94636929,-1.36202538,0.7121605277,1
29.56434913,-2.18216217,10.33720367,1.450633392,-1.51064384,-0.6347247958,0.8296428919,1
29.58439113,-1.691482544,10.13497421,1.727108459,-1.3206352,0.08169139177,1.064675689,1
29.60443313,-0.3052153015,10.67280579,0.8755293274,-1.572997093,0.5339483619,1.264394879,1
29.62447512,0.5593867493,10.39154068,0.3008743286,-1.747216582,0.6634223461,1.164881945,1
29.64451713,0.195643158,9.847122803,0.6161187744,-1.755684018,1.016299367,0.9528673887,1
29.66455912,-0.7960446167,9.208251343,0.9243278503,-1.699151516,1.55938077,0.8301753402,1
29.68460013,-1.733395386,8.446635132,0.9214837646,-1.686111927,1.963482141,0.808462739,1
29.70464212,-1.98681839,7.977061615,0.597557373,-1.649119377,1.922093868,0.7335457802,1
29.72468413,-1.733694763,7.223678284,1.950144653,-1.268758297,1.577321887,0.5034268498,1
29.74472612,-1.767225037,6.202801208,3.32772995,-0.7241244912,1.298557401,0.2461823821,1
29.76476813,-1.949845276,5.55434967,3.706143036,-0.1605482996,1.001214743,0.08592315018,1
29.78481012,-1.535955963,5.345533905,4.043990479,0.3893695474,0.6804267168,-0.003660873976,1
29.80485113,-0.9195378113,5.13671814,4.173321533,0.7659150958,0.519338131,-0.09988000244,1
29.82489312,-0.2191442871,5.239703979,4.460125122,1.033145666,0.5193463564,-0.2737448514,1
29.84493513,-0.1115180969,5.260510712,4.727319489,1.349168777,0.6611692309,-0.4696972966,1
29.86497712,-0.2818638611,5.355563049,4.740941162,1.644573689,0.8416189551,-0.6633022428,1
29.88501913,-0.374072113,6.585704956,4.951253815,1.737210751,0.9925374985,-0.685585022,1
29.90506012,0.04221221924,9.312285004,6.807393951,1.534162164,1.490680814,-0.6123384833,1
29.92510213,1.35258728,12.9154422,7.540718994,0.7669996023,1.298001051,-0.282584548,1
29.94514412,2.405946808,15.83976105,6.58061554,-0.2059335709,0.7985851169,0.3684250712,1
29.96518613,4.599784698,12.69809418,5.553002472,-0.565071404,-0.004935982171,0.7477450371,1
29.98522812,3.10424469,7.439230042,4.46266983,-0.1356287301,-0.5782859921,0.7440675497,1
30.00527013,-0.6379733276,6.18738327,2.282303925,0.7281007171,-1.275043488,0.3524730206,1
30.02531112,-6.677164764,7.544311523,0.2100132751,1.302462339,-1.124547601,0.1307081729,1
30.04535313,-8.998687134,12.22612564,1.193617859,1.03187573,-0.1815037578,-0.004934381694,1
30.06539512,-6.28453125,20.20543259,5.112318878,-0.4964102805,0.5426653028,-0.2595164478,1
30.08543713,-0.1375639343,13.63125366,3.563489685,1.507344604,-0.372736305,0.3556842506,1
30.10547971,0.8572673035,5.48070282,-7.041806488,1.648524761,-0.1538219154,0.3595636189,1
30.12552071,1.374292145,3.903283081,-6.687343597,0.8614201546,-0.7312627435,-0.2472809553,1
30.14556271,1.222208405,5.923332367,-2.438728638,0.4761570692,-1.186921358,-0.6473927498,1
30.16560471,-0.5966592407,10.66711761,0.3405418396,0.9950409532,-0.003512318712,-0.6473721266,1
30.18564671,-1.453776855,12.71994873,0.2365081787,1.132076025,0.5444965363,-0.3663370311,1
30.20568871,-1.134790192,11.20554794,0.5381309509,1.075656295,0.1658566594,-0.1561593413,1
30.22573071,-1.642534332,8.969497833,0.07409591675,1.060365796,-0.6254101396,-0.1221828163,1
30.24577171,-2.14473999,8.046367493,-0.1552272034,1.021029949,-1.065840125,-0.1933058053,1
30.26581371,-1.844913483,8.404123535,0.343535614,0.9890139699,-0.8808835149,-0.3217740655,1
30.28585571,-0.8155041504,9.224866791,0.2640509033,0.9951295257,-0.4833533764,-0.344002068,1
30.30589771,0.8015830994,9.797426147,-0.9505233765,0.9246075749,-0.5055179596,-0.337351501,1
30.32593971,1.073417816,10.00714005,-1.019978943,0.8572804928,-0.6694179773,-0.209132418,1
30.34598171,0.7659571838,9.924811249,-0.5846841431,0.7720500231,-0.6728425622,-0.0721950829,1
30.36602271,0.04715194702,9.523046722,-0.09744735718,0.7008190751,-0.5052722692,-0.008685306646,1
30.38606471,-0.4873864746,9.267228699,0.07484436035,0.6511111259,-0.4354532361,-0.06670174003,1
30.40610671,-0.8678952026,9.436676331,-0.212258606,0.5885049701,-0.5446033478,-0.1634549648,1
30.42614871,-0.8705895996,9.604776764,-0.7149133301,0.586681962,-0.6979632378,-0.249105826,1
30.44619071,-0.622256012,9.541458435,-0.855920105,0.6383720636,-0.6656309366,-0.3265251219,1
30.46623171,-0.4005670166,9.508377228,-0.5839356995,0.6977254748,-0.5462534428,-0.4208060503,1
30.48627371,-0.5328918457,9.588311005,0.3680845642,0.8414456248,-0.4217274785,-0.4964528978,1
30.50631571,-0.6225553894,9.831255798,1.620979156,1.063580036,-0.2914996445,-0.5613215566,1
30.52635771,-0.2586621094,10.0197139,2.034120026,1.180829167,-0.442396909,-0.6064011455,1
