time,seconds_elapsed,z,y,x
1780563534298637800,-0.032362060546875,0.2712875008583069,-0.032999999821186066,-0.03464999794960022
1780563534788972300,0.45797216796875,-0.11219999939203262,-0.09776250272989273,0.10078749805688858
1780563534798735400,0.4677353515625,-0.27059999108314514,-0.3610749840736389,0.28338751196861267
1780563534818262500,0.487262451171875,-0.3287625014781952,-0.4515500068664551,0.33934998512268066
1780563534837784000,0.5067841796875,-0.40411248803138733,-0.48317500948905945,0.36684998869895935
1780563534857303600,0.526303466796875,-0.5017374753952026,-0.47478750348091125,0.3777124881744385
1780563534876826600,0.54582666015625,-0.5017374753952026,-0.47478750348091125,0.3777124881744385
1780563534896349200,0.56534912109375,-0.7434625029563904,-0.3885749876499176,0.3634124994277954
1780563534915867100,0.5848671875,-0.7434625029563904,-0.3885749876499176,0.3634124994277954
1780563534935383000,0.604383056640625,-0.9488874673843384,-0.2891624867916107,0.2909500002861023
1780563534954903000,0.623903076171875,-0.9488874673843384,-0.2891624867916107,0.2909500002861023
1780563534974424600,0.643424560546875,-0.9160249829292297,-0.22206249833106995,0.22247499227523804
1780563534993948700,0.66294873046875,-0.785812497138977,-0.202674999833107,0.2171124964952469
1780563535013474000,0.68247412109375,-0.6311249732971191,-0.1942874938249588,0.22481249272823334
1780563535032998000,0.701997802734375,-0.4797374904155731,-0.1989624947309494,0.22921249270439148
1780563535052519400,0.72151953125,-0.3269749879837036,-0.2153249979019165,0.21367499232292175
1780563535072041000,0.741041015625,-0.3269749879837036,-0.2153249979019165,0.21367499232292175
1780563535091561000,0.76056103515625,-0.02681249938905239,-0.2433750033378601,0.13461250066757202
1780563535111078400,0.780078369140625,-0.02681249938905239,-0.2433750033378601,0.13461250066757202
1780563535130595300,0.79959521484375,0.20281249284744263,-0.22866250574588776,0.10889999568462372
1780563535150113800,0.81911376953125,0.20281249284744263,-0.22866250574588776,0.10889999568462372
1780563535169636000,0.838635986328125,0.6433625221252441,-0.2297624945640564,0.147537499666214
1780563535189159400,0.858159423828125,0.8839874863624573,-0.23718750476837158,0.1634874939918518
1780563535208684000,0.87768408203125,1.0224499702453613,-0.2358125001192093,0.16802500188350677
1780563535228209400,0.89720947265625,1.0176374912261963,-0.22055000066757202,0.15963749587535858
1780563535247730000,0.91672998046875,0.8904500007629395,-0.1942874938249588,0.1396999955177307
1780563535267251500,0.93625146484375,0.8904500007629395,-0.1942874938249588,0.1396999955177307
1780563535286774000,0.95577392578125,0.5486249923706055,-0.1424500048160553,0.08304999768733978
1780563535306292000,0.9752919921875,0.5486249923706055,-0.1424500048160553,0.08304999768733978
1780563535325812500,0.9948125,0.34869998693466187,-0.14300000667572021,0.059950001537799835
1780563535345331000,1.0143310546875,0.34869998693466187,-0.14300000667572021,0.059950001537799835
1780563535364846800,1.033846923828125,0.1381874978542328,-0.1200374960899353,0.06806249916553497
1780563535384366600,1.05336669921875,0.1381874978542328,-0.1200374960899353,0.06806249916553497
1780563535403890700,1.072890625,-0.02433750033378601,-0.09019999951124191,0.06943749636411667
1780563535423415600,1.09241552734375,-0.3372874855995178,-0.03451250120997429,0.07122500240802765
1780563535442936300,1.111936279296875,-0.3372874855995178,-0.03451250120997429,0.07122500240802765
1780563535462456000,1.1314560546875,-0.3372874855995178,-0.03451250120997429,0.07122500240802765
1780563535481978400,1.150978271484375,-0.4295499920845032,0.004812499973922968,0.08346249908208847
1780563535501502700,1.170502685546875,-0.49390000104904175,0.027775000780820847,0.07933750003576279
1780563535521030100,1.190030029296875,-0.5992249846458435,0.05609999969601631,0.0672374963760376
1780563535540559600,1.2095595703125,-0.691349983215332,0.08401250094175339,0.05609999969601631
1780563535560087800,1.229087890625,-0.691349983215332,0.08401250094175339,0.05609999969601631
1780563535579618600,1.24861865234375,-0.6500999927520752,0.1190750002861023,0.05376249924302101
1780563535599150000,1.268150146484375,-0.5511000156402588,0.12718750536441803,0.05252499878406525
1780563535618679000,1.287678955078125,-0.46818751096725464,0.12911249697208405,0.045099999755620956
1780563535638206500,1.30720654296875,-0.4362874925136566,0.1266375035047531,0.03355000168085098
1780563535657737500,1.326737548828125,-0.4405499994754791,0.12223749607801437,0.02186249941587448
1780563535677271300,1.346271240234375,-0.4405499994754791,0.12223749607801437,0.02186249941587448
1780563535696800500,1.365800537109375,-0.3961375057697296,0.10986249893903732,0.01691249944269657
1780563535716328400,1.385328369140625,-0.3961375057697296,0.10986249893903732,0.01691249944269657
1780563535735861800,1.40486181640625,-0.43408748507499695,0.11811249703168869,0.055687498301267624
1780563535755396600,1.424396728515625,-0.43408748507499695,0.11811249703168869,0.055687498301267624
1780563535774924800,1.4439248046875,-0.6311249732971191,0.17270000278949738,0.08579999953508377
1780563535794449700,1.46344970703125,-0.6707249879837036,0.21037499606609344,0.07535000145435333
1780563535813973800,1.482973876953125,-0.6151750087738037,0.24626250565052032,0.045375000685453415
1780563535833498000,1.502498046875,-0.4778124988079071,0.27445000410079956,-0.0006874999962747097
1780563535853025500,1.522025634765625,-0.3260124921798706,0.29397499561309814,-0.055412501096725464
1780563535872553200,1.54155322265625,-0.3260124921798706,0.29397499561309814,-0.055412501096725464
1780563535892079900,1.561079833984375,-0.1769624948501587,0.3240875005722046,-0.17063750326633453
1780563535911606800,1.580606689453125,-0.1769624948501587,0.3240875005722046,-0.17063750326633453
1780563535931134000,1.600134033203125,-0.11055000126361847,0.35420000553131104,-0.2628999948501587
1780563535950659300,1.619659423828125,-0.11055000126361847,0.35420000553131104,-0.2628999948501587
1780563535970186000,1.63918603515625,0.13695000112056732,0.3205125033855438,-0.23594999313354492
1780563535989714700,1.658714599609375,0.2751374840736389,0.2868250012397766,-0.17022499442100525
1780563536009241600,1.67824169921875,0.42899999022483826,0.25946250557899475,-0.0952875018119812
1780563536028768300,1.697768310546875,0.6547750234603882,0.2428250014781952,-0.03629999980330467
1780563536048292900,1.71729296875,0.9497125148773193,0.22990000247955322,-0.005499999970197678
1780563536067815200,1.736815185546875,0.9497125148773193,0.22990000247955322,-0.005499999970197678
1780563536087339300,1.75633935546875,1.4089624881744385,0.18369999527931213,0.0028874999843537807
1780563536106869500,1.775869384765625,1.4089624881744385,0.18369999527931213,0.0028874999843537807
1780563536126401500,1.795401611328125,1.3976874351501465,0.1447875052690506,-0.0035749999806284904
1780563536145934000,1.81493408203125,1.3976874351501465,0.1447875052690506,-0.0035749999806284904
1780563536165464300,1.83446435546875,0.7442874908447266,0.14423750340938568,0.089649997651577
1780563536184988200,1.85398828125,0.7442874908447266,0.14423750340938568,0.089649997651577
1780563536204509000,1.873509033203125,0.2595999836921692,0.147537499666214,0.19965000450611115
1780563536224032800,1.89303271484375,-0.09473749995231628,0.14932499825954437,0.30882498621940613
1780563536243559700,1.9125595703125,-0.1648624986410141,0.1467124968767166,0.35887500643730164
1780563536263087000,1.932087158203125,0.2569875121116638,0.1046374961733818,0.2320999950170517
1780563536282612700,1.95161279296875,0.2569875121116638,0.1046374961733818,0.2320999950170517
1780563536302137000,1.97113720703125,0.36973750591278076,0.059950001537799835,0.14217500388622284
1780563536321664800,1.990664794921875,0.32491248846054077,0.0170499999076128,0.09281250089406967
1780563536341195800,2.01019580078125,0.19923749566078186,-0.004812499973922968,0.10216250270605087
1780563536360723000,2.029722900390625,0.19923749566078186,-0.004812499973922968,0.10216250270605087
1780563536380245200,2.049245361328125,-0.1457500010728836,0.007699999958276749,0.2623499929904938
1780563536399761700,2.06876171875,-0.3964124917984009,0.004399999976158142,0.3382500112056732
1780563536419276300,2.0882763671875,-0.6470749974250793,-0.014162499457597733,0.3573625087738037
1780563536438796800,2.107796875,-0.7965375185012817,-0.035475000739097595,0.2937000095844269
1780563536458321700,2.12732177734375,-0.7881500124931335,-0.049912501126527786,0.13846249878406525
1780563536477844000,2.146843994140625,-0.7881500124931335,-0.049912501126527786,0.13846249878406525
1780563536497366800,2.16636669921875,-0.4961000084877014,-0.0541750006377697,-0.31817498803138733
1780563536516888300,2.185888427734375,-0.4961000084877014,-0.0541750006377697,-0.31817498803138733
1780563536536407300,2.2054072265625,-0.39393749833106995,-0.057475000619888306,-0.6298875212669373
1780563536555926500,2.224926513671875,-0.39393749833106995,-0.057475000619888306,-0.6298875212669373
1780563536575445800,2.24444580078125,-0.3152875006198883,-0.09253749996423721,-0.696025013923645
1780563536594965000,2.263965087890625,-0.21463750302791595,-0.1143999993801117,-0.697950005531311
1780563536614481700,2.283481689453125,-0.15716250240802765,-0.1270499974489212,-0.7079874873161316
1780563536633997600,2.30299755859375,-0.1788875013589859,-0.12636250257492065,-0.7327374815940857
1780563536653515800,2.322515869140625,-0.2586374878883362,-0.11715000122785568,-0.7698624730110168
1780563536673036300,2.342036376953125,-0.2586374878883362,-0.11715000122785568,-0.7698624730110168
1780563536692559400,2.361559326171875,-0.41731250286102295,-0.11357499659061432,-0.810699999332428
1780563536712084000,2.381083984375,-0.41731250286102295,-0.11357499659061432,-0.810699999332428
1780563536731605800,2.400605712890625,-0.45512500405311584,-0.12815000116825104,-0.7173374891281128
1780563536751128600,2.420128662109375,-0.45512500405311584,-0.12815000116825104,-0.7173374891281128
1780563536770650600,2.439650634765625,-0.43367499113082886,-0.10532499849796295,-0.5315750241279602
1780563536790169300,2.45916943359375,-0.4115374982357025,-0.09652499854564667,-0.4464625120162964
1780563536809694000,2.47869384765625,-0.3544749915599823,-0.10216250270605087,-0.3961375057697296
1780563536829223000,2.498222900390625,-0.2591874897480011,-0.11467500030994415,-0.38788750767707825
1780563536848746500,2.51774658203125,-0.1691250056028366,-0.10766249895095825,-0.4138749837875366
1780563536868271900,2.53727197265625,-0.1691250056028366,-0.10766249895095825,-0.4138749837875366
1780563536887799300,2.55679931640625,-0.11783749610185623,0.04207500070333481,-0.4907374978065491
1780563536907325400,2.576325439453125,-0.11783749610185623,0.04207500070333481,-0.4907374978065491
1780563536926849500,2.595849609375,0.07108750194311142,0.21051250398159027,-0.4973374903202057
1780563536946372000,2.6153720703125,0.07108750194311142,0.21051250398159027,-0.4973374903202057
1780563536965895400,2.6348955078125,0.5726875066757202,0.12347500026226044,-0.5076500177383423
1780563536985415700,2.654415771484375,0.5726875066757202,0.12347500026226044,-0.5076500177383423
1780563537004935000,2.673934814453125,0.7246249914169312,0.07218749821186066,-0.5024250149726868
1780563537024458800,2.693458740234375,0.6342874765396118,0.1083500012755394,-0.4641999900341034
1780563537043990500,2.712990478515625,0.5378999710083008,0.1317249983549118,-0.4162124991416931
1780563537063523800,2.73252392578125,0.5378999710083008,0.1317249983549118,-0.4162124991416931
1780563537083050500,2.752050537109375,0.5406500101089478,0.031212499365210533,-0.38513749837875366
1780563537102574600,2.77157470703125,0.5406500101089478,0.031212499365210533,-0.38513749837875366
1780563537122099000,2.791098876953125,0.6782875061035156,-0.10628750175237656,-0.43230000138282776
1780563537141617400,2.810617431640625,0.8317375183105469,-0.26826250553131104,-0.49761250615119934
1780563537161138400,2.830138427734375,0.9376124739646912,-0.42707499861717224,-0.5530250072479248
1780563537180667400,2.84966748046875,0.9418749809265137,-0.7008374929428101,-0.5827249884605408
1780563537200191700,2.869191650390625,0.9418749809265137,-0.7008374929428101,-0.5827249884605408
1780563537219717000,2.888717041015625,0.7862250208854675,-0.7851250171661377,-0.5648499727249146
1780563537239244000,2.908244140625,0.5480750203132629,-0.8193625211715698,-0.5478000044822693
1780563537258766000,2.92776611328125,0.3684999942779541,-0.8541499972343445,-0.5648499727249146
1780563537278289200,2.9472890625,0.3684999942779541,-0.8541499972343445,-0.5648499727249146
1780563537297815300,2.966815185546875,0.4538874924182892,-1.067275047302246,-0.6712750196456909
1780563537317343700,2.98634375,0.4538874924182892,-1.067275047302246,-0.6712750196456909
1780563537336867300,3.005867431640625,0.594962477684021,-1.3112000226974487,-0.6008750200271606
1780563537356384800,3.025384765625,0.594962477684021,-1.3112000226974487,-0.6008750200271606
1780563537375908400,3.044908447265625,0.2810499966144562,-1.3329249620437622,-0.2952125072479248
1780563537395429400,3.064429443359375,0.09212499856948853,-1.2963500022888184,-0.15963749587535858
1780563537414947000,3.083947021484375,0.0030249999836087227,-1.255924940109253,-0.09844999760389328
1780563537434470100,3.10347021484375,0.05678749829530716,-1.219212532043457,-0.12223749607801437
1780563537453994500,3.122994384765625,0.21601249277591705,-1.1911624670028687,-0.19112500548362732
1780563537473519000,3.14251904296875,0.21601249277591705,-1.1911624670028687,-0.19112500548362732
1780563537493042700,3.162042724609375,0.5489000082015991,-1.2066999673843384,-0.22756250202655792
1780563537512564200,3.181564208984375,0.5489000082015991,-1.2066999673843384,-0.22756250202655792
1780563537532083500,3.20108349609375,0.785812497138977,-1.3899874687194824,0.00989999994635582
1780563537551608300,3.2206083984375,0.785812497138977,-1.3899874687194824,0.00989999994635582
1780563537571138000,3.240137939453125,0.5961999893188477,-1.203262448310852,0.11110000312328339
1780563537590665000,3.2596650390625,0.2901250123977661,-0.8879749774932861,0.04358749836683273
1780563537610185000,3.27918505859375,-0.07259999960660934,-0.5083374977111816,-0.05431250110268593
1780563537629706000,3.2987060546875,-0.46997499465942383,-0.11178749799728394,-0.16142499446868896
1780563537649230000,3.31822998046875,-0.865149974822998,0.255887508392334,-0.2619374990463257
1780563537668753700,3.337753662109375,-0.865149974822998,0.255887508392334,-0.2619374990463257
1780563537688279600,3.357279541015625,-1.129562497138977,0.6235625147819519,-0.30387499928474426
1780563537707803100,3.37680322265625,-1.129562497138977,0.6235625147819519,-0.30387499928474426
1780563537727323400,3.396323486328125,-0.4361499845981598,0.4545750021934509,-0.14217500388622284
1780563537746846500,3.415846435546875,-0.4361499845981598,0.4545750021934509,-0.14217500388622284
1780563537766370600,3.43537060546875,-0.427762508392334,0.8294000029563904,-0.22384999692440033
1780563537785893000,3.45489306640625,-0.427762508392334,0.8294000029563904,-0.22384999692440033
1780563537805410600,3.47441064453125,-0.7565249800682068,1.2330999374389648,-0.3100624978542328
1780563537824927500,3.493927490234375,-1.0036125183105469,1.5453624725341797,-0.33605000376701355
1780563537844450300,3.5134501953125,-0.9465500116348267,1.7371749877929688,-0.25533750653266907
1780563537863977200,3.532977294921875,-0.9465500116348267,1.7371749877929688,-0.25533750653266907
1780563537883503900,3.55250390625,-0.8525000214576721,1.828474998474121,-0.18479999899864197
1780563537903030500,3.572030517578125,-0.8525000214576721,1.828474998474121,-0.18479999899864197
1780563537922557700,3.5915576171875,-0.8525000214576721,1.828474998474121,-0.18479999899864197
1780563537942084400,3.61108447265625,-1.5723124742507935,2.2983124256134033,-0.025987500324845314
1780563537961610200,3.6306103515625,-1.9599249362945557,2.517625093460083,0.12251249700784683
1780563537981138200,3.65013818359375,-2.180612564086914,2.6123623847961426,0.28146249055862427
1780563538000665300,3.669665283203125,-2.275899887084961,2.600399971008301,0.4298250079154968
1780563538020190200,3.689190185546875,-2.3396999835968018,2.546912431716919,0.5692499876022339
1780563538039714000,3.708714111328125,-2.382187604904175,2.476375102996826,0.7002875208854675
1780563538059237000,3.728237060546875,-2.3797125816345215,2.3773748874664307,0.8104249835014343
1780563538078761200,3.74776123046875,-2.3797125816345215,2.3773748874664307,0.8104249835014343
1780563538098286600,3.76728662109375,-2.145824909210205,1.938612461090088,0.8568999767303467
1780563538117812700,3.786812744140625,-2.145824909210205,1.938612461090088,0.8568999767303467
1780563538137345000,3.806344970703125,-1.582900047302246,1.192674994468689,0.6458374857902527
1780563538156877000,3.825876953125,-1.582900047302246,1.192674994468689,0.6458374857902527
1780563538176402200,3.845402099609375,-0.9578250050544739,0.552887499332428,0.4232249855995178
1780563538195932000,3.864931884765625,-0.6696249842643738,0.2886124849319458,0.33041250705718994
1780563538215464000,3.8844638671875,-0.37619999051094055,0.026124998927116394,0.22618749737739563
1780563538234990600,3.903990478515625,-0.08676250278949738,-0.22605000436306,0.1097249984741211
1780563538254518000,3.92351806640625,0.18342499434947968,-0.44673749804496765,-0.005224999971687794
1780563538274044700,3.943044677734375,0.18342499434947968,-0.44673749804496765,-0.005224999971687794
1780563538293567000,3.96256689453125,0.7485499978065491,-0.808775007724762,-0.19318750500679016
1780563538313093600,3.98209375,0.7485499978065491,-0.808775007724762,-0.19318750500679016
1780563538332620500,4.00162060546875,1.6600375175476074,-1.289199948310852,-0.3451249897480011
1780563538352147200,4.021147216796875,1.6600375175476074,-1.289199948310852,-0.3451249897480011
1780563538371669800,4.040669677734375,2.5352249145507812,-1.7199875116348267,-0.46997499465942383
1780563538391189000,4.06018896484375,2.7729625701904297,-1.8016624450683594,-0.5043500065803528
1780563538410714600,4.079714599609375,2.9107375144958496,-1.807437539100647,-0.5076500177383423
1780563538430243000,4.0992431640625,3.000112533569336,-1.7778749465942383,-0.4819374978542328
1780563538449769700,4.118769775390625,3.058687448501587,-1.7463874816894531,-0.4402749836444855
1780563538469295600,4.138295654296875,3.058687448501587,-1.7463874816894531,-0.4402749836444855
1780563538488820200,4.1578203125,2.9368624687194824,-1.613012433052063,-0.36024999618530273
1780563538508340200,4.17734033203125,2.9368624687194824,-1.613012433052063,-0.36024999618530273
1780563538527862300,4.1968623046875,2.5931124687194824,-1.3180749416351318,-0.33096250891685486
1780563538547390500,4.216390380859375,2.5931124687194824,-1.3180749416351318,-0.33096250891685486
1780563538566915600,4.23591552734375,2.2834625244140625,-1.0166749954223633,-0.32284998893737793
1780563538586438000,4.25543798828125,2.1747000217437744,-0.9138249754905701,-0.30992498993873596
1780563538605961000,4.2749609375,2.0410499572753906,-0.8208749890327454,-0.28517499566078186
1780563538625483300,4.294483154296875,1.8466249704360962,-0.717199981212616,-0.24681249260902405
1780563538645004300,4.31400439453125,1.6051750183105469,-0.6015625,-0.195250004529953
1780563538664528600,4.333528564453125,1.3323750495910645,-0.477400004863739,-0.1335124969482422
1780563538684053800,4.3530537109375,1.3323750495910645,-0.477400004863739,-0.1335124969482422
1780563538703576800,4.372576904296875,0.7412624955177307,-0.21175000071525574,-0.018149999901652336
1780563538723097600,4.39209765625,0.7412624955177307,-0.21175000071525574,-0.018149999901652336
1780563538742621700,4.41162158203125,0.7412624955177307,-0.21175000071525574,-0.018149999901652336
1780563538762155300,4.4311552734375,0.10216250270605087,0.08167500048875809,0.01924999989569187
1780563538781686300,4.450686279296875,-0.5135625004768372,0.19043749570846558,-0.04688749834895134
1780563538801213200,4.470213134765625,-0.5135625004768372,0.19043749570846558,-0.04688749834895134
1780563538820745000,4.489744873046875,-0.7684875130653381,0.15661250054836273,-0.09721250087022781
1780563538840273200,4.509273193359375,-1.0099375247955322,0.11563749611377716,-0.14547500014305115
1780563538859803600,4.5288037109375,-1.2034000158309937,0.05224999785423279,-0.13956250250339508
1780563538879331600,4.54833154296875,-1.2034000158309937,0.05224999785423279,-0.13956250250339508
1780563538898855700,4.567855712890625,-1.2083499431610107,-0.28022500872612,-0.2134000062942505
1780563538918380300,4.58738037109375,-1.2083499431610107,-0.28022500872612,-0.2134000062942505
1780563538937902600,4.606902587890625,-0.9216625094413757,-0.757349967956543,-0.22027499973773956
1780563538957426200,4.62642626953125,-0.9216625094413757,-0.757349967956543,-0.22027499973773956
1780563538976951300,4.645951416015625,-0.9385749697685242,-0.8940249681472778,-0.1522125005722046
1780563538996475400,4.665475341796875,-0.9713000059127808,-0.861299991607666,-0.11701250076293945
1780563539015998200,4.684998291015625,-0.915612518787384,-0.8295375108718872,-0.07644999772310257
1780563539035523600,4.704523681640625,-0.785812497138977,-0.7973625063896179,-0.03863750025629997
1780563539055049700,4.7240498046875,-0.6411625146865845,-0.7386500239372253,-0.019112499430775642
1780563539074577400,4.743577392578125,-0.6411625146865845,-0.7386500239372253,-0.019112499430775642
1780563539094100700,4.763100830078125,-0.4137375056743622,-0.48496249318122864,-0.05101250112056732
1780563539113622800,4.782622802734375,-0.4137375056743622,-0.48496249318122864,-0.05101250112056732
1780563539133150200,4.802150146484375,-0.227012500166893,-0.1363999992609024,-0.12594999372959137
1780563539152676600,4.821676513671875,-0.227012500166893,-0.1363999992609024,-0.12594999372959137
1780563539172202200,4.8412021484375,0.13997499644756317,0.0835999995470047,-0.15399999916553497
1780563539191724300,4.860724365234375,0.2582249939441681,0.26510000228881836,-0.17531250417232513
1780563539211248400,4.880248291015625,0.19827499985694885,0.5784624814987183,-0.21972499787807465
1780563539230775300,4.899775390625,-0.007012499962002039,0.9631875157356262,-0.2642749845981598
1780563539250301400,4.919301513671875,-0.2125750035047531,1.294837474822998,-0.2750000059604645
1780563539269830000,4.938829833984375,-0.2125750035047531,1.294837474822998,-0.2750000059604645
1780563539289352700,4.958352783203125,-0.35282498598098755,1.6117750406265259,-0.17627499997615814
1780563539308875300,4.977875244140625,-0.35282498598098755,1.6117750406265259,-0.17627499997615814
1780563539328402700,4.997402587890625,-0.5176874995231628,1.8108749389648438,0.02433750033378601
1780563539347931100,5.01693115234375,-0.5176874995231628,1.8108749389648438,0.02433750033378601
1780563539367459300,5.036459228515625,-1.087762475013733,2.1682374477386475,0.2952125072479248
1780563539386984200,5.055984130859375,-1.087762475013733,2.1682374477386475,0.2952125072479248
1780563539406505000,5.0755048828125,-1.4254624843597412,2.2016499042510986,0.5215374827384949
1780563539426023400,5.0950234375,-1.7595875263214111,2.275212526321411,0.6358000040054321
1780563539445543200,5.114543212890625,-2.5403125286102295,2.6108500957489014,0.8586875200271606
1780563539465067300,5.1340673828125,-2.5403125286102295,2.6108500957489014,0.8586875200271606
1780563539484592600,5.153592529296875,-4.363699913024902,3.4534499645233154,1.6784625053405762
1780563539504116500,5.173116455078125,-4.363699913024902,3.4534499645233154,1.6784625053405762
1780563539523631900,5.1926318359375,-3.9300248622894287,1.8919999599456787,1.2546875476837158
1780563539543147000,5.21214697265625,-3.9300248622894287,1.8919999599456787,1.2546875476837158
1780563539562664000,5.231663818359375,-3.9300248622894287,1.8919999599456787,1.2546875476837158
1780563539582182400,5.251182373046875,-1.2160500288009644,0.1685750037431717,0.32532501220703125
1780563539601701600,5.27070166015625,-1.2160500288009644,0.1685750037431717,0.32532501220703125
1780563539621219800,5.2902197265625,-0.4723125100135803,-0.27059999108314514,0.15028749406337738
1780563539640735200,5.3097353515625,-0.013612499460577965,-0.4963749945163727,0.11522500216960907
1780563539660249000,5.3292490234375,0.21051250398159027,-0.6171000003814697,0.10353749990463257
1780563539679765500,5.348765625,0.21051250398159027,-0.6171000003814697,0.10353749990463257
1780563539699280400,5.3682802734375,0.5598999857902527,-0.8850874900817871,-0.05939999967813492
1780563539718795000,5.387794921875,0.5598999857902527,-0.8850874900817871,-0.05939999967813492
1780563539738313500,5.4073134765625,1.2080750465393066,-1.2141250371932983,-0.3273875117301941
1780563539757831000,5.426830810546875,1.2080750465393066,-1.2141250371932983,-0.3273875117301941
1780563539777343700,5.44634375,1.8785250186920166,-1.4154249429702759,-0.5186499953269958
1780563539796854800,5.465854736328125,2.1929874420166016,-1.4957250356674194,-0.5989499688148499
1780563539816363800,5.48536376953125,2.5097875595092773,-1.5822124481201172,-0.6740249991416931
1780563539835880700,5.504880615234375,2.8821375370025635,-1.6916625499725342,-0.734250009059906
1780563539855397000,5.524397216796875,3.3178749084472656,-1.8210500478744507,-0.7720624804496765
1780563539874908700,5.54390869140625,3.3178749084472656,-1.8210500478744507,-0.7720624804496765
1780563539894418700,5.563418701171875,3.846562385559082,-1.9083625078201294,-0.7690374851226807
1780563539913923600,5.582923583984375,3.846562385559082,-1.9083625078201294,-0.7690374851226807
1780563539933431600,5.602431640625,3.5435125827789307,-1.6378999948501587,-0.6672874689102173
1780563539952944000,5.621944091796875,3.5435125827789307,-1.6378999948501587,-0.6672874689102173
1780563539972458000,5.6414580078125,3.007537364959717,-1.4228500127792358,-0.46351251006126404
1780563539991967700,5.6609677734375,2.695549964904785,-1.3404874801635742,-0.35048750042915344
1780563540011474400,5.680474365234375,2.36403751373291,-1.2332375049591064,-0.2579500079154968
1780563540030986200,5.699986328125,2.0340375900268555,-1.0946375131607056,-0.2012999951839447
1780563540050504700,5.719504638671875,1.7066500186920166,-0.92826247215271,-0.1868624985218048
1780563540070026500,5.739026611328125,1.7066500186920166,-0.92826247215271,-0.1868624985218048
1780563540089542400,5.75854248046875,1.0234124660491943,-0.5638874769210815,-0.2517625093460083
1780563540109058000,5.77805810546875,1.0234124660491943,-0.5638874769210815,-0.2517625093460083
1780563540128575500,5.797575439453125,0.4643374979496002,-0.3544749915599823,-0.3147374987602234
1780563540148091000,5.8170908203125,0.4643374979496002,-0.3544749915599823,-0.3147374987602234
1780563540167614500,5.836614501953125,0.002199999988079071,-0.31459999084472656,-0.32848748564720154
1780563540187133000,5.8561328125,-0.21848750114440918,-0.3422375023365021,-0.33550000190734863
1780563540206644000,5.87564404296875,-0.3856875002384186,-0.40411248803138733,-0.3443000018596649
1780563540226157600,5.895157470703125,-0.4945875108242035,-0.47932499647140503,-0.35089999437332153
1780563540245677300,5.91467724609375,-0.6151750087738037,-0.5161749720573425,-0.359562486410141
1780563540265202200,5.9342021484375,-0.8122124671936035,-0.4740999937057495,-0.37619999051094055
1780563540284724500,5.953724365234375,-1.0601249933242798,-0.3768875002861023,-0.3959999978542328
1780563540304244500,5.973244384765625,-1.2607375383377075,-0.2919124960899353,-0.3993000090122223
1780563540323766500,5.9927666015625,-1.2607375383377075,-0.2919124960899353,-0.3993000090122223
1780563540343289000,6.0122890625,-1.2527624368667603,-0.3251875042915344,-0.30098751187324524
1780563540362815000,6.03181494140625,-1.2527624368667603,-0.3251875042915344,-0.30098751187324524
1780563540382339600,6.051339599609375,-1.2527624368667603,-0.3251875042915344,-0.30098751187324524
1780563540401860600,6.070860595703125,-0.9334874749183655,-0.40837499499320984,-0.14698749780654907
1780563540421384200,6.09038427734375,-0.7338374853134155,-0.39861249923706055,-0.09226249903440475
1780563540440908000,6.109907958984375,-0.5131499767303467,-0.36616250872612,-0.05843750014901161
1780563540460433400,6.129433349609375,-0.279262512922287,-0.32339999079704285,-0.0411125011742115
1780563540479955700,6.148955810546875,-0.279262512922287,-0.32339999079704285,-0.0411125011742115
1780563540499474700,6.168474609375,-0.036024998873472214,0.025437500327825546,-0.10656250268220901
1780563540518998500,6.18799853515625,-0.036024998873472214,0.025437500327825546,-0.10656250268220901
1780563540538524700,6.207524658203125,-0.3301374912261963,0.9054374694824219,-0.28654998540878296
1780563540558048500,6.227048583984375,-0.3301374912261963,0.9054374694824219,-0.28654998540878296
1780563540577571800,6.24657177734375,-0.5084750056266785,1.4797749519348145,-0.32862499356269836
1780563540597091800,6.266091796875,-0.5198875069618225,1.5928000211715698,-0.3044250011444092
1780563540616613400,6.28561328125,-0.4923875033855438,1.6277250051498413,-0.2595999836921692
1780563540636132600,6.305132568359375,-0.4230875074863434,1.610949993133545,-0.19304999709129333
1780563540655656400,6.324656494140625,-0.3665750026702881,1.6083375215530396,-0.1046374961733818
1780563540675186200,6.344186279296875,-0.3665750026702881,1.6083375215530396,-0.1046374961733818
1780563540694710300,6.363710205078125,-0.5355625152587891,1.8020750284194946,0.15716250240802765
1780563540714233300,6.3832333984375,-0.5355625152587891,1.8020750284194946,0.15716250240802765
1780563540733757700,6.4027578125,-0.9828500151634216,2.0620875358581543,0.5970249772071838
1780563540753278200,6.4222783203125,-0.9828500151634216,2.0620875358581543,0.5970249772071838
1780563540772800500,6.441800537109375,-1.5027375221252441,2.2235124111175537,1.0969749689102173
1780563540792330800,6.461330810546875,-1.9758750200271606,1.7115999460220337,1.054900050163269
1780563540811859700,6.480859619140625,-2.5760624408721924,0.7515749931335449,0.7886999845504761
1780563540831384000,6.500384033203125,-3.0897624492645264,0.7541875243186951,0.5328124761581421
1780563540850908200,6.519908203125,-3.2847375869750977,0.8064374923706055,0.17861250042915344
1780563540870430200,6.53943017578125,-3.2847375869750977,0.8064374923706055,0.17861250042915344
1780563540889950700,6.55895068359375,-2.544300079345703,0.4633750021457672,0.3003000020980835
1780563540909474000,6.57847412109375,-2.544300079345703,0.4633750021457672,0.3003000020980835
1780563540928996600,6.59799658203125,-1.1957000494003296,-0.24323749542236328,-0.10752499848604202
1780563540948520700,6.617520751953125,-1.1957000494003296,-0.24323749542236328,-0.10752499848604202
1780563540968044800,6.637044921875,-0.40273749828338623,-0.6910749673843384,-0.4923875033855438
1780563540987572700,6.65657275390625,-0.40273749828338623,-0.6910749673843384,-0.4923875033855438
1780563541007101700,6.676101806640625,-0.18645000457763672,-0.8056125044822693,-0.6118749976158142
1780563541026626300,6.695626220703125,-0.12347500026226044,-0.8344874978065491,-0.6114624738693237
1780563541046146000,6.71514599609375,-0.011549999937415123,-0.8815125226974487,-0.6140750050544739
1780563541065666000,6.734666015625,-0.011549999937415123,-0.8815125226974487,-0.6140750050544739
1780563541085190100,6.754190185546875,-0.011549999937415123,-0.8815125226974487,-0.6140750050544739
1780563541104714500,6.773714599609375,1.2732499837875366,-1.5751999616622925,-0.6582124829292297
1780563541124234200,6.793234130859375,1.2732499837875366,-1.5751999616622925,-0.6582124829292297
1780563541143756000,6.812756103515625,2.88708758354187,-2.446537494659424,-0.5946875214576721
1780563541163282400,6.832282470703125,2.88708758354187,-2.446537494659424,-0.5946875214576721
1780563541182806000,6.851805908203125,3.63385009765625,-2.67368745803833,-0.4838624894618988
1780563541202328800,6.871328857421875,3.63385009765625,-2.67368745803833,-0.4838624894618988
1780563541221852700,6.890852783203125,3.705899953842163,-2.5647873878479004,-0.46158748865127563
1780563541241378800,6.91037890625,3.7515499591827393,-2.429487466812134,-0.44948750734329224
1780563541260907800,6.92990771484375,3.8128750324249268,-2.3175625801086426,-0.43037500977516174
1780563541280434700,6.9494345703125,3.8128750324249268,-2.3175625801086426,-0.43037500977516174
1780563541299956700,6.968956787109375,3.5418624877929688,-1.9989750385284424,-0.32010000944137573
1780563541319476000,6.98847607421875,3.5418624877929688,-1.9989750385284424,-0.32010000944137573
1780563541339000000,7.008,2.5357749462127686,-1.3811874389648438,-0.11495000123977661
1780563541358525700,7.027525634765625,2.5357749462127686,-1.3811874389648438,-0.11495000123977661
1780563541378050600,7.047050537109375,1.7792500257492065,-0.9040625095367432,0.00989999994635582
1780563541397576200,7.066576171875,1.5452250242233276,-0.7511624693870544,0.007287499960511923
1780563541417098000,7.086097900390625,1.3233000040054321,-0.6140750050544739,-0.023099999874830246
1780563541436617000,7.105616943359375,1.081162452697754,-0.47327500581741333,-0.07012499868869781
1780563541456138000,7.125137939453125,0.8219749927520752,-0.32752498984336853,-0.12828749418258667
1780563541475662600,7.14466259765625,0.8219749927520752,-0.32752498984336853,-0.12828749418258667
1780563541495185200,7.16418505859375,0.3702875077724457,-0.11288750171661377,-0.23154999315738678
1780563541514707500,7.18370751953125,0.3702875077724457,-0.11288750171661377,-0.23154999315738678
1780563541534237200,7.2032373046875,-0.08579999953508377,-0.07823749631643295,-0.1989624947309494
1780563541553767700,7.222767578125,-0.08579999953508377,-0.07823749631643295,-0.1989624947309494
1780563541573293300,7.242293212890625,-0.4295499920845032,-0.38046249747276306,-0.09212499856948853
1780563541592819200,7.261819091796875,-0.36313748359680176,-0.6890124678611755,-0.059812501072883606
1780563541612344000,7.281343994140625,-0.22261250019073486,-0.9726749658584595,-0.05335000157356262
1780563541631872800,7.300872802734375,-0.15702499449253082,-1.1206250190734863,-0.07232499867677689
1780563541651399400,7.3203994140625,-0.26179999113082886,-1.0911999940872192,-0.11041250079870224
1780563541670922000,7.339921875,-0.26179999113082886,-1.0911999940872192,-0.11041250079870224
1780563541690452000,7.359451904296875,-0.9514999985694885,-0.6007375121116638,0.007149999961256981
1780563541709983500,7.3789833984375,-0.9514999985694885,-0.6007375121116638,0.007149999961256981
1780563541729512700,7.3985126953125,-1.6913875341415405,0.013612499460577965,-0.15963749587535858
1780563541749047300,7.41804736328125,-1.6913875341415405,0.013612499460577965,-0.15963749587535858
1780563541768580600,7.43758056640625,-1.8965375423431396,0.4188250005245209,-0.30717501044273376
1780563541788112400,7.4571123046875,-1.7375874519348145,0.48317500948905945,-0.32023748755455017
1780563541807641300,7.476641357421875,-1.4272500276565552,0.44343748688697815,-0.2937000095844269
1780563541827165200,7.496165283203125,-1.0997250080108643,0.3718000054359436,-0.26001250743865967
1780563541846689000,7.51568896484375,-0.8842625021934509,0.3554374873638153,-0.25052499771118164
1780563541866215400,7.53521533203125,-0.8842625021934509,0.3554374873638153,-0.25052499771118164
1780563541885741300,7.5547412109375,-0.8093249797821045,0.6755374670028687,-0.3147374987602234
1780563541905266200,7.57426611328125,-0.8093249797821045,0.6755374670028687,-0.3147374987602234
1780563541924794400,7.59379443359375,-0.5057250261306763,1.4822499752044678,-0.18479999899864197
1780563541944322600,7.613322509765625,-0.5057250261306763,1.4822499752044678,-0.18479999899864197
1780563541963849500,7.632849365234375,-0.9057124853134155,1.887737512588501,-0.2815999984741211
1780563541983373300,7.652373291015625,-0.9057124853134155,1.887737512588501,-0.2815999984741211
1780563542002894300,7.671894287109375,-1.2802624702453613,2.326775074005127,-0.2250874936580658
1780563542022415000,7.6914150390625,-1.2802624702453613,2.326775074005127,-0.2250874936580658
1780563542041939000,7.71093896484375,-0.7056499719619751,1.874537467956543,0.013749999925494194
1780563542061469400,7.730469482421875,-0.27527499198913574,1.4777125120162964,0.08415000140666962
1780563542080997400,7.749997314453125,-0.10766249895095825,1.2684375047683716,0.10518749803304672
1780563542100520000,7.76952001953125,-0.10766249895095825,1.2684375047683716,0.10518749803304672
1780563542120045000,7.789045166015625,-1.439074993133545,2.170024871826172,0.370012491941452
1780563542139573800,7.80857373046875,-1.439074993133545,2.170024871826172,0.370012491941452
1780563542159100700,7.8281005859375,-2.8598625659942627,3.184225082397461,1.152250051498413
1780563542178626000,7.8476259765625,-2.8598625659942627,3.184225082397461,1.152250051498413
1780563542198152700,7.867152587890625,-1.805787444114685,1.9834375381469727,1.0404624938964844
1780563542217679600,7.8866796875,-1.0808874368667603,1.1387749910354614,0.6843374967575073
1780563542237202400,7.906202392578125,-0.719124972820282,0.608162522315979,0.39393749833106995
1780563542256724500,7.925724365234375,-0.8123499751091003,0.4907374978065491,0.2521750032901764
1780563542276248000,7.945248046875,-0.8123499751091003,0.4907374978065491,0.2521750032901764
1780563542295768300,7.964768310546875,-1.0513249635696411,0.4987125098705292,0.19511249661445618
1780563542315289300,7.984289306640625,-1.0513249635696411,0.4987125098705292,0.19511249661445618
1780563542334815500,8.0038154296875,-0.007149999961256981,-0.36959999799728394,-0.05115000158548355
1780563542354343000,8.023343017578124,-0.007149999961256981,-0.36959999799728394,-0.05115000158548355
1780563542373867500,8.042867431640625,0.7264124751091003,-0.9259250164031982,-0.19648750126361847
1780563542393390300,8.062390380859375,0.8867374658584595,-1.0205249786376953,-0.1868624985218048
1780563542412915200,8.081915283203125,1.101925015449524,-1.1552749872207642,-0.18108749389648438
1780563542432446000,8.101446044921875,1.4557124376296997,-1.379812479019165,-0.20721249282360077
1780563542451977700,8.120977783203125,1.9349000453948975,-1.6658124923706055,-0.2667500078678131
1780563542471503400,8.14050341796875,1.9349000453948975,-1.6658124923706055,-0.2667500078678131
1780563542491026700,8.160026611328124,2.7823123931884766,-2.0961875915527344,-0.37564998865127563
1780563542510551300,8.17955126953125,2.7823123931884766,-2.0961875915527344,-0.37564998865127563
1780563542530080300,8.199080322265624,3.165524959564209,-2.173462390899658,-0.3073124885559082
1780563542549613600,8.218613525390625,3.165524959564209,-2.173462390899658,-0.3073124885559082
1780563542569144000,8.23814404296875,3.4959375858306885,-2.234100103378296,-0.18892499804496765
1780563542588669000,8.2576689453125,3.445199966430664,-2.1478874683380127,-0.15729999542236328
1780563542608190500,8.2771904296875,3.1972875595092773,-1.9372375011444092,-0.133650004863739
1780563542627715300,8.29671533203125,2.823699951171875,-1.6534374952316284,-0.10284999758005142
1780563542647242000,8.316241943359374,2.4209625720977783,-1.369362473487854,-0.055275000631809235
1780563542666769000,8.335768798828125,2.4209625720977783,-1.369362473487854,-0.055275000631809235
1780563542686290000,8.3552900390625,1.6296499967575073,-0.8526374697685242,0.06599999964237213
1780563542705810700,8.374810791015625,1.6296499967575073,-0.8526374697685242,0.06599999964237213
1780563542725335800,8.394335693359375,1.6296499967575073,-0.8526374697685242,0.06599999964237213
1780563542744853000,8.41385302734375,0.8850874900817871,-0.3531000018119812,0.15331250429153442
1780563542764365600,8.433365478515626,0.5912500023841858,-0.1545500010251999,0.1812250018119812
1780563542783884300,8.45288427734375,0.26124998927116394,0.055687498301267624,0.17008750140666962
1780563542803404300,8.472404296875,0.26124998927116394,0.055687498301267624,0.17008750140666962
1780563542822930200,8.49193017578125,0.09418749809265137,0.15111249685287476,0.020762499421834946
1780563542842459000,8.511458984375,0.09418749809265137,0.15111249685287476,0.020762499421834946
1780563542861985300,8.5309853515625,-0.07507500052452087,0.21642500162124634,-0.058024998754262924
1780563542881512000,8.550511962890624,-0.2755500078201294,0.24034999310970306,-0.1036750003695488
1780563542901038000,8.5700380859375,-0.39668750762939453,0.12017499655485153,-0.11082500219345093
1780563542920564500,8.589564453125,-0.39668750762939453,0.12017499655485153,-0.11082500219345093
1780563542940088000,8.609088134765624,-0.383899986743927,-0.43931248784065247,-0.062150001525878906
1780563542959616000,8.628615966796875,-0.383899986743927,-0.43931248784065247,-0.062150001525878906
1780563542979140900,8.648140869140626,-0.720912516117096,-0.5856124758720398,-0.03932499885559082
1780563542998656300,8.66765625,-0.9964625239372253,-0.5189250111579895,-0.03382499888539314
1780563543018182400,8.687182373046875,-1.2005125284194946,-0.4760249853134155,-0.01993750035762787
1780563543037713400,8.70671337890625,-1.3007500171661377,-0.478362500667572,-0.0015124999918043613
1780563543057240300,8.726240234375,-1.3605624437332153,-0.47946250438690186,0.008112499490380287
1780563543076768500,8.7457685546875,-1.3605624437332153,-0.47946250438690186,0.008112499490380287
1780563543096296400,8.76529638671875,-1.6614124774932861,-0.22893749177455902,-0.04496249929070473
1780563543115820300,8.7848203125,-1.6614124774932861,-0.22893749177455902,-0.04496249929070473
1780563543135342800,8.8043427734375,-1.9533250331878662,0.22632500529289246,-0.14506250619888306
1780563543154869200,8.823869140625,-1.9533250331878662,0.22632500529289246,-0.14506250619888306
1780563543174395000,8.843394775390625,-1.4518624544143677,0.3433375060558319,-0.18177500367164612
1780563543193920000,8.862919921875,-1.1482625007629395,0.3983374834060669,-0.23553749918937683
1780563543213447200,8.882447265625,-0.9476500153541565,0.5201625227928162,-0.31556248664855957
1780563543232971500,8.901971435546875,-0.7870500087738037,0.6621999740600586,-0.3833499848842621
1780563543252496600,8.92149658203125,-0.5615500211715698,0.754462480545044,-0.4057624936103821
1780563543272022800,8.941022705078124,-0.5615500211715698,0.754462480545044,-0.4057624936103821
1780563543291543800,8.960543701171876,0.14506250619888306,0.7280625104904175,-0.3188624978065491
1780563543311061000,8.98006103515625,0.14506250619888306,0.7280625104904175,-0.3188624978065491
1780563543330582500,8.99958251953125,0.4646124839782715,0.8478249907493591,-0.18342499434947968
1780563543350107400,9.019107421875,0.4646124839782715,0.8478249907493591,-0.18342499434947968
1780563543369632000,9.038632080078125,0.04331250116229057,1.9392999410629272,-0.0541750006377697
1780563543389158100,9.058158203125,0.9065374732017517,2.658287525177002,0.08786249905824661
1780563543408682200,9.07768212890625,0.599637508392334,2.038300037384033,0.13420000672340393
1780563543428205300,9.097205322265625,-0.7814124822616577,0.5927624702453613,0.057750001549720764
1780563543447730400,9.11673046875,-1.6791499853134155,-0.148499995470047,0.055275000631809235
1780563543467257900,9.1362578125,-1.6791499853134155,-0.148499995470047,0.055275000631809235
1780563543486786600,9.15578662109375,-2.696237564086914,-0.7095000147819519,0.1251250058412552
1780563543506313500,9.1753134765625,-2.696237564086914,-0.7095000147819519,0.1251250058412552
1780563543525842000,9.194842041015624,-3.5876500606536865,-0.8438374996185303,0.16609999537467957
1780563543545370400,9.214370361328125,-3.5876500606536865,-0.8438374996185303,0.16609999537467957
1780563543564895000,9.23389501953125,-3.430762529373169,-0.4778124988079071,0.30744999647140503
1780563543584418600,9.25341845703125,-1.8354874849319458,-0.30951249599456787,0.1545500010251999
1780563543603942400,9.2729423828125,-0.929224967956543,-0.6527125239372253,-0.11838749796152115
1780563543623465200,9.29246533203125,-0.929224967956543,-0.6527125239372253,-0.11838749796152115
1780563543642988800,9.31198876953125,0.2586374878883362,-1.1318999528884888,-0.27719998359680176
1780563543662514000,9.331513916015625,0.2586374878883362,-1.1318999528884888,-0.27719998359680176
1780563543682039600,9.35103955078125,0.6198499798774719,-1.1695749759674072,-0.23251250386238098
1780563543701570800,9.37057080078125,0.806024968624115,-1.1398749351501465,-0.13296249508857727
1780563543721101300,9.390101318359376,0.9526000022888184,-1.1692999601364136,-0.09872499853372574
1780563543740626200,9.409626220703124,0.9526000022888184,-1.1692999601364136,-0.09872499853372574
1780563543760150300,9.429150390625,1.5943125486373901,-1.551687479019165,-0.3704249858856201
1780563543779672000,9.448672119140625,1.5943125486373901,-1.551687479019165,-0.3704249858856201
1780563543799196700,9.46819677734375,2.5264248847961426,-1.9722999334335327,-0.6441875100135803
1780563543818729000,9.48772900390625,2.9596874713897705,-2.1370248794555664,-0.6921749711036682
1780563543838260000,9.507260009765625,3.3742499351501465,-2.289099931716919,-0.6978124976158142
1780563543857785900,9.526785888671874,3.7237749099731445,-2.404049873352051,-0.6813125014305115
1780563543877313000,9.54631298828125,3.7237749099731445,-2.404049873352051,-0.6813125014305115
1780563543896839700,9.565839599609374,4.017337322235107,-2.406937599182129,-0.638824999332428
1780563543916363500,9.585363525390624,4.017337322235107,-2.406937599182129,-0.638824999332428
1780563543935890400,9.604890380859375,3.7779500484466553,-2.1602625846862793,-0.5520625114440918
1780563543955415000,9.6244150390625,3.7779500484466553,-2.1602625846862793,-0.5520625114440918
1780563543974936000,9.64393603515625,3.032012462615967,-1.6344624757766724,-0.4217124879360199
1780563543994457000,9.66345703125,2.6240499019622803,-1.3403500318527222,-0.37427499890327454
1780563544013979100,9.682979248046875,2.2397375106811523,-1.0685124397277832,-0.340862512588501
1780563544033496600,9.70249658203125,1.8551499843597412,-0.8124874830245972,-0.3158375024795532
1780563544053014300,9.72201416015625,1.4583250284194946,-0.5615500211715698,-0.297962486743927
1780563544072534500,9.741534423828124,1.4583250284194946,-0.5615500211715698,-0.297962486743927
1780563544092055600,9.7610556640625,0.8750500082969666,-0.2465374916791916,-0.31872498989105225
1780563544111578600,9.78057861328125,0.8750500082969666,-0.2465374916791916,-0.31872498989105225
1780563544131099100,9.80009912109375,0.7882875204086304,-0.4692874848842621,-0.43821248412132263
1780563544150621000,9.819620849609375,0.7882875204086304,-0.4692874848842621,-0.43821248412132263
1780563544170145000,9.83914501953125,0.5081999897956848,-0.6385499835014343,-0.4204750061035156
1780563544189667600,9.85866748046875,0.30621248483657837,-0.5889124870300293,-0.41964998841285706
1780563544209188400,9.878188232421875,0.1391499936580658,-0.4937624931335449,-0.48262500762939453
1780563544228711200,9.897711181640625,-0.0031624999828636646,-0.3825249969959259,-0.5876749753952026
1780563544248236800,9.91723681640625,-0.16224999725818634,-0.27293750643730164,-0.683650016784668
1780563544267760000,9.936760009765624,-0.16224999725818634,-0.27293750643730164,-0.683650016784668
1780563544287282000,9.956281982421874,-0.6565625071525574,-0.028049999848008156,-0.7173374891281128
1780563544306806300,9.97580615234375,-0.6565625071525574,-0.028049999848008156,-0.7173374891281128
1780563544326324700,9.99532470703125,-1.1035749912261963,0.05623750016093254,-0.5846499800682068
1780563544345846300,10.01484619140625,-1.1035749912261963,0.05623750016093254,-0.5846499800682068
1780563544365374700,10.034374755859375,-1.1035749912261963,0.05623750016093254,-0.5846499800682068
1780563544384899600,10.053899658203125,-1.3007500171661377,-0.04358749836683273,-0.4529249966144562
1780563544404423000,10.0734228515625,-1.6322624683380127,0.15619999170303345,-0.43738749623298645
1780563544423948300,10.0929482421875,-2.100450038909912,0.5300624966621399,-0.45801249146461487
1780563544443474200,10.11247412109375,-2.4721124172210693,0.8828874826431274,-0.47093749046325684
1780563544463002600,10.132002685546874,-2.2712249755859375,0.9235875010490417,-0.3436124920845032
1780563544482528500,10.151528564453125,-2.2712249755859375,0.9235875010490417,-0.3436124920845032
1780563544502055700,10.1710556640625,-1.7957500219345093,0.6679750084877014,-0.23086249828338623
1780563544521581800,10.190581787109375,-1.2674750089645386,0.37578749656677246,-0.12870000302791595
1780563544541106400,10.2101064453125,-0.8083624839782715,0.15358750522136688,-0.05582499876618385
1780563544560633600,10.229633544921874,-0.8083624839782715,0.15358750522136688,-0.05582499876618385
1780563544580159000,10.249158935546875,-0.24199999868869781,0.08758749812841415,0.01746249943971634
1780563544599683300,10.268683349609375,-0.12319999933242798,0.23471249639987946,0.02667500078678131
1780563544619207400,10.28820751953125,-0.002474999986588955,0.3833499848842621,0.04331250116229057
1780563544638736100,10.307736083984375,0.21408750116825104,0.43092501163482666,0.08882500231266022
1780563544658261800,10.32726171875,0.5077875256538391,0.37661248445510864,0.16197499632835388
1780563544677786400,10.346786376953125,0.5077875256538391,0.37661248445510864,0.16197499632835388
1780563544697314800,10.366314697265626,0.6204000115394592,0.5255249738693237,0.2761000096797943
1780563544716843500,10.385843505859375,0.6204000115394592,0.5255249738693237,0.2761000096797943
1780563544736372200,10.405372314453125,-0.5186499953269958,1.5703874826431274,0.3310999870300293
1780563544755904000,10.424904052734375,-0.5186499953269958,1.5703874826431274,0.3310999870300293
1780563544775434800,10.444434814453125,-1.316562533378601,2.1881749629974365,0.44288748502731323
1780563544794960600,10.463960693359375,-1.3705999851226807,2.170712471008301,0.489362508058548
1780563544814487000,10.483487060546874,-1.4907749891281128,2.1968374252319336,0.5355625152587891
1780563544834015500,10.503015380859376,-1.9014874696731567,2.465787410736084,0.6386874914169312
1780563544853547000,10.522547119140626,-2.554887533187866,2.9503374099731445,0.8619874715805054
1780563544873074200,10.54207421875,-2.554887533187866,2.9503374099731445,0.8619874715805054
1780563544892600300,10.561600341796876,-3.005199909210205,2.6958250999450684,1.1394624710083008
1780563544912129800,10.5811298828125,-3.005199909210205,2.6958250999450684,1.1394624710083008
1780563544931657500,10.600657470703124,-1.717787504196167,1.0888625383377075,0.7412624955177307
1780563544951190000,10.62018994140625,-1.717787504196167,1.0888625383377075,0.7412624955177307
1780563544970722800,10.639722900390625,-0.6489999890327454,0.0494999997317791,0.26413750648498535
1780563544990251000,10.6592509765625,-0.5168625116348267,-0.11467500030994415,0.1551000028848648
1780563545009778000,10.67877783203125,-0.5178250074386597,-0.1461624950170517,0.11027500033378601
1780563545029305000,10.69830517578125,-0.46777498722076416,-0.20666250586509705,0.07315000146627426
1780563545048828700,10.71782861328125,-0.22866250574588776,-0.4338124990463257,-0.005087499972432852
1780563545068350200,10.73735009765625,-0.22866250574588776,-0.4338124990463257,-0.005087499972432852
1780563545087873500,10.75687353515625,0.6466624736785889,-1.2208625078201294,-0.25423750281333923
1780563545107398400,10.7763984375,0.6466624736785889,-1.2208625078201294,-0.25423750281333923
1780563545126920000,10.795919921875,1.2102749347686768,-1.6363874673843384,-0.43821248412132263
1780563545146440700,10.815440673828125,1.2102749347686768,-1.6363874673843384,-0.43821248412132263
1780563545165964300,10.83496435546875,1.539175033569336,-1.7315374612808228,-0.5120499730110168
1780563545185485800,10.85448583984375,1.8299875259399414,-1.8310874700546265,-0.5170000195503235
1780563545205008100,10.874008056640625,2.264625072479248,-1.7389625310897827,-0.44948750734329224
1780563545224535300,10.893535400390626,2.808850049972534,-1.7987749576568604,-0.3712500035762787
1780563545244063000,10.91306298828125,3.3735625743865967,-2.218012571334839,-0.33838748931884766
1780563545263589000,10.932589111328125,3.3735625743865967,-2.218012571334839,-0.33838748931884766
1780563545283118600,10.95211865234375,3.994649887084961,-2.6677749156951904,-0.27403751015663147
1780563545302652000,10.97165185546875,3.994649887084961,-2.6677749156951904,-0.27403751015663147
1780563545322179300,10.991179443359375,3.838862419128418,-2.5361874103546143,-0.2560249865055084
1780563545341702000,11.010701904296875,3.4520750045776367,-2.2068750858306885,-0.2428250014781952
1780563545361225200,11.03022509765625,3.025825023651123,-1.8229750394821167,-0.23100000619888306
1780563545380746500,11.04974658203125,2.35441255569458,-1.208899974822998,-0.2059749960899353
1780563545400270000,11.06927001953125,2.35441255569458,-1.208899974822998,-0.2059749960899353
1780563545419798000,11.088798095703124,2.103749990463257,-1.0078749656677246,-0.1839749962091446
1780563545439326700,11.10832666015625,1.894612431526184,-0.8724374771118164,-0.15303750336170197
1780563545458857000,11.12785693359375,1.6999125480651855,-0.7713750004768372,-0.12182500213384628
1780563545478391300,11.147391357421874,1.6999125480651855,-0.7713750004768372,-0.12182500213384628
1780563545497923300,11.16692333984375,1.2792999744415283,-0.5931749939918518,-0.08030000329017639
1780563545517450200,11.1864501953125,1.2792999744415283,-0.5931749939918518,-0.08030000329017639
1780563545536975400,11.205975341796876,0.8837124705314636,-0.43408748507499695,-0.06270000338554382
1780563545556499700,11.225499755859374,0.8837124705314636,-0.43408748507499695,-0.06270000338554382
1780563545576022300,11.245022216796874,0.44013750553131104,-0.18617500364780426,-0.05128749832510948
1780563545595546000,11.264546142578125,0.15427500009536743,-0.03148749843239784,-0.050324998795986176
1780563545615069400,11.2840693359375,-0.1293874979019165,0.06696250289678574,-0.05321250110864639
1780563545634594600,11.303594482421875,-0.33316248655319214,0.02502499893307686,-0.05884999781847
1780563545654122500,11.32312255859375,-0.43505001068115234,-0.14959999918937683,-0.06861250102519989
1780563545673651200,11.342651123046876,-0.43505001068115234,-0.14959999918937683,-0.06861250102519989
1780563545693178000,11.36217822265625,-0.5780500173568726,-0.4404124915599823,-0.11316250264644623
1780563545712699100,11.38169921875,-0.5780500173568726,-0.4404124915599823,-0.11316250264644623
1780563545732222500,11.401222412109375,-1.1145750284194946,-0.10903749614953995,-0.20679999887943268
1780563545751745800,11.420745849609375,-1.1145750284194946,-0.10903749614953995,-0.20679999887943268
1780563545790802700,11.459802734375,-2.029087543487549,0.645425021648407,-0.32999998331069946
1780563545810328800,11.479328857421875,-2.10471248626709,0.7664250135421753,-0.33178749680519104
1780563545829859300,11.498859375,-2.031975030899048,0.8149625062942505,-0.3097875118255615
1780563545849388500,11.518388427734376,-1.863124966621399,0.8146874904632568,-0.2755500078201294
1780563545868915500,11.53791552734375,-1.863124966621399,0.8146874904632568,-0.2755500078201294
1780563545888443600,11.557443603515624,-1.356024980545044,0.6934124827384949,-0.19318750500679016
1780563545907972600,11.57697265625,-1.356024980545044,0.6934124827384949,-0.19318750500679016
1780563545927500000,11.5965,-0.6040375232696533,0.42803749442100525,-0.08016250282526016
1780563545947030300,11.6160302734375,-0.6040375232696533,0.42803749442100525,-0.08016250282526016
1780563545966559000,11.63555908203125,-0.41772499680519104,0.8475499749183655,-0.1354375034570694
1780563545986090500,11.655090576171874,-0.5487625002861023,1.2504249811172485,-0.14396250247955322
1780563546005620000,11.674619873046876,-0.6007375121116638,1.5093375444412231,-0.1264999955892563
1780563546025148400,11.6941484375,-0.6007375121116638,1.5093375444412231,-0.1264999955892563
1780563546044679400,11.713679443359375,-0.22261250019073486,1.4214749336242676,-0.0752125009894371
1780563546064214000,11.733214111328126,-0.22261250019073486,1.4214749336242676,-0.0752125009894371
1780563546083751700,11.752751708984375,-0.26826250553131104,1.5963749885559082,0.07617499679327011
1780563546103287300,11.772287353515624,-0.26826250553131104,1.5963749885559082,0.07617499679327011
1780563546122820400,11.7918203125,-0.26826250553131104,1.5963749885559082,0.07617499679327011
1780563546142349800,11.811349853515624,-1.2486374378204346,2.4143624305725098,0.3694624900817871
1780563546161874000,11.8308740234375,-1.7203999757766724,2.7373499870300293,0.5722749829292297
1780563546181395700,11.850395751953124,-2.0960500240325928,2.9477250576019287,0.7910374999046326
1780563546200920000,11.869920166015625,-2.433887481689453,3.109837532043457,1.030287504196167
1780563546220448800,11.88944873046875,-2.7703499794006348,3.2583374977111816,1.2887874841690063
1780563546239977000,11.90897705078125,-2.9642250537872314,3.27524995803833,1.5153875350952148
1780563546259507200,11.928507080078125,-2.8279623985290527,3.0014874935150146,1.5839999914169312
1780563546279036700,11.94803662109375,-2.8279623985290527,3.0014874935150146,1.5839999914169312
1780563546298563800,11.967563720703126,-1.8129374980926514,1.695924997329712,0.8903124928474426
1780563546318091800,11.987091796875,-1.8129374980926514,1.695924997329712,0.8903124928474426
1780563546337618200,12.0066181640625,-0.7636749744415283,0.34732499718666077,-0.05115000158548355
1780563546357144800,12.026144775390625,-0.7636749744415283,0.34732499718666077,-0.05115000158548355
1780563546376678400,12.045678466796875,-0.16898749768733978,-0.35378751158714294,-0.19002500176429749
1780563546396213200,12.065213134765624,-0.05321250110864639,-0.5234624743461609,-0.14038750529289246
1780563546415743700,12.08474365234375,0.07562500238418579,-0.7060624957084656,-0.1451999992132187
1780563546435270700,12.104270751953125,0.2703250050544739,-0.9299125075340271,-0.2227499932050705
1780563546454793200,12.123793212890625,0.4959625005722046,-1.1573375463485718,-0.3445749878883362
1780563546474319400,12.1433193359375,0.4959625005722046,-1.1573375463485718,-0.3445749878883362
1780563546493849000,12.16284912109375,0.9207000136375427,-1.5389000177383423,-0.5439500212669373
1780563546513384700,12.182384765625,0.9207000136375427,-1.5389000177383423,-0.5439500212669373
1780563546532926000,12.201926025390625,1.9967750310897827,-2.273974895477295,-0.3128125071525574
1780563546552461800,12.2214619140625,1.9967750310897827,-2.273974895477295,-0.3128125071525574
1780563546571991600,12.240991455078126,3.231800079345703,-2.9422249794006348,0.06971249729394913
1780563546591523000,12.260523193359376,3.4959375858306885,-2.967525005340576,0.14011250436306
1780563546611054000,12.28005419921875,3.6013998985290527,-2.851749897003174,0.14313749969005585
1780563546630586000,12.299586181640626,3.6529624462127686,-2.692387580871582,0.11495000123977661
1780563546650118000,12.319117919921876,3.689812421798706,-2.552687406539917,0.0849749967455864
1780563546669648400,12.3386484375,3.689812421798706,-2.552687406539917,0.0849749967455864
1780563546689176300,12.35817626953125,3.5464000701904297,-2.2510125637054443,0.05609999969601631
1780563546708703000,12.377702880859376,3.5464000701904297,-2.2510125637054443,0.05609999969601631
1780563546728228400,12.397228271484375,2.766087532043457,-1.547974944114685,0.06379999965429306
1780563546747756000,12.416756103515626,2.766087532043457,-1.547974944114685,0.06379999965429306
1780563546767281200,12.43628125,1.7562874555587769,-0.6642624735832214,0.08236250281333923
1780563546786804200,12.45580419921875,1.7562874555587769,-0.6642624735832214,0.08236250281333923
1780563546806330600,12.47533056640625,1.049399971961975,-0.1979999989271164,0.09542500227689743
1780563546825858600,12.494858642578125,0.8398500084877014,-0.15207499265670776,0.0999625027179718
1780563546845387800,12.5143876953125,0.6518874764442444,-0.10257499665021896,0.10188750177621841
1780563546864919600,12.53391943359375,0.3854124844074249,0.08483749628067017,0.09652499854564667
1780563546884451000,12.553451171875,0.3854124844074249,0.08483749628067017,0.09652499854564667
1780563546903984400,12.572984375,0.009349999949336052,0.43353748321533203,0.08442500233650208
1780563546923518000,12.59251806640625,-0.6430875062942505,0.856487512588501,0.050324998795986176
1780563546943051300,12.61205126953125,-0.6430875062942505,0.856487512588501,0.050324998795986176
1780563546962586400,12.63158642578125,-0.6430875062942505,0.856487512588501,0.050324998795986176
1780563546982119200,12.651119140625,-0.6771875023841858,0.16733749210834503,-0.01691249944269657
1780563547001653200,12.6706533203125,-0.650237500667572,-0.17352500557899475,-0.08153750002384186
1780563547021188000,12.69018798828125,-0.6626124978065491,-0.3431999981403351,-0.17242500185966492
1780563547040719600,12.7097197265625,-0.6776000261306763,-0.43738749623298645,-0.2619374990463257
1780563547060252200,12.729252197265625,-0.6700375080108643,-0.5894625186920166,-0.3082749843597412
1780563547079786200,12.7487861328125,-0.6700375080108643,-0.5894625186920166,-0.3082749843597412
1780563547099317800,12.76831787109375,-0.5879499912261963,-1.0909249782562256,-0.20569999516010284
1780563547118844700,12.7878447265625,-0.5879499912261963,-1.0909249782562256,-0.20569999516010284
1780563547138372600,12.80737255859375,-0.6880499720573425,-1.2505625486373901,-0.018837500363588333
1780563547157901600,12.826901611328125,-0.6880499720573425,-1.2505625486373901,-0.018837500363588333
1780563547177428500,12.846428466796874,-1.253999948501587,-0.7495124936103821,-0.03368749842047691
1780563547196952800,12.865952880859375,-1.5443999767303467,-0.427762508392334,-0.09116250276565552
1780563547216476000,12.885475830078125,-1.64986252784729,-0.21051250398159027,-0.1153625026345253
1780563547236005600,12.905005615234375,-1.5419249534606934,-0.11288750171661377,-0.09212499856948853
1780563547255535000,12.92453515625,-1.3059749603271484,-0.07411249727010727,-0.045787498354911804
1780563547275057700,12.9440576171875,-1.3059749603271484,-0.07411249727010727,-0.045787498354911804
1780563547294577000,12.963576904296875,-0.8263750076293945,0.0695749968290329,-0.01223750039935112
1780563547314096400,12.983096435546875,-0.8263750076293945,0.0695749968290329,-0.01223750039935112
1780563547333617400,13.002617431640624,-0.4431625008583069,0.359562486410141,-0.07122500240802765
1780563547353140000,13.022139892578124,-0.4431625008583069,0.359562486410141,-0.07122500240802765
1780563547372667000,13.0416669921875,0.016499999910593033,0.6265875101089478,-0.03671250119805336
1780563547392196000,13.061196044921875,0.12581250071525574,0.7972249984741211,-0.005499999970197678
1780563547411725000,13.08072509765625,0.09748750180006027,1.0003124475479126,0.011549999937415123
1780563547431255300,13.10025537109375,-0.12113749980926514,1.294700026512146,-0.004399999976158142
1780563547450781000,13.119781005859375,-0.6712750196456909,1.8320499658584595,-0.07163749635219574
1780563547470304500,13.139304443359375,-0.6712750196456909,1.8320499658584595,-0.07163749635219574
1780563547489835500,13.15883544921875,-2.6967875957489014,3.512850046157837,-0.12870000302791595
1780563547509363500,13.178363525390624,-2.6967875957489014,3.512850046157837,-0.12870000302791595
1780563547528886500,13.197886474609374,-3.6646499633789062,4.077287673950195,0.21601249277591705
1780563547548411600,13.21741162109375,-3.6646499633789062,4.077287673950195,0.21601249277591705
1780563547567937500,13.2369375,-3.214200019836426,3.426224946975708,0.5493124723434448
1780563547587464200,13.256464111328125,-3.214200019836426,3.426224946975708,0.5493124723434448
1780563547606989600,13.275989501953125,-3.1978375911712646,3.212137460708618,0.8826124668121338
1780563547626516200,13.29551611328125,-2.903174877166748,2.846937417984009,0.8677625060081482
1780563547646044000,13.3150439453125,-2.2407000064849854,2.0810625553131104,0.5953750014305115
1780563547665571800,13.33457177734375,-2.2407000064849854,2.0810625553131104,0.5953750014305115
1780563547685102000,13.35410205078125,-2.2407000064849854,2.0810625553131104,0.5953750014305115
1780563547704634000,13.373634033203125,-0.5325375199317932,0.03959999978542328,-0.42473748326301575
1780563547724163000,13.3931630859375,-0.5325375199317932,0.03959999978542328,-0.42473748326301575
1780563547743689700,13.412689697265625,-0.9366499781608582,0.3236750066280365,-0.24433749914169312
1780563547763216000,13.4322158203125,-0.9366499781608582,0.3236750066280365,-0.24433749914169312
1780563547782741200,13.4517412109375,-0.9366499781608582,0.3236750066280365,-0.24433749914169312
1780563547802263000,13.471262939453124,-0.5711749792098999,-0.15111249685287476,-0.19470000267028809
1780563547821782300,13.4907822265625,-0.07617499679327011,-0.7100499868392944,-0.20308749377727509
1780563547841299200,13.51029931640625,0.3636874854564667,-1.1901999711990356,-0.11701250076293945
1780563547860821500,13.529821533203124,0.8478249907493591,-1.548662543296814,-0.12594999372959137
1780563547880347600,13.54934765625,0.8478249907493591,-1.548662543296814,-0.12594999372959137
1780563547899868000,13.568867919921875,2.1337249279022217,-2.310962438583374,-0.2256374955177307
1780563547919390000,13.588389892578125,2.1337249279022217,-2.310962438583374,-0.2256374955177307
1780563547938911000,13.607910888671874,3.575962543487549,-3.159475088119507,-0.15798750519752502
1780563547958430700,13.6274306640625,3.575962543487549,-3.159475088119507,-0.15798750519752502
1780563547977956900,13.646956787109374,4.162399768829346,-3.269200086593628,-0.05197500064969063
1780563547997486600,13.666486572265624,4.2175374031066895,-3.154249906539917,0.011549999937415123
1780563548017014300,13.68601416015625,4.241737365722656,-3.064462423324585,0.08249999582767487
1780563548036537600,13.70553759765625,4.202274799346924,-2.969587564468384,0.15386250615119934
1780563548056062500,13.7250625,4.202274799346924,-2.969587564468384,0.15386250615119934
1780563548075588600,13.744588623046875,3.6073124408721924,-2.3938748836517334,0.24860000610351562
1780563548095114500,13.764114501953125,3.6073124408721924,-2.3938748836517334,0.24860000610351562
1780563548114641400,13.783641357421875,2.3838374614715576,-1.2820500135421753,0.27527499198913574
1780563548134165500,13.80316552734375,2.3838374614715576,-1.2820500135421753,0.27527499198913574
1780563548153687800,13.822687744140625,1.3860000371932983,-0.4259749948978424,0.25011250376701355
1780563548173213000,13.842212890625,1.3860000371932983,-0.4259749948978424,0.25011250376701355
1780563548192740600,13.86174072265625,0.9897249937057495,-0.19813749194145203,0.16224999725818634
1780563548212266200,13.881266357421875,0.9053000211715698,-0.2079000025987625,0.10779999941587448
1780563548231788800,13.900788818359375,0.7943375110626221,-0.1938749998807907,0.05898749828338623
1780563548251309300,13.920309326171875,0.6337375044822693,-0.11604999750852585,0.021037500351667404
1780563548270830800,13.939830810546875,0.6337375044822693,-0.11604999750852585,0.021037500351667404
1780563548290353400,13.959353515625,0.2670249938964844,0.13433749973773956,-0.032862499356269836
1780563548309879000,13.978879150390625,0.2670249938964844,0.13433749973773956,-0.032862499356269836
1780563548329408300,13.998408203125,0.18232500553131104,-0.09308750182390213,-0.0752125009894371
1780563548348932400,14.017932373046875,0.18232500553131104,-0.09308750182390213,-0.0752125009894371
1780563548368457200,14.037457275390626,0.24227499961853027,-0.6646749973297119,-0.030937500298023224
1780563548387990000,14.056989990234374,0.20666250586509705,-0.8673499822616577,0.006599999964237213
1780563548407519200,14.076519287109376,0.02474999986588955,-0.9193249940872192,0.011137500405311584
1780563548427046700,14.096046630859375,-0.3338499963283539,-0.7878749966621399,-0.036024998873472214
1780563548446571500,14.115571533203125,-0.8025875091552734,-0.5227749943733215,-0.12264999747276306
1780563548466096000,14.13509619140625,-0.8025875091552734,-0.5227749943733215,-0.12264999747276306
1780563548485621500,14.15462158203125,-1.6651250123977661,0.07081250101327896,-0.2820124924182892
1780563548505145900,14.174145751953125,-1.6651250123977661,0.07081250101327896,-0.2820124924182892
1780563548524672000,14.193672119140626,-1.9251375198364258,0.3057999908924103,-0.28228750824928284
1780563548544194000,14.213194091796876,-1.9251375198364258,0.3057999908924103,-0.28228750824928284
1780563548563716600,14.232716552734376,-1.9251375198364258,0.3057999908924103,-0.28228750824928284
1780563548583242200,14.2522421875,-1.4507625102996826,0.31308749318122864,-0.1451999992132187
1780563548602767000,14.27176708984375,-1.4507625102996826,0.31308749318122864,-0.1451999992132187
1780563548622294000,14.2912939453125,-1.4507625102996826,0.31308749318122864,-0.1451999992132187
1780563548641815300,14.310815185546875,-1.4687750339508057,0.6993250250816345,-0.13750000298023224
1780563548661334800,14.330334716796875,-1.27943754196167,0.735212504863739,-0.0943249985575676
1780563548680855000,14.34985498046875,-0.9641500115394592,0.6608250141143799,-0.03712499886751175
1780563548700379400,14.36937939453125,-0.9641500115394592,0.6608250141143799,-0.03712499886751175
1780563548719909000,14.3889091796875,-0.5170000195503235,0.7115625143051147,-0.004124999977648258
1780563548739439000,14.408439208984374,-0.5170000195503235,0.7115625143051147,-0.004124999977648258
1780563548758964200,14.427964111328125,-0.6304374933242798,1.3490124940872192,-0.053075000643730164
1780563548778491400,14.447491455078126,-0.6304374933242798,1.3490124940872192,-0.053075000643730164
1780563548798024200,14.467024169921874,-0.4998124837875366,1.6236000061035156,0.060362499207258224
1780563548817554400,14.486554443359376,-0.3788124918937683,1.6141124963760376,0.15015000104904175
1780563548837082000,14.50608203125,-0.39201250672340393,1.6711750030517578,0.08016250282526016
1780563548856607200,14.525607177734376,-0.7196750044822693,1.9369624853134155,0.13241249322891235
1780563548876131000,14.545131103515626,-0.7196750044822693,1.9369624853134155,0.13241249322891235
1780563548895651800,14.56465185546875,-2.2789249420166016,1.8306750059127808,0.24557499587535858
1780563548915169800,14.584169677734375,-2.2789249420166016,1.8306750059127808,0.24557499587535858
1780563548934696200,14.6036962890625,-3.365999937057495,0.2129874974489212,1.066312551498413
1780563548954225700,14.6232255859375,-3.365999937057495,0.2129874974489212,1.066312551498413
1780563548973750800,14.642750732421876,-5.497112274169922,0.30662500858306885,1.9449374675750732
1780563548993275100,14.662275146484374,-5.540562629699707,1.0869375467300415,2.749037504196167
1780563549012801800,14.6818017578125,-4.212037563323975,1.1602250337600708,3.182574987411499
1780563549032333000,14.7013330078125,-2.244687557220459,0.7860875129699707,3.1762499809265137
1780563549051861200,14.720861328125,-0.31033748388290405,0.24461250007152557,2.797574996948242
1780563549071387100,14.74038720703125,-0.31033748388290405,0.24461250007152557,2.797574996948242
1780563549090914800,14.759914794921874,2.390437602996826,-0.5885000228881836,1.5331250429153442
1780563549110443300,14.779443359375,2.390437602996826,-0.5885000228881836,1.5331250429153442
1780563549129975000,14.79897509765625,3.293262481689453,-0.743737518787384,0.7063375115394592
1780563549149506600,14.818506591796876,3.293262481689453,-0.743737518787384,0.7063375115394592
1780563549169033700,14.83803369140625,4.5120625495910645,-0.7345250248908997,0.38128748536109924
1780563549188560600,14.857560546875,5.050512313842773,-0.7107374668121338,0.4071374833583832
1780563549208088600,14.877088623046875,4.986712455749512,-0.6539499759674072,0.526075005531311
1780563549227616800,14.89661669921875,4.3769001960754395,-0.5729625225067139,0.6769124865531921
1780563549247141600,14.9161416015625,3.6253249645233154,-0.4846875071525574,0.8185374736785889
1780563549266666000,14.935666015625,3.6253249645233154,-0.4846875071525574,0.8185374736785889
1780563549286189600,14.955189453125,2.4154624938964844,-0.29727500677108765,0.9880750179290771
1780563549305710600,14.974710693359375,2.4154624938964844,-0.29727500677108765,0.9880750179290771
1780563549325232400,14.994232421875,1.4003000259399414,-0.07590000331401825,0.9402250051498413
1780563549344755200,15.013755126953125,0.9158874750137329,0.03849999979138374,0.878350019454956
1780563549364277800,15.03327783203125,0.9158874750137329,0.03849999979138374,0.878350019454956
1780563549383803600,15.0528037109375,0.5130124688148499,0.13488750159740448,0.8271999955177307
1780563549403332000,15.07233203125,0.20583750307559967,0.20212499797344208,0.8035500049591064
1780563549422860300,15.0918603515625,-0.24584999680519104,0.2451625019311905,0.8610249757766724
1780563549442390500,15.111390625,-0.24584999680519104,0.2451625019311905,0.8610249757766724
1780563549461919200,15.130919189453126,-0.4758875072002411,0.22866250574588776,0.9124500155448914
1780563549481447000,15.150447021484375,-0.6740249991416931,0.2032250016927719,0.9372000098228455
1780563549500977000,15.169976806640625,-0.7799000144004822,0.18521249294281006,0.9208375215530396
1780563549520504000,15.189504150390626,-0.7799000144004822,0.18521249294281006,0.9208375215530396
1780563549540033000,15.209032958984375,-0.7279250025749207,0.17544999718666077,0.7929624915122986
1780563549559561000,15.22856103515625,-0.7279250025749207,0.17544999718666077,0.7929624915122986
1780563549579086600,15.248086669921875,-0.6976749897003174,0.1424500048160553,0.6806250214576721
1780563549598611700,15.26761181640625,-0.6488624811172485,0.15372499823570251,0.6447374820709229
1780563549618134500,15.287134521484376,-0.5324000120162964,0.19415000081062317,0.6022499799728394
1780563549637658600,15.30665869140625,-0.38266250491142273,0.2410375028848648,0.5380374789237976
1780563549657187000,15.32618701171875,-0.23017500340938568,0.2817375063896179,0.445499986410141
1780563549676715800,15.3457158203125,-0.23017500340938568,0.2817375063896179,0.445499986410141
1780563549696242200,15.3652421875,0.0789249986410141,0.36134999990463257,0.202674999833107
1780563549715768300,15.384768310546875,0.0789249986410141,0.36134999990463257,0.202674999833107
1780563549735295500,15.40429541015625,0.3221625089645386,0.41222500801086426,-0.028599999845027924
1780563549754819800,15.42381982421875,0.3221625089645386,0.41222500801086426,-0.028599999845027924
1780563549774343000,15.443343017578124,0.47286251187324524,0.41222500801086426,-0.24268749356269836
1780563549793867800,15.46286767578125,0.44591251015663147,0.3796375095844269,-0.3254624903202057
1780563549813396200,15.482396240234374,0.33082500100135803,0.32381248474121094,-0.36973750591278076
1780563549832923400,15.50192333984375,0.16128750145435333,0.2516250014305115,-0.370012491941452
1780563549852447000,15.521447021484375,-0.012649999931454659,0.17311249673366547,-0.3315125107765198
1780563549871974400,15.540974365234375,-0.012649999931454659,0.17311249673366547,-0.3315125107765198
1780563549891501800,15.560501708984376,-0.2513499855995178,0.03863750025629997,-0.16362500190734863
1780563549911023900,15.58002392578125,-0.2513499855995178,0.03863750025629997,-0.16362500190734863
1780563549930546700,15.599546630859376,-0.39943748712539673,-0.07713750004768372,0.07617499679327011
1780563549950064600,15.619064697265625,-0.39943748712539673,-0.07713750004768372,0.07617499679327011
1780563549969582000,15.63858203125,-0.34581249952316284,-0.1498750001192093,0.18507499992847443
1780563549989102800,15.658102783203125,-0.24131250381469727,-0.16403749585151672,0.1471250057220459
1780563550008622800,15.677622802734374,-0.148499995470047,-0.17104999721050262,0.07369999587535858
1780563550028148200,15.697148193359375,-0.10807500034570694,-0.172837495803833,-0.0013749999925494194
1780563550047673000,15.716673095703126,-0.14588749408721924,-0.17489999532699585,-0.04936249926686287
1780563550067197400,15.736197509765624,-0.14588749408721924,-0.17489999532699585,-0.04936249926686287
1780563550086718200,15.75571826171875,-0.38321250677108765,-0.19717499613761902,-0.04702499881386757
1780563550106239000,15.775239013671875,-0.38321250677108765,-0.19717499613761902,-0.04702499881386757
1780563550125763300,15.794763427734376,-0.4824874997138977,-0.20047499239444733,0.007287499960511923
1780563550145288000,15.814287841796874,-0.4824874997138977,-0.20047499239444733,0.007287499960511923
1780563550164814800,15.83381494140625,-0.46915000677108765,-0.18191249668598175,0.040424998849630356
1780563550184342500,15.853342529296874,-0.4823499917984009,-0.16830000281333923,0.08524999767541885
1780563550203866600,15.87286669921875,-0.5593500137329102,-0.18342499434947968,0.1699499934911728
1780563550223392500,15.892392578125,-0.9517750144004822,-0.36588749289512634,0.5699374675750732
1780563550242923000,15.911923095703125,-0.9517750144004822,-0.36588749289512634,0.5699374675750732
1780563550262454000,15.9314541015625,-0.9517750144004822,-0.36588749289512634,0.5699374675750732
1780563550281980200,15.950980224609374,-1.1662750244140625,-0.534600019454956,0.7585874795913696
1780563550301502200,15.970502197265626,-0.9926124811172485,-0.4987125098705292,0.5002250075340271
1780563550321027000,15.990027099609375,-0.7041375041007996,-0.40507498383522034,0.0775500014424324
1780563550340552200,16.00955224609375,-0.7041375041007996,-0.40507498383522034,0.0775500014424324
1780563550360076800,16.029076904296875,-0.16335000097751617,-0.19538749754428864,-0.6335999965667725
1780563550379606800,16.048606689453123,-0.16335000097751617,-0.19538749754428864,-0.6335999965667725
1780563550399146800,16.068146728515625,0.368087500333786,-0.013749999925494194,-0.8744999766349792
1780563550418687500,16.0876875,0.5802500247955322,0.048262499272823334,-0.8901749849319458
1780563550438217500,16.107217529296875,0.6395124793052673,0.07012499868869781,-0.8471375107765198
1780563550457744600,16.12674462890625,0.5601750016212463,0.05321250110864639,-0.7634000182151794
1780563550477276000,16.14627587890625,0.5601750016212463,0.05321250110864639,-0.7634000182151794
1780563550496809700,16.165809814453127,0.33838748931884766,-0.013612499460577965,-0.5350124835968018
1780563550516340000,16.185340087890626,0.33838748931884766,-0.013612499460577965,-0.5350124835968018
1780563550535870500,16.204870361328126,0.3067624866962433,-0.018287500366568565,-0.25286251306533813
1780563550555408100,16.224408203125,0.3067624866962433,-0.018287500366568565,-0.25286251306533813
1780563550574948600,16.243948486328126,0.3195500075817108,0.00013749999925494194,-0.006599999964237213
1780563550594490600,16.26349072265625,0.3396250009536743,0.010037500411272049,0.060362499207258224
1780563550614031000,16.283031005859375,0.35612499713897705,0.015537500381469727,0.0873124971985817
1780563550633561600,16.3025615234375,0.3390749990940094,0.010449999943375587,0.08841250091791153
1780563550653091600,16.322091552734374,0.28022500872612,-0.002749999985098839,0.08415000140666962
1780563550672625700,16.341625732421875,0.28022500872612,-0.002749999985098839,0.08415000140666962
1780563550692157200,16.3611572265625,0.14904999732971191,-0.0193875003606081,0.07975000143051147
1780563550711686100,16.38068603515625,0.14904999732971191,-0.0193875003606081,0.07975000143051147
1780563550731212000,16.4002119140625,0.07452499866485596,-0.029975000768899918,0.040150001645088196
1780563550750735400,16.4197353515625,0.07452499866485596,-0.029975000768899918,0.040150001645088196
1780563550770253600,16.439253662109376,0.17613749206066132,0.027637500315904617,-0.05816249921917915
1780563550789770800,16.458770751953125,0.284074991941452,0.08635000139474869,-0.10752499848604202
1780563550809288400,16.478288330078126,0.36355000734329224,0.13653749227523804,-0.14066250622272491
1780563550828807400,16.497807373046875,0.38981249928474426,0.16596250236034393,-0.1555124968290329
1780563550848332000,16.51733203125,0.37441250681877136,0.17641249299049377,-0.15908749401569366
1780563550867861200,16.536861328125,0.37441250681877136,0.17641249299049377,-0.15908749401569366
1780563550887392000,16.55639208984375,0.2657875120639801,0.15702499449253082,-0.15427500009536743
1780563550906919700,16.575919677734376,0.2657875120639801,0.15702499449253082,-0.15427500009536743
1780563550926446600,16.595446533203123,0.19002500176429749,0.13378749787807465,-0.16499999165534973
