time,seconds_elapsed,z,y,x
1780563534788972300,0.45797216796875,9.685050010681152,0.5370000004768372,0.2670000195503235
1780563534798735400,0.4677353515625,9.628950119018555,0.5820000171661377,0.19905000925064087
1780563534818262500,0.487262451171875,9.580950736999512,0.6409500241279602,0.10305000841617584
1780563534837784000,0.5067841796875,9.597000122070312,0.6330000162124634,0.0070500001311302185
1780563534857303600,0.526303466796875,9.642000198364258,0.5520000457763672,-0.04200000315904617
1780563534876826600,0.54582666015625,9.72195053100586,0.4320000112056732,-0.025950001552700996
1780563534896349200,0.56534912109375,9.757050514221191,0.361050009727478,-0.003000000026077032
1780563534915867100,0.5848671875,9.681000709533691,0.43095001578330994,0.013950000517070293
1780563534935383000,0.604383056640625,9.528000831604004,0.6139500141143799,0.004050000105053186
1780563534954903000,0.623903076171875,9.396000862121582,0.7500000596046448,0.06300000101327896
1780563534974424600,0.643424560546875,9.397050857543945,0.8050500154495239,0.23100000619888306
1780563534993948700,0.66294873046875,9.544050216674805,0.6720000505447388,0.43095001578330994
1780563535013474000,0.68247412109375,9.799050331115723,0.47505003213882446,0.559950053691864
1780563535032998000,0.701997802734375,9.97095012664795,0.4440000355243683,0.5230500102043152
1780563535052519400,0.72151953125,9.963000297546387,0.51705002784729,0.4159500300884247
1780563535072041000,0.741041015625,9.802950859069824,0.6520500183105469,0.40995001792907715
1780563535091561000,0.76056103515625,9.598050117492676,0.8050500154495239,0.5389500260353088
1780563535111078400,0.780078369140625,9.406949996948242,0.8419500589370728,0.7480500340461731
1780563535130595300,0.79959521484375,9.375,0.7999500632286072,0.9190500378608704
1780563535150113800,0.81911376953125,9.517050743103027,0.781950056552887,0.9100500345230103
1780563535169636000,0.838635986328125,9.690000534057617,0.781950056552887,0.8059500455856323
1780563535189159400,0.858159423828125,9.760950088500977,0.7510500550270081,0.661050021648407
1780563535208684000,0.87768408203125,9.706950187683105,0.6739500164985657,0.5879999995231628
1780563535228209400,0.89720947265625,9.594000816345215,0.609000027179718,0.6910500526428223
1780563535247730000,0.91672998046875,9.529950141906738,0.6390000581741333,0.8260500431060791
1780563535267251500,0.93625146484375,9.601950645446777,0.7110000252723694,0.9130500555038452
1780563535286774000,0.95577392578125,9.69105052947998,0.8230500221252441,0.8850000500679016
1780563535306292000,0.9752919921875,9.757950782775879,0.8850000500679016,0.739050030708313
1780563535325812500,0.9948125,9.804000854492188,0.8290500640869141,0.6049500107765198
1780563535345331000,1.0143310546875,9.813000679016113,0.8719500303268433,0.51705002784729
1780563535364846800,1.033846923828125,9.820950508117676,0.9720000624656677,0.4740000367164612
1780563535384366600,1.05336669921875,9.78600025177002,1.0519500970840454,0.48000001907348633
1780563535403890700,1.072890625,9.676950454711914,1.059000015258789,0.4830000102519989
1780563535423415600,1.09241552734375,9.529050827026367,0.9570000171661377,0.4510500133037567
1780563535442936300,1.111936279296875,9.385950088500977,0.8730000257492065,0.34800001978874207
1780563535462456000,1.1314560546875,9.32295036315918,0.8820000290870667,0.17295001447200775
1780563535481978400,1.150978271484375,9.339000701904297,0.9570000171661377,0.040950000286102295
1780563535501502700,1.170502685546875,9.427950859069824,0.9970500469207764,0.04800000041723251
1780563535521030100,1.190030029296875,9.540000915527344,1.024049997329712,0.13305000960826874
1780563535540559600,1.2095595703125,9.601950645446777,0.9910500645637512,0.19200000166893005
1780563535560087800,1.229087890625,9.604950904846191,0.9490500688552856,0.15000000596046448
1780563535579618600,1.24861865234375,9.51300048828125,0.931950032711029,0.036000002175569534
1780563535599150000,1.268150146484375,9.402000427246094,0.8860500454902649,-0.027000000700354576
1780563535618679000,1.287678955078125,9.322050094604492,0.8790000677108765,0.034050002694129944
1780563535638206500,1.30720654296875,9.261000633239746,0.9190500378608704,0.09195000678300858
1780563535657737500,1.326737548828125,9.256050109863281,1.0309500694274902,0.0580500029027462
1780563535677271300,1.346271240234375,9.20895004272461,1.120050072669983,-0.08205000311136246
1780563535696800500,1.365800537109375,9.076950073242188,1.1959500312805176,-0.30900001525878906
1780563535716328400,1.385328369140625,8.937000274658203,1.180050015449524,-0.4900500178337097
1780563535735861800,1.40486181640625,8.832000732421875,1.0249500274658203,-0.6060000061988831
1780563535755396600,1.424396728515625,8.970000267028809,0.9169500470161438,-0.6720000505447388
1780563535774924800,1.4439248046875,9.37695026397705,0.7600500583648682,-0.6690000295639038
1780563535794449700,1.46344970703125,9.91200065612793,0.6550500392913818,-0.700950026512146
1780563535813973800,1.482973876953125,10.404000282287598,0.5839500427246094,-0.8329500555992126
1780563535833498000,1.502498046875,10.545000076293945,0.41895002126693726,-1.0210500955581665
1780563535853025500,1.522025634765625,10.474950790405273,0.2580000162124634,-1.215000033378601
1780563535872553200,1.54155322265625,10.266000747680664,0.14805001020431519,-1.2250500917434692
1780563535892079900,1.561079833984375,9.991050720214844,0.21000000834465027,-1.0780500173568726
1780563535911606800,1.580606689453125,9.597000122070312,0.42000001668930054,-0.9490500688552856
1780563535931134000,1.600134033203125,9.136950492858887,0.6640500426292419,-0.817050039768219
1780563535950659300,1.619659423828125,8.80305004119873,0.8890500664710999,-0.8070000410079956
1780563535970186000,1.63918603515625,8.78700065612793,0.9790500402450562,-0.8839500546455383
1780563535989714700,1.658714599609375,9.253050804138184,0.973050057888031,-0.8179500102996826
1780563536009241600,1.67824169921875,9.874950408935547,1.01295006275177,-0.7099500298500061
1780563536028768300,1.697768310546875,10.281000137329102,1.0939500331878662,-0.6709500551223755
1780563536048292900,1.71729296875,10.165050506591797,0.9820500612258911,-0.6460500359535217
1780563536067815200,1.736815185546875,9.616050720214844,0.8460000157356262,-0.6619500517845154
1780563536087339300,1.75633935546875,8.9839506149292,0.8830500245094299,-0.8269500136375427
1780563536106869500,1.775869384765625,8.556000709533691,1.0429500341415405,-0.9949500560760498
1780563536126401500,1.795401611328125,8.593950271606445,1.4520000219345093,-1.1040000915527344
1780563536145934000,1.81493408203125,8.968050003051758,1.8499500751495361,-1.2420001029968262
1780563536165464300,1.83446435546875,9.289950370788574,1.9590001106262207,-1.2390000820159912
1780563536184988200,1.85398828125,9.43005084991455,1.7680500745773315,-1.0600500106811523
1780563536204509000,1.873509033203125,9.394950866699219,1.3780500888824463,-0.817050039768219
1780563536224032800,1.89303271484375,9.315000534057617,1.068000078201294,-0.6180000305175781
1780563536243559700,1.9125595703125,9.310050010681152,1.0339500904083252,-0.5989500284194946
1780563536263087000,1.932087158203125,9.352950096130371,1.284000039100647,-0.7579500079154968
1780563536282612700,1.95161279296875,9.300000190734863,1.6189501285552979,-0.9370500445365906
1780563536302137000,1.97113720703125,8.964000701904297,1.9170000553131104,-1.0110000371932983
1780563536321664800,1.990664794921875,8.359050750732422,2.0869500637054443,-1.0030500888824463
1780563536341195800,2.01019580078125,7.846050262451172,2.009999990463257,-1.01895010471344
1780563536360723000,2.029722900390625,7.642950534820557,1.7500500679016113,-0.9940500259399414
1780563536380245200,2.049245361328125,7.974000453948975,1.2790501117706299,-0.9289500713348389
1780563536399761700,2.06876171875,9.80505084991455,0.6799500584602356,-0.8790000677108765
1780563536419276300,2.0882763671875,10.059000015258789,0.16905000805854797,-0.8929500579833984
1780563536438796800,2.107796875,10.123950004577637,-0.20205001533031464,-0.9600000381469727
1780563536458321700,2.12732177734375,9.805950164794922,-0.47805002331733704,-0.999000072479248
1780563536477844000,2.146843994140625,9.62505054473877,-0.5520000457763672,-0.9690000414848328
1780563536497366800,2.16636669921875,9.664050102233887,-0.5269500017166138,-0.8490000367164612
1780563536516888300,2.185888427734375,9.868950843811035,-0.4320000112056732,-0.6970500349998474
1780563536536407300,2.2054072265625,9.98805046081543,-0.40605002641677856,-0.6100500226020813
1780563536555926500,2.224926513671875,9.75,-0.6780000329017639,-0.595050036907196
1780563536575445800,2.24444580078125,9.487950325012207,-1.1340000629425049,-0.6660000085830688
1780563536594965000,2.263965087890625,9.621000289916992,-1.576050043106079,-0.7369500398635864
1780563536614481700,2.283481689453125,10.210050582885742,-1.7820000648498535,-0.7210500240325928
1780563536633997600,2.30299755859375,11.449950218200684,-1.8409501314163208,-0.6019500494003296
1780563536653515800,2.322515869140625,9.805950164794922,-1.7290500402450562,-0.3720000088214874
1780563536673036300,2.342036376953125,9.304950714111328,-1.5150001049041748,-0.30300000309944153
1780563536692559400,2.361559326171875,7.624950408935547,-1.2919501066207886,-0.31800001859664917
1780563536712084000,2.381083984375,7.494000434875488,-1.0350000858306885,-0.38100001215934753
1780563536731605800,2.400605712890625,7.785000324249268,-0.9810000658035278,-0.4300500154495239
1780563536751128600,2.420128662109375,8.361000061035156,-1.1509500741958618,-0.32895001769065857
1780563536770650600,2.439650634765625,8.995050430297852,-1.5049500465393066,-0.2770500183105469
1780563536790169300,2.45916943359375,9.361950874328613,-1.8900001049041748,-0.35895001888275146
1780563536809694000,2.47869384765625,9.415050506591797,-2.124000072479248,-0.7240500450134277
1780563536829223000,2.498222900390625,9.241050720214844,-2.224950075149536,-1.26705002784729
1780563536848746500,2.51774658203125,8.9170503616333,-2.0500500202178955,-1.6219500303268433
1780563536868271900,2.53727197265625,8.701050758361816,-1.8979500532150269,-1.5510001182556152
1780563536887799300,2.55679931640625,8.581050872802734,-1.9999500513076782,-1.117050051689148
1780563536907325400,2.576325439453125,8.473950386047363,-2.110949993133545,-0.7770000100135803
1780563536926849500,2.595849609375,8.54699993133545,-2.275050163269043,-0.8209500312805176
1780563536946372000,2.6153720703125,8.815950393676758,-2.3590500354766846,-1.1670000553131104
1780563536965895400,2.6348955078125,9.171000480651855,-2.2789502143859863,-1.477950096130371
1780563536985415700,2.654415771484375,9.369000434875488,-2.2300500869750977,-1.4790000915527344
1780563537004935000,2.673934814453125,9.235950469970703,-2.305950164794922,-1.207050085067749
1780563537024458800,2.693458740234375,8.820000648498535,-2.455050230026245,-0.8560500144958496
1780563537043990500,2.712990478515625,8.325000762939453,-2.63700008392334,-0.5239500403404236
1780563537063523800,2.73252392578125,8.095050811767578,-2.748000144958496,-0.2970000207424164
1780563537083050500,2.752050537109375,8.175000190734863,-2.8780500888824463,-0.13905000686645508
1780563537102574600,2.77157470703125,8.428950309753418,-3.063000202178955,0.06105000153183937
1780563537122099000,2.791098876953125,8.869950294494629,-3.1309502124786377,0.28095000982284546
1780563537141617400,2.810617431640625,9.321000099182129,-3.2350502014160156,0.5550000071525574
1780563537161138400,2.830138427734375,9.652050018310547,-3.454050064086914,0.8580000400543213
1780563537180667400,2.84966748046875,9.871950149536133,-3.799950122833252,1.0890001058578491
1780563537200191700,2.869191650390625,9.922950744628906,-4.258950233459473,1.3450500965118408
1780563537219717000,2.888717041015625,9.730050086975098,-4.594050407409668,1.6990500688552856
1780563537239244000,2.908244140625,9.510000228881836,-4.957050323486328,2.0789999961853027
1780563537258766000,2.92776611328125,9.690000534057617,-4.978950023651123,2.3710501194000244
1780563537278289200,2.9472890625,9.99000072479248,-4.696950435638428,2.6740500926971436
1780563537297815300,2.966815185546875,10.383000373840332,-4.24500036239624,3.0259501934051514
1780563537317343700,2.98634375,10.476000785827637,-3.5899500846862793,3.4230000972747803
1780563537336867300,3.005867431640625,10.057050704956055,-3.1429500579833984,3.7390501499176025
1780563537356384800,3.025384765625,9.517950057983398,-3.2220001220703125,3.7699501514434814
1780563537375908400,3.044908447265625,9.183000564575195,-5.068950176239014,3.576000213623047
1780563537395429400,3.064429443359375,9.187950134277344,-5.155050277709961,3.430950164794922
1780563537414947000,3.083947021484375,9.303000450134277,-4.927950382232666,3.5910000801086426
1780563537434470100,3.10347021484375,9.190950393676758,-4.558950424194336,4.077000141143799
1780563537453994500,3.122994384765625,8.82194995880127,-4.035000324249268,4.666050434112549
1780563537473519000,3.14251904296875,8.523000717163086,-3.574050188064575,4.896000385284424
1780563537493042700,3.162042724609375,8.293950080871582,-3.715050220489502,4.693950176239014
1780563537512564200,3.181564208984375,8.344050407409668,-3.7680001258850098,4.225950241088867
1780563537532083500,3.20108349609375,8.488950729370117,-3.682950258255005,3.6130502223968506
1780563537551608300,3.2206083984375,8.536050796508789,-3.613950252532959,3.078000068664551
1780563537571138000,3.240137939453125,8.55405044555664,-3.370950222015381,2.635050058364868
1780563537590665000,3.2596650390625,8.499000549316406,-3.1410000324249268,2.2489500045776367
1780563537610185000,3.27918505859375,8.293050765991211,-3.0010502338409424,2.1000001430511475
1780563537629706000,3.2987060546875,8.06100082397461,-3.007050037384033,2.212050199508667
1780563537649230000,3.31822998046875,7.855050563812256,-3.1810500621795654,2.3970000743865967
1780563537668753700,3.337753662109375,7.7910003662109375,-3.403050184249878,2.3389501571655273
1780563537688279600,3.357279541015625,7.933950424194336,-3.5779502391815186,1.908000111579895
1780563537707803100,3.37680322265625,8.251049995422363,-3.6280500888824463,0.14400000870227814
1780563537727323400,3.396323486328125,8.70300006866455,-3.547950267791748,-0.0499500036239624
1780563537746846500,3.415846435546875,9,-3.4800002574920654,-0.2370000183582306
1780563537766370600,3.43537060546875,9.03795051574707,-3.4260001182556152,-0.3559500277042389
1780563537785893000,3.45489306640625,8.86500072479248,-3.457050085067749,-0.5430000424385071
1780563537805410600,3.47441064453125,8.446050643920898,-3.4699501991271973,-0.814050018787384
1780563537824927500,3.493927490234375,8.056950569152832,-3.3630001544952393,-1.2090001106262207
1780563537844450300,3.5134501953125,7.867950439453125,-3.0460500717163086,-1.7470500469207764
1780563537863977200,3.532977294921875,7.759050369262695,-2.6040000915527344,-2.2930500507354736
1780563537883503900,3.55250390625,7.759950160980225,-2.253000020980835,-2.734950065612793
1780563537903030500,3.572030517578125,7.8100504875183105,-2.0929501056671143,-2.8759500980377197
1780563537922557700,3.5915576171875,7.843950271606445,-2.0880000591278076,-2.776050090789795
1780563537942084400,3.61108447265625,7.806000232696533,-2.095050096511841,-2.6460001468658447
1780563537961610200,3.6306103515625,7.887000560760498,-1.9230000972747803,-2.7580502033233643
1780563537981138200,3.65013818359375,7.987950325012207,-1.7179501056671143,-3.082050085067749
1780563538000665300,3.669665283203125,8.070000648498535,-1.6930500268936157,-3.2700002193450928
1780563538020190200,3.689190185546875,8.229000091552734,-1.7869501113891602,-3.0730502605438232
1780563538039714000,3.708714111328125,8.311050415039062,-2.0429999828338623,-2.5609500408172607
1780563538059237000,3.728237060546875,8.383950233459473,-2.266050100326538,-2.038950204849243
1780563538078761200,3.74776123046875,8.3860502243042,-2.350050210952759,-1.7299500703811646
1780563538098286600,3.76728662109375,8.398050308227539,-2.2950000762939453,-1.7200500965118408
1780563538117812700,3.786812744140625,8.45205020904541,-2.180999994277954,-1.7320500612258911
1780563538137345000,3.806344970703125,8.460000038146973,-2.140050172805786,-1.4700000286102295
1780563538156877000,3.825876953125,8.503050804138184,-2.2290000915527344,-1.0579500198364258
1780563538176402200,3.845402099609375,8.451000213623047,-2.464050054550171,-0.6460500359535217
1780563538195932000,3.864931884765625,8.319000244140625,-2.6650500297546387,-0.37005001306533813
1780563538215464000,3.8844638671875,8.280000686645508,-2.6550002098083496,-0.29805001616477966
1780563538234990600,3.903990478515625,8.272950172424316,-2.5260000228881836,-0.22305001318454742
1780563538254518000,3.92351806640625,8.224950790405273,-2.451000213623047,0.10005000233650208
1780563538274044700,3.943044677734375,8.20995044708252,-2.5230000019073486,0.5430000424385071
1780563538293567000,3.96256689453125,8.19795036315918,-2.809950113296509,0.8929500579833984
1780563538313093600,3.98209375,8.260050773620605,-3.1249501705169678,0.9979500770568848
1780563538332620500,4.00162060546875,8.51205062866211,-3.3139500617980957,0.817050039768219
1780563538352147200,4.021147216796875,8.737950325012207,-3.4360501766204834,0.6340500116348267
1780563538371669800,4.040669677734375,8.961000442504883,-3.5190000534057617,0.6829500198364258
1780563538391189000,4.06018896484375,9.204000473022461,-3.586050271987915,0.8089500665664673
1780563538410714600,4.079714599609375,9.370950698852539,-3.7579500675201416,0.9109500646591187
1780563538430243000,4.0992431640625,9.586050033569336,-3.9559502601623535,0.89805006980896
1780563538449769700,4.118769775390625,9.711000442504883,-4.084050178527832,0.690000057220459
1780563538469295600,4.138295654296875,9.723000526428223,-4.2019500732421875,0.4459500312805176
1780563538488820200,4.1578203125,9.678000450134277,-4.284000396728516,0.25995001196861267
1780563538508340200,4.17734033203125,9.582000732421875,-4.350000381469727,0.17805001139640808
1780563538527862300,4.1968623046875,9.532950401306152,-4.39995002746582,0.16395001113414764
1780563538547390500,4.216390380859375,9.487950325012207,-4.3279500007629395,0.15405000746250153
1780563538566915600,4.23591552734375,9.472949981689453,-4.183950424194336,0.11595000326633453
1780563538586438000,4.25543798828125,9.51300048828125,-4.015050411224365,0.0580500029027462
1780563538605961000,4.2749609375,9.556950569152832,-3.8560502529144287,0.05505000427365303
1780563538625483300,4.294483154296875,9.61305046081543,-3.7540502548217773,0.05505000427365303
1780563538645004300,4.31400439453125,9.613950729370117,-3.6529502868652344,-0.00795000046491623
1780563538664528600,4.333528564453125,9.571950912475586,-3.610950231552124,-0.11595000326633453
1780563538684053800,4.3530537109375,9.546000480651855,-3.715050220489502,-0.26205000281333923
1780563538703576800,4.372576904296875,9.5149507522583,-3.9220502376556396,-0.226950004696846
1780563538723097600,4.39209765625,9.462000846862793,-4.089000225067139,0.06795000284910202
1780563538742621700,4.41162158203125,9.439949989318848,-4.194000244140625,0.5560500025749207
1780563538762155300,4.4311552734375,9.427950859069824,-4.261050224304199,1.1100000143051147
1780563538781686300,4.450686279296875,9.378000259399414,-4.336050033569336,1.590000033378601
1780563538801213200,4.470213134765625,9.337050437927246,-4.4730000495910645,1.9750500917434692
1780563538820745000,4.489744873046875,9.235950469970703,-4.6120500564575195,2.3479502201080322
1780563538840273200,4.509273193359375,9.159000396728516,-4.6620001792907715,2.871000051498413
1780563538859803600,4.5288037109375,9.147000312805176,-4.609050273895264,3.427950143814087
1780563538879331600,4.54833154296875,9.18600082397461,-4.4760003089904785,3.844050168991089
1780563538898855700,4.567855712890625,9.18600082397461,-4.267950057983398,4.0320000648498535
1780563538918380300,4.58738037109375,9.076050758361816,-3.9870002269744873,4.024050235748291
1780563538937902600,4.606902587890625,8.925000190734863,-3.7830002307891846,3.973950147628784
1780563538957426200,4.62642626953125,8.740050315856934,-3.684000253677368,3.931950092315674
1780563538976951300,4.645951416015625,8.56095027923584,-3.6529502868652344,3.8310000896453857
1780563538996475400,4.665475341796875,8.398950576782227,-3.7260000705718994,3.573000192642212
1780563539015998200,4.684998291015625,8.293950080871582,-3.808950185775757,3.2190001010894775
1780563539035523600,4.704523681640625,8.31195068359375,-3.870000123977661,2.8279502391815186
1780563539055049700,4.7240498046875,8.371050834655762,-3.9340500831604004,2.4690001010894775
1780563539074577400,4.743577392578125,8.335050582885742,-4.000050067901611,2.1880500316619873
1780563539094100700,4.763100830078125,8.136000633239746,-4.104000091552734,1.974000096321106
1780563539113622800,4.782622802734375,7.933050155639648,-4.215000152587891,1.7500500679016113
1780563539133150200,4.802150146484375,7.819950580596924,-4.236000061035156,1.374000072479248
1780563539152676600,4.821676513671875,7.801950454711914,-4.096950054168701,-0.27300000190734863
1780563539172202200,4.8412021484375,7.855050563812256,-3.8970000743865967,-0.598050057888031
1780563539191724300,4.860724365234375,7.923000335693359,-3.769050121307373,-0.973050057888031
1780563539211248400,4.880248291015625,8.005949974060059,-3.7320001125335693,-1.1320500373840332
1780563539230775300,4.899775390625,8.067000389099121,-3.702000141143799,-1.1470500230789185
1780563539250301400,4.919301513671875,8.097000122070312,-3.5329501628875732,-1.2570000886917114
1780563539269830000,4.938829833984375,8.04104995727539,-3.1960501670837402,-1.633950114250183
1780563539289352700,4.958352783203125,7.878000259399414,-2.76705002784729,-2.1750001907348633
1780563539308875300,4.977875244140625,7.711950302124023,-2.407050132751465,-2.5609500408172607
1780563539328402700,4.997402587890625,7.522950172424316,-2.2480502128601074,-2.530050039291382
1780563539347931100,5.01693115234375,7.54395055770874,-2.2960500717163086,-2.1480000019073486
1780563539367459300,5.036459228515625,7.824000358581543,-2.45205020904541,-1.8769501447677612
1780563539386984200,5.055984130859375,8.206950187683105,-2.4240000247955322,-2.140050172805786
1780563539406505000,5.0755048828125,8.632050514221191,-1.9759501218795776,-3.8419501781463623
1780563539426023400,5.0950234375,8.746950149536133,-0.2580000162124634,-5.338050365447998
1780563539445543200,5.114543212890625,8.406000137329102,0.08100000023841858,-5.317950248718262
1780563539465067300,5.1340673828125,6.567000389099121,-0.0970500037074089,-2.8810501098632812
1780563539484592600,5.153592529296875,6.415050506591797,-2.041949987411499,-0.6379500031471252
1780563539504116500,5.173116455078125,6.520050525665283,-2.40405011177063,-0.26205000281333923
1780563539523631900,5.1926318359375,8.2339506149292,-2.742000102996826,-0.1469999998807907
1780563539543147000,5.21214697265625,9.826050758361816,-2.634000062942505,-0.5860500335693359
1780563539562664000,5.231663818359375,10.089000701904297,-2.242950201034546,-1.1759999990463257
1780563539582182400,5.251182373046875,10.240950584411621,-1.9590001106262207,-1.3309500217437744
1780563539601701600,5.27070166015625,9.933000564575195,-1.8850500583648682,-0.89205002784729
1780563539621219800,5.2902197265625,8.458050727844238,-2.0400002002716064,-0.25394999980926514
1780563539640735200,5.3097353515625,8.089950561523438,-2.2920000553131104,0.2440500110387802
1780563539660249000,5.3292490234375,7.746000289916992,-2.4790501594543457,0.44505003094673157
1780563539679765500,5.348765625,7.7659502029418945,-2.572050094604492,0.39705002307891846
1780563539699280400,5.3682802734375,8.101950645446777,-2.6650500297546387,0.3439500033855438
1780563539718795000,5.387794921875,8.455950736999512,-2.8950002193450928,0.33195000886917114
1780563539738313500,5.4073134765625,8.677050590515137,-3.2430002689361572,0.3829500079154968
1780563539757831000,5.426830810546875,8.782050132751465,-3.613950252532959,0.5140500068664551
1780563539777343700,5.44634375,8.97195053100586,-3.939000129699707,0.6670500040054321
1780563539796854800,5.465854736328125,9.211950302124023,-4.228950023651123,0.7570500373840332
1780563539816363800,5.48536376953125,9.331050872802734,-4.480950355529785,0.6600000262260437
1780563539835880700,5.504880615234375,9.340950012207031,-4.6620001792907715,0.3559500277042389
1780563539855397000,5.524397216796875,9.32805061340332,-4.741950035095215,0.06599999964237213
1780563539874908700,5.54390869140625,9.310050010681152,-4.63200044631958,-0.036000002175569534
1780563539894418700,5.563418701171875,9.51300048828125,-4.470000267028809,0.12495000660419464
1780563539913923600,5.582923583984375,9.781050682067871,-4.323000431060791,0.4939500093460083
1780563539933431600,5.602431640625,9.898050308227539,-4.189949989318848,0.7450500130653381
1780563539952944000,5.621944091796875,9.949950218200684,-4.1770501136779785,0.753000020980835
1780563539972458000,5.6414580078125,9.822000503540039,-4.279050350189209,0.598050057888031
1780563539991967700,5.6609677734375,9.669000625610352,-4.515000343322754,0.4069500267505646
1780563540011474400,5.680474365234375,9.670950889587402,-4.7910003662109375,0.2959500253200531
1780563540030986200,5.699986328125,9.652050018310547,-4.993950366973877,0.3570000231266022
1780563540050504700,5.719504638671875,9.715950012207031,-5.092050075531006,0.5239500403404236
1780563540070026500,5.739026611328125,9.693000793457031,-5.061000347137451,0.700950026512146
1780563540089542400,5.75854248046875,9.495000839233398,-4.975050449371338,0.9280500411987305
1780563540109058000,5.77805810546875,9.33495044708252,-4.927950382232666,1.2820500135421753
1780563540128575500,5.797575439453125,9.223950386047363,-4.963050365447998,1.7370001077651978
1780563540148091000,5.8170908203125,9.172950744628906,-5.062950134277344,2.2200000286102295
1780563540167614500,5.836614501953125,9.20895004272461,-5.194050312042236,2.659950017929077
1780563540187133000,5.8561328125,9.295050621032715,-5.301000118255615,2.9230501651763916
1780563540206644000,5.87564404296875,9.351000785827637,-5.347950458526611,3.034050226211548
1780563540226157600,5.895157470703125,9.379050254821777,-5.250000476837158,3.1330502033233643
1780563540245677300,5.91467724609375,9.390000343322754,-5.119050025939941,3.375000238418579
1780563540265202200,5.9342021484375,9.307950019836426,-4.939950466156006,3.676950216293335
1780563540284724500,5.953724365234375,9.177000045776367,-4.717950344085693,3.886050224304199
1780563540304244500,5.973244384765625,8.976000785827637,-4.521000385284424,3.8580002784729004
1780563540323766500,5.9927666015625,8.677050590515137,-4.317000389099121,3.561000108718872
1780563540343289000,6.0122890625,8.395050048828125,-4.168950080871582,3.1710002422332764
1780563540362815000,6.03181494140625,8.151000022888184,-4.093950271606445,2.8470001220703125
1780563540382339600,6.051339599609375,7.950000286102295,-4.132050037384033,2.63700008392334
1780563540401860600,6.070860595703125,7.767000198364258,-4.269000053405762,2.4019501209259033
1780563540421384200,6.09038427734375,7.636950492858887,-4.381050109863281,1.9900500774383545
1780563540440908000,6.109907958984375,7.549050331115723,-4.444950103759766,1.3890000581741333
1780563540460433400,6.129433349609375,7.563000202178955,-4.459050178527832,-0.15105000138282776
1780563540479955700,6.148955810546875,7.642950534820557,-4.384050369262695,-0.5100000500679016
1780563540499474700,6.168474609375,7.723050594329834,-4.3279500007629395,-0.7890000343322754
1780563540518998500,6.18799853515625,7.789950370788574,-4.387050151824951,-0.8989500403404236
1780563540538524700,6.207524658203125,7.737000465393066,-4.4599504470825195,-0.8820000290870667
1780563540558048500,6.227048583984375,7.72005033493042,-4.384950160980225,-0.9619500637054443
1780563540577571800,6.24657177734375,7.73805046081543,-4.180950164794922,-1.231950044631958
1780563540597091800,6.266091796875,7.659000396728516,-3.856950283050537,-1.6279500722885132
1780563540616613400,6.28561328125,7.624950408935547,-3.5080502033233643,-2.0689501762390137
1780563540636132600,6.305132568359375,7.744950294494629,-3.268050193786621,-2.4000000953674316
1780563540655656400,6.324656494140625,7.954950332641602,-2.9440500736236572,-2.5159502029418945
1780563540675186200,6.344186279296875,8.188950538635254,-2.4589500427246094,-2.5410001277923584
1780563540694710300,6.363710205078125,8.226000785827637,-1.9390500783920288,-2.575050115585327
1780563540714233300,6.3832333984375,7.846950531005859,-1.4449501037597656,-2.704050064086914
1780563540733757700,6.4027578125,7.348950386047363,-0.9660000205039978,-3.043950080871582
1780563540753278200,6.4222783203125,6.985950469970703,-0.4710000157356262,-3.489000082015991
1780563540772800500,6.441800537109375,6.784950256347656,-0.09105000644922256,-3.748950242996216
1780563540792330800,6.461330810546875,6.760050296783447,-0.043950002640485764,-3.52305006980896
1780563540811859700,6.480859619140625,6.823050498962402,-0.4639500081539154,-1.6330500841140747
1780563540831384000,6.500384033203125,7.048050403594971,-2.1259500980377197,-1.3060500621795654
1780563540850908200,6.519908203125,7.570050239562988,-2.7180001735687256,-0.9940500259399414
1780563540870430200,6.53943017578125,8.212050437927246,-3.370950222015381,-0.9270000457763672
1780563540889950700,6.55895068359375,9.72705078125,-3.9559502601623535,-1.0180500745773315
1780563540909474000,6.57847412109375,9.934950828552246,-4.318050384521484,-1.045050024986267
1780563540928996600,6.59799658203125,9.984000205993652,-4.413000106811523,-0.8680500388145447
1780563540948520700,6.617520751953125,9.856950759887695,-4.297950267791748,-0.5920500159263611
1780563540968044800,6.637044921875,8.232000350952148,-4.038000106811523,-0.3240000009536743
1780563540987572700,6.65657275390625,7.755000591278076,-3.7789502143859863,-0.028050001710653305
1780563541007101700,6.676101806640625,7.146000385284424,-3.561000108718872,0.3450000286102295
1780563541026626300,6.695626220703125,6.8020501136779785,-3.3610501289367676,0.7969500422477722
1780563541046146000,6.71514599609375,6.880950450897217,-3.2560501098632812,1.204050064086914
1780563541065666000,6.734666015625,7.33305025100708,-3.3570001125335693,1.4959501028060913
1780563541085190100,6.754190185546875,7.9200005531311035,-3.6730501651763916,1.6429500579833984
1780563541104714500,6.773714599609375,8.437050819396973,-4.125,1.549950122833252
1780563541124234200,6.793234130859375,8.857950210571289,-4.567049980163574,1.29705011844635
1780563541143756000,6.812756103515625,9.184950828552246,-4.950000286102295,1.0380001068115234
1780563541163282400,6.832282470703125,9.28695011138916,-5.287050247192383,0.7939500212669373
1780563541182806000,6.851805908203125,9.234000205993652,-5.4810004234313965,0.625950038433075
1780563541202328800,6.871328857421875,9.196950912475586,-5.590050220489502,0.5629500150680542
1780563541221852700,6.890852783203125,9.052050590515137,-5.440950393676758,0.5879999995231628
1780563541241378800,6.91037890625,9.070050239562988,-5.0560503005981445,0.5820000171661377
1780563541260907800,6.92990771484375,9.282000541687012,-4.681950092315674,0.5380499958992004
1780563541280434700,6.9494345703125,9.469050407409668,-4.489050388336182,0.4710000157356262
1780563541299956700,6.968956787109375,9.706050872802734,-4.578000068664551,0.3750000298023224
1780563541319476000,6.98847607421875,9.822000503540039,-4.789950370788574,0.32895001769065857
1780563541339000000,7.008,9.754950523376465,-5.00700044631958,0.31995001435279846
1780563541358525700,7.027525634765625,9.574950218200684,-5.089950084686279,0.3160500228404999
1780563541378050600,7.047050537109375,9.394050598144531,-5.176050186157227,0.22995001077651978
1780563541397576200,7.066576171875,9.312000274658203,-5.38800048828125,0.1469999998807907
1780563541417098000,7.086097900390625,9.376049995422363,-5.685000419616699,0.1570500135421753
1780563541436617000,7.105616943359375,9.55305004119873,-5.878050327301025,0.286950021982193
1780563541456138000,7.125137939453125,9.769950866699219,-5.821950435638428,0.5590500235557556
1780563541475662600,7.14466259765625,9.834000587463379,-5.493000030517578,0.9670500755310059
1780563541495185200,7.16418505859375,9.646050453186035,-5.074050426483154,1.53000009059906
1780563541514707500,7.18370751953125,9.291000366210938,-4.789950370788574,2.997000217437744
1780563541534237200,7.2032373046875,8.986950874328613,-4.830000400543213,3.3799500465393066
1780563541553767700,7.222767578125,8.788050651550293,-5.136000156402588,3.6940500736236572
1780563541573293300,7.242293212890625,8.67495059967041,-5.325000286102295,3.753000259399414
1780563541592819200,7.261819091796875,8.619000434875488,-5.229000091552734,3.61995005607605
1780563541612344000,7.281343994140625,8.62695026397705,-4.9960503578186035,3.5650501251220703
1780563541631872800,7.300872802734375,8.67300033569336,-4.735949993133545,3.6289501190185547
1780563541651399400,7.3203994140625,8.713050842285156,-4.5859503746032715,3.643050193786621
1780563541670922000,7.339921875,8.730000495910645,-4.537950038909912,3.501000165939331
1780563541690452000,7.359451904296875,8.548050880432129,-4.431000232696533,3.15405011177063
1780563541709983500,7.3789833984375,8.28600025177002,-4.3120503425598145,2.760000228881836
1780563541729512700,7.3985126953125,8.032050132751465,-4.2900004386901855,2.5219500064849854
1780563541749047300,7.41804736328125,7.815000534057617,-4.339950084686279,2.428950071334839
1780563541768580600,7.43758056640625,7.722000598907471,-4.420050144195557,2.362950086593628
1780563541788112400,7.4571123046875,7.699050426483154,-4.471950054168701,2.2129499912261963
1780563541807641300,7.476641357421875,7.707000255584717,-4.456050395965576,1.8880500793457031
1780563541827165200,7.496165283203125,7.719000339508057,-4.43595027923584,1.3339500427246094
1780563541846689000,7.51568896484375,7.651950359344482,-4.359000205993652,-0.12600000202655792
1780563541866215400,7.53521533203125,7.4920501708984375,-4.284000396728516,-0.42705002427101135
1780563541885741300,7.5547412109375,7.348050117492676,-4.200000286102295,-0.76500004529953
1780563541905266200,7.57426611328125,7.3399505615234375,-3.985950231552124,-1.1640000343322754
1780563541924794400,7.59379443359375,7.429050445556641,-3.6600000858306885,-1.7370001077651978
1780563541944322600,7.613322509765625,7.572000503540039,-3.2779500484466553,-2.344050168991089
1780563541963849500,7.632849365234375,7.609950542449951,-3.0840001106262207,-2.568000078201294
1780563541983373300,7.652373291015625,7.420950412750244,-3.2290501594543457,-2.182950019836426
1780563542002894300,7.671894287109375,7.144050121307373,-3.520050048828125,-0.6990000605583191
1780563542022415000,7.6914150390625,7.009950160980225,-3.7080001831054688,-0.5869500041007996
1780563542041939000,7.71093896484375,7.279050350189209,-3.573000192642212,-1.0429500341415405
1780563542061469400,7.730469482421875,7.81095027923584,-3.0199501514434814,-3.2310001850128174
1780563542080997400,7.749997314453125,8.355000495910645,-1.3519500494003296,-3.8370001316070557
1780563542100520000,7.76952001953125,8.713950157165527,-1.0800000429153442,-4.006050109863281
1780563542120045000,7.789045166015625,8.66100025177002,-1.0990500450134277,-2.0179500579833984
1780563542139573800,7.80857373046875,8.242950439453125,-1.6000500917434692,-0.14295001327991486
1780563542159100700,7.8281005859375,7.683000564575195,-3.3319501876831055,0.06495000422000885
1780563542178626000,7.8476259765625,7.342950344085693,-3.4860000610351562,-0.021000001579523087
1780563542198152700,7.867152587890625,7.498050212860107,-3.2850000858306885,-1.7710500955581665
1780563542217679600,7.8866796875,7.945050239562988,-3.0139501094818115,-1.8520500659942627
1780563542237202400,7.906202392578125,8.467050552368164,-3.028050184249878,-1.4389500617980957
1780563542256724500,7.925724365234375,8.686050415039062,-3.460050106048584,0.17805001139640808
1780563542276248000,7.945248046875,8.565000534057617,-3.976950168609619,0.6210000514984131
1780563542295768300,7.964768310546875,8.499000549316406,-4.120950222015381,0.6780000329017639
1780563542315289300,7.984289306640625,8.480999946594238,-3.8310000896453857,0.30105000734329224
1780563542334815500,8.0038154296875,8.464950561523438,-3.43500018119812,0.1660500019788742
1780563542354343000,8.023343017578124,8.253000259399414,-3.375000238418579,0.5430000424385071
1780563542373867500,8.042867431640625,7.806000232696533,-3.705000162124634,1.1899501085281372
1780563542393390300,8.062390380859375,7.4659504890441895,-4.159049987792969,1.636950135231018
1780563542412915200,8.081915283203125,7.449000358581543,-4.495050430297852,1.5690001249313354
1780563542432446000,8.101446044921875,7.8070502281188965,-4.642050266265869,1.152000069618225
1780563542451977700,8.120977783203125,8.428950309753418,-4.680000305175781,0.9400500655174255
1780563542471503400,8.14050341796875,8.97705078125,-4.824000358581543,1.054050087928772
1780563542491026700,8.160026611328124,9.258000373840332,-5.064000129699707,1.2960000038146973
1780563542510551300,8.17955126953125,9.246000289916992,-5.302950382232666,1.440000057220459
1780563542530080300,8.199080322265624,9.076950073242188,-5.407050132751465,1.234950065612793
1780563542549613600,8.218613525390625,9,-5.305050373077393,0.8929500579833984
1780563542569144000,8.23814404296875,9.105000495910645,-5.143950462341309,0.7080000042915344
1780563542588669000,8.2576689453125,9.331050872802734,-4.957050323486328,0.6970500349998474
1780563542608190500,8.2771904296875,9.547050476074219,-4.7820000648498535,0.7219500541687012
1780563542627715300,8.29671533203125,9.586950302124023,-4.719000339508057,0.6790500283241272
1780563542647242000,8.316241943359374,9.517950057983398,-4.692000389099121,0.5070000290870667
1780563542666769000,8.335768798828125,9.597000122070312,-4.5520501136779785,0.3270000219345093
1780563542686290000,8.3552900390625,9.81195068359375,-4.470000267028809,0.3049500286579132
1780563542705810700,8.374810791015625,10.099050521850586,-4.440000057220459,0.37800002098083496
1780563542725335800,8.394335693359375,10.21095085144043,-4.513050079345703,0.3910500109195709
1780563542744853000,8.41385302734375,9.98805046081543,-4.800000190734863,0.30900001525878906
1780563542764365600,8.433365478515626,9.633000373840332,-5.158050060272217,0.21300001442432404
1780563542783884300,8.45288427734375,9.357000350952148,-5.310000419616699,0.20400001108646393
1780563542803404300,8.472404296875,9.346050262451172,-5.224950313568115,0.38805001974105835
1780563542822930200,8.49193017578125,9.51300048828125,-5.034000396728516,0.778950035572052
1780563542842459000,8.511458984375,9.541050910949707,-4.819950103759766,1.3920000791549683
1780563542861985300,8.5309853515625,9.357000350952148,-4.795050144195557,2.947050094604492
1780563542881512000,8.550511962890624,9.079050064086914,-4.825050354003906,3.184950113296509
1780563542901038000,8.5700380859375,8.88705062866211,-4.716000080108643,3.2440502643585205
1780563542920564500,8.589564453125,8.863950729370117,-4.474950313568115,3.1330502033233643
1780563542940088000,8.609088134765624,8.869050025939941,-4.177950382232666,3.1240501403808594
1780563542959616000,8.628615966796875,8.862000465393066,-3.9690001010894775,3.4450502395629883
1780563542979140900,8.648140869140626,8.788949966430664,-3.8959500789642334,3.934950113296509
1780563542998656300,8.66765625,8.694000244140625,-3.835050106048584,4.215000152587891
1780563543018182400,8.687182373046875,8.653050422668457,-3.6100502014160156,4.04295015335083
1780563543037713400,8.70671337890625,8.61405086517334,-3.283950090408325,3.4840502738952637
1780563543057240300,8.726240234375,8.487000465393066,-2.991000175476074,2.991000175476074
1780563543076768500,8.7457685546875,8.25,-2.9449501037597656,2.7550501823425293
1780563543096296400,8.76529638671875,7.951950550079346,-3.151050090789795,2.638050079345703
1780563543115820300,8.7848203125,7.713000297546387,-3.5050501823425293,2.4400501251220703
1780563543135342800,8.8043427734375,7.651950359344482,-3.865950107574463,2.035950183868408
1780563543154869200,8.823869140625,7.842000484466553,-4.125,1.5370501279830933
1780563543174395000,8.843394775390625,8.101950645446777,-4.350000381469727,1.0939500331878662
1780563543193920000,8.862919921875,8.3100004196167,-4.521000385284424,0.7639500498771667
1780563543213447200,8.882447265625,8.416950225830078,-4.654050350189209,0.5119500160217285
1780563543232971500,8.901971435546875,8.371950149536133,-4.714950084686279,0.27105000615119934
1780563543252496600,8.92149658203125,8.232000350952148,-4.567049980163574,0.024000000208616257
1780563543272022800,8.941022705078124,8.191950798034668,-4.236000061035156,-0.2950500249862671
1780563543291543800,8.960543701171876,8.242950439453125,-3.8680500984191895,-0.7590000629425049
1780563543311061000,8.98006103515625,8.28600025177002,-3.3700501918792725,-1.3650000095367432
1780563543330582500,8.99958251953125,8.422950744628906,-2.7430500984191895,-2.848050117492676
1780563543350107400,9.019107421875,8.377050399780273,-2.2039501667022705,-3.118950128555298
1780563543369632000,9.038632080078125,8.107950210571289,-1.8169500827789307,-3.138000249862671
1780563543389158100,9.058158203125,7.7470502853393555,-1.7040001153945923,-2.8950002193450928
1780563543408682200,9.07768212890625,7.417050361633301,-1.7389501333236694,-2.7910501956939697
1780563543428205300,9.097205322265625,7.2270002365112305,-1.64205002784729,-3.061950206756592
1780563543447730400,9.11673046875,7.147950172424316,-1.2720000743865967,-4.927950382232666
1780563543467257900,9.1362578125,7.105050563812256,-0.8100000619888306,-5.08305025100708
1780563543486786600,9.15578662109375,7.045050144195557,-0.6510000228881836,-4.770000457763672
1780563543506313500,9.1753134765625,7.008000373840332,-0.9919500350952148,-2.7930002212524414
1780563543525842000,9.194842041015624,7.086000442504883,-2.580000162124634,-0.8749500513076782
1780563543545370400,9.214370361328125,7.3999505043029785,-3.0300002098083496,-0.43695002794265747
1780563543564895000,9.23389501953125,9.018000602722168,-3.3109500408172607,-0.34005001187324524
1780563543584418600,9.25341845703125,9.381000518798828,-3.1489500999450684,-0.6780000329017639
1780563543603942400,9.2729423828125,9.825000762939453,-2.6329500675201416,-1.0609500408172607
1780563543623465200,9.29246533203125,9.916950225830078,-2.2300500869750977,-1.1100000143051147
1780563543642988800,9.31198876953125,9.42495059967041,-2.2350001335144043,0.453000009059906
1780563543662514000,9.331513916015625,7.729050159454346,-2.5609500408172607,0.8110500574111938
1780563543682039600,9.35103955078125,7.3690505027771,-2.989950180053711,1.1080501079559326
1780563543701570800,9.37057080078125,7.1770501136779785,-3.2790000438690186,1.1040000915527344
1780563543721101300,9.390101318359376,7.41795015335083,-3.412950277328491,0.9019500613212585
1780563543740626200,9.409626220703124,7.870950222015381,-3.598950147628784,0.8640000224113464
1780563543760150300,9.429150390625,8.32800006866455,-3.8269500732421875,1.0720500946044922
1780563543779672000,9.448672119140625,8.66295051574707,-4.0819501876831055,1.287000060081482
1780563543799196700,9.46819677734375,8.72504997253418,-4.360050201416016,1.2720000743865967
1780563543818729000,9.48772900390625,8.677950859069824,-4.6780500411987305,1.0980000495910645
1780563543838260000,9.507260009765625,8.69895076751709,-4.9930500984191895,1.0069500207901
1780563543857785900,9.526785888671874,8.910000801086426,-5.15595006942749,1.0110000371932983
1780563543877313000,9.54631298828125,9.238950729370117,-5.160000324249268,0.9799500703811646
1780563543896839700,9.565839599609374,9.490050315856934,-5.073000431060791,0.7900500297546387
1780563543916363500,9.585363525390624,9.534000396728516,-5.07105016708374,0.4900500178337097
1780563543935890400,9.604890380859375,9.403950691223145,-5.16195011138916,0.2770500183105469
1780563543955415000,9.6244150390625,9.190950393676758,-5.134050369262695,0.16695000231266022
1780563543974936000,9.64393603515625,8.992950439453125,-4.99500036239624,0.04305000230669975
1780563543994457000,9.66345703125,8.766000747680664,-4.836000442504883,-0.09795000404119492
1780563544013979100,9.682979248046875,8.6850004196167,-4.897950172424316,-0.18900001049041748
1780563544033496600,9.70249658203125,8.63700008392334,-5.287950038909912,-0.0690000057220459
1780563544053014300,9.72201416015625,8.527950286865234,-5.821950435638428,0.4030500054359436
1780563544072534500,9.741534423828124,8.59005069732666,-6.177000522613525,1.0500000715255737
1780563544092055600,9.7610556640625,8.818050384521484,-6.1180500984191895,1.5360000133514404
1780563544111578600,9.78057861328125,9.346050262451172,-5.863950252532959,1.7059500217437744
1780563544131099100,9.80009912109375,9.976950645446777,-5.794950485229492,1.6120500564575195
1780563544150621000,9.819620849609375,10.249950408935547,-6.264000415802002,1.420050024986267
1780563544170145000,9.83914501953125,9.91200065612793,-7.947000503540039,1.4020500183105469
1780563544189667600,9.85866748046875,8.098050117492676,-7.981050491333008,1.603950023651123
1780563544209188400,9.878188232421875,7.9200005531311035,-7.521000385284424,1.7959500551223755
1780563544228711200,9.897711181640625,7.743000507354736,-6.031050205230713,1.9890000820159912
1780563544248236800,9.91723681640625,7.7059502601623535,-5.832000255584717,2.275050163269043
1780563544267760000,9.936760009765624,7.720950603485107,-5.896050453186035,2.6670000553131104
1780563544287282000,9.956281982421874,7.759950160980225,-6.1050004959106445,3.163950204849243
1780563544306806300,9.97580615234375,7.9009504318237305,-6.099000453948975,3.5629501342773438
1780563544326324700,9.99532470703125,8.134050369262695,-5.857950210571289,3.6310501098632812
1780563544345846300,10.01484619140625,8.293050765991211,-5.592000484466553,3.415950059890747
1780563544365374700,10.034374755859375,8.27595043182373,-5.37600040435791,3.1120500564575195
1780563544384899600,10.053899658203125,8.134050369262695,-5.095950126647949,2.8650002479553223
1780563544404423000,10.0734228515625,7.842000484466553,-4.7659502029418945,2.745000123977661
1780563544423948300,10.0929482421875,7.464000225067139,-4.597949981689453,2.6899502277374268
1780563544443474200,10.11247412109375,7.134000301361084,-4.663050174713135,2.6299500465393066
1780563544463002600,10.132002685546874,6.990000247955322,-4.861950397491455,2.5200002193450928
1780563544482528500,10.151528564453125,7.141050338745117,-5.071950435638428,2.344050168991089
1780563544502055700,10.1710556640625,7.540050506591797,-5.164050102233887,2.0820000171661377
1780563544521581800,10.190581787109375,7.891950607299805,-5.158950328826904,1.699950098991394
1780563544541106400,10.2101064453125,8.0149507522583,-5.14995002746582,1.2460500001907349
1780563544560633600,10.229633544921874,7.978950500488281,-5.128950119018555,0.8479500412940979
1780563544580159000,10.249158935546875,7.798050403594971,-5.00700044631958,0.531000018119812
1780563544599683300,10.268683349609375,7.509000301361084,-4.7029500007629395,0.3270000219345093
1780563544619207400,10.28820751953125,7.272000312805176,-4.291950225830078,0.08205000311136246
1780563544638736100,10.307736083984375,7.029000282287598,-3.7890002727508545,-0.3450000286102295
1780563544658261800,10.32726171875,6.844950199127197,-3.2320501804351807,-0.909000039100647
1780563544677786400,10.346786376953125,6.817050457000732,-2.8210501670837402,-1.4350500106811523
1780563544697314800,10.366314697265626,6.877950191497803,-2.7150001525878906,-1.5910500288009644
1780563544716843500,10.385843505859375,7.116000175476074,-2.947050094604492,-1.3489500284194946
1780563544736372200,10.405372314453125,7.483950138092041,-3.334050178527832,-1.0420500040054321
1780563544755904000,10.424904052734375,7.993950366973877,-3.559950113296509,-1.0920000076293945
1780563544775434800,10.444434814453125,8.487000465393066,-3.3100502490997314,-3.151050090789795
1780563544794960600,10.463960693359375,8.85300064086914,-1.5450000762939453,-3.6720001697540283
1780563544814487000,10.483487060546874,8.881950378417969,-1.4029500484466553,-4.14900016784668
1780563544834015500,10.503015380859376,8.509050369262695,-1.4490001201629639,-3.8749501705169678
1780563544853547000,10.522547119140626,7.9110002517700195,-1.867050051689148,-1.6690500974655151
1780563544873074200,10.54207421875,6.511050224304199,-2.4649500846862793,0.15105000138282776
1780563544892600300,10.561600341796876,6.5809502601623535,-2.9260501861572266,0.3949500322341919
1780563544912129800,10.5811298828125,6.916050434112549,-3.100950241088867,0.1969500035047531
1780563544931657500,10.600657470703124,7.420050144195557,-3.094050168991089,-0.30000001192092896
1780563544951190000,10.62018994140625,7.957050323486328,-3.120000123977661,-0.5890500545501709
1780563544970722800,10.639722900390625,8.27595043182373,-3.2880001068115234,-0.31905001401901245
1780563544990251000,10.6592509765625,8.272950172424316,-3.6060001850128174,1.3519500494003296
1780563545009778000,10.67877783203125,8.107950210571289,-3.9439501762390137,1.5690001249313354
1780563545029305000,10.69830517578125,7.900050163269043,-4.183950424194336,1.746000051498413
1780563545048828700,10.71782861328125,7.740000247955322,-4.317000389099121,1.7059500217437744
1780563545068350200,10.73735009765625,7.71405029296875,-4.413000106811523,1.5859500169754028
1780563545087873500,10.75687353515625,7.729950428009033,-4.548000335693359,1.50600004196167
1780563545107398400,10.7763984375,7.663950443267822,-4.696950435638428,1.5390000343322754
1780563545126920000,10.795919921875,7.5610504150390625,-4.875,1.6080000400543213
1780563545146440700,10.815440673828125,7.477950572967529,-5.026950359344482,1.6429500579833984
1780563545165964300,10.83496435546875,7.471050262451172,-5.305050373077393,1.6930500268936157
1780563545185485800,10.85448583984375,7.570950508117676,-5.734950065612793,1.7620500326156616
1780563545205008100,10.874008056640625,7.882950305938721,-6.199950218200684,1.8079501390457153
1780563545224535300,10.893535400390626,8.326050758361816,-6.574050426483154,1.7370001077651978
1780563545244063000,10.91306298828125,8.782950401306152,-6.735000133514404,1.503000020980835
1780563545263589000,10.932589111328125,9.085050582885742,-6.793050289154053,1.1479500532150269
1780563545283118600,10.95211865234375,9.070050239562988,-6.775050163269043,0.7750500440597534
1780563545302652000,10.97165185546875,8.830950736999512,-6.694950103759766,0.4990500211715698
1780563545322179300,10.991179443359375,8.521950721740723,-6.5460004806518555,0.34800001978874207
1780563545341702000,11.010701904296875,8.28600025177002,-6.318000316619873,0.2939999997615814
1780563545361225200,11.03022509765625,8.134050369262695,-6.103950500488281,0.31005001068115234
1780563545380746500,11.04974658203125,8.17199993133545,-6.025050163269043,0.38100001215934753
1780563545400270000,11.06927001953125,8.410050392150879,-6.169950485229492,0.45600003004074097
1780563545419798000,11.088798095703124,8.713050842285156,-6.397050380706787,0.531000018119812
1780563545439326700,11.10832666015625,9.007050514221191,-6.592950344085693,0.6460500359535217
1780563545458857000,11.12785693359375,9.163050651550293,-6.733050346374512,0.7279500365257263
1780563545478391300,11.147391357421874,9.06195068359375,-6.687000274658203,0.742050051689148
1780563545497923300,11.16692333984375,8.878950119018555,-6.534000396728516,0.6490500569343567
1780563545517450200,11.1864501953125,8.743950843811035,-6.373050212860107,0.5550000071525574
1780563545536975400,11.205975341796876,8.67300033569336,-6.216000080108643,0.6040500402450562
1780563545556499700,11.225499755859374,8.617950439453125,-6.163950443267822,0.9109500646591187
1780563545576022300,11.245022216796874,8.513999938964844,-6.189000129699707,1.5010501146316528
1780563545595546000,11.264546142578125,8.317950248718262,-6.249000072479248,2.932950258255005
1780563545615069400,11.2840693359375,8.100000381469727,-6.30495023727417,3.1120500564575195
1780563545634594600,11.303594482421875,8.080050468444824,-6.336000442504883,3.1249501705169678
1780563545654122500,11.32312255859375,8.223000526428223,-6.330000400543213,2.977950096130371
1780563545673651200,11.342651123046876,8.419050216674805,-6.283950328826904,2.886000156402588
1780563545693178000,11.36217822265625,8.52495002746582,-6.148050308227539,3.0079500675201416
1780563545712699100,11.38169921875,8.430000305175781,-5.908950328826904,3.1879501342773438
1780563545732222500,11.401222412109375,8.164050102233887,-5.614950180053711,3.232950210571289
1780563545751745800,11.420745849609375,7.836000442504883,-5.25600004196167,2.9850001335144043
1780563545790802700,11.459802734375,7.3969502449035645,-4.855950355529785,2.1979501247406006
1780563545810328800,11.479328857421875,7.342050552368164,-4.875,2.098950147628784
1780563545829859300,11.498859375,7.377000331878662,-4.978950023651123,2.143050193786621
1780563545849388500,11.518388427734376,7.473000526428223,-5.154000282287598,2.1540000438690186
1780563545868915500,11.53791552734375,7.53795051574707,-5.313000202178955,1.9210500717163086
1780563545888443600,11.557443603515624,7.593000411987305,-5.3359503746032715,1.4100000858306885
1780563545907972600,11.57697265625,7.588950157165527,-5.302950382232666,-0.3910500109195709
1780563545927500000,11.5965,7.486950397491455,-5.179050445556641,-0.5640000104904175
1780563545947030300,11.6160302734375,7.329000473022461,-5.034000396728516,-0.6820500493049622
1780563545966559000,11.63555908203125,7.144050121307373,-4.942050457000732,-0.6790500283241272
1780563545986090500,11.655090576171874,6.9970502853393555,-4.858950138092041,-0.7330500483512878
1780563546005620000,11.674619873046876,6.922950267791748,-4.61400032043457,-0.9850500226020813
1780563546025148400,11.6941484375,6.979950428009033,-4.210050106048584,-1.467000126838684
1780563546044679400,11.713679443359375,7.087050437927246,-3.766050100326538,-1.954050064086914
1780563546064214000,11.733214111328126,7.191000461578369,-3.3949501514434814,-2.143050193786621
1780563546083751700,11.752751708984375,7.261950492858887,-3.195000171661377,-2.0880000591278076
1780563546103287300,11.772287353515624,7.288950443267822,-3.0679502487182617,-2.0560500621795654
1780563546122820400,11.7918203125,7.335000514984131,-2.809950113296509,-2.2069501876831055
1780563546142349800,11.811349853515624,7.444950580596924,-2.3170502185821533,-2.619000196456909
1780563546161874000,11.8308740234375,7.558950424194336,-1.7400001287460327,-3.1020002365112305
1780563546181395700,11.850395751953124,7.527000427246094,-1.2880500555038452,-3.312000274658203
1780563546200920000,11.869920166015625,7.264950275421143,-1.3960500955581665,-3.0520501136779785
1780563546220448800,11.88944873046875,6.913950443267822,-3.555000066757202,-1.5010501146316528
1780563546239977000,11.90897705078125,6.796050548553467,-4.081050395965576,-0.8640000224113464
1780563546259507200,11.928507080078125,7.1509504318237305,-5.688000202178955,-0.37800002098083496
1780563546279036700,11.94803662109375,8.689949989318848,-5.63700008392334,-0.3049500286579132
1780563546298563800,11.967563720703126,9.276000022888184,-5.233950138092041,-0.547950029373169
1780563546318091800,11.987091796875,9.730050086975098,-4.7310004234313965,-0.6880500316619873
1780563546337618200,12.0066181640625,9.723000526428223,-4.308000087738037,-0.3679500222206116
1780563546357144800,12.026144775390625,9.291000366210938,-4.176000118255615,0.2580000162124634
1780563546376678400,12.045678466796875,7.579050540924072,-4.380000114440918,0.7950000166893005
1780563546396213200,12.065213134765624,6.949050426483154,-4.752000331878662,1.0630500316619873
1780563546415743700,12.08474365234375,6.561000347137451,-5.08305025100708,1.141950011253357
1780563546435270700,12.104270751953125,6.651000499725342,-5.125950336456299,1.224000096321106
1780563546454793200,12.123793212890625,8.386950492858887,-4.837950229644775,1.4359500408172607
1780563546474319400,12.1433193359375,8.689949989318848,-4.486050128936768,1.746000051498413
1780563546493849000,12.16284912109375,8.857950210571289,-4.375950336456299,1.9920001029968262
1780563546513384700,12.182384765625,8.692950248718262,-4.5360002517700195,1.9890000820159912
1780563546532926000,12.201926025390625,8.343000411987305,-4.836000442504883,1.702950119972229
1780563546552461800,12.2214619140625,8.0910005569458,-5.09505033493042,1.27305006980896
1780563546571991600,12.240991455078126,8.0910005569458,-5.299950122833252,0.9490500688552856
1780563546591523000,12.260523193359376,8.251049995422363,-5.533950328826904,0.8700000643730164
1780563546611054000,12.28005419921875,8.500950813293457,-5.740950107574463,0.9240000247955322
1780563546630586000,12.299586181640626,8.746050834655762,-5.824050426483154,0.9180000424385071
1780563546650118000,12.319117919921876,8.83395004272461,-5.722950458526611,0.7309500575065613
1780563546669648400,12.3386484375,8.868000030517578,-5.526000499725342,0.3340500295162201
1780563546689176300,12.35817626953125,8.895000457763672,-5.347050189971924,-0.19305001199245453
1780563546708703000,12.377702880859376,8.938950538635254,-5.253000259399414,-0.5179499983787537
1780563546728228400,12.397228271484375,9.037050247192383,-5.3460001945495605,-0.49500003457069397
1780563546747756000,12.416756103515626,9.256950378417969,-5.446950435638428,-0.1570500135421753
1780563546767281200,12.43628125,9.369000434875488,-5.499000072479248,0.3930000066757202
1780563546786804200,12.45580419921875,9.42495059967041,-5.4970502853393555,0.5890500545501709
1780563546806330600,12.47533056640625,9.433050155639648,-5.4210004806518555,0.11805000901222229
1780563546825858600,12.494858642578125,9.313950538635254,-5.395050048828125,-1.519950032234192
1780563546845387800,12.5143876953125,9.324000358581543,-5.467050075531006,-1.576050043106079
1780563546864919600,12.53391943359375,9.436050415039062,-5.671050071716309,-1.1299500465393066
1780563546884451000,12.553451171875,9.610950469970703,-5.778000354766846,0.8419500589370728
1780563546903984400,12.572984375,9.652050018310547,-5.82105016708374,2.521050214767456
1780563546923518000,12.59251806640625,9.420000076293945,-5.920050144195557,2.5290000438690186
1780563546943051300,12.61205126953125,8.925000190734863,-5.947050094604492,2.344050168991089
1780563546962586400,12.63158642578125,8.461950302124023,-6.048000335693359,2.0899500846862793
1780563546982119200,12.651119140625,8.154000282287598,-6.12600040435791,2.158950090408325
1780563547001653200,12.6706533203125,7.9800004959106445,-5.962950229644775,2.6329500675201416
1780563547021188000,12.69018798828125,8.08905029296875,-5.590050220489502,4.326000213623047
1780563547040719600,12.7097197265625,8.176950454711914,-5.2860002517700195,4.8480000495910645
1780563547060252200,12.729252197265625,8.199000358581543,-5.047950267791748,5.112000465393066
1780563547079786200,12.7487861328125,8.178000450134277,-4.813050270080566,4.950000286102295
1780563547099317800,12.76831787109375,7.999050617218018,-4.582950115203857,4.584000110626221
1780563547118844700,12.7878447265625,7.80495023727417,-4.249050140380859,4.256999969482422
1780563547138372600,12.80737255859375,7.7470502853393555,-3.9679501056671143,4.111050128936768
1780563547157901600,12.826901611328125,7.752000331878662,-3.931950092315674,4.033050060272217
1780563547177428500,12.846428466796874,7.795950412750244,-4.039950370788574,3.8550002574920654
1780563547196952800,12.865952880859375,7.864950180053711,-4.15500020980835,3.561000108718872
1780563547216476000,12.885475830078125,7.890000343322754,-4.24500036239624,3.192000150680542
1780563547236005600,12.905005615234375,7.821000576019287,-4.2870001792907715,2.829000234603882
1780563547255535000,12.92453515625,7.615050315856934,-4.3309502601623535,2.416950225830078
1780563547275057700,12.9440576171875,7.365000247955322,-4.341000080108643,1.864050030708313
1780563547294577000,12.963576904296875,7.152000427246094,-4.2870001792907715,1.2570000886917114
1780563547314096400,12.983096435546875,7.102950572967529,-4.099050045013428,0.6990000605583191
1780563547333617400,13.002617431640624,7.159950256347656,-3.876000165939331,0.2959500253200531
1780563547353140000,13.022139892578124,7.228050231933594,-3.6919500827789307,0.06599999964237213
1780563547372667000,13.0416669921875,7.261050224304199,-3.604950189590454,-0.18300001323223114
1780563547392196000,13.061196044921875,7.35105037689209,-3.550950050354004,-0.673050045967102
1780563547411725000,13.08072509765625,7.5450005531311035,-3.307950258255005,-2.511000156402588
1780563547431255300,13.10025537109375,7.657050132751465,-2.9059500694274902,-4.2019500732421875
1780563547450781000,13.119781005859375,7.70205020904541,-2.5489501953125,-4.105950355529785
1780563547470304500,13.139304443359375,7.6020002365112305,-2.470050096511841,-2.364000082015991
1780563547489835500,13.15883544921875,7.438050270080566,-2.605950117111206,-1.91100013256073
1780563547509363500,13.178363525390624,7.4569501876831055,-2.5879502296447754,-1.6189501285552979
1780563547528886500,13.197886474609374,7.573050498962402,-2.218050003051758,-3.1680002212524414
1780563547548411600,13.21741162109375,7.663950443267822,-1.7269500494003296,-3.6259500980377197
1780563547567937500,13.2369375,7.54395055770874,-1.6219500303268433,-3.832050085067749
1780563547587464200,13.256464111328125,7.315950393676758,-3.535950183868408,-1.3470001220703125
1780563547606989600,13.275989501953125,7.270050525665283,-5.224950313568115,0.30900001525878906
1780563547626516200,13.29551611328125,7.566000461578369,-5.463000297546387,0.895050048828125
1780563547646044000,13.3150439453125,8.142000198364258,-5.467050075531006,0.8629500269889832
1780563547665571800,13.33457177734375,8.748000144958496,-5.032950401306152,-1.27305006980896
1780563547685102000,13.35410205078125,9.072000503540039,-4.444050312042236,-1.4770500659942627
1780563547704634000,13.373634033203125,8.97705078125,-4.159049987792969,-1.0849500894546509
1780563547724163000,13.3931630859375,8.521050453186035,-4.275000095367432,1.0780500173568726
1780563547743689700,13.412689697265625,6.838050365447998,-4.51200008392334,1.7320500612258911
1780563547763216000,13.4322158203125,6.7009501457214355,-4.611000061035156,2.035950183868408
1780563547782741200,13.4517412109375,6.595950126647949,-4.434000015258789,1.7089500427246094
1780563547802263000,13.471262939453124,6.67995023727417,-4.212000370025635,1.2930001020431519
1780563547821782300,13.4907822265625,6.961050510406494,-4.1770501136779785,1.4520000219345093
1780563547841299200,13.51029931640625,7.27500057220459,-4.4760003089904785,2.0350501537323
1780563547860821500,13.529821533203124,7.533000469207764,-4.98900032043457,2.514000177383423
1780563547880347600,13.54934765625,7.819950580596924,-5.389050483703613,2.485950231552124
1780563547899868000,13.568867919921875,8.112000465393066,-5.665050506591797,1.9090501070022583
1780563547919390000,13.588389892578125,8.431050300598145,-5.835000514984131,1.4500501155853271
1780563547938911000,13.607910888671874,8.713050842285156,-5.950050354003906,1.4299501180648804
1780563547958430700,13.6274306640625,8.910000801086426,-6.0859503746032715,1.6080000400543213
1780563547977956900,13.646956787109374,8.974950790405273,-6.1050004959106445,1.6909500360488892
1780563547997486600,13.666486572265624,8.967000007629395,-5.9659504890441895,1.4410500526428223
1780563548017014300,13.68601416015625,9.003000259399414,-5.695950508117676,0.9430500268936157
1780563548036537600,13.70553759765625,9.004950523376465,-5.371950149536133,0.49500003457069397
1780563548056062500,13.7250625,9.028050422668457,-5.170950412750244,0.1879500150680542
1780563548075588600,13.744588623046875,9.088050842285156,-5.115000247955322,-0.022050000727176666
1780563548095114500,13.764114501953125,9.028050422668457,-5.118000030517578,-0.07800000160932541
1780563548114641400,13.783641357421875,9.087000846862793,-5.350950241088867,0.08895000070333481
1780563548134165500,13.80316552734375,9.087000846862793,-5.5980000495910645,0.3550500273704529
1780563548153687800,13.822687744140625,8.968050003051758,-5.674950122833252,0.5550000071525574
1780563548173213000,13.842212890625,8.980050086975098,-5.737950325012207,0.5659500360488892
1780563548192740600,13.86174072265625,9.03795051574707,-5.680050373077393,0.31095001101493835
1780563548212266200,13.881266357421875,9.18600082397461,-5.697000503540039,-0.05700000375509262
1780563548231788800,13.900788818359375,9.327000617980957,-5.892000198364258,-0.28200000524520874
1780563548251309300,13.920309326171875,9.315000534057617,-6.075000286102295,-0.21195000410079956
1780563548270830800,13.939830810546875,9.145950317382812,-6.133950233459473,0.23100000619888306
1780563548290353400,13.959353515625,9.02400016784668,-5.965050220489502,1.8889501094818115
1780563548309879000,13.978879150390625,8.995050430297852,-5.674050331115723,2.4340500831604004
1780563548329408300,13.998408203125,9.082050323486328,-5.548050403594971,2.9640002250671387
1780563548348932400,14.017932373046875,9.1399507522583,-5.674050331115723,3.283950090408325
1780563548368457200,14.037457275390626,9.088950157165527,-5.91795015335083,3.361950159072876
1780563548387990000,14.056989990234374,8.995950698852539,-5.9760003089904785,3.3390002250671387
1780563548407519200,14.076519287109376,8.847000122070312,-5.670000076293945,3.324000120162964
1780563548427046700,14.096046630859375,8.657999992370605,-5.1660003662109375,3.3289501667022705
1780563548446571500,14.115571533203125,8.377950668334961,-4.744050025939941,3.366000175476074
1780563548466096000,14.13509619140625,8.041950225830078,-4.5520501136779785,3.358950138092041
1780563548485621500,14.15462158203125,7.744950294494629,-4.503000259399414,3.268050193786621
1780563548505145900,14.174145751953125,7.609950542449951,-4.427999973297119,3.076050043106079
1780563548524672000,14.193672119140626,7.6710004806518555,-4.234050273895264,2.7229502201080322
1780563548544194000,14.213194091796876,7.801950454711914,-4.07295036315918,2.299950122833252
1780563548563716600,14.232716552734376,7.9800004959106445,-4.050000190734863,1.963050127029419
1780563548583242200,14.2522421875,8.121000289916992,-4.111950397491455,1.8130500316619873
1780563548602767000,14.27176708984375,8.08905029296875,-4.198050022125244,1.8049501180648804
1780563548622294000,14.2912939453125,7.909050464630127,-4.234050273895264,1.76295006275177
1780563548641815300,14.310815185546875,7.752000331878662,-4.236000061035156,1.4869500398635864
1780563548661334800,14.330334716796875,7.639050483703613,-4.210050106048584,-0.10200000554323196
1780563548680855000,14.34985498046875,7.600050449371338,-4.125,-0.45600003004074097
1780563548700379400,14.36937939453125,7.732950210571289,-3.9850502014160156,-0.9010500311851501
1780563548719909000,14.3889091796875,7.897050380706787,-3.832050085067749,-1.120050072669983
1780563548739439000,14.408439208984374,7.915950298309326,-3.7129502296447754,-1.0410000085830688
1780563548758964200,14.427964111328125,8.200050354003906,-3.745950222015381,-0.9420000314712524
1780563548778491400,14.447491455078126,8.653950691223145,-3.664950132369995,-1.1640000343322754
1780563548798024200,14.467024169921874,9.244950294494629,-3.2989501953125,-3.109950065612793
1780563548817554400,14.486554443359376,10.677000045776367,-2.710050106048584,-3.4680001735687256
1780563548837082000,14.50608203125,10.61205005645752,-1.1209501028060913,-3.6259500980377197
1780563548856607200,14.525607177734376,8.886000633239746,-0.921000063419342,-3.2370002269744873
1780563548876131000,14.545131103515626,6.853050231933594,-0.5680500268936157,-1.8019500970840454
1780563548895651800,14.56465185546875,5.323050022125244,1.519050121307373,-1.8870000839233398
1780563548915169800,14.584169677734375,4.921950340270996,3.2250001430511475,-2.473050117492676
1780563548934696200,14.6036962890625,4.486950397491455,3.7140002250671387,-3.850050210952759
1780563548954225700,14.6232255859375,4.4569501876831055,4.180950164794922,-3.5280001163482666
1780563548973750800,14.642750732421876,6.31695032119751,4.071000099182129,-1.5150001049041748
1780563548993275100,14.662275146484374,8.655000686645508,2.01705002784729,0.4939500093460083
1780563549012801800,14.6818017578125,10.993950843811035,1.6950000524520874,0.7380000352859497
1780563549032333000,14.7013330078125,11.506950378417969,1.4590500593185425,0.505050003528595
1780563549051861200,14.720861328125,11.80095100402832,1.3960500955581665,0.12105000764131546
1780563549071387100,14.74038720703125,11.544000625610352,1.453950047492981,0.1080000028014183
1780563549090914800,14.759914794921874,9.90000057220459,1.6060501337051392,0.6100500226020813
1780563549110443300,14.779443359375,9.634050369262695,1.6470000743865967,2.133000135421753
1780563549129975000,14.79897509765625,9.337950706481934,1.8250501155853271,2.146050214767456
1780563549149506600,14.818506591796876,9.091050148010254,2.368950128555298,1.7830500602722168
1780563549169033700,14.83803369140625,8.81505012512207,2.9160001277923584,1.287000060081482
1780563549188560600,14.857560546875,8.472000122070312,3.327000141143799,1.0399500131607056
1780563549208088600,14.877088623046875,8.326950073242188,3.5050501823425293,1.0939500331878662
1780563549227616800,14.89661669921875,8.473950386047363,3.4840502738952637,1.1620500087738037
1780563549247141600,14.9161416015625,8.794950485229492,3.490950107574463,0.9120000600814819
1780563549266666000,14.935666015625,9.07395076751709,3.4960501194000244,0.4240500330924988
1780563549286189600,14.955189453125,9.16200065612793,3.601950168609619,-0.018000001087784767
1780563549305710600,14.974710693359375,9.097050666809082,3.7830002307891846,-0.29295000433921814
1780563549325232400,14.994232421875,8.920050621032715,3.9529502391815186,-0.30900001525878906
1780563549344755200,15.013755126953125,8.74905014038086,4.2109503746032715,-0.22395001351833344
1780563549364277800,15.03327783203125,8.500950813293457,4.498950004577637,-0.3150000274181366
1780563549383803600,15.0528037109375,8.1670503616333,4.666050434112549,-0.5590500235557556
1780563549403332000,15.07233203125,7.858050346374512,4.710000038146973,-0.7750500440597534
1780563549422860300,15.0918603515625,7.69605016708374,4.72005033493042,-0.9379500150680542
1780563549442390500,15.111390625,7.72005033493042,4.591050148010254,-0.9390000700950623
1780563549461919200,15.130919189453126,7.717050552368164,4.435050010681152,-0.8089500665664673
1780563549481447000,15.150447021484375,7.723050594329834,4.380000114440918,-0.7540500164031982
1780563549500977000,15.169976806640625,7.6870503425598145,4.408050060272217,-0.8089500665664673
1780563549520504000,15.189504150390626,7.573050498962402,4.504950046539307,-0.9439500570297241
1780563549540033000,15.209032958984375,7.552950382232666,4.666950225830078,-1.0579500198364258
1780563549559561000,15.22856103515625,7.674000263214111,4.795050144195557,-1.0830000638961792
1780563549579086600,15.248086669921875,7.942950248718262,4.753050327301025,-1.068000078201294
1780563549598611700,15.26761181640625,8.280000686645508,4.648050308227539,-1.0219500064849854
1780563549618134500,15.287134521484376,8.535000801086426,4.531949996948242,-1.0290000438690186
1780563549637658600,15.30665869140625,8.593950271606445,4.41195011138916,-1.114050030708313
1780563549657187000,15.32618701171875,8.614950180053711,4.305000305175781,-1.13100004196167
1780563549676715800,15.3457158203125,8.683950424194336,4.22504997253418,-1.0690500736236572
1780563549696242200,15.3652421875,8.898000717163086,4.153950214385986,-1.009950041770935
1780563549715768300,15.384768310546875,9.247950553894043,3.9619503021240234,-0.9600000381469727
1780563549735295500,15.40429541015625,9.462000846862793,3.835050106048584,-1.048050045967102
1780563549754819800,15.42381982421875,9.496950149536133,3.808950185775757,-1.2390000820159912
1780563549774343000,15.443343017578124,9.36405086517334,3.7729501724243164,-1.3050000667572021
1780563549793867800,15.46286767578125,9.141000747680664,3.871950149536133,-1.287000060081482
1780563549813396200,15.482396240234374,8.935050010681152,3.973950147628784,-1.2460500001907349
1780563549832923400,15.50192333984375,8.730000495910645,4.11899995803833,-1.1670000553131104
1780563549852447000,15.521447021484375,8.5489501953125,4.328999996185303,-1.1220000982284546
1780563549871974400,15.540974365234375,8.383049964904785,4.537050247192383,-1.1610000133514404
1780563549891501800,15.560501708984376,8.380050659179688,4.668000221252441,-1.0969500541687012
1780563549911023900,15.58002392578125,8.56605052947998,4.584000110626221,-0.8989500403404236
1780563549930546700,15.599546630859376,8.857050895690918,4.420050144195557,-0.7090500593185425
1780563549950064600,15.619064697265625,9.148950576782227,4.174050331115723,-0.6270000338554382
1780563549969582000,15.63858203125,9.235950469970703,4.021049976348877,-0.7489500641822815
1780563549989102800,15.658102783203125,9.193050384521484,4.04295015335083,-0.9850500226020813
1780563550008622800,15.677622802734374,9.004050254821777,4.023000240325928,-1.204050064086914
1780563550028148200,15.697148193359375,8.767950057983398,4.080000400543213,-1.2130500078201294
1780563550047673000,15.716673095703126,8.641950607299805,4.085999965667725,-1.0380001068115234
1780563550067197400,15.736197509765624,8.527950286865234,4.009950160980225,-0.9390000700950623
1780563550086718200,15.75571826171875,8.410050392150879,4.029000282287598,-0.9940500259399414
1780563550106239000,15.775239013671875,8.257050514221191,4.096050262451172,-1.1179500818252563
1780563550125763300,15.794763427734376,8.083050727844238,4.213050365447998,-1.2139500379562378
1780563550145288000,15.814287841796874,7.969050407409668,4.330049991607666,-1.1950500011444092
1780563550164814800,15.83381494140625,7.9830002784729,4.555950164794922,-1.0930500030517578
1780563550184342500,15.853342529296874,7.741950511932373,6.261000156402588,-1.2529500722885132
1780563550203866600,15.87286669921875,6.168000221252441,4.294950008392334,-1.062000036239624
1780563550223392500,15.892392578125,6.342000484466553,4.120950222015381,-0.6760500073432922
1780563550242923000,15.911923095703125,6.7669501304626465,3.934950113296509,-0.697950005531311
1780563550262454000,15.9314541015625,9,2.184000015258789,-0.6540000438690186
1780563550281980200,15.950980224609374,10.611000061035156,2.688000202178955,-0.8239500522613525
1780563550301502200,15.970502197265626,10.434000968933105,3.0990002155303955,-1.0600500106811523
1780563550321027000,15.990027099609375,10.225950241088867,2.995950222015381,-0.8610000610351562
1780563550340552200,16.00955224609375,10.11405086517334,2.7870001792907715,-0.5580000281333923
1780563550360076800,16.029076904296875,9.997950553894043,2.6389501094818115,-0.5089499950408936
1780563550379606800,16.048606689453123,9.799050331115723,2.6620500087738037,-0.6490500569343567
1780563550399146800,16.068146728515625,9.541050910949707,2.745000123977661,-0.7069500088691711
1780563550418687500,16.0876875,9.319950103759766,2.820000171661377,-0.6240000128746033
1780563550438217500,16.107217529296875,9.315000534057617,2.9770500659942627,-0.534000039100647
1780563550457744600,16.12674462890625,9.34695053100586,3.192000150680542,-0.49695003032684326
1780563550477276000,16.14627587890625,9.175050735473633,3.433950185775757,-0.534000039100647
1780563550496809700,16.165809814453127,8.815950393676758,3.6310501098632812,-0.597000002861023
1780563550516340000,16.185340087890626,8.437050819396973,3.624000072479248,-0.5539500117301941
1780563550535870500,16.204870361328126,8.28600025177002,3.5209500789642334,-0.47805002331733704
1780563550555408100,16.224408203125,8.406000137329102,3.4330501556396484,-0.4420500099658966
1780563550574948600,16.243948486328126,8.659049987792969,3.391050100326538,-0.42000001668930054
1780563550594490600,16.26349072265625,8.773050308227539,3.444000244140625,-0.5059500336647034
1780563550614031000,16.283031005859375,8.706000328063965,3.501000165939331,-0.5590500235557556
1780563550633561600,16.3025615234375,8.695950508117676,3.5340001583099365,-0.547950029373169
1780563550653091600,16.322091552734374,8.850000381469727,3.5250000953674316,-0.5460000038146973
1780563550672625700,16.341625732421875,9.064949989318848,3.463050127029419,-0.4990500211715698
1780563550692157200,16.3611572265625,9.181950569152832,3.328050136566162,-0.49800002574920654
1780563550711686100,16.38068603515625,9.105000495910645,3.1339502334594727,-0.5209500193595886
1780563550731212000,16.4002119140625,8.880000114440918,3.0450000762939453,-0.612000048160553
1780563550750735400,16.4197353515625,8.769000053405762,3.0010502338409424,-0.6559500098228455
1780563550770253600,16.439253662109376,8.854949951171875,3.0210001468658447,-0.675000011920929
1780563550789770800,16.458770751953125,9.034049987792969,3.117000102996826,-0.7309500575065613
1780563550809288400,16.478288330078126,9.118050575256348,3.0990002155303955,-0.7150500416755676
1780563550828807400,16.497807373046875,9.157950401306152,3.0580501556396484,-0.7920000553131104
1780563550848332000,16.51733203125,9.223950386047363,2.997000217437744,-0.8989500403404236
1780563550867861200,16.536861328125,9.127050399780273,2.908050060272217,-0.8290500640869141
1780563550887392000,16.55639208984375,9.0600004196167,2.8600502014160156,-0.7069500088691711
1780563550906919700,16.575919677734376,9.031050682067871,2.7589502334594727,-0.5250000357627869
1780563550926446600,16.595446533203123,9.043050765991211,2.83305025100708,-0.5070000290870667
