time,seconds_elapsed,z,y,x
1781031076836527000,0.449527099609375,0.09459999948740005,0.14093749225139618,0.693274974822998
1781031076846291700,0.459291748046875,0.2116124927997589,0.32477501034736633,0.6500999927520752
1781031076865817600,0.478817626953125,0.2116124927997589,0.32477501034736633,0.6500999927520752
1781031076885338600,0.498338623046875,0.28833749890327454,0.3854124844074249,0.5982624888420105
1781031076904856300,0.517856201171875,0.3546124994754791,0.4208875000476837,0.5193374752998352
1781031076924376800,0.537376953125,0.37111249566078186,0.4197874963283539,0.3866499960422516
1781031076943899600,0.556899658203125,0.3258749842643738,0.3856875002384186,0.18273749947547913
1781031076963421400,0.57642138671875,0.3258749842643738,0.3856875002384186,0.18273749947547913
1781031076982948900,0.595948974609375,0.15207499265670776,0.3632749915122986,-0.29067498445510864
1781031077002479000,0.61547900390625,0.15207499265670776,0.3632749915122986,-0.29067498445510864
1781031077022005200,0.635005126953125,-0.07163749635219574,0.6169624924659729,-0.5053125023841858
1781031077041528800,0.65452880859375,-0.07163749635219574,0.6169624924659729,-0.5053125023841858
1781031077061053000,0.674052978515625,-0.43876248598098755,1.274899959564209,-0.5522000193595886
1781031077080580600,0.69358056640625,-0.6309875249862671,1.6684249639511108,-0.6646749973297119
1781031077100106800,0.713106689453125,-0.7766000032424927,1.9778000116348267,-0.8504375219345093
1781031077119635700,0.7326357421875,-0.8516749739646912,2.1572375297546387,-1.0449999570846558
1781031077139166500,0.75216650390625,-0.854699969291687,2.223375082015991,-1.193774938583374
1781031077158691600,0.771691650390625,-0.854699969291687,2.223375082015991,-1.193774938583374
1781031077178214100,0.791214111328125,-0.597712516784668,2.172499895095825,-1.2311749458312988
1781031077197736700,0.81073681640625,-0.597712516784668,2.172499895095825,-1.2311749458312988
1781031077217260800,0.8302607421875,-0.3984749913215637,2.166450023651123,-1.300475001335144
1781031077236785000,0.849784912109375,-0.3984749913215637,2.166450023651123,-1.300475001335144
1781031077256309500,0.8693095703125,-0.16651250422000885,2.2882750034332275,-1.1838749647140503
1781031077275831300,0.888831298828125,-0.07823749631643295,2.37146258354187,-1.103024959564209
1781031077295352600,0.9083525390625,-0.0042624999769032,2.443650007247925,-1.0576499700546265
1781031077314876200,0.927876220703125,0.05706249922513962,2.479675054550171,-1.0763499736785889
1781031077334402800,0.94740283203125,0.09143749624490738,2.4688124656677246,-1.1668249368667603
1781031077353936000,0.966935791015625,0.09143749624490738,2.4688124656677246,-1.1668249368667603
1781031077373462300,0.986462158203125,-0.02227500081062317,2.315774917602539,-1.4939374923706055
1781031077392984300,1.005984375,-0.02227500081062317,2.315774917602539,-1.4939374923706055
1781031077412511500,1.025511474609375,-0.34443750977516174,2.0356874465942383,-1.8955750465393066
1781031077432040000,1.0450400390625,-0.34443750977516174,2.0356874465942383,-1.8955750465393066
1781031077451559200,1.06455908203125,-0.5028374791145325,1.3479125499725342,-2.1975250244140625
1781031077471071500,1.084071533203125,-0.5006374716758728,0.9031000137329102,-2.241112470626831
1781031077490588000,1.103587890625,-0.4805625081062317,0.5077875256538391,-2.208937406539917
1781031077510108700,1.123108642578125,-0.44536250829696655,0.1938749998807907,-2.1187374591827393
1781031077529636600,1.14263671875,-0.3830749988555908,-0.040562499314546585,-2.000075101852417
1781031077549164800,1.162164794921875,-0.3830749988555908,-0.040562499314546585,-2.000075101852417
1781031077568688600,1.181688720703125,-0.09473749995231628,-0.03464999794960022,-1.7701749801635742
1781031077588209200,1.201209228515625,-0.09473749995231628,-0.03464999794960022,-1.7701749801635742
1781031077607727400,1.220727294921875,0.12759999930858612,-0.0518375001847744,-1.6636124849319458
1781031077627253000,1.2402529296875,0.5255249738693237,0.023787500336766243,-1.4605250358581543
1781031077646784300,1.2597841796875,0.5255249738693237,0.023787500336766243,-1.4605250358581543
1781031077666314800,1.279314697265625,0.5255249738693237,0.023787500336766243,-1.4605250358581543
1781031077685848300,1.298848388671875,0.7117000222206116,-0.06655000150203705,-1.3183499574661255
1781031077705383700,1.3183837890625,0.7117000222206116,-0.06655000150203705,-1.3183499574661255
1781031077724915500,1.33791552734375,0.634975016117096,-0.3151499927043915,-1.2131625413894653
1781031077744447000,1.357447021484375,0.5629249811172485,-0.4291374981403351,-1.184149980545044
1781031077763982300,1.376982421875,0.5039374828338623,-0.47616249322891235,-1.1280499696731567
1781031077783515100,1.39651513671875,0.5039374828338623,-0.47616249322891235,-1.1280499696731567
1781031077803047700,1.416047607421875,0.415800005197525,-0.3564000129699707,-0.8493375182151794
1781031077822580500,1.43558056640625,0.415800005197525,-0.3564000129699707,-0.8493375182151794
1781031077842107100,1.455107177734375,0.3326124846935272,-0.04372499883174896,-0.3493874967098236
1781031077861634600,1.474634521484375,0.3326124846935272,-0.04372499883174896,-0.3493874967098236
1781031077881164300,1.494164306640625,0.1671999990940094,0.3636874854564667,0.38266250491142273
1781031077900697900,1.51369775390625,0.12099999934434891,0.5432624816894531,0.6752625107765198
1781031077920232400,1.533232421875,0.13062499463558197,0.6935499906539917,0.8647375106811523
1781031077939764700,1.5527646484375,0.18301250040531158,0.825962483882904,0.9960500001907349
1781031077959293200,1.572293212890625,0.18301250040531158,0.825962483882904,0.9960500001907349
1781031077978822000,1.59182177734375,0.353237509727478,1.006637454032898,1.1738375425338745
1781031077998355000,1.61135498046875,0.353237509727478,1.006637454032898,1.1738375425338745
1781031078017885700,1.6308857421875,0.5171374678611755,1.0261625051498413,1.260599970817566
1781031078037411800,1.650411865234375,0.5171374678611755,1.0261625051498413,1.260599970817566
1781031078056937500,1.6699375,0.5552250146865845,0.902412474155426,1.3129874467849731
1781031078076464600,1.689464599609375,0.5451874732971191,0.8276125192642212,1.2869999408721924
1781031078095988700,1.70898876953125,0.5302000045776367,0.7709624767303467,1.2142624855041504
1781031078115511600,1.728511474609375,0.5123249888420105,0.7378249764442444,1.1118249893188477
1781031078135036000,1.748035888671875,0.49623748660087585,0.724762499332428,0.9979749917984009
1781031078154559500,1.7675595703125,0.49623748660087585,0.724762499332428,0.9979749917984009
1781031078174077400,1.787077392578125,0.495137482881546,0.6976749897003174,0.7258625030517578
1781031078193596000,1.806595947265625,0.495137482881546,0.6976749897003174,0.7258625030517578
1781031078213116000,1.826115966796875,0.5332249999046326,0.5076500177383423,0.4278999865055084
1781031078232634400,1.84563427734375,0.5332249999046326,0.5076500177383423,0.4278999865055084
1781031078252156000,1.865156005859375,0.5549499988555908,0.21285000443458557,0.164450004696846
1781031078271680300,1.88468017578125,0.5524749755859375,0.09941250085830688,0.028875000774860382
1781031078291202000,1.9042021484375,0.5383124947547913,0.029424998909235,-0.08635000139474869
1781031078310720500,1.923720458984375,0.5084750056266785,-0.002199999988079071,-0.16513749957084656
1781031078330236000,1.94323583984375,0.4622749984264374,-0.015537500381469727,-0.21793749928474426
1781031078349753000,1.962753173828125,0.4622749984264374,-0.015537500381469727,-0.21793749928474426
1781031078369273900,1.98227392578125,0.3077250123023987,-0.0705375000834465,-0.3040125072002411
1781031078388794600,2.001794677734375,0.3077250123023987,-0.0705375000834465,-0.3040125072002411
1781031078408318500,2.021318359375,0.04441250115633011,-0.24860000610351562,-0.3909125030040741
1781031078427843300,2.04084326171875,0.04441250115633011,-0.24860000610351562,-0.3909125030040741
1781031078447369200,2.060369140625,-0.2974124848842621,-0.4402749836444855,-0.5387250185012817
1781031078466896100,2.079896240234375,-0.47079998254776,-0.5759875178337097,-0.633187472820282
1781031078486421000,2.0994208984375,-0.47079998254776,-0.5759875178337097,-0.633187472820282
1781031078505946600,2.118946533203125,-0.735212504863739,-0.9204249978065491,-0.8133124709129333
1781031078525474600,2.138474609375,-0.735212504863739,-0.9204249978065491,-0.8133124709129333
1781031078544994600,2.15799462890625,-0.8179875016212463,-1.0223125219345093,-0.8898999691009521
1781031078564515000,2.17751513671875,-0.8615750074386597,-1.0459624528884888,-0.9431124925613403
1781031078584036900,2.197036865234375,-0.8538749814033508,-1.0051250457763672,-0.9671750068664551
1781031078603553000,2.216552978515625,-0.8538749814033508,-1.0051250457763672,-0.9671750068664551
1781031078623068200,2.236068115234375,-0.6708624958992004,-0.8200500011444092,-0.9656624794006348
1781031078642587100,2.255587158203125,-0.6708624958992004,-0.8200500011444092,-0.9656624794006348
1781031078662113500,2.275113525390625,-0.4265249967575073,-0.6432250142097473,-0.9054374694824219
1781031078681644800,2.294644775390625,-0.35378751158714294,-0.515625,-0.8076750040054321
1781031078701172200,2.314172119140625,-0.3268375098705292,-0.34540000557899475,-0.6589000225067139
1781031078720690400,2.3336904296875,-0.3293125033378601,-0.15812499821186066,-0.46915000677108765
1781031078740206600,2.35320654296875,-0.3392125070095062,0.009487500414252281,-0.2601499855518341
1781031078759725300,2.372725341796875,-0.3392125070095062,0.009487500414252281,-0.2601499855518341
1781031078779246000,2.39224609375,-0.33508750796318054,0.23526249825954437,0.10436250269412994
1781031078798765300,2.411765380859375,-0.33508750796318054,0.23526249825954437,0.10436250269412994
1781031078818284300,2.4312841796875,-0.2974124848842621,0.38183748722076416,0.34759998321533203
1781031078837809700,2.4508095703125,-0.2974124848842621,0.38183748722076416,0.34759998321533203
1781031078857331700,2.470331787109375,-0.24365000426769257,0.5084750056266785,0.5504124760627747
1781031078876846600,2.4898466796875,-0.2172500044107437,0.5838249921798706,0.6931374669075012
1781031078896366300,2.509366455078125,-0.1845249980688095,0.6687999963760376,0.8542875051498413
1781031078915891500,2.528891357421875,-0.1311749964952469,0.7478625178337097,0.9838125109672546
1781031078935415300,2.548415283203125,-0.0471624992787838,0.8054749965667725,1.0429375171661377
1781031078954939100,2.567939208984375,-0.0471624992787838,0.8054749965667725,1.0429375171661377
1781031078974464500,2.587464599609375,0.1896124929189682,0.8493375182151794,0.9927499890327454
1781031078993992200,2.6069921875,0.1896124929189682,0.8493375182151794,0.9927499890327454
1781031079013524000,2.62652392578125,0.4096125066280365,0.8607500195503235,0.9459999799728394
1781031079033053200,2.64605322265625,0.4096125066280365,0.8607500195503235,0.9459999799728394
1781031079052579000,2.6655791015625,0.5128750205039978,0.8058875203132629,0.9333499670028687
1781031079072102700,2.6851025390625,0.5220875144004822,0.7231125235557556,0.8793125152587891
1781031079091624400,2.70462451171875,0.5105375051498413,0.6118749976158142,0.7764624953269958
1781031079111150000,2.724150146484375,0.48262500762939453,0.4974749982357025,0.6400625109672546
1781031079130676200,2.74367626953125,0.443574994802475,0.40369999408721924,0.49431249499320984
1781031079150200600,2.76320068359375,0.443574994802475,0.40369999408721924,0.49431249499320984
1781031079169726700,2.782726806640625,0.36355000734329224,0.2648249864578247,0.19676250219345093
1781031079189250800,2.802250732421875,0.36355000734329224,0.2648249864578247,0.19676250219345093
1781031079208772400,2.8217724609375,0.3433375060558319,0.027637500315904617,-0.09652499854564667
1781031079228294000,2.8412939453125,0.3511750102043152,-0.12443749606609344,-0.2246749997138977
1781031079247815400,2.8608154296875,0.3511750102043152,-0.12443749606609344,-0.2246749997138977
1781031079267336400,2.88033642578125,0.3422375023365021,-0.33371248841285706,-0.37619999051094055
1781031079286857500,2.899857421875,0.3422375023365021,-0.33371248841285706,-0.37619999051094055
1781031079306378000,2.9193779296875,0.3422375023365021,-0.33371248841285706,-0.37619999051094055
1781031079325897000,2.93889697265625,0.26028749346733093,-0.3302749991416931,-0.4189625084400177
1781031079345416000,2.958416015625,0.26028749346733093,-0.3302749991416931,-0.4189625084400177
1781031079364937200,2.977937255859375,0.1377750039100647,-0.258774995803833,-0.4666749835014343
1781031079384458500,2.99745849609375,0.0728750005364418,-0.23292499780654907,-0.5024250149726868
1781031079403979800,3.016979736328125,0.011274999938905239,-0.21285000443458557,-0.5550875067710876
1781031079423502600,3.036502685546875,0.011274999938905239,-0.21285000443458557,-0.5550875067710876
1781031079443021300,3.056021240234375,-0.12278749793767929,-0.2232999950647354,-0.691349983215332
1781031079462542000,3.0755419921875,-0.12278749793767929,-0.2232999950647354,-0.691349983215332
1781031079482069000,3.095069091796875,-0.3529624938964844,-0.4801499843597412,-0.8273375034332275
1781031079501594000,3.114593994140625,-0.47946250438690186,-0.6583499908447266,-0.9186375141143799
1781031079521124000,3.1341240234375,-0.5809375047683716,-0.7940624952316284,-1.018875002861023
1781031079540654600,3.153654541015625,-0.6452875137329102,-0.865149974822998,-1.0978000164031982
1781031079560182300,3.173182373046875,-0.6452875137329102,-0.865149974822998,-1.0978000164031982
1781031079579707400,3.192707275390625,-0.634149968624115,-0.8219749927520752,-1.110450029373169
1781031079599229400,3.2122294921875,-0.634149968624115,-0.8219749927520752,-1.110450029373169
1781031079618753300,3.231753173828125,-0.4511374831199646,-0.6360750198364258,-0.9439374804496765
1781031079638278000,3.25127783203125,-0.4511374831199646,-0.6360750198364258,-0.9439374804496765
1781031079657801000,3.270801025390625,-0.20748749375343323,-0.4573250114917755,-0.6973999738693237
1781031079677320700,3.29032080078125,-0.09239999949932098,-0.3741374909877777,-0.5983999967575073
1781031079696842500,3.309842529296875,-0.006737499963492155,-0.2751374840736389,-0.4830375015735626
1781031079716369200,3.329369140625,0.03272499889135361,-0.1522125005722046,-0.31459999084472656
1781031079735895000,3.34889501953125,0.03231250122189522,-0.01223750039935112,-0.10216250270605087
1781031079755417000,3.3684169921875,0.03231250122189522,-0.01223750039935112,-0.10216250270605087
1781031079774936300,3.387936279296875,-0.02667500078678131,0.26083749532699585,0.3330250084400177
1781031079794457000,3.40745703125,-0.02667500078678131,0.26083749532699585,0.3330250084400177
1781031079813981700,3.426981689453125,-0.11577499657869339,0.42666250467300415,0.6386874914169312
1781031079833504000,3.44650390625,-0.11577499657869339,0.42666250467300415,0.6386874914169312
1781031079853026300,3.4660263671875,-0.19359999895095825,0.5216749906539917,0.7893875241279602
1781031079872549400,3.48554931640625,-0.21642500162124634,0.5739250183105469,0.8391624689102173
1781031079892072400,3.505072509765625,-0.22384999692440033,0.6282374858856201,0.8768374919891357
1781031079911593500,3.524593505859375,-0.21683749556541443,0.6851624846458435,0.9129999876022339
1781031079931114200,3.5441142578125,-0.19415000081062317,0.7488250136375427,0.9526000022888184
1781031079950636300,3.56363623046875,-0.19415000081062317,0.7488250136375427,0.9526000022888184
1781031079970156800,3.58315673828125,-0.06572499871253967,0.896637499332428,0.9926124811172485
1781031079989675800,3.60267578125,-0.06572499871253967,0.896637499332428,0.9926124811172485
1781031080009193500,3.622193359375,0.17778749763965607,1.024649977684021,0.9944000244140625
1781031080028714000,3.6417138671875,0.17778749763965607,1.024649977684021,0.9944000244140625
1781031080048238000,3.661238037109375,0.17778749763965607,1.024649977684021,0.9944000244140625
1781031080067762400,3.680762451171875,0.43408748507499695,0.956725001335144,0.9267500042915344
1781031080087288600,3.70028857421875,0.43408748507499695,0.956725001335144,0.9267500042915344
1781031080106814000,3.71981396484375,0.4652999937534332,0.8888000249862671,0.8657000064849854
1781031080126338600,3.739338623046875,0.4652999937534332,0.8888000249862671,0.8657000064849854
1781031080145860000,3.758860107421875,0.4591124951839447,0.7108749747276306,0.6887375116348267
1781031080165378800,3.77837890625,0.383899986743927,0.44288748502731323,0.42377498745918274
1781031080184898000,3.79789794921875,0.383899986743927,0.44288748502731323,0.42377498745918274
1781031080204421000,3.817421142578125,0.3381125032901764,0.29589998722076416,0.2657875120639801
1781031080223943700,3.836943603515625,0.29397499561309814,0.15289999544620514,0.1264999955892563
1781031080243466000,3.856466064453125,0.2531374990940094,0.002337499987334013,0.0170499999076128
1781031080272749300,3.885749267578125,0.2531374990940094,0.002337499987334013,0.0170499999076128
1781031080282513000,3.895512939453125,0.19071249663829803,-0.32381248474121094,-0.2367749959230423
1781031080302038500,3.91503857421875,0.170912504196167,-0.453062504529953,-0.4021874964237213
1781031080321564000,3.93456396484375,0.15399999916553497,-0.5325375199317932,-0.5414749979972839
1781031080341092600,3.954092529296875,0.1373624950647354,-0.5649874806404114,-0.6263124942779541
1781031080360627200,3.973627197265625,0.1373624950647354,-0.5649874806404114,-0.6263124942779541
1781031080380157700,3.99315771484375,0.11508750170469284,-0.5197499990463257,-0.7346624732017517
1781031080399681300,4.012681396484375,0.11508750170469284,-0.5197499990463257,-0.7346624732017517
1781031080419207000,4.03220703125,0.10119999945163727,-0.3723500072956085,-0.8977375030517578
1781031080438732500,4.051732666015625,0.10119999945163727,-0.3723500072956085,-0.8977375030517578
1781031080458256100,4.071256103515625,0.04853750020265579,-0.2957625091075897,-1.0110374689102173
1781031080477787000,4.090786865234375,-0.0005499999970197678,-0.3636874854564667,-1.0385375022888184
1781031080497319400,4.1103193359375,-0.0494999997317791,-0.49431249499320984,-1.0813000202178955
1781031080516844300,4.12984423828125,-0.08538749814033508,-0.6333249807357788,-1.1525249481201172
1781031080536371500,4.149371337890625,-0.10573749989271164,-0.7301250100135803,-1.2392874956130981
1781031080555899400,4.1688994140625,-0.10573749989271164,-0.7301250100135803,-1.2392874956130981
1781031080575423500,4.188423583984375,-0.11550000309944153,-0.7477250099182129,-1.367300033569336
1781031080594950000,4.207949951171875,-0.11550000309944153,-0.7477250099182129,-1.367300033569336
1781031080614483200,4.227483154296875,-0.09721250087022781,-0.5788750052452087,-1.337049961090088
1781031080634022400,4.2470224609375,-0.09721250087022781,-0.5788750052452087,-1.337049961090088
1781031080653555700,4.2665556640625,-0.0835999995470047,-0.4665375053882599,-1.123924970626831
1781031080673084700,4.286084716796875,-0.07315000146627426,-0.47946250438690186,-1.02162504196167
1781031080692617000,4.305616943359375,-0.06476250290870667,-0.5112249851226807,-0.9283999800682068
1781031080712147200,4.325147216796875,-0.07906249910593033,-0.5209875106811523,-0.7842999696731567
1781031080731673600,4.344673583984375,-0.13048750162124634,-0.4736874997615814,-0.5476624965667725
1781031080751200300,4.3642001953125,-0.13048750162124634,-0.4736874997615814,-0.5476624965667725
1781031080770727700,4.383727783203125,-0.2868250012397766,-0.1872749924659729,0.06833750009536743
1781031080790253000,4.403253173828125,-0.2868250012397766,-0.1872749924659729,0.06833750009536743
1781031080809777000,4.42277685546875,-0.3777124881744385,0.24681249260902405,0.5828624963760376
1781031080829297700,4.442297607421875,-0.3777124881744385,0.24681249260902405,0.5828624963760376
1781031080848816000,4.461816162109375,-0.3910500109195709,0.597712516784668,0.9383000135421753
1781031080868340200,4.48134033203125,-0.3889875113964081,0.7541875243186951,1.1042624711990356
1781031080887865900,4.500865966796875,-0.37894999980926514,0.8834375143051147,1.2513874769210815
1781031080907390200,4.52039013671875,-0.37894999980926514,0.8834375143051147,1.2513874769210815
1781031080926921500,4.53992138671875,-0.3291749954223633,0.792412519454956,1.3991999626159668
1781031080946451700,4.55945166015625,-0.3291749954223633,0.792412519454956,1.3991999626159668
1781031080965980700,4.578980712890625,-0.3291749954223633,0.792412519454956,1.3991999626159668
1781031080985513200,4.59851318359375,-0.2657875120639801,0.22398750483989716,1.4535125494003296
1781031081005043500,4.61804345703125,-0.18383750319480896,0.1313125044107437,1.4678125381469727
1781031081024570400,4.6375703125,-0.04606249928474426,0.2120250016450882,1.4609375
1781031081044097800,4.657097900390625,0.1270499974489212,0.4599374830722809,1.3151874542236328
1781031081063620400,4.676620361328125,0.1270499974489212,0.4599374830722809,1.3151874542236328
1781031081083141600,4.6961416015625,0.44632500410079956,0.7992874979972839,1.1891000270843506
1781031081102666500,4.71566650390625,0.5564625263214111,0.8034124970436096,1.1397374868392944
1781031081122189600,4.735189453125,0.6182000041007996,0.717199981212616,1.0319374799728394
1781031081141712400,4.75471240234375,0.6362124681472778,0.5878124833106995,0.8824750185012817
1781031081161235000,4.77423486328125,0.6362124681472778,0.5878124833106995,0.8824750185012817
1781031081180755700,4.793755615234375,0.5702124834060669,0.3144625127315521,0.5714499950408936
1781031081200279800,4.81327978515625,0.5702124834060669,0.3144625127315521,0.5714499950408936
1781031081219808800,4.832808837890625,0.42473748326301575,0.008937500417232513,0.30855000019073486
1781031081239341800,4.852341796875,0.42473748326301575,0.008937500417232513,0.30855000019073486
1781031081258875100,4.871875244140625,0.2750000059604645,-0.4160749912261963,0.04675000160932541
1781031081278403000,4.891403076171875,0.2139499932527542,-0.6319500207901001,-0.09308750182390213
1781031081297928200,4.91092822265625,0.1652749925851822,-0.8014875054359436,-0.234437495470047
1781031081317452300,4.930452392578125,0.12870000302791595,-0.9072250127792358,-0.3628624975681305
1781031081336976400,4.949976318359375,0.10175000131130219,-0.9486125111579895,-0.45883750915527344
1781031081356498700,4.969498779296875,0.10175000131130219,-0.9486125111579895,-0.45883750915527344
1781031081376020700,4.989020751953125,0.06627500057220459,-0.8608874678611755,-0.520437479019165
1781031081395541800,5.008541748046875,0.06627500057220459,-0.8608874678611755,-0.520437479019165
1781031081415061800,5.028061767578125,0.0625625029206276,-0.5754374861717224,-0.49623748660087585
1781031081434579700,5.047579833984375,0.0625625029206276,-0.5754374861717224,-0.49623748660087585
1781031081454093800,5.06709375,0.08635000139474869,-0.1457500010728836,-0.5455999970436096
1781031081473611300,5.086611328125,0.07851249724626541,0.07906249910593033,-0.5842375159263611
1781031081493134300,5.10613427734375,0.04441250115633011,0.2410375028848648,-0.6169624924659729
1781031081512659200,5.1256591796875,-0.03671250119805336,0.26606249809265137,-0.6627500057220459
1781031081532183300,5.145183349609375,-0.18287499248981476,0.1303499937057495,-0.7517125010490417
1781031081551709400,5.16470947265625,-0.18287499248981476,0.1303499937057495,-0.7517125010490417
1781031081571237000,5.184237060546875,-0.5326749682426453,-0.42198750376701355,-1.031112551689148
1781031081590762000,5.203761962890625,-0.5326749682426453,-0.42198750376701355,-1.031112551689148
1781031081610285000,5.22328515625,-0.6868125200271606,-0.8925125002861023,-1.22017502784729
1781031081629811500,5.2428115234375,-0.6868125200271606,-0.8925125002861023,-1.22017502784729
1781031081649340400,5.26234033203125,-0.6201249957084656,-1.111412525177002,-1.2930500507354736
1781031081668867300,5.281867431640625,-0.5235999822616577,-1.1614625453948975,-1.3294874429702759
1781031081688388400,5.301388427734375,-0.41346248984336853,-1.1712249517440796,-1.3400750160217285
1781031081707908900,5.320908935546875,-0.41346248984336853,-1.1712249517440796,-1.3400750160217285
1781031081727433200,5.34043310546875,-0.31033748388290405,-1.128600001335144,-1.2926374673843384
1781031081746956000,5.3599560546875,-0.2232999950647354,-1.0194250345230103,-1.174662470817566
1781031081766477600,5.3794775390625,-0.10793749988079071,-0.5744749903678894,-0.7075750231742859
1781031081786000600,5.399000732421875,-0.10793749988079071,-0.5744749903678894,-0.7075750231742859
1781031081805521700,5.418521728515625,-0.10793749988079071,-0.5744749903678894,-0.7075750231742859
1781031081825041400,5.43804150390625,-0.12209999561309814,0.19112500548362732,0.20019999146461487
1781031081844560400,5.457560302734375,-0.12209999561309814,0.19112500548362732,0.20019999146461487
1781031081864082000,5.47708203125,-0.15867500007152557,0.3821125030517578,0.43793749809265137
1781031081883608300,5.4966083984375,-0.20061250030994415,0.5435374975204468,0.6470749974250793
1781031081903125200,5.516125244140625,-0.23980000615119934,0.6824125051498413,0.8346250057220459
1781031081922640000,5.535639892578125,-0.26138749718666077,0.8071249723434448,0.987387478351593
1781031081942164000,5.5551640625,-0.25066250562667847,0.9200124740600586,1.0884499549865723
1781031081961691600,5.574691650390625,-0.25066250562667847,0.9200124740600586,1.0884499549865723
1781031081981213700,5.594213623046875,-0.13529999554157257,1.0946375131607056,1.2100000381469727
1781031082000734200,5.613734130859375,-0.13529999554157257,1.0946375131607056,1.2100000381469727
1781031082020256500,5.633256591796875,0.11371249705553055,1.2223750352859497,1.3182125091552734
1781031082039773000,5.65277294921875,0.11371249705553055,1.2223750352859497,1.3182125091552734
1781031082059290400,5.672290283203125,0.3783999979496002,1.0610874891281128,1.2864500284194946
1781031082078814700,5.691814697265625,0.453062504529953,0.8948500156402588,1.2621124982833862
1781031082098340900,5.7113408203125,0.48826250433921814,0.8940249681472778,1.229662537574768
1781031082117867500,5.730867431640625,0.49857500195503235,0.8998000025749207,1.1504625082015991
1781031082137394400,5.75039453125,0.49623748660087585,0.8914124965667725,1.0155750513076782
1781031082156919300,5.769919189453125,0.49623748660087585,0.8914124965667725,1.0155750513076782
1781031082176441900,5.78944189453125,0.455949991941452,0.7958499789237976,0.7046874761581421
1781031082195967500,5.808967529296875,0.455949991941452,0.7958499789237976,0.7046874761581421
1781031082215498800,5.828498779296875,0.35708749294281006,0.383899986743927,0.46447500586509705
1781031082235028700,5.84802880859375,0.35708749294281006,0.383899986743927,0.46447500586509705
1781031082254557700,5.8675576171875,0.23498749732971191,-0.14739999175071716,0.28091248869895935
1781031082274087700,5.887087646484375,0.1868624985218048,-0.33976250886917114,0.20308749377727509
1781031082293615600,5.90661572265625,0.1551000028848648,-0.47148749232292175,0.1266375035047531
1781031082313143800,5.926143798828125,0.1434125006198883,-0.5355625152587891,0.03162499889731407
1781031082332673500,5.945673583984375,0.15372499823570251,-0.5303375124931335,-0.10353749990463257
1781031082352205000,5.965205078125,0.15372499823570251,-0.5303375124931335,-0.10353749990463257
1781031082371734000,5.984734130859375,0.20143750309944153,-0.38981249928474426,-0.39668750762939453
1781031082391258600,6.004258544921875,0.20143750309944153,-0.38981249928474426,-0.39668750762939453
1781031082410784500,6.023784423828125,0.19071249663829803,-0.30483749508857727,-0.5407875180244446
1781031082430307800,6.043307861328125,0.19071249663829803,-0.30483749508857727,-0.5407875180244446
1781031082449828400,6.062828369140625,0.11426249891519547,-0.432574987411499,-0.6265875101089478
1781031082469355300,6.082355224609375,0.06696250289678574,-0.6107749938964844,-0.6433625221252441
1781031082488883700,6.1018837890625,0.031212499365210533,-0.828712522983551,-0.6589000225067139
1781031082508407600,6.121407470703125,0.015812499448657036,-1.0029250383377075,-0.682687520980835
1781031082527930000,6.14093017578125,0.015812499448657036,-1.0029250383377075,-0.682687520980835
1781031082547453200,6.160453125,0.01718750037252903,-0.9791374802589417,-0.6876375079154968
1781031082566977800,6.179977783203125,0.01718750037252903,-0.9791374802589417,-0.6876375079154968
1781031082586500000,6.1995,0.012649999931454659,-0.6045874953269958,-0.6066499948501587
1781031082606018300,6.219018310546875,0.012649999931454659,-0.6045874953269958,-0.6066499948501587
1781031082625538600,6.23853857421875,0.04908749833703041,-0.2167000025510788,-0.5637499690055847
1781031082645063000,6.25806298828125,0.04908749833703041,-0.2167000025510788,-0.5637499690055847
1781031082664586200,6.277586181640625,0.08511249721050262,-0.09088750183582306,-0.568149983882904
1781031082684112400,6.2971123046875,0.11797499656677246,-0.042899999767541885,-0.5861625075340271
1781031082703638000,6.316637939453125,0.13516250252723694,-0.08332499861717224,-0.633187472820282
1781031082723165000,6.3361650390625,0.1297999918460846,-0.19359999895095825,-0.7221499681472778
1781031082742697200,6.355697265625,0.09776250272989273,-0.3279374837875366,-0.8263750076293945
1781031082762225700,6.3752255859375,0.09776250272989273,-0.3279374837875366,-0.8263750076293945
1781031082781746700,6.39474658203125,-0.050599999725818634,-0.37097498774528503,-0.8194999694824219
1781031082801271000,6.41427099609375,-0.050599999725818634,-0.37097498774528503,-0.8194999694824219
1781031082820796700,6.433796630859375,-0.21546250581741333,-0.02213750034570694,-0.44110000133514404
1781031082840321000,6.453321044921875,-0.21546250581741333,-0.02213750034570694,-0.44110000133514404
1781031082859846000,6.472845947265625,-0.2578125,0.3441624939441681,0.008662499487400055
1781031082879368000,6.492367919921875,-0.24213749170303345,0.4866124987602234,0.18988749384880066
1781031082898889500,6.511889404296875,-0.22577500343322754,0.597712516784668,0.3488374948501587
1781031082918411300,6.531411376953125,-0.219587504863739,0.6754000186920166,0.49334999918937683
1781031082937932500,6.5509326171875,-0.22027499973773956,0.7207750082015991,0.6115999817848206
1781031082957449000,6.570448974609375,-0.22027499973773956,0.7207750082015991,0.6115999817848206
1781031082976968400,6.589968505859375,-0.2176624983549118,0.7418124675750732,0.7587249875068665
1781031082996491500,6.609491455078125,-0.2176624983549118,0.7418124675750732,0.7587249875068665
1781031083016011800,6.62901171875,-0.15303750336170197,0.7301250100135803,0.8511250019073486
1781031083035530500,6.648530517578125,-0.15303750336170197,0.7301250100135803,0.8511250019073486
1781031083055047000,6.668046875,0.01251249946653843,0.7000125050544739,0.8446624875068665
1781031083074562300,6.687562255859375,0.09171249717473984,0.6730625033378601,0.8875625133514404
1781031083094082300,6.707082275390625,0.14794999361038208,0.6330500245094299,0.9608500003814697
1781031083113604400,6.726604248046875,0.18754999339580536,0.5832750201225281,0.9912375211715698
1781031083133127700,6.746127685546875,0.22192500531673431,0.5341874957084656,0.929224967956543
1781031083152656000,6.76565576171875,0.22192500531673431,0.5341874957084656,0.929224967956543
1781031083172181800,6.785181640625,0.27719998359680176,0.44866248965263367,0.6671500205993652
1781031083191701200,6.804701171875,0.27719998359680176,0.44866248965263367,0.6671500205993652
1781031083211218700,6.82421875,0.28984999656677246,0.30291250348091125,0.49582499265670776
1781031083230734600,6.843734619140625,0.28984999656677246,0.30291250348091125,0.49582499265670776
1781031083250251800,6.863251708984375,0.2578125,0.03726249933242798,0.2677125036716461
1781031083269773300,6.882773193359375,0.2363625019788742,-0.11082500219345093,0.1120624989271164
1781031083289291800,6.902291748046875,0.21697500348091125,-0.24089999496936798,-0.035887498408555984
1781031083308808400,6.921808349609375,0.202674999833107,-0.3349500000476837,-0.16568750143051147
1781031083328329700,6.941329833984375,0.19483749568462372,-0.38279998302459717,-0.281187504529953
1781031083347850800,6.960850830078125,0.19483749568462372,-0.38279998302459717,-0.281187504529953
1781031083367370000,6.980369873046875,0.19139999151229858,-0.3642374873161316,-0.4670875072479248
1781031083386884600,6.999884521484375,0.19139999151229858,-0.3642374873161316,-0.4670875072479248
1781031083406403300,7.0194033203125,0.19139999151229858,-0.3642374873161316,-0.4670875072479248
1781031083425923600,7.038923583984375,0.18328750133514404,-0.3030500113964081,-0.5948249697685242
1781031083445447400,7.058447509765625,0.18328750133514404,-0.3030500113964081,-0.5948249697685242
1781031083464973300,7.077973388671875,0.1288374960422516,-0.20679999887943268,-0.6869499683380127
1781031083484491800,7.09749169921875,0.06751249730587006,-0.1471250057220459,-0.7387874722480774
1781031083504011000,7.117010986328125,-0.010862499475479126,-0.09982500225305557,-0.8175749778747559
1781031083523529000,7.136529052734375,-0.09872499853372574,-0.07438749819993973,-0.9318374991416931
1781031083543047400,7.15604736328125,-0.195250004529953,-0.09858749806880951,-1.0599875450134277
1781031083562564400,7.175564453125,-0.195250004529953,-0.09858749806880951,-1.0599875450134277
1781031083582076400,7.195076416015625,-0.42941248416900635,-0.4012250006198883,-1.2326874732971191
1781031083601589800,7.21458984375,-0.42941248416900635,-0.4012250006198883,-1.2326874732971191
1781031083621104600,7.234104736328125,-0.608162522315979,-0.7775624990463257,-1.360837459564209
1781031083640621000,7.25362109375,-0.608162522315979,-0.7775624990463257,-1.360837459564209
1781031083660139300,7.27313916015625,-0.5530250072479248,-0.8644624948501587,-1.4057999849319458
1781031083679655000,7.292655029296875,-0.4489375054836273,-0.8152375221252441,-1.3789875507354736
1781031083699171000,7.312171142578125,-0.3227125108242035,-0.7396125197410583,-1.338974952697754
1781031083718686000,7.33168603515625,-0.20143750309944153,-0.6567000150680542,-1.271875023841858
1781031083738197200,7.351197265625,-0.10628750175237656,-0.5791500210762024,-1.1697125434875488
1781031083757713400,7.37071337890625,-0.10628750175237656,-0.5791500210762024,-1.1697125434875488
1781031083777231000,7.390231201171875,-0.013062499463558197,-0.4300999939441681,-0.8833000063896179
1781031083796745000,7.409744873046875,-0.013062499463558197,-0.4300999939441681,-0.8833000063896179
1781031083816260000,7.429260009765625,-0.04908749833703041,-0.20569999516010284,-0.44591251015663147
1781031083835780600,7.448780517578125,-0.04908749833703041,-0.20569999516010284,-0.44591251015663147
1781031083855303200,7.46830322265625,-0.11962500214576721,0.08744999766349792,0.08249999582767487
1781031083874821600,7.487821533203125,-0.14313749969005585,0.2437874972820282,0.34718748927116394
1781031083894336800,7.507336669921875,-0.16087499260902405,0.3984749913215637,0.6055499911308289
1781031083913856000,7.52685595703125,-0.16885000467300415,0.5384500026702881,0.8332499861717224
1781031083933377000,7.546376953125,-0.16128750145435333,0.6524375081062317,1.0089750289916992
1781031083952893400,7.5658935546875,-0.16128750145435333,0.6524375081062317,1.0089750289916992
1781031083972407000,7.585406982421875,-0.0919874981045723,0.566224992275238,1.214537501335144
1781031083991923500,7.60492333984375,-0.0919874981045723,0.566224992275238,1.214537501335144
1781031084011440400,7.6244404296875,0.04729999974370003,0.5988125205039978,1.2916749715805054
1781031084030958800,7.643958740234375,0.04729999974370003,0.5988125205039978,1.2916749715805054
1781031084050479400,7.663479248046875,0.22921249270439148,0.8014875054359436,1.2352999448776245
1781031084069998800,7.682998779296875,0.30428749322891235,0.8522250056266785,1.2014750242233276
1781031084089519600,7.70251953125,0.3511750102043152,0.853737473487854,1.1815375089645386
1781031084109040600,7.72204052734375,0.369049996137619,0.8025875091552734,1.1618750095367432
1781031084128560600,7.741560546875,0.367125004529953,0.7082625031471252,1.1274999380111694
1781031084148080400,7.761080322265625,0.367125004529953,0.7082625031471252,1.1274999380111694
1781031084187116500,7.800116455078125,0.3190000057220459,0.3367374837398529,0.9646999835968018
1781031084206631700,7.819631591796875,0.3190000057220459,0.3367374837398529,0.9646999835968018
1781031084226146800,7.839146728515625,0.3190000057220459,0.3367374837398529,0.9646999835968018
1781031084245663700,7.858663818359375,0.2796750068664551,0.1722874939441681,0.8247249722480774
1781031084265181700,7.878181640625,0.2796750068664551,0.1722874939441681,0.8247249722480774
1781031084284695300,7.8976953125,0.25946250557899475,0.04468749836087227,0.5088874697685242
1781031084304209400,7.91720947265625,0.2578125,-0.040150001645088196,0.31927499175071716
1781031084323723000,7.936722900390625,0.2545124888420105,-0.13695000112056732,0.17159999907016754
1781031084343233500,7.956233642578125,0.24626250565052032,-0.2227499932050705,0.07713750004768372
1781031084362747000,7.975746826171875,0.24626250565052032,-0.2227499932050705,0.07713750004768372
1781031084382258700,7.9952587890625,0.2223374992609024,-0.2761000096797943,-0.08442500233650208
1781031084401774300,8.0147744140625,0.2223374992609024,-0.2761000096797943,-0.08442500233650208
1781031084421294300,8.03429443359375,0.18314999341964722,-0.19827499985694885,-0.297962486743927
1781031084440811800,8.053811767578125,0.18314999341964722,-0.19827499985694885,-0.297962486743927
1781031084460328000,8.073327880859376,0.10889999568462372,-0.16005000472068787,-0.5183749794960022
1781031084479847000,8.092846923828125,0.05706249922513962,-0.18411250412464142,-0.6202625036239624
1781031084499369700,8.11236962890625,0.0006874999962747097,-0.22659999132156372,-0.7015249729156494
1781031084518893000,8.13189306640625,-0.05224999785423279,-0.27623748779296875,-0.7548750042915344
1781031084538411500,8.15141162109375,-0.09377499669790268,-0.3251875042915344,-0.7836124897003174
1781031084557928000,8.170927978515625,-0.09377499669790268,-0.3251875042915344,-0.7836124897003174
1781031084577449500,8.190449462890625,-0.14561249315738678,-0.4977499842643738,-0.8327000141143799
1781031084596972500,8.20997265625,-0.14561249315738678,-0.4977499842643738,-0.8327000141143799
1781031084616490500,8.229490478515626,-0.22068749368190765,-0.7112874984741211,-0.9598875045776367
1781031084636009500,8.249009521484375,-0.22068749368190765,-0.7112874984741211,-0.9598875045776367
1781031084655532000,8.268531982421875,-0.2609750032424927,-0.6067875027656555,-1.0773124694824219
1781031084675056400,8.288056396484375,-0.23319999873638153,-0.49211248755455017,-1.1108624935150146
1781031084694582300,8.307582275390626,-0.172837495803833,-0.4156624972820282,-1.140012502670288
1781031084714108000,8.32710791015625,-0.09735000133514404,-0.4199250042438507,-1.1825000047683716
1781031084733628700,8.346628662109374,-0.036024998873472214,-0.506137490272522,-1.2494624853134155
1781031084753148000,8.36614794921875,-0.036024998873472214,-0.506137490272522,-1.2494624853134155
1781031084772662000,8.385662109375,-0.0030249999836087227,-0.7519875168800354,-1.4001624584197998
1781031084792176400,8.40517626953125,-0.0030249999836087227,-0.7519875168800354,-1.4001624584197998
1781031084811698200,8.4246982421875,-0.06737499684095383,-0.7173374891281128,-1.377887487411499
1781031084831217200,8.444217041015625,-0.06737499684095383,-0.7173374891281128,-1.377887487411499
1781031084850739500,8.463739501953125,-0.17077499628067017,-0.4133250117301941,-1.0073250532150269
1781031084870259500,8.483259521484374,-0.21119999885559082,-0.24791249632835388,-0.7448375225067139
1781031084889774800,8.50277490234375,-0.2381500005722046,-0.09693749994039536,-0.49101248383522034
1781031084909292300,8.522292236328125,-0.2626250088214874,0.033275000751018524,-0.24447499215602875
1781031084928811000,8.54181103515625,-0.30153748393058777,0.14726249873638153,0.026262499392032623
1781031084948330000,8.561330078125,-0.3554374873638153,0.24928750097751617,0.32381248474121094
1781031084967849000,8.580848876953125,-0.3554374873638153,0.24928750097751617,0.32381248474121094
1781031084987367400,8.600367431640626,-0.45278748869895935,0.4622749984264374,0.8727124929428101
1781031085006886100,8.61988623046875,-0.45278748869895935,0.4622749984264374,0.8727124929428101
1781031085026409700,8.63940966796875,-0.4680500030517578,0.9113500118255615,1.2658250331878662
1781031085045934300,8.658934326171876,-0.4680500030517578,0.9113500118255615,1.2658250331878662
1781031085065459200,8.678459228515624,-0.4680500030517578,0.9113500118255615,1.2658250331878662
1781031085084983000,8.697983154296875,-0.27665001153945923,1.398650050163269,1.376924991607666
1781031085104502500,8.71750244140625,-0.08332499861717224,1.5218499898910522,1.26829993724823
1781031085124026400,8.7370263671875,0.13337500393390656,1.562137484550476,1.1742500066757202
1781031085143550500,8.756550537109375,0.3258749842643738,1.528725028038025,1.088724970817566
1781031085163072800,8.77607275390625,0.3258749842643738,1.528725028038025,1.088724970817566
1781031085182596400,8.795596435546875,0.545324981212616,0.7997000217437744,1.1684750318527222
1781031085202118400,8.815118408203125,0.545324981212616,0.7997000217437744,1.1684750318527222
1781031085221638000,8.834637939453126,0.5909749865531921,0.5774999856948853,1.1919875144958496
1781031085241161200,8.8541611328125,0.5909749865531921,0.5774999856948853,1.1919875144958496
1781031085260689000,8.87368896484375,0.5230500102043152,0.25107499957084656,1.049399971961975
1781031085280214300,8.89321435546875,0.466949999332428,0.08332499861717224,0.9431124925613403
1781031085299737900,8.91273779296875,0.40658751130104065,-0.08387500047683716,0.8310499787330627
1781031085319262700,8.9322626953125,0.34759998321533203,-0.23539999127388,0.7207750082015991
1781031085338785300,8.951785400390625,0.2934249937534332,-0.35667499899864197,0.6076124906539917
1781031085358308000,8.97130810546875,0.2934249937534332,-0.35667499899864197,0.6076124906539917
1781031085377832700,8.990832763671875,0.2116124927997589,-0.47808748483657837,0.3218874931335449
1781031085397357600,9.010357666015626,0.2116124927997589,-0.47808748483657837,0.3218874931335449
1781031085416881700,9.029881591796874,0.17063750326633453,-0.4310624897480011,-0.04839999973773956
1781031085436403200,9.0494033203125,0.17063750326633453,-0.4310624897480011,-0.04839999973773956
1781031085455926500,9.068926513671874,0.14932499825954437,-0.34677499532699585,-0.44440001249313354
1781031085475454000,9.088453857421875,0.12416250258684158,-0.3205125033855438,-0.5758500099182129
1781031085494981600,9.107981689453124,0.08208750188350677,-0.30373749136924744,-0.6326375007629395
1781031085514501600,9.127501708984376,0.03189999982714653,-0.3022249937057495,-0.6424000263214111
1781031085534019600,9.14701953125,-0.011962499469518661,-0.3312374949455261,-0.6439124941825867
1781031085553544000,9.1665439453125,-0.011962499469518661,-0.3312374949455261,-0.6439124941825867
1781031085573072100,9.186072021484375,-0.02241249941289425,-0.49101248383522034,-0.6778749823570251
1781031085592598300,9.205598388671875,-0.02241249941289425,-0.49101248383522034,-0.6778749823570251
1781031085612119600,9.22511962890625,0.10724999755620956,-0.5497249960899353,-0.6825500130653381
1781031085631636200,9.24463623046875,0.10724999755620956,-0.5497249960899353,-0.6825500130653381
1781031085651156200,9.26415625,0.24406249821186066,-0.27582499384880066,-0.6092625260353088
1781031085670679300,9.28367919921875,0.29672500491142273,-0.07067500054836273,-0.6268625259399414
1781031085690199600,9.303199462890625,0.3405874967575073,0.11082500219345093,-0.7062000036239624
1781031085709719000,9.322718994140626,0.36822500824928284,0.20308749377727509,-0.8251374959945679
1781031085729239800,9.34223974609375,0.37248748540878296,0.1424500048160553,-0.9559000134468079
1781031085748758800,9.3617587890625,0.37248748540878296,0.1424500048160553,-0.9559000134468079
1781031085768276200,9.381276123046876,0.29493749141693115,-0.3689124882221222,-1.1826374530792236
1781031085787794700,9.400794677734375,0.20941250026226044,-0.6447374820709229,-1.2495999336242676
1781031085807318500,9.420318603515625,0.10422500222921371,-0.8410875201225281,-1.259637475013733
1781031085826845700,9.439845703125,0.10422500222921371,-0.8410875201225281,-1.259637475013733
1781031085846368300,9.4593681640625,-0.1260875016450882,-0.9268875122070312,-0.997837483882904
1781031085865892000,9.47889208984375,-0.25341248512268066,-0.8002499938011169,-0.6956124901771545
1781031085885417500,9.49841748046875,-0.25341248512268066,-0.8002499938011169,-0.6956124901771545
1781031085904940800,9.51794091796875,-0.3759250044822693,-0.5945500135421753,-0.3363249897956848
1781031085924463900,9.5374638671875,-0.4702500104904175,-0.33467498421669006,0.023099999874830246
1781031085943987000,9.556987060546875,-0.5235999822616577,-0.020899999886751175,0.37578749656677246
1781031085963509200,9.57650927734375,-0.5235999822616577,-0.020899999886751175,0.37578749656677246
1781031085983034400,9.596034423828126,-0.4852375090122223,0.7570750117301941,1.0612249374389648
1781031086002561800,9.615561767578125,-0.4852375090122223,0.7570750117301941,1.0612249374389648
1781031086022084400,9.63508447265625,-0.24914999306201935,1.450624942779541,1.3458499908447266
1781031086041608700,9.654608642578125,-0.24914999306201935,1.450624942779541,1.3458499908447266
1781031086061134000,9.674134033203124,-0.0034374999813735485,1.724387526512146,1.1279125213623047
1781031086080657400,9.693657470703124,0.06228749826550484,1.635699987411499,0.9535624980926514
1781031086100180000,9.713179931640624,0.08442500233650208,1.3773374557495117,0.8009374737739563
1781031086119699500,9.732699462890626,0.07026249915361404,0.9818875193595886,0.6927250027656555
1781031086158741500,9.771741455078125,0.03231250122189522,0.5355625152587891,0.6246625185012817
1781031086178266000,9.79126611328125,-0.055137500166893005,-0.21463750302791595,0.5575624704360962
1781031086197787600,9.81078759765625,-0.055137500166893005,-0.21463750302791595,0.5575624704360962
1781031086217310200,9.830310302734375,-0.04661250114440918,-0.5341874957084656,0.5389999747276306
1781031086236832800,9.849832763671875,-0.04661250114440918,-0.5341874957084656,0.5389999747276306
1781031086256354000,9.86935400390625,0.07356250286102295,-0.29686251282691956,0.5242875218391418
1781031086275873000,9.888873046875,0.15826250612735748,-0.010862499475479126,0.5044875144958496
1781031086295392800,9.908392822265625,0.2513499855995178,0.2952125072479248,0.4534749984741211
1781031086314913000,9.9279130859375,0.34869998693466187,0.5446375012397766,0.34869998693466187
1781031086334432000,9.947431884765624,0.44288748502731323,0.6678375005722046,0.19126249849796295
1781031086353953800,9.966953857421874,0.44288748502731323,0.6678375005722046,0.19126249849796295
1781031086373476400,9.986476318359376,0.553849995136261,0.44151249527931213,-0.20913749933242798
1781031086392993800,10.005993896484375,0.553849995136261,0.44151249527931213,-0.20913749933242798
1781031086412507100,10.025507080078125,0.44481250643730164,-0.13928750157356262,-0.6065124869346619
1781031086432021500,10.045021484375,0.44481250643730164,-0.13928750157356262,-0.6065124869346619
1781031086451538400,10.064538330078125,0.16499999165534973,-0.6572499871253967,-0.8245875239372253
1781031086471059000,10.084058837890625,0.004537499975413084,-0.8424624800682068,-0.8573125004768372
1781031086490580200,10.103580322265625,-0.14602500200271606,-0.9702000021934509,-0.8563500046730042
1781031086510095600,10.123095703125,-0.27114999294281006,-1.0247875452041626,-0.8354499936103821
1781031086529611500,10.142611572265626,-0.3623124957084656,-0.9711624979972839,-0.8027250170707703
1781031086549131500,10.162131591796875,-0.3623124957084656,-0.9711624979972839,-0.8027250170707703
1781031086568652800,10.18165283203125,-0.4292750060558319,-0.4208875000476837,-0.7193999886512756
1781031086588170200,10.201170166015626,-0.4292750060558319,-0.4208875000476837,-0.7193999886512756
1781031086607686700,10.220686767578124,-0.3679499924182892,0.32065001130104065,-0.6771875023841858
1781031086627204900,10.240204833984375,-0.3361875116825104,0.44068750739097595,-0.7206375002861023
1781031086646722600,10.25972265625,-0.3361875116825104,0.44068750739097595,-0.7206375002861023
1781031086666243600,10.27924365234375,-0.3361875116825104,0.44068750739097595,-0.7206375002861023
1781031086685767200,10.29876708984375,-0.33041250705718994,0.1387374997138977,-1.0234124660491943
1781031086705293000,10.31829296875,-0.33041250705718994,0.1387374997138977,-1.0234124660491943
1781031086724819200,10.337819091796876,-0.40700000524520874,-0.41593748331069946,-1.4117125272750854
1781031086744338000,10.357337890625,-0.42473748326301575,-0.6683874726295471,-1.5547125339508057
1781031086763858200,10.376858154296874,-0.40136250853538513,-0.8482375144958496,-1.6264874935150146
1781031086783385600,10.396385498046875,-0.40136250853538513,-0.8482375144958496,-1.6264874935150146
1781031086802911700,10.415911865234374,-0.2994749844074249,-0.9235875010490417,-1.4228500127792358
1781031086822435600,10.435435546875,-0.2994749844074249,-0.9235875010490417,-1.4228500127792358
1781031086841956600,10.45495654296875,-0.16087499260902405,-0.6374499797821045,-0.9084625244140625
1781031086861477600,10.4744775390625,-0.16087499260902405,-0.6374499797821045,-0.9084625244140625
1781031086881002500,10.49400244140625,-0.03959999978542328,-0.2125750035047531,-0.3482874929904938
1781031086900529000,10.51352880859375,-0.017875000834465027,-0.018012499436736107,-0.05555000156164169
1781031086920056000,10.53305615234375,-0.025299999862909317,0.14231249690055847,0.23485000431537628
1781031086939578400,10.552578369140624,-0.05926249921321869,0.26317501068115234,0.5105375051498413
1781031086959098400,10.572098388671876,-0.05926249921321869,0.26317501068115234,0.5105375051498413
1781031086978617600,10.59161767578125,-0.19263750314712524,0.23622499406337738,1.0049874782562256
1781031086998135800,10.6111357421875,-0.19263750314712524,0.23622499406337738,1.0049874782562256
1781031087017654300,10.630654296875,-0.33508750796318054,0.44110000133514404,1.3486000299453735
1781031087037174800,10.6501748046875,-0.33508750796318054,0.44110000133514404,1.3486000299453735
1781031087056697300,10.669697265625,-0.3562625050544739,0.7875999808311462,1.556362509727478
1781031087076218000,10.689218017578124,-0.3059374988079071,0.9508125185966492,1.6673250198364258
1781031087095737900,10.70873779296875,-0.2147749960422516,1.0766249895095825,1.7397874593734741
1781031087115261000,10.728260986328126,-0.09226249903440475,1.1489499807357788,1.7392375469207764
1781031087134785300,10.747785400390624,0.0448249988257885,0.9047499895095825,1.6739250421524048
1781031087154305500,10.767305419921875,0.0448249988257885,0.9047499895095825,1.6739250421524048
1781031087173823700,10.78682373046875,0.305525004863739,0.3334375023841858,1.4136375188827515
1781031087193344300,10.80634423828125,0.305525004863739,0.3334375023841858,1.4136375188827515
1781031087212868900,10.825868896484375,0.4600749909877777,0.6093999743461609,1.136162519454956
1781031087232390700,10.845390625,0.4600749909877777,0.6093999743461609,1.136162519454956
1781031087251915000,10.8649150390625,0.4727250039577484,0.6159999966621399,0.9972875118255615
1781031087271443700,10.884443603515624,0.4446749985218048,0.5531625151634216,0.9300500154495239
1781031087290968600,10.903968505859375,0.40562498569488525,0.4614500105381012,0.8200500011444092
1781031087310489000,10.923489013671874,0.36134999990463257,0.34540000557899475,0.657800018787384
1781031087330009900,10.943009765625,0.31597501039505005,0.19304999709129333,0.46351251006126404
1781031087349532700,10.96253271484375,0.31597501039505005,0.19304999709129333,0.46351251006126404
1781031087369055700,10.9820556640625,0.22728750109672546,-0.24172499775886536,0.11384999752044678
1781031087388581400,11.001581298828125,0.22728750109672546,-0.24172499775886536,0.11384999752044678
1781031087408106500,11.0211064453125,0.1504250019788742,-0.6267250180244446,-0.13983750343322754
1781031087427626500,11.04062646484375,0.1504250019788742,-0.6267250180244446,-0.13983750343322754
1781031087447149800,11.06014990234375,0.11604999750852585,-0.7665625214576721,-0.3900874853134155
1781031087466678000,11.079677978515624,0.1153625026345253,-0.7598249912261963,-0.4945875108242035
1781031087486205000,11.099204833984375,0.1153625026345253,-0.7598249912261963,-0.4945875108242035
1781031087505731000,11.11873095703125,0.12099999934434891,-0.6781499981880188,-0.6180624961853027
1781031087525255200,11.138255126953124,0.12099999934434891,-0.6781499981880188,-0.6180624961853027
1781031087544775000,11.15777490234375,0.11935000121593475,-0.630299985408783,-0.6506500244140625
1781031087564295200,11.177295166015625,0.11233749985694885,-0.5875374674797058,-0.6712750196456909
1781031087583817200,11.196817138671875,0.10119999945163727,-0.55673748254776,-0.6850249767303467
1781031087603340000,11.216340087890625,0.10119999945163727,-0.55673748254776,-0.6850249767303467
1781031087622863600,11.235863525390625,0.06531249731779099,-0.5801125168800354,-0.7275124788284302
1781031087642392000,11.25539208984375,0.06531249731779099,-0.5801125168800354,-0.7275124788284302
1781031087661919000,11.2749189453125,0.023237500339746475,-0.7414000034332275,-0.9246875047683716
1781031087681439200,11.294439208984375,0.01732499897480011,-0.8010749816894531,-1.0687874555587769
1781031087700959000,11.313958984375,0.028187500312924385,-0.8084999918937683,-1.206012487411499
1781031087720485000,11.333485107421875,0.05857500061392784,-0.7646374702453613,-1.3338874578475952
1781031087740009700,11.353009765625,0.10312499850988388,-0.683650016784668,-1.4474624395370483
1781031087759529500,11.372529541015625,0.10312499850988388,-0.683650016784668,-1.4474624395370483
1781031087779047700,11.392047607421874,0.14836250245571136,-0.49197500944137573,-1.4926999807357788
1781031087798571500,11.411571533203125,0.14836250245571136,-0.49197500944137573,-1.4926999807357788
1781031087818101800,11.431101806640624,0.04963750019669533,-0.4076874852180481,-1.2864500284194946
1781031087837630200,11.450630126953126,0.04963750019669533,-0.4076874852180481,-1.2864500284194946
1781031087857156000,11.470156005859375,-0.13653749227523804,-0.35571250319480896,-0.9400874972343445
1781031087876682800,11.489682861328125,-0.23608750104904175,-0.2843500077724457,-0.7103250026702881
1781031087896212700,11.509212646484375,-0.3268375098705292,-0.17765000462532043,-0.45237499475479126
1781031087915744300,11.528744140625,-0.403425008058548,-0.04455000162124634,-0.16967499256134033
1781031087935276300,11.5482763671875,-0.4591124951839447,0.10312499850988388,0.11990000307559967
1781031087954802200,11.56780224609375,-0.4591124951839447,0.10312499850988388,0.11990000307559967
1781031087974322000,11.587322021484376,-0.45704999566078186,0.4351874887943268,0.5979874730110168
1781031087993838300,11.60683837890625,-0.45704999566078186,0.4351874887943268,0.5979874730110168
1781031088013356800,11.626356689453125,-0.30483749508857727,0.9431124925613403,0.9737749695777893
1781031088032881400,11.64588134765625,-0.30483749508857727,0.9431124925613403,0.9737749695777893
1781031088052404200,11.665404296875,-0.09171249717473984,1.3943874835968018,1.2555124759674072
1781031088071925000,11.684925048828125,0.0057749999687075615,1.483762502670288,1.3322374820709229
1781031088110976000,11.72397607421875,0.13626250624656677,1.4114375114440918,1.4154249429702759
1781031088130501000,11.743501220703125,0.1755875051021576,1.2618374824523926,1.3946624994277954
1781031088150026200,11.763026123046876,0.1755875051021576,1.2618374824523926,1.3946624994277954
1781031088169550600,11.782550537109374,0.19951249659061432,0.7684875130653381,1.222100019454956
1781031088189071400,11.8020712890625,0.19951249659061432,0.7684875130653381,1.222100019454956
1781031088208592600,11.821592529296876,0.16706250607967377,0.20514999330043793,1.092574954032898
1781031088228116500,11.841116455078126,0.16706250607967377,0.20514999330043793,1.092574954032898
1781031088247641300,11.860641357421875,0.1551000028848648,0.007287499960511923,1.0507750511169434
1781031088267168300,11.880168212890625,0.170912504196167,-0.1350249946117401,0.8933374881744385
1781031088286694000,11.89969384765625,0.170912504196167,-0.1350249946117401,0.8933374881744385
1781031088306217000,11.919217041015624,0.170912504196167,-0.1350249946117401,0.8933374881744385
1781031088325745000,11.938744873046875,0.23553749918937683,-0.09143749624490738,0.5497249960899353
1781031088345274000,11.958274169921875,0.23553749918937683,-0.09143749624490738,0.5497249960899353
1781031088364800800,11.97780078125,0.31088748574256897,-0.11426249891519547,0.24062499403953552
1781031088384324900,11.997324951171874,0.3394874930381775,-0.1634874939918518,0.1284250020980835
1781031088403845600,12.016845703125,0.35804998874664307,-0.2125750035047531,0.02199999988079071
1781031088423366000,12.036365966796875,0.35804998874664307,-0.2125750035047531,0.02199999988079071
1781031088442889500,12.055889404296876,0.35516250133514404,-0.24695000052452087,-0.15234999358654022
1781031088462411800,12.075411865234376,0.35516250133514404,-0.24695000052452087,-0.15234999358654022
1781031088481928000,12.094927978515624,0.30621248483657837,-0.2143625020980835,-0.35186249017715454
1781031088501448400,12.114448486328126,0.2708750069141388,-0.21972499787807465,-0.4857875108718872
1781031088520974600,12.133974609375,0.22577500343322754,-0.254925012588501,-0.5952374935150146
1781031088540496000,12.153495849609374,0.16871249675750732,-0.31652501225471497,-0.6557375192642212
1781031088560013300,12.173013427734375,0.16871249675750732,-0.31652501225471497,-0.6557375192642212
1781031088579537200,12.192537109375,0.021587500348687172,-0.4725874960422516,-0.7081249952316284
1781031088599063600,12.2120634765625,0.021587500348687172,-0.4725874960422516,-0.7081249952316284
1781031088618592300,12.23159228515625,-0.19346250593662262,-0.6106374859809875,-0.7523999810218811
1781031088638119700,12.25111962890625,-0.19346250593662262,-0.6106374859809875,-0.7523999810218811
1781031088657641700,12.270641845703125,-0.4222624897956848,-0.8082249760627747,-0.8236249685287476
1781031088677161700,12.29016162109375,-0.515625,-0.8878374695777893,-0.8118000030517578
1781031088696681000,12.309680908203125,-0.5770875215530396,-0.8960874676704407,-0.8014875054359436
1781031088716205800,12.329205810546876,-0.5944125056266785,-0.8267874717712402,-0.8399875164031982
1781031088735729400,12.3487294921875,-0.5669124722480774,-0.6987749934196472,-0.8563500046730042
1781031088755253500,12.36825341796875,-0.5669124722480774,-0.6987749934196472,-0.8563500046730042
1781031088774776600,12.387776611328125,-0.42143750190734863,-0.3801875114440918,-0.8214250206947327
1781031088794300400,12.407300537109375,-0.42143750190734863,-0.3801875114440918,-0.8214250206947327
1781031088813827000,12.4268271484375,-0.24722500145435333,-0.2162874937057495,-0.7291625142097473
1781031088833348900,12.446348876953126,-0.24722500145435333,-0.2162874937057495,-0.7291625142097473
1781031088852873700,12.465873779296874,-0.14726249873638153,-0.21793749928474426,-0.6154500246047974
1781031088872399000,12.485399169921875,-0.1288374960422516,-0.21656249463558197,-0.551925003528595
1781031088891919600,12.504919677734375,-0.1247124969959259,-0.18424999713897705,-0.4721750020980835
1781031088911440400,12.5244404296875,-0.13199999928474426,-0.11481250077486038,-0.36079999804496765
1781031088930964700,12.54396484375,-0.14657500386238098,-0.013062499463558197,-0.21367499232292175
1781031088950489600,12.563489501953125,-0.14657500386238098,-0.013062499463558197,-0.21367499232292175
1781031088970012700,12.5830126953125,-0.17599999904632568,0.26317501068115234,0.1428624987602234
1781031088989538000,12.6025380859375,-0.17599999904632568,0.26317501068115234,0.1428624987602234
1781031089009059800,12.622059814453126,-0.17765000462532043,0.5774999856948853,0.4923875033855438
1781031089028580900,12.641580810546875,-0.17765000462532043,0.5774999856948853,0.4923875033855438
1781031089048103400,12.661103515625,-0.17765000462532043,0.5774999856948853,0.4923875033855438
1781031089067624700,12.680624755859375,-0.04702499881386757,0.8775249719619751,0.7853999733924866
1781031089087149600,12.700149658203125,0.014299999922513962,0.9145125150680542,0.8830249905586243
1781031089106673400,12.71967333984375,0.014299999922513962,0.9145125150680542,0.8830249905586243
1781031089126196200,12.7391962890625,0.12347500026226044,0.9054374694824219,1.1215875148773193
1781031089145716200,12.75871630859375,0.12347500026226044,0.9054374694824219,1.1215875148773193
1781031089165233000,12.77823291015625,0.20363749563694,0.8699625134468079,1.1745250225067139
1781031089184752600,12.797752685546875,0.3022249937057495,0.8457624912261963,1.1593999862670898
1781031089204270600,12.8172705078125,0.3940750062465668,0.8146874904632568,1.1167750358581543
1781031089223783000,12.836782958984376,0.3940750062465668,0.8146874904632568,1.1167750358581543
1781031089243301600,12.856301513671875,0.508062481880188,0.8065750002861023,1.0654875040054321
1781031089262832000,12.87583203125,0.508062481880188,0.8065750002861023,1.0654875040054321
1781031089282361000,12.895361083984374,0.552887499332428,0.847000002861023,0.9802374839782715
1781031089301882000,12.914882080078126,0.548212468624115,0.8175749778747559,0.8709250092506409
1781031089321408000,12.934407958984375,0.5230500102043152,0.7338374853134155,0.731362521648407
1781031089340935400,12.953935302734376,0.47946250438690186,0.5874000191688538,0.6183375120162964
1781031089360459500,12.97345947265625,0.47946250438690186,0.5874000191688538,0.6183375120162964
1781031089379980800,12.992980712890626,0.35516250133514404,0.07782500237226486,0.45663750171661377
1781031089399498800,13.012498779296875,0.35516250133514404,0.07782500237226486,0.45663750171661377
1781031089419017000,13.032016845703126,0.23622499406337738,-0.47574999928474426,0.10395000129938126
1781031089438534000,13.051533935546875,0.23622499406337738,-0.47574999928474426,0.10395000129938126
1781031089458053600,13.0710537109375,0.1685750037431717,-0.7060624957084656,-0.24928750097751617
1781031089477576400,13.090576416015624,0.15537500381469727,-0.6951999664306641,-0.40012499690055847
1781031089497099800,13.110099853515624,0.14836250245571136,-0.6338750123977661,-0.5263500213623047
1781031089516624400,13.129624267578125,0.13846249878406525,-0.5506874918937683,-0.6221874952316284
1781031089536148700,13.149148681640625,0.1163249984383583,-0.4725874960422516,-0.6972625255584717
1781031089555668200,13.168668212890625,0.1163249984383583,-0.4725874960422516,-0.6972625255584717
1781031089575183600,13.18818359375,-0.010862499475479126,-0.37674999237060547,-0.7825124859809875
1781031089594701000,13.207701171875,-0.010862499475479126,-0.37674999237060547,-0.7825124859809875
1781031089614220300,13.22722021484375,-0.26001250743865967,-0.5149375200271606,-0.7919999957084656
1781031089633741300,13.2467412109375,-0.26001250743865967,-0.5149375200271606,-0.7919999957084656
1781031089653266000,13.266265869140625,-0.49018749594688416,-0.7968124747276306,-0.764912486076355
1781031089672790000,13.2857900390625,-0.5647125244140625,-0.888112485408783,-0.7210500240325928
1781031089692316700,13.305316650390624,-0.594962477684021,-0.9205625057220459,-0.7391999959945679
1781031089711846100,13.32484619140625,-0.57378751039505,-0.890037477016449,-0.7364500164985657
1781031089731373300,13.344373291015625,-0.5075125098228455,-0.8024500012397766,-0.7155500054359436
1781031089750896400,13.363896484375,-0.5075125098228455,-0.8024500012397766,-0.7155500054359436
1781031089770414000,13.3834140625,-0.2974124848842621,-0.5006374716758728,-0.5871250033378601
1781031089789933600,13.40293359375,-0.2974124848842621,-0.5006374716758728,-0.5871250033378601
1781031089809456600,13.42245654296875,-0.12333749979734421,-0.17448750138282776,-0.29782500863075256
1781031089828981200,13.441981201171876,-0.12333749979734421,-0.17448750138282776,-0.29782500863075256
1781031089848504000,13.461504150390626,-0.03946249932050705,0.020349999889731407,-0.13956250250339508
1781031089868025900,13.48102587890625,-0.01484999991953373,0.05609999969601631,-0.18837499618530273
1781031089887553300,13.50055322265625,-0.006049999967217445,0.06544999778270721,-0.25891250371932983
1781031089907080200,13.520080078125,-0.006049999967217445,0.06544999778270721,-0.25891250371932983
1781031089926609000,13.53960888671875,-0.016087500378489494,0.06421250104904175,-0.2985124886035919
1781031089946140700,13.559140625,-0.07479999959468842,0.0668250024318695,-0.2689499855041504
1781031089965668000,13.578668212890625,-0.07479999959468842,0.0668250024318695,-0.2689499855041504
1781031089985194000,13.598194091796875,-0.07479999959468842,0.0668250024318695,-0.2689499855041504
1781031090004721400,13.617721435546875,-0.18369999527931213,0.12388750165700912,-0.12581250071525574
1781031090024249900,13.637249755859376,-0.25148749351501465,0.2157374918460846,0.03464999794960022
1781031090043774200,13.656774169921874,-0.31033748388290405,0.35475000739097595,0.24406249821186066
1781031090063293700,13.676293701171875,-0.3377000093460083,0.5208500027656555,0.46639999747276306
1781031090082809900,13.695809814453124,-0.31171250343322754,0.6993250250816345,0.6854375004768372
1781031090102322400,13.715322509765626,-0.2172500044107437,0.8753250241279602,0.8841249942779541
1781031090121836500,13.73483642578125,-0.06173750013113022,1.02753746509552,1.042525053024292
1781031090141350400,13.754350341796876,0.12168750166893005,1.1301125288009644,1.1471624374389648
1781031090160868400,13.773868408203125,0.12168750166893005,1.1301125288009644,1.1471624374389648
1781031090180388400,13.793388427734374,0.4195125102996826,1.1569249629974365,1.2178374528884888
1781031090199908400,13.812908447265626,0.4195125102996826,1.1569249629974365,1.2178374528884888
1781031090219426600,13.832426513671875,0.5579749941825867,1.1118249893188477,1.229662537574768
1781031090238941000,13.85194091796875,0.5579749941825867,1.1118249893188477,1.229662537574768
1781031090258462500,13.87146240234375,0.5809375047683716,1.006637454032898,1.1761749982833862
1781031090277986600,13.890986572265625,0.554812490940094,0.8764249682426453,1.0918874740600586
1781031090297508900,13.9105087890625,0.5062749981880188,0.6825500130653381,0.9549375176429749
1781031090317031200,13.93003125,0.44110000133514404,0.43174999952316284,0.7759125232696533
1781031090336553700,13.9495537109375,0.368087500333786,0.15839999914169312,0.583549976348877
1781031090356076300,13.969076171875,0.368087500333786,0.15839999914169312,0.583549976348877
1781031090375593700,13.98859375,0.22962500154972076,-0.29067498445510864,0.24351249635219574
1781031090395108000,14.008108154296876,0.22962500154972076,-0.29067498445510864,0.24351249635219574
1781031090414626600,14.02762646484375,0.1551000028848648,-0.5095750093460083,-0.1013374999165535
1781031090434148900,14.04714892578125,0.1551000028848648,-0.5095750093460083,-0.1013374999165535
1781031090453673000,14.0666728515625,0.15633749961853027,-0.508062481880188,-0.45471251010894775
1781031090473196300,14.0861962890625,0.1742125004529953,-0.4295499920845032,-0.5941374897956848
1781031090492716300,14.10571630859375,0.19208750128746033,-0.3260124921798706,-0.6868125200271606
1781031090512238300,14.12523828125,0.19731250405311584,-0.219587504863739,-0.7053750157356262
1781031090531761400,14.144761474609375,0.18232500553131104,-0.1289750039577484,-0.6561499834060669
1781031090551285800,14.16428564453125,0.18232500553131104,-0.1289750039577484,-0.6561499834060669
1781031090570812000,14.18381201171875,0.10986249893903732,-0.05224999785423279,-0.5725499987602234
1781031090590335000,14.2033349609375,0.10986249893903732,-0.05224999785423279,-0.5725499987602234
1781031090609857300,14.222857177734374,0.011687500402331352,-0.18369999527931213,-0.637862503528595
1781031090629373700,14.242373779296875,0.011687500402331352,-0.18369999527931213,-0.637862503528595
1781031090648890600,14.261890625,-0.09611249715089798,-0.4218499958515167,-0.7492374777793884
1781031090668411600,14.28141162109375,-0.15207499265670776,-0.5357000231742859,-0.7650499939918518
1781031090687934200,14.300934326171875,-0.15207499265670776,-0.5357000231742859,-0.7650499939918518
1781031090707458300,14.320458251953125,-0.20116250216960907,-0.6271374821662903,-0.7357624769210815
1781031090726983000,14.33998291015625,-0.22893749177455902,-0.6946499943733215,-0.7002875208854675
1781031090746504000,14.35950390625,-0.22591249644756317,-0.7484124898910522,-0.7026249766349792
1781031090766022400,14.3790224609375,-0.1443749964237213,-0.8300874829292297,-0.8292624950408936
1781031090785542700,14.398542724609374,-0.1443749964237213,-0.8300874829292297,-0.8292624950408936
1781031090805063400,14.4180634765625,-0.08401250094175339,-0.8509874939918518,-0.9271624684333801
1781031090824584000,14.437583984375,-0.02213750034570694,-0.8540124893188477,-1.022587537765503
1781031090844107300,14.457107177734375,0.028324998915195465,-0.8391624689102173,-1.0845999717712402
1781031090863628800,14.47662890625,0.028324998915195465,-0.8391624689102173,-1.0845999717712402
1781031090883146000,14.49614599609375,0.05898749828338623,-0.7360374927520752,-1.0119999647140503
1781031090902663700,14.51566357421875,0.03973750025033951,-0.6437749862670898,-0.8738124966621399
1781031090922183700,14.53518359375,0.0030249999836087227,-0.5333625078201294,-0.6847500205039978
1781031090941707800,14.554707763671875,-0.045099999755620956,-0.41923749446868896,-0.4729999899864197
1781031090961220600,14.574220703125,-0.045099999755620956,-0.41923749446868896,-0.4729999899864197
1781031090980727800,14.593727783203125,-0.1621125042438507,-0.1742125004529953,-0.04124999791383743
1781031091000237300,14.6132373046875,-0.1621125042438507,-0.1742125004529953,-0.04124999791383743
1781031091019748900,14.632748779296875,-0.27059999108314514,0.14685000479221344,0.34759998321533203
1781031091039262200,14.65226220703125,-0.27059999108314514,0.14685000479221344,0.34759998321533203
1781031091058776300,14.6717763671875,-0.30016249418258667,0.490325003862381,0.6283749938011169
1781031091078292000,14.6912919921875,-0.28091248869895935,0.6549124717712402,0.7475875020027161
1781031091097809200,14.71080908203125,-0.2428250014781952,0.8047875165939331,0.858412504196167
1781031091117328000,14.730327880859376,-0.18906250596046448,0.9341750144958496,0.9635999798774719
1781031091136845300,14.74984521484375,-0.12402500212192535,1.0443124771118164,1.0744249820709229
1781031091156362200,14.7693623046875,-0.12402500212192535,1.0443124771118164,1.0744249820709229
1781031091175878100,14.788878173828126,0.01993750035762787,1.178512454032898,1.301574945449829
1781031091195396600,14.808396728515625,0.01993750035762787,1.178512454032898,1.301574945449829
1781031091214920700,14.827920654296875,0.1685750037431717,0.7874624729156494,1.3657875061035156
1781031091234442200,14.847442138671875,0.1685750037431717,0.7874624729156494,1.3657875061035156
1781031091253959400,14.86695947265625,0.26124998927116394,0.6708624958992004,1.2418999671936035
1781031091273480000,14.88647998046875,0.27541249990463257,0.6364874839782715,1.1620124578475952
1781031091292998400,14.905998291015624,0.2761000096797943,0.5872625112533569,1.0670000314712524
1781031091312512500,14.925512451171874,0.272662490606308,0.5410624742507935,0.9361000061035156
1781031091332028000,14.94502783203125,0.2761000096797943,0.5009124875068665,0.7539125084877014
1781031091351548000,14.9645478515625,0.2761000096797943,0.5009124875068665,0.7539125084877014
1781031091371067000,14.98406689453125,0.30566251277923584,0.3195500075817108,0.29864999651908875
1781031091390584800,15.003584716796874,0.30566251277923584,0.3195500075817108,0.29864999651908875
1781031091410101000,15.02310107421875,0.2975499927997589,-0.1190750002861023,-0.04908749833703041
1781031091429614300,15.0426142578125,0.2975499927997589,-0.1190750002861023,-0.04908749833703041
1781031091449131500,15.062131591796875,0.22811250388622284,-0.47533750534057617,-0.30524998903274536
1781031091468650000,15.08164990234375,0.19277499616146088,-0.5710374712944031,-0.4016374945640564
1781031091488172500,15.101172607421875,0.19277499616146088,-0.5710374712944031,-0.4016374945640564
1781031091507696000,15.120696044921875,0.17352500557899475,-0.6298875212669373,-0.5348749756813049
1781031091527215600,15.140215576171874,0.19882500171661377,-0.5828624963760376,-0.5975750088691711
1781031091546734600,15.159734619140625,0.19882500171661377,-0.5828624963760376,-0.5975750088691711
1781031091566254600,15.179254638671875,0.259737491607666,-0.3382500112056732,-0.6745749711990356
1781031091585775400,15.198775390625,0.259737491607666,-0.3382500112056732,-0.6745749711990356
1781031091605299000,15.218298828125,0.11948750168085098,0.007424999959766865,-0.7147250175476074
1781031091624819000,15.23781884765625,0.11948750168085098,0.007424999959766865,-0.7147250175476074
1781031091644338200,15.257338134765625,-0.09363749623298645,0.06311249732971191,-0.785812497138977
1781031091663860700,15.27686083984375,-0.3679499924182892,-0.0471624992787838,-0.8838499784469604
1781031091683384300,15.29638427734375,-0.6374499797821045,-0.3007124960422516,-0.9777625203132629
1781031091702903600,15.315903564453125,-0.8424624800682068,-0.6096749901771545,-1.0469249486923218
1781031091722422500,15.335422607421876,-0.9615374803543091,-0.8903124928474426,-1.0987625122070312
1781031091741944300,15.3549443359375,-0.9906874895095825,-1.084049940109253,-1.1488125324249268
1781031091761465000,15.374465087890625,-0.9906874895095825,-1.084049940109253,-1.1488125324249268
1781031091780987100,15.393987060546875,-0.7919999957084656,-1.1473000049591064,-1.2347500324249268
1781031091800511200,15.41351123046875,-0.7919999957084656,-1.1473000049591064,-1.2347500324249268
1781031091820035800,15.433035888671874,-0.43078750371932983,-0.7398874759674072,-1.1440000534057617
1781031091839563500,15.4525634765625,-0.43078750371932983,-0.7398874759674072,-1.1440000534057617
1781031091859090400,15.47209033203125,-0.0976250022649765,-0.18603749573230743,-0.8566250205039978
1781031091878615000,15.491614990234375,0.037675000727176666,0.0085249999538064,-0.7279250025749207
1781031091898143000,15.51114306640625,0.13062499463558197,0.13722500205039978,-0.6080250144004822
1781031091917670100,15.530670166015625,0.1732500046491623,0.1905750036239624,-0.494174987077713
1781031091937197800,15.55019775390625,0.18053749203681946,0.16197499632835388,-0.41552498936653137
1781031091956726300,15.569726318359375,0.18053749203681946,0.16197499632835388,-0.41552498936653137
1781031091976252700,15.589252685546874,0.1313125044107437,-0.0541750006377697,-0.3702875077724457
1781031091995777000,15.608777099609375,0.1313125044107437,-0.0541750006377697,-0.3702875077724457
1781031092015301400,15.62830126953125,-0.03478749841451645,-0.18603749573230743,-0.20611250400543213
1781031092034823400,15.647823486328125,-0.03478749841451645,-0.18603749573230743,-0.20611250400543213
1781031092054345000,15.667344970703125,-0.25712499022483826,-0.05128749832510948,0.18150000274181366
1781031092073872000,15.686871826171876,-0.3255999982357025,0.10092499852180481,0.3716624975204468
1781031092093400300,15.706400390625,-0.3422375023365021,0.27761250734329224,0.5116375088691711
1781031092112922600,15.725922607421875,-0.304562509059906,0.4690124988555908,0.6183375120162964
1781031092132439600,15.745439453125,-0.2139499932527542,0.6841999888420105,0.743737518787384
1781031092151954200,15.7649541015625,-0.2139499932527542,0.6841999888420105,0.743737518787384
1781031092171465000,15.78446484375,0.10326249897480011,1.127637505531311,1.1175999641418457
1781031092190986200,15.803986328125,0.10326249897480011,1.127637505531311,1.1175999641418457
1781031092210513200,15.82351318359375,0.421162486076355,1.3326499462127686,1.4294500350952148
1781031092230038800,15.843038818359375,0.421162486076355,1.3326499462127686,1.4294500350952148
1781031092249570600,15.862570556640625,0.5392749905586243,1.2666499614715576,1.5745124816894531
1781031092269101300,15.882101318359375,0.5322625041007996,1.1591249704360962,1.5404125452041626
1781031092288626200,15.901626220703125,0.4970625042915344,1.013237476348877,1.4262875318527222
1781031092308150000,15.92114990234375,0.4970625042915344,1.013237476348877,1.4262875318527222
1781031092327676200,15.94067626953125,0.4388999938964844,0.8390250205993652,1.2704999446868896
1781031092347200800,15.96020068359375,0.2686749994754791,0.4147000014781952,0.9821624755859375
1781031092366726700,15.9797265625,0.2686749994754791,0.4147000014781952,0.9821624755859375
1781031092386259200,15.99925927734375,0.10202500224113464,-0.05623750016093254,0.6247999668121338
1781031092405791200,16.018791259765624,0.10202500224113464,-0.05623750016093254,0.6247999668121338
1781031092425320200,16.0383203125,0.10202500224113464,-0.05623750016093254,0.6247999668121338
1781031092444848400,16.057848388671875,0.05719999969005585,-0.38513749837875366,0.0387750007212162
1781031092464378000,16.077378173828127,0.08112499862909317,-0.4057624936103821,-0.2129874974489212
1781031092483906600,16.096906494140626,0.12732499837875366,-0.31322500109672546,-0.4054875075817108
1781031092503432200,16.11643212890625,0.18205000460147858,-0.15729999542236328,-0.5450500249862671
1781031092522958000,16.1359580078125,0.22714999318122864,-0.011962499469518661,-0.6396499872207642
1781031092542485500,16.155485595703126,0.24901250004768372,0.07823749631643295,-0.7177500128746033
1781031092562013000,16.175012939453126,0.24901250004768372,0.07823749631643295,-0.7177500128746033
1781031092581539600,16.19453955078125,0.16087499260902405,0.018562499433755875,-0.8827499747276306
1781031092601065700,16.214065673828124,0.16087499260902405,0.018562499433755875,-0.8827499747276306
1781031092620593700,16.23359375,-0.1564749926328659,-0.27101248502731323,-0.9755625128746033
1781031092640119800,16.253119873046874,-0.1564749926328659,-0.27101248502731323,-0.9755625128746033
1781031092659643000,16.272642822265624,-0.4918375015258789,-0.43683749437332153,-0.9765250086784363
1781031092679164400,16.292164306640625,-0.6177874803543091,-0.47189998626708984,-0.9581000208854675
1781031092698686700,16.311686767578124,-0.71527498960495,-0.5103999972343445,-0.9355499744415283
1781031092718213000,16.331213134765626,-0.7775624990463257,-0.550000011920929,-0.9264749884605408
1781031092737739500,16.350739501953125,-0.8009374737739563,-0.5747500061988831,-0.9495750069618225
1781031092757264600,16.3702646484375,-0.8009374737739563,-0.5747500061988831,-0.9495750069618225
1781031092776792000,16.3897919921875,-0.765874981880188,-0.5542625188827515,-1.0664499998092651
1781031092796320300,16.4093203125,-0.765874981880188,-0.5542625188827515,-1.0664499998092651
1781031092815847400,16.428847412109373,-0.7214624881744385,-0.5190625190734863,-1.189924955368042
1781031092835377200,16.448377197265625,-0.7214624881744385,-0.5190625190734863,-1.189924955368042
1781031092854903800,16.46790380859375,-0.7405750155448914,-0.7130749821662903,-1.3333375453948975
1781031092874424000,16.487424072265625,-0.75638747215271,-0.9205625057220459,-1.3848999738693237
1781031092893945900,16.50694580078125,-0.7523999810218811,-1.140974998474121,-1.3838000297546387
1781031092913470500,16.526470458984374,-0.7243499755859375,-1.3037749528884888,-1.3120249509811401
1781031092932993800,16.545993896484376,-0.6813125014305115,-1.3398000001907349,-1.1761749982833862
1781031092952517400,16.565517333984374,-0.6813125014305115,-1.3398000001907349,-1.1761749982833862
1781031092972044300,16.585044189453125,-0.554812490940094,-0.9337624907493591,-0.778249979019165
1781031092991569200,16.604569091796876,-0.554812490940094,-0.9337624907493591,-0.778249979019165
1781031093011092200,16.62409228515625,-0.36684998869895935,-0.1377750039100647,-0.2116124927997589
1781031093030616600,16.643616455078124,-0.36684998869895935,-0.1377750039100647,-0.2116124927997589
1781031093050141700,16.6631416015625,-0.18768750131130219,0.6234250068664551,0.3525499999523163
1781031093069663700,16.682663818359377,-0.11261250078678131,0.9154750108718872,0.6876375079154968
1781031093089187800,16.702187744140623,-0.035475000739097595,1.1188374757766724,0.9444875121116638
1781031093108717600,16.721717529296875,0.052662499248981476,1.2256749868392944,1.0910625457763672
1781031093128242200,16.7412421875,0.052662499248981476,1.2256749868392944,1.0910625457763672
1781031093147759400,16.76075927734375,0.2671625018119812,1.271875023841858,1.1911624670028687
1781031093167283200,16.780283203125,0.40012499690055847,1.290024995803833,1.2830125093460083
1781031093186811000,16.799810791015624,0.40012499690055847,1.290024995803833,1.2830125093460083
1781031093206335200,16.819335205078126,0.40012499690055847,1.290024995803833,1.2830125093460083
1781031093225859800,16.83885986328125,0.6774625182151794,1.3451625108718872,1.62318754196167
1781031093245388000,16.858387939453124,0.6774625182151794,1.3451625108718872,1.62318754196167
1781031093264915200,16.877915283203127,0.9006249904632568,1.314637541770935,1.871512532234192
1781031093284438500,16.8974384765625,0.9574124813079834,1.054900050163269,1.897225022315979
1781031093303957000,16.91695703125,0.9684125185012817,0.8292624950408936,1.8521250486373901
1781031093323473000,16.936472900390626,0.9455875158309937,0.8200500011444092,1.7190250158309937
1781031093342990000,16.955989990234375,0.9057124853134155,0.765874981880188,1.5013624429702759
1781031093362512000,16.975511962890625,0.9057124853134155,0.765874981880188,1.5013624429702759
1781031093382035000,16.995034912109375,0.7998374700546265,0.5839625000953674,0.948199987411499
1781031093401559300,17.014559326171874,0.7998374700546265,0.5839625000953674,0.948199987411499
1781031093421086200,17.034086181640625,0.6803500056266785,0.2817375063896179,0.4175874888896942
1781031093440610800,17.05361083984375,0.6803500056266785,0.2817375063896179,0.4175874888896942
1781031093460135700,17.0731357421875,0.5780500173568726,-0.18658749759197235,0.03258749842643738
1781031093479664000,17.0926640625,0.5365250110626221,-0.40851250290870667,-0.08772499859333038
1781031093499190800,17.112190673828124,0.5021499991416931,-0.562375009059906,-0.20528750121593475
1781031093518713900,17.1317138671875,0.47574999928474426,-0.6347000002861023,-0.3438875079154968
1781031093538236000,17.15123583984375,0.45608749985694885,-0.6340125203132629,-0.4883999824523926
1781031093557756200,17.170756103515625,0.45608749985694885,-0.6340125203132629,-0.4883999824523926
1781031093577274600,17.190274658203126,0.40603750944137573,-0.47341248393058777,-0.6693499684333801
1781031093596795600,17.209795654296876,0.40603750944137573,-0.47341248393058777,-0.6693499684333801
1781031093616320000,17.229320068359375,0.27403751015663147,-0.2946625053882599,-0.6632999777793884
1781031093635843600,17.248843505859377,0.27403751015663147,-0.2946625053882599,-0.6632999777793884
1781031093655367400,17.268367431640623,0.0518375001847744,-0.19607499241828918,-0.5809375047683716
1781031093674887700,17.2878876953125,-0.07438749819993973,-0.24034999310970306,-0.5478000044822693
1781031093694407200,17.3074072265625,-0.19030000269412994,-0.3741374909877777,-0.5405125021934509
1781031093713932500,17.3269326171875,-0.2866874933242798,-0.5696625113487244,-0.5607249736785889
1781031093733461500,17.34646142578125,-0.36616250872612,-0.7664250135421753,-0.6003249883651733
1781031093752989200,17.3659892578125,-0.36616250872612,-0.7664250135421753,-0.6003249883651733
1781031093772512300,17.38551220703125,-0.45704999566078186,-0.9758374691009521,-0.6980875134468079
1781031093792036400,17.405036376953124,-0.45704999566078186,-0.9758374691009521,-0.6980875134468079
1781031093811557600,17.4245576171875,-0.4081000089645386,-0.8839874863624573,-0.7607874870300293
1781031093831075000,17.444074951171874,-0.4081000089645386,-0.8839874863624573,-0.7607874870300293
1781031093850595600,17.463595703125,-0.2623499929904938,-0.6930000185966492,-0.7653250098228455
1781031093870116900,17.483116943359374,-0.17765000462532043,-0.6216375231742859,-0.7548750042915344
1781031093889639700,17.5026396484375,-0.10711249709129333,-0.5696625113487244,-0.7165125012397766
1781031093909166300,17.522166259765626,-0.06366249918937683,-0.5259374976158142,-0.6384124755859375
1781031093928693500,17.541693603515625,-0.04908749833703041,-0.4776749908924103,-0.5306124687194824
1781031093948210000,17.5612099609375,-0.04908749833703041,-0.4776749908924103,-0.5306124687194824
1781031093967721200,17.58072119140625,-0.07878749817609787,-0.3251875042915344,-0.2685374915599823
1781031093987239200,17.6002392578125,-0.10161250084638596,-0.2012999951839447,-0.11935000121593475
1781031094006761200,17.61976123046875,-0.10161250084638596,-0.2012999951839447,-0.11935000121593475
1781031094026281700,17.63928173828125,-0.10161250084638596,-0.2012999951839447,-0.11935000121593475
1781031094045802800,17.658802734375,-0.11412499845027924,0.09886249899864197,0.1438249945640564
1781031094065323500,17.678323486328125,-0.08758749812841415,0.4251500070095062,0.33880001306533813
1781031094084842200,17.69784228515625,-0.08758749812841415,0.4251500070095062,0.33880001306533813
1781031094104358000,17.71735791015625,-0.08153750002384186,0.5788750052452087,0.46268749237060547
1781031094123872000,17.7368720703125,-0.08442500233650208,0.7011125087738037,0.6124249696731567
1781031094143387000,17.756386962890623,-0.0873124971985817,0.7957124710083008,0.7737125158309937
1781031094162905000,17.775905029296876,-0.0873124971985817,0.7957124710083008,0.7737125158309937
1781031094182425600,17.795425537109374,-0.045099999755620956,0.5394124984741211,1.080199956893921
1781031094201943000,17.814943115234374,-0.045099999755620956,0.5394124984741211,1.080199956893921
1781031094221459000,17.834458984375,0.0826374962925911,0.28792500495910645,1.3190374374389648
1781031094240973800,17.853973876953123,0.0826374962925911,0.28792500495910645,1.3190374374389648
1781031094260491800,17.87349169921875,0.19717499613761902,0.3273875117301941,1.4377000331878662
1781031094280012500,17.893012451171874,0.2428250014781952,0.5237374901771545,1.4240875244140625
1781031094299531800,17.91253173828125,0.2835249900817871,0.6612374782562256,1.3652374744415283
1781031094319052000,17.932052001953124,0.3147374987602234,0.7409874796867371,1.277649998664856
1781031094338572300,17.951572265625,0.3324750065803528,0.7539125084877014,1.1684750318527222
1781031094358095600,17.971095703125,0.3324750065803528,0.7539125084877014,1.1684750318527222
1781031094377618200,17.9906181640625,0.32339999079704285,0.5750250220298767,0.8614374995231628
1781031094397136000,18.010135986328127,0.32339999079704285,0.5750250220298767,0.8614374995231628
1781031094416654800,18.02965478515625,0.2689499855041504,0.19882500171661377,0.4717625081539154
1781031094436174000,18.049174072265625,0.2689499855041504,0.19882500171661377,0.4717625081539154
1781031094455693000,18.068693115234375,0.22687499225139618,-0.23485000431537628,0.07809999585151672
1781031094475217400,18.088217529296877,0.22192500531673431,-0.4342249929904938,-0.0789249986410141
1781031094494743600,18.10774365234375,0.22618749737739563,-0.5926250219345093,-0.20143750309944153
1781031094514263600,18.127263671875,0.23938749730587006,-0.6740249991416931,-0.3123999834060669
1781031094533784600,18.14678466796875,0.26083749532699585,-0.6450124979019165,-0.4302375018596649
1781031094553309000,18.166308837890625,0.26083749532699585,-0.6450124979019165,-0.4302375018596649
1781031094572832500,18.18583251953125,0.2903999984264374,-0.32766249775886536,-0.6018375158309937
1781031094592354800,18.205354736328125,0.2903999984264374,-0.32766249775886536,-0.6018375158309937
1781031094611879400,18.22487939453125,0.21738749742507935,-0.05376249924302101,-0.64267498254776
1781031094631403300,18.2444033203125,0.21738749742507935,-0.05376249924302101,-0.64267498254776
1781031094650925000,18.263925048828124,0.045649997889995575,-0.02928750030696392,-0.7092249989509583
1781031094670453000,18.283452880859375,-0.04853750020265579,-0.15661250054836273,-0.7512999773025513
1781031094689984000,18.30298388671875,-0.12319999933242798,-0.3489750027656555,-0.8016250133514404
1781031094709508000,18.322508056640626,-0.1704999953508377,-0.5451874732971191,-0.8586875200271606
1781031094729028900,18.34202880859375,-0.19978749752044678,-0.7103250026702881,-0.9083250164985657
1781031094748550000,18.3615498046875,-0.19978749752044678,-0.7103250026702881,-0.9083250164985657
1781031094768073500,18.381073486328123,-0.2326499968767166,-0.8930624723434448,-0.9468249678611755
1781031094787597000,18.40059716796875,-0.2326499968767166,-0.8930624723434448,-0.9468249678611755
1781031094807121700,18.42012158203125,-0.1849374920129776,-0.6821374893188477,-1.0357874631881714
1781031094826639600,18.4396396484375,-0.1849374920129776,-0.6821374893188477,-1.0357874631881714
1781031094846157300,18.4591572265625,-0.027499999850988388,-0.38266250491142273,-1.1536250114440918
1781031094865686000,18.47868603515625,-0.027499999850988388,-0.38266250491142273,-1.1536250114440918
1781031094885219000,18.498218994140625,0.04881250113248825,-0.3297249972820282,-1.140837550163269
1781031094904751900,18.517751953125,0.09446249902248383,-0.33687499165534973,-1.0746999979019165
1781031094924281000,18.537281005859374,0.09968750178813934,-0.38885000348091125,-0.9774875044822693
1781031094943804400,18.556804443359376,0.06806249916553497,-0.45553749799728394,-0.8674874901771545
1781031094963326500,18.576326416015625,0.06806249916553497,-0.45553749799728394,-0.8674874901771545
1781031094982849000,18.59584912109375,-0.06998749822378159,-0.4657124876976013,-0.5626500248908997
1781031095002368300,18.6153681640625,-0.06998749822378159,-0.4657124876976013,-0.5626500248908997
1781031095021892400,18.634892333984375,-0.21408750116825104,-0.1652749925851822,-0.1073874980211258
1781031095041418000,18.65441796875,-0.21408750116825104,-0.1652749925851822,-0.1073874980211258
1781031095060940500,18.6739404296875,-0.25478750467300415,0.23237499594688416,0.26001250743865967
1781031095080462300,18.69346240234375,-0.24131250381469727,0.406312495470047,0.383899986743927
1781031095099986700,18.712986572265624,-0.21931250393390656,0.552887499332428,0.48083749413490295
1781031095119511800,18.73251171875,-0.19648750126361847,0.6676999926567078,0.559487521648407
1781031095139039000,18.7520390625,-0.179299995303154,0.7548750042915344,0.6367624998092651
1781031095158569500,18.771569580078125,-0.179299995303154,0.7548750042915344,0.6367624998092651
1781031095178092000,18.791092041015624,-0.17270000278949738,0.8828874826431274,0.8592374920845032
1781031095197611800,18.81061181640625,-0.17270000278949738,0.8828874826431274,0.8592374920845032
1781031095217138400,18.830138427734376,-0.1527625024318695,0.6238374710083008,1.1196625232696533
1781031095236665300,18.849665283203127,-0.1527625024318695,0.6238374710083008,1.1196625232696533
1781031095256187400,18.8691875,-0.07204999774694443,0.572825014591217,1.4104750156402588
1781031095275705000,18.888705078125,-0.01732499897480011,0.547249972820282,1.5608999729156494
1781031095295220700,18.908220703125,0.03657500073313713,0.568149983882904,1.6741999387741089
1781031095314744300,18.927744384765624,0.08552499860525131,0.6051374673843384,1.7327749729156494
1781031095334269000,18.94726904296875,0.12966249883174896,0.591112494468689,1.7384124994277954
1781031095353787600,18.96678759765625,0.12966249883174896,0.591112494468689,1.7384124994277954
1781031095373307600,18.9863076171875,0.2050125002861023,0.45925000309944153,1.5785000324249268
1781031095392827600,19.00582763671875,0.2050125002861023,0.45925000309944153,1.5785000324249268
1781031095412349200,19.02534912109375,0.25671249628067017,0.2733500003814697,1.173699975013733
1781031095431873000,19.044873046875,0.25671249628067017,0.2733500003814697,1.173699975013733
1781031095451398400,19.0643984375,0.27994999289512634,0.13144999742507935,0.6117374897003174
1781031095470921500,19.08392138671875,0.28462499380111694,0.055412501096725464,0.3258749842643738
1781031095490442500,19.1034423828125,0.2858625054359436,-0.03932499885559082,0.06159999966621399
1781031095509963500,19.122963623046875,0.28091248869895935,-0.14794999361038208,-0.1634874939918518
1781031095529485600,19.142485595703125,0.26455000042915344,-0.25671249628067017,-0.3348124921321869
1781031095549004500,19.162004638671874,0.26455000042915344,-0.25671249628067017,-0.3348124921321869
1781031095568520400,19.1815205078125,0.18562500178813934,-0.42281249165534973,-0.5698000192642212
1781031095588039400,19.201039306640624,0.13392500579357147,-0.45567500591278076,-0.6976749897003174
1781031095607559400,19.220559326171873,0.13392500579357147,-0.45567500591278076,-0.6976749897003174
1781031095627080400,19.24008056640625,0.04743750020861626,-0.4355999827384949,-0.949162483215332
1781031095646602800,19.259602783203125,0.04743750020861626,-0.4355999827384949,-0.949162483215332
1781031095666123000,19.279123046875,-0.0147124994546175,-0.37991249561309814,-1.0252000093460083
1781031095685647600,19.298647705078125,-0.0147124994546175,-0.37991249561309814,-1.0252000093460083
1781031095705175800,19.31817578125,-0.04179999977350235,-0.3409999907016754,-0.9931625127792358
1781031095724701200,19.337701171875,-0.06517499685287476,-0.3152875006198883,-0.9300500154495239
1781031095744228000,19.35722802734375,-0.08813749998807907,-0.34966251254081726,-0.8531875014305115
1781031095763756800,19.3767568359375,-0.08813749998807907,-0.34966251254081726,-0.8531875014305115
1781031095783276500,19.396276611328126,-0.15908749401569366,-0.5788750052452087,-0.7301250100135803
1781031095802794200,19.415794189453123,-0.15908749401569366,-0.5788750052452087,-0.7301250100135803
1781031095822316800,19.43531689453125,-0.2521750032901764,-0.676087498664856,-0.6987749934196472
1781031095841842400,19.454842529296876,-0.2521750032901764,-0.676087498664856,-0.6987749934196472
1781031095861363500,19.474363525390626,-0.22618749737739563,-0.5387250185012817,-0.7545999884605408
1781031095880880000,19.493880126953126,-0.16568750143051147,-0.47148749232292175,-0.8142749667167664
1781031095900398300,19.5133984375,-0.09569999575614929,-0.4548499882221222,-0.8916875123977661
1781031095919915500,19.53291552734375,-0.030799999833106995,-0.4927999973297119,-0.9776250123977661
1781031095939432400,19.552432373046877,0.017875000834465027,-0.5684249997138977,-1.0595749616622925
1781031095958953200,19.571953125,0.017875000834465027,-0.5684249997138977,-1.0595749616622925
1781031095978477800,19.591477783203125,0.040562499314546585,-0.7321875095367432,-1.1083874702453613
1781031095998003700,19.611003662109376,0.040562499314546585,-0.7321875095367432,-1.1083874702453613
1781031096017527000,19.630527099609374,-0.007562499959021807,-0.7214624881744385,-0.9248250126838684
1781031096037048300,19.65004833984375,-0.007562499959021807,-0.7214624881744385,-0.9248250126838684
1781031096056571400,19.6695712890625,-0.03368749842047691,-0.4842749834060669,-0.6228749752044678
1781031096076095500,19.689095458984376,-0.02928750030696392,-0.30799999833106995,-0.45003750920295715
1781031096095619800,19.708619873046874,-0.024062499403953552,-0.11742500215768814,-0.25905001163482666
1781031096115140900,19.728140869140624,-0.02681249938905239,0.0719124972820282,-0.04124999791383743
1781031096134660000,19.74766015625,-0.03684999793767929,0.2488749921321869,0.1909874975681305
1781031096154174700,19.7671748046875,-0.03684999793767929,0.2488749921321869,0.1909874975681305
1781031096173687300,19.786687255859373,-0.04729999974370003,0.5530250072479248,0.5852000117301941
1781031096193207300,19.806207275390626,-0.04729999974370003,0.5530250072479248,0.5852000117301941
1781031096212731000,19.82573095703125,-0.05169999971985817,0.3539249897003174,0.9143750071525574
1781031096232250400,19.84525048828125,-0.05169999971985817,0.3539249897003174,0.9143750071525574
1781031096251765000,19.864764892578126,-0.010449999943375587,0.3587374985218048,1.232550024986267
1781031096271282200,19.8842822265625,0.04441250115633011,0.2864125072956085,1.3198624849319458
1781031096290802700,19.903802734375,0.09941250085830688,0.32807499170303345,1.3717000484466553
1781031096310320400,19.9233203125,0.13750000298023224,0.4595249891281128,1.411025047302246
1781031096329836300,19.942836181640626,0.15674999356269836,0.5634750127792358,1.4377000331878662
1781031096349351200,19.96235107421875,0.15674999356269836,0.5634750127792358,1.4377000331878662
1781031096368864500,19.981864501953126,0.15936249494552612,0.6571124792098999,1.4291750192642212
1781031096388381700,20.001381591796875,0.15056249499320984,0.6613749861717224,1.3969999551773071
1781031096407902000,20.02090185546875,0.15056249499320984,0.6613749861717224,1.3969999551773071
1781031096427421700,20.040421630859374,0.12443749606609344,0.5636125206947327,1.2018874883651733
1781031096446946000,20.059946044921876,0.12443749606609344,0.5636125206947327,1.2018874883651733
1781031096466473500,20.079473388671875,0.12443749606609344,0.5636125206947327,1.2018874883651733
1781031096486000600,20.099000732421874,0.0849749967455864,0.2923249900341034,0.8038250207901001
1781031096505524000,20.11852392578125,0.0849749967455864,0.2923249900341034,0.8038250207901001
1781031096525044000,20.1380439453125,0.07259999960660934,-0.07452499866485596,0.27073749899864197
1781031096544566800,20.15756689453125,0.08387500047683716,-0.21986250579357147,0.03368749842047691
1781031096564093000,20.177093017578127,0.10436250269412994,-0.3059374988079071,-0.17778749763965607
1781031096583621400,20.196621337890626,0.10436250269412994,-0.3059374988079071,-0.17778749763965607
1781031096603151000,20.216151123046874,0.1629374921321869,-0.2957625091075897,-0.515625
1781031096622679600,20.235679443359373,0.1629374921321869,-0.2957625091075897,-0.515625
1781031096642208000,20.2552080078125,0.20446249842643738,-0.15028749406337738,-0.6433625221252441
1781031096661733000,20.274733154296875,0.20446249842643738,-0.15028749406337738,-0.6433625221252441
1781031096681261000,20.294260986328126,0.18507499992847443,-0.07150000333786011,-0.694237470626831
1781031096700791300,20.313791259765626,0.14327499270439148,-0.06311249732971191,-0.7301250100135803
1781031096720317400,20.3333173828125,0.08195000141859055,-0.055412501096725464,-0.7559750080108643
1781031096739845400,20.352845458984376,0.003987499978393316,-0.06902500241994858,-0.74566251039505
1781031096759374000,20.3723740234375,0.003987499978393316,-0.06902500241994858,-0.74566251039505
1781031096778901800,20.39190185546875,-0.1942874938249588,-0.32381248474121094,-0.6641250252723694
1781031096798426400,20.41142626953125,-0.1942874938249588,-0.32381248474121094,-0.6641250252723694
1781031096817949000,20.430948974609375,-0.42294999957084656,-0.8292624950408936,-0.634149968624115
1781031096837471700,20.4504716796875,-0.42294999957084656,-0.8292624950408936,-0.634149968624115
1781031096856991500,20.469991455078127,-0.5341874957084656,-1.0656249523162842,-0.5377625226974487
1781031096876510200,20.48951025390625,-0.5053125023841858,-1.0382624864578247,-0.5277249813079834
1781031096896030200,20.5090302734375,-0.4221250116825104,-0.9659374952316284,-0.5802500247955322
1781031096915549700,20.5285498046875,-0.30428749322891235,-0.8801375031471252,-0.671412467956543
1781031096935070700,20.54807080078125,-0.1788875013589859,-0.7981874942779541,-0.7541875243186951
1781031096954594300,20.56759423828125,-0.1788875013589859,-0.7981874942779541,-0.7541875243186951
1781031096974114800,20.58711474609375,0.025162499397993088,-0.6172375082969666,-0.7603750228881836
1781031096993633300,20.60663330078125,0.025162499397993088,-0.6172375082969666,-0.7603750228881836
1781031097013156400,20.62615625,0.12292499840259552,-0.3559874892234802,-0.5766749978065491
1781031097032684800,20.645684814453126,0.12292499840259552,-0.3559874892234802,-0.5766749978065491
1781031097052213200,20.665213134765626,0.11893749982118607,-0.08552499860525131,-0.303600013256073
1781031097071744500,20.68474462890625,0.09487500041723251,0.02928750030696392,-0.1691250056028366
1781031097091276500,20.704276611328126,0.0625625029206276,0.12540000677108765,-0.05252499878406525
1781031097110806000,20.723805908203126,0.025437500327825546,0.20446249842643738,0.03918749839067459
1781031097130340400,20.74334033203125,-0.016362499445676804,0.27761250734329224,0.1214125007390976
1781031097149870300,20.762870361328126,-0.016362499445676804,0.27761250734329224,0.1214125007390976
1781031097169401300,20.7824013671875,-0.10353749990463257,0.47244998812675476,0.3390749990940094
1781031097188935000,20.801934814453126,-0.10353749990463257,0.47244998812675476,0.3390749990940094
1781031097208462600,20.821462646484374,-0.13529999554157257,0.8028625249862671,0.5648499727249146
1781031097227990000,20.840989990234377,-0.13529999554157257,0.8028625249862671,0.5648499727249146
1781031097247521300,20.860521240234377,-0.13296249508857727,1.154175043106079,0.8351749777793884
1781031097267048000,20.8800478515625,-0.11577499657869339,1.2311749458312988,1.1533499956130981
1781031097286572500,20.899572509765626,-0.11577499657869339,1.2311749458312988,1.1533499956130981
1781031097306100000,20.919099853515625,-0.045512501150369644,1.3326499462127686,1.7972625494003296
1781031097325628400,20.93862841796875,-0.045512501150369644,1.3326499462127686,1.7972625494003296
1781031097345156400,20.95815625,-0.015812499448657036,1.2501499652862549,2.0876624584198
1781031097364681200,20.97768115234375,0.0005499999970197678,1.0220375061035156,2.291712522506714
1781031097384203800,20.997203857421876,0.006874999962747097,0.7349374890327454,2.3713250160217285
1781031097403724800,21.016724853515626,0.006874999962747097,0.7349374890327454,2.3713250160217285
1781031097423245800,21.036245849609376,0.025987500324845314,0.2854500114917755,2.1334500312805176
1781031097442773500,21.0557734375,0.025987500324845314,0.2854500114917755,2.1334500312805176
1781031097462299600,21.075299560546874,0.11824999749660492,0.15399999916553497,1.5188249349594116
1781031097481820000,21.09481982421875,0.19030000269412994,0.15207499265670776,1.1167750358581543
1781031097501338400,21.11433837890625,0.267300009727478,0.1405249983072281,0.6792500019073486
1781031097520861200,21.133861083984375,0.34209999442100525,0.0989999994635582,0.24392500519752502
1781031097540385000,21.153385009765625,0.40755000710487366,0.024062499403953552,-0.1467124968767166
1781031097559907800,21.172907958984375,0.40755000710487366,0.024062499403953552,-0.1467124968767166
1781031097579431700,21.192431640625,0.48454999923706055,-0.16060000658035278,-0.7422249913215637
1781031097598953500,21.211953369140623,0.48454999923706055,-0.16060000658035278,-0.7422249913215637
1781031097618475300,21.231475341796877,0.46722498536109924,-0.21931250393390656,-1.2200374603271484
1781031097637998800,21.250998779296875,0.46722498536109924,-0.21931250393390656,-1.2200374603271484
1781031097657522400,21.2705224609375,0.3583250045776367,-0.19470000267028809,-1.5060374736785889
1781031097677045500,21.29004541015625,0.26785001158714294,-0.2092749923467636,-1.540274977684021
1781031097696566800,21.30956689453125,0.15867500007152557,-0.25107499957084656,-1.509887456893921
1781031097716082700,21.329082763671874,0.04001250118017197,-0.3158375024795532,-1.424912452697754
1781031097735600400,21.348600341796875,-0.07644999772310257,-0.39476248621940613,-1.304324984550476
1781031097755118600,21.36811865234375,-0.07644999772310257,-0.39476248621940613,-1.304324984550476
1781031097774631200,21.387631103515623,-0.2404875010251999,-0.5651249885559082,-1.0791000127792358
1781031097794140700,21.407140625,-0.2404875010251999,-0.5651249885559082,-1.0791000127792358
1781031097813653000,21.426653076171874,-0.23512500524520874,-0.7939249873161316,-0.9839500188827515
1781031097833170700,21.446170654296875,-0.23512500524520874,-0.7939249873161316,-0.9839500188827515
1781031097852690200,21.465690185546876,-0.12388750165700912,-0.8134499788284302,-0.9560375213623047
1781031097872211700,21.485211669921874,-0.05238749831914902,-0.6832374930381775,-0.9299125075340271
1781031097891735600,21.504735595703124,0.021175000816583633,-0.5119125247001648,-0.8784874677658081
1781031097911259600,21.524259765625,0.09803749620914459,-0.3484250009059906,-0.8298124670982361
1781031097930785800,21.543785888671874,0.17971250414848328,-0.23278750479221344,-0.8238999843597412
1781031097950305500,21.563305419921875,0.17971250414848328,-0.23278750479221344,-0.8238999843597412
1781031097969826800,21.582826904296876,0.3081375062465668,-0.22151249647140503,-0.9407749772071838
1781031097989352000,21.60235205078125,0.3081375062465668,-0.22151249647140503,-0.9407749772071838
1781031098008876000,21.6218759765625,0.2765125036239624,-0.4334000051021576,-1.0680999755859375
1781031098028399600,21.641399658203124,0.2055625021457672,-0.5150749683380127,-1.0748374462127686
1781031098047918000,21.66091796875,0.2055625021457672,-0.5150749683380127,-1.0748374462127686
1781031098067436800,21.680436767578126,0.020487500354647636,-0.5059999823570251,-0.8942999839782715
1781031098086959000,21.699958984375,-0.06971249729394913,-0.4152500033378601,-0.7144500017166138
1781031098106477000,21.71947705078125,-0.06971249729394913,-0.4152500033378601,-0.7144500017166138
1781031098125992700,21.73899267578125,-0.21848750114440918,-0.11261250078678131,-0.21931250393390656
1781031098145511200,21.75851123046875,-0.21848750114440918,-0.11261250078678131,-0.21931250393390656
1781031098165030100,21.778030029296875,-0.2605625092983246,0.06902500241994858,0.05142499879002571
1781031098184547600,21.797547607421876,-0.27541249990463257,0.2550624907016754,0.304562509059906
1781031098204067300,21.8170673828125,-0.2750000059604645,0.43174999952316284,0.5372124910354614
1781031098223589600,21.836589599609376,-0.2750000059604645,0.43174999952316284,0.5372124910354614
1781031098243111000,21.85611083984375,-0.25753748416900635,0.7118374705314636,0.9437999725341797
1781031098262631000,21.875630859375,-0.25753748416900635,0.7118374705314636,0.9437999725341797
1781031098282149000,21.895149169921876,-0.1714625060558319,0.9011750221252441,1.1820875406265259
1781031098301665300,21.914665283203124,-0.09556250274181366,0.9640125036239624,1.2227874994277954
1781031098321186600,21.9341865234375,-0.016224998980760574,1.003749966621399,1.253999948501587
1781031098340708900,21.953708984375,0.050187498331069946,1.0212124586105347,1.3180749416351318
1781031098360227800,21.973227783203125,0.050187498331069946,1.0212124586105347,1.3180749416351318
1781031098379747000,21.9927470703125,0.12319999933242798,0.9912375211715698,1.528862476348877
1781031098399268600,22.0122685546875,0.12319999933242798,0.9912375211715698,1.528862476348877
1781031098418792700,22.031792724609375,0.1527625024318695,0.8864625096321106,1.6179624795913696
1781031098438309600,22.0513095703125,0.1527625024318695,0.8864625096321106,1.6179624795913696
1781031098457822000,22.070822021484375,0.15592500567436218,0.6499624848365784,1.432474970817566
1781031098477340000,22.09033984375,0.14698749780654907,0.4729999899864197,1.221274971961975
1781031098496859000,22.10985888671875,0.13241249322891235,0.2741749882698059,0.9671750068664551
1781031098516372700,22.129372802734373,0.1163249984383583,0.0672374963760376,0.7042750120162964
1781031098535884000,22.148884033203124,0.1060125008225441,-0.13928750157356262,0.43779999017715454
1781031098555397400,22.1683974609375,0.1060125008225441,-0.13928750157356262,0.43779999017715454
1781031098574916000,22.187916015625,0.12319999933242798,-0.4856500029563904,-0.08346249908208847
1781031098594439700,22.207439697265624,0.12319999933242798,-0.4856500029563904,-0.08346249908208847
1781031098613966300,22.22696630859375,0.18548749387264252,-0.4512749910354614,-0.4078249931335449
1781031098633492200,22.2464921875,0.18548749387264252,-0.4512749910354614,-0.4078249931335449
1781031098653019400,22.266019287109376,0.2527250051498413,-0.14038750529289246,-0.643637478351593
1781031098672545800,22.2855458984375,0.2662000060081482,-0.008387500420212746,-0.7634000182151794
1781031098692070700,22.305070556640626,0.25244998931884766,0.08689999580383301,-0.8482375144958496
1781031098711595800,22.324595703125,0.20679999887943268,0.13529999554157257,-0.8888000249862671
1781031098731117600,22.34411767578125,0.1284250020980835,0.12732499837875366,-0.90048748254776
1781031098750636500,22.363636474609375,0.1284250020980835,0.12732499837875366,-0.90048748254776
1781031098770156500,22.383156494140625,-0.10408750176429749,-0.09019999951124191,-0.9063999652862549
1781031098789679000,22.40267919921875,-0.10408750176429749,-0.09019999951124191,-0.9063999652862549
1781031098809201700,22.42220166015625,-0.2903999984264374,-0.6040375232696533,-1.0058125257492065
1781031098828718600,22.441718505859374,-0.2903999984264374,-0.6040375232696533,-1.0058125257492065
1781031098848234200,22.461234130859374,-0.2903999984264374,-0.6040375232696533,-1.0058125257492065
1781031098867752200,22.480752197265623,-0.26743748784065247,-0.9018625020980835,-1.108525037765503
1781031098887274500,22.5002744140625,-0.20954999327659607,-0.8492000102996826,-1.0931249856948853
1781031098906801000,22.51980078125,-0.20954999327659607,-0.8492000102996826,-1.0931249856948853
1781031098926325200,22.5393251953125,-0.03973750025033951,-0.684612512588501,-1.095462441444397
1781031098945845800,22.558845703125,-0.03973750025033951,-0.684612512588501,-1.095462441444397
1781031098965364500,22.578364501953125,-0.03973750025033951,-0.684612512588501,-1.095462441444397
1781031098984884000,22.597884033203126,0.2110625058412552,-0.5875374674797058,-1.1496374607086182
1781031099004405800,22.61740576171875,0.31790000200271606,-0.567187488079071,-1.1539000272750854
1781031099023927800,22.636927734375,0.381012499332428,-0.5559124946594238,-1.1302499771118164
1781031099043448300,22.6564482421875,0.381012499332428,-0.5559124946594238,-1.1302499771118164
1781031099062971000,22.675970947265625,0.3783999979496002,-0.4950000047683716,-0.980650007724762
1781031099082492200,22.6954921875,0.3306874930858612,-0.41827499866485596,-0.8472750186920166
1781031099102013000,22.715012939453125,0.2601499855518341,-0.3151499927043915,-0.6573874950408936
1781031099121537500,22.73453759765625,0.17132499814033508,-0.20157499611377716,-0.4076874852180481
1781031099141060400,22.754060302734374,0.07163749635219574,-0.09116250276565552,-0.12182500213384628
1781031099160583700,22.773583740234375,0.07163749635219574,-0.09116250276565552,-0.12182500213384628
1781031099180105500,22.79310546875,-0.1368124932050705,0.1223749965429306,0.4035624861717224
1781031099199632000,22.8126318359375,-0.1368124932050705,0.1223749965429306,0.4035624861717224
1781031099219163600,22.83216357421875,-0.367125004529953,0.40988749265670776,0.830637514591217
1781031099238692600,22.851692626953124,-0.367125004529953,0.40988749265670776,0.830637514591217
1781031099258222000,22.87122216796875,-0.505174994468689,0.757349967956543,1.132449984550476
1781031099277751300,22.890751220703127,-0.5297874808311462,0.9053000211715698,1.2319999933242798
1781031099297283300,22.910283447265623,-0.5409250259399414,1.0078749656677246,1.299512505531311
1781031099316817000,22.92981689453125,-0.5454624891281128,0.7976375222206116,1.3183499574661255
1781031099336350000,22.949349853515624,-0.549037516117096,0.5847874879837036,1.2856249809265137
1781031099355882500,22.968882568359376,-0.549037516117096,0.5847874879837036,1.2856249809265137
1781031099375416300,22.988416259765625,-0.5478000044822693,0.4643374979496002,1.1424875259399414
1781031099394951000,23.007950927734374,-0.5478000044822693,0.4643374979496002,1.1424875259399414
1781031099414478600,23.027478515625,-0.4507249891757965,-0.09583749622106552,1.047474980354309
1781031099434007300,23.04700732421875,-0.4507249891757965,-0.09583749622106552,1.047474980354309
1781031099453541400,23.066541259765625,-0.08662500232458115,-0.8307750225067139,1.0863875150680542
1781031099473075700,23.08607568359375,0.1443749964237213,-1.1365749835968018,1.1016499996185303
1781031099492609500,23.105609619140626,0.33371248841285706,-1.345574975013733,1.0645250082015991
1781031099512139000,23.125138916015626,0.4618625044822693,-1.454337477684021,0.9860125184059143
1781031099531667200,23.144667236328125,0.5322625041007996,-1.4935250282287598,0.9105250239372253
1781031099551196700,23.16419677734375,0.5322625041007996,-1.4935250282287598,0.9105250239372253
1781031099570721500,23.183721435546875,0.5389999747276306,-1.4614875316619873,0.792412519454956
1781031099590249200,23.203249267578126,0.5389999747276306,-1.4614875316619873,0.792412519454956
1781031099609780500,23.222780517578126,0.46915000677108765,-1.3413125276565552,0.6125624775886536
1781031099629313800,23.242313720703127,0.46915000677108765,-1.3413125276565552,0.6125624775886536
1781031099648848000,23.261847900390624,0.30744999647140503,-1.1089375019073486,0.4955500066280365
1781031099668379600,23.281379638671876,0.21793749928474426,-1.0210750102996826,0.4395875036716461
1781031099687911200,23.3009111328125,0.21793749928474426,-1.0210750102996826,0.4395875036716461
1781031099707438800,23.32043896484375,0.09913749992847443,-1.0564124584197998,0.2480500042438507
1781031099726961200,23.339961181640625,0.09913749992847443,-1.0564124584197998,0.2480500042438507
1781031099746483500,23.3594833984375,0.055412501096725464,-1.1666874885559082,0.14657500386238098
1781031099766011400,23.379011474609374,0.055412501096725464,-1.1666874885559082,0.14657500386238098
1781031099785536800,23.398536865234377,-0.018287500366568565,-1.4001624584197998,0.002749999985098839
1781031099824583400,23.43758349609375,-0.031075000762939453,-1.3726625442504883,-0.03946249932050705
1781031099844103000,23.45710302734375,-0.009487500414252281,-1.2337875366210938,-0.04427500069141388
1781031099863623000,23.476622802734376,-0.009487500414252281,-1.2337875366210938,-0.04427500069141388
1781031099883145000,23.49614501953125,0.012374999932944775,-0.5897374749183655,0.03712499886751175
1781031099902665000,23.5156650390625,0.0030249999836087227,0.01966249942779541,0.1522125005722046
1781031099922185500,23.535185546875,0.007287499960511923,0.7541875243186951,0.26922500133514404
1781031099941706200,23.554706298828126,0.027912499383091927,1.474137544631958,0.33550000190734863
1781031099961223000,23.574222900390627,0.027912499383091927,1.474137544631958,0.33550000190734863
1781031099980740900,23.593740966796876,0.002474999986588955,2.4105124473571777,0.20212499797344208
1781031100000264700,23.6132646484375,0.002474999986588955,2.4105124473571777,0.20212499797344208
1781031100019786500,23.632786376953124,-0.2947999835014343,2.175800085067749,-0.28476250171661377
1781031100039305000,23.652304931640625,-0.2947999835014343,2.175800085067749,-0.28476250171661377
1781031100058819300,23.6718193359375,-0.5376250147819519,1.0839124917984009,-0.8131750226020813
1781031100078332200,23.691332275390625,-0.5638874769210815,0.5176874995231628,-1.03125
1781031100097849600,23.710849609375,-0.5607249736785889,0.03464999794960022,-1.1875874996185303
1781031100117365500,23.730365478515626,-0.5475249886512756,-0.3144625127315521,-1.2666499614715576
1781031100136879900,23.7498798828125,-0.5278624892234802,-0.5028374791145325,-1.2770999670028687
1781031100156397600,23.7693974609375,-0.5278624892234802,-0.5028374791145325,-1.2770999670028687
1781031100175919000,23.788919189453125,-0.42748749256134033,-0.4620000123977661,-1.1679250001907349
1781031100195441400,23.80844140625,-0.42748749256134033,-0.4620000123977661,-1.1679250001907349
1781031100214963700,23.827963623046877,-0.2106499969959259,-0.18191249668598175,-0.9570000171661377
1781031100234484000,23.84748388671875,-0.2106499969959259,-0.18191249668598175,-0.9570000171661377
1781031100254006800,23.8670068359375,-0.010862499475479126,0.057887498289346695,-0.6370375156402588
1781031100273534700,23.88653466796875,0.06792499870061874,0.1396999955177307,-0.48358750343322754
1781031100293060600,23.906060546875,0.14176249504089355,0.20487499237060547,-0.35942500829696655
1781031100312582100,23.92558203125,0.2092749923467636,0.27403751015663147,-0.24791249632835388
1781031100332104700,23.945104736328126,0.2759625017642975,0.3830749988555908,-0.12182500213384628
1781031100351631600,23.964631591796874,0.2759625017642975,0.3830749988555908,-0.12182500213384628
1781031100371157000,23.984156982421876,0.44206249713897705,0.8214250206947327,0.1494625061750412
1781031100390679800,24.0036796875,0.44206249713897705,0.8214250206947327,0.1494625061750412
1781031100410201900,24.023201904296876,0.6036249995231628,1.5069999694824219,0.27953749895095825
1781031100429720000,24.042719970703125,0.6036249995231628,1.5069999694824219,0.27953749895095825
1781031100449239800,24.06223974609375,0.6916249990463257,2.0453124046325684,0.21422499418258667
1781031100468760600,24.081760498046876,0.7111499905586243,2.163287401199341,0.13859999179840088
1781031100488282400,24.101282470703126,0.7114250063896179,2.1579248905181885,0.03437500074505806
1781031100507804700,24.1208046875,0.688462495803833,2.0172624588012695,-0.11384999752044678
1781031100527323600,24.14032373046875,0.643637478351593,1.730162501335144,-0.2983750104904175
1781031100546841900,24.159841796875,0.643637478351593,1.730162501335144,-0.2983750104904175
1781031100566359000,24.179359130859375,0.5501375198364258,0.7448375225067139,-0.6424000263214111
1781031100585879300,24.19887939453125,0.5501375198364258,0.7448375225067139,-0.6424000263214111
1781031100605398500,24.2183984375,0.5501375198364258,0.7448375225067139,-0.6424000263214111
1781031100624917800,24.237917724609375,0.5698000192642212,-0.2147749960422516,-0.8101499676704407
1781031100644439300,24.257439208984376,0.5821750164031982,-0.4212999939918518,-0.8095999956130981
1781031100663960000,24.2769599609375,0.5638874769210815,-0.44068750739097595,-0.7794874906539917
1781031100683483100,24.296483154296876,0.5174124836921692,-0.36217498779296875,-0.7459374666213989
1781031100703000800,24.316000732421877,0.45471251010894775,-0.27761250734329224,-0.7188500165939331
1781031100722518000,24.33551806640625,0.38279998302459717,-0.2287999987602234,-0.696025013923645
1781031100742043400,24.35504345703125,0.30703750252723694,-0.22302499413490295,-0.6736124753952026
1781031100761567500,24.3745673828125,0.30703750252723694,-0.22302499413490295,-0.6736124753952026
1781031100781085400,24.39408544921875,0.15262499451637268,-0.3451249897480011,-0.5850625038146973
1781031100800604200,24.413604248046877,0.15262499451637268,-0.3451249897480011,-0.5850625038146973
1781031100820123000,24.433122802734374,-0.010587500408291817,-0.5340499877929688,-0.44618749618530273
1781031100839640600,24.452640625,-0.010587500408291817,-0.5340499877929688,-0.44618749618530273
1781031100859162000,24.472162109375,-0.15111249685287476,-0.545324981212616,-0.35846251249313354
1781031100878685000,24.491684814453127,-0.1970375031232834,-0.4945875108242035,-0.33701249957084656
1781031100898204400,24.511204345703124,-0.2186249941587448,-0.44288748502731323,-0.33797499537467957
1781031100917726200,24.530726318359374,-0.21917499601840973,-0.3918749988079071,-0.3543374836444855
1781031100937252000,24.550252197265625,-0.20845000445842743,-0.3302749991416931,-0.3683624863624573
1781031100956775700,24.569775634765627,-0.20845000445842743,-0.3302749991416931,-0.3683624863624573
1781031100976297700,24.589297607421877,-0.17256249487400055,-0.18603749573230743,-0.3642374873161316
1781031100995826200,24.608826171875,-0.17256249487400055,-0.18603749573230743,-0.3642374873161316
1781031101015357400,24.628357421875,-0.1344749927520752,-0.1746249943971634,-0.31913748383522034
1781031101034889700,24.6478896484375,-0.1344749927520752,-0.1746249943971634,-0.31913748383522034
