time,seconds_elapsed,z,y,x
1780563887524294700,0.350294677734375,8.107595443725586,5.450447082519531,0.7742819786071777
1780563887534574600,0.36057470703125,8.081073760986328,5.481628894805908,0.8294479846954346
1780563887553588200,0.379588134765625,8.054475784301758,5.510410785675049,0.8948659896850586
1780563887573112300,0.3991123046875,8.027730941772461,5.536704063415527,0.9697669744491577
1780563887592630300,0.41863037109375,8.000662803649902,5.560469150543213,1.0538320541381836
1780563887612146000,0.43814599609375,7.973056793212891,5.5815629959106445,1.1473959684371948
1780563887631664000,0.4576640625,7.944684028625488,5.599607944488525,1.2515499591827393
1780563887651181800,0.477181884765625,7.9152750968933105,5.614175796508789,1.3672770261764526
1780563887670700500,0.496700439453125,7.88504695892334,5.624177932739258,1.494871973991394
1780563887690222000,0.51622216796875,7.854471206665039,5.6284379959106445,1.6333880424499512
1780563887709739500,0.535739501953125,7.854471206665039,5.6284379959106445,1.6333880424499512
1780563887729252400,0.55525244140625,7.798038959503174,5.610939025878906,1.935960054397583
1780563887748765700,0.574765625,7.798038959503174,5.610939025878906,1.935960054397583
1780563887768286500,0.594286376953125,7.774959087371826,5.585006237030029,2.0970730781555176
1780563887787809000,0.61380908203125,7.7456841468811035,5.488364219665527,2.4335639476776123
1780563887807328500,0.63332861328125,7.7456841468811035,5.488364219665527,2.4335639476776123
1780563887826850000,0.65285009765625,7.740877151489258,5.414519786834717,2.6080260276794434
1780563887846368500,0.672368408203125,7.741015911102295,5.324113845825195,2.787558078765869
1780563887865884200,0.69188427734375,7.744595050811768,5.2171478271484375,2.973651885986328
1780563887885401600,0.711401611328125,7.746685028076172,5.098631858825684,3.1674609184265137
1780563887904924200,0.730924072265625,7.743102073669434,4.971972942352295,3.3710289001464844
1780563887924449500,0.750449462890625,7.730384826660156,4.838717937469482,3.5871920585632324
1780563887943976000,0.769975830078125,7.703492164611816,4.703717231750488,3.817229986190796
1780563887963502300,0.78950244140625,7.659441947937012,4.5694451332092285,4.061172008514404
1780563887983028700,0.80902880859375,7.5960187911987305,4.438407897949219,4.3175249099731445
1780563888002557000,0.828556884765625,7.512123107910156,4.310939788818359,4.585169792175293
1780563888022085400,0.84808544921875,7.407164096832275,4.187565803527832,4.861913204193115
1780563888041611500,0.867611572265625,7.2814040184021,4.068276882171631,5.144927024841309
1780563888061134000,0.887134033203125,7.135412216186523,3.952176094055176,5.43195915222168
1780563888080655400,0.9066552734375,6.970632076263428,3.8365368843078613,5.721121788024902
1780563888100177200,0.92617724609375,6.789988994598389,3.716296911239624,6.010422229766846
1780563888119700700,0.94570068359375,6.598086833953857,3.58712100982666,6.29585599899292
1780563888139227100,0.96522705078125,6.400975227355957,3.4441089630126953,6.573099136352539
1780563888158751200,0.984751220703125,6.205373764038086,3.2831709384918213,6.837698936462402
1780563888178273800,1.004273681640625,6.016726016998291,3.102313995361328,7.0862298011779785
1780563888197796900,1.023796875,5.8388590812683105,2.9018499851226807,7.316214084625244
1780563888217318000,1.04331787109375,5.6730217933654785,2.684014081954956,7.526811122894287
1780563888236840200,1.062840087890625,5.518074035644531,2.452008008956909,7.718711853027344
1780563888256361000,1.08236083984375,5.372152805328369,2.2091970443725586,7.892996788024902
1780563888275883300,1.10188330078125,5.233508110046387,1.9593479633331299,8.050548553466797
1780563888295410000,1.121409912109375,5.1019158363342285,1.706254005432129,8.191407203674316
1780563888314935300,1.140935302734375,4.977366924285889,1.4566969871520996,8.315278053283691
1780563888334459100,1.160459228515625,4.860458850860596,1.2127799987792969,8.422891616821289
1780563888353982700,1.179982666015625,4.750326156616211,0.9825029969215393,8.515226364135742
1780563888373506300,1.19950634765625,4.644237041473389,0.7702659964561462,8.595216751098633
1780563888393030700,1.21903076171875,4.539086818695068,0.5767490267753601,8.666259765625
1780563888412554200,1.23855419921875,4.430039882659912,0.40585198998451233,8.732126235961914
1780563888432076800,1.258076904296875,4.314826965332031,0.25312501192092896,8.795350074768066
1780563888451601400,1.277601318359375,4.194014072418213,0.11749099940061569,8.85643482208252
1780563888471130400,1.29713037109375,4.071495056152344,-0.009101999923586845,8.914194107055664
1780563888490658000,1.316657958984375,3.9533519744873047,-0.1312510073184967,8.96625804901123
1780563888510175200,1.33617529296875,3.9533519744873047,-0.1312510073184967,8.96625804901123
1780563888529690400,1.3556904296875,3.843782901763916,-0.25091999769210815,9.011235237121582
1780563888549212400,1.37521240234375,3.669327974319458,-0.5022460222244263,9.07324504852295
1780563888568734000,1.39473388671875,3.6077659130096436,-0.6363440155982971,9.089503288269043
1780563888588253000,1.4142529296875,3.6077659130096436,-0.6363440155982971,9.089503288269043
1780563888607777500,1.433777587890625,3.5649919509887695,-0.7760729789733887,9.0955228805542
1780563888627302700,1.453302734375,3.5412399768829346,-0.9209989905357361,9.091279983520508
1780563888646822700,1.47282275390625,3.537842035293579,-1.0695960521697998,9.076322555541992
1780563888666344400,1.492344482421875,3.554292917251587,-1.2197719812393188,9.050919532775879
1780563888685866800,1.51186669921875,3.5891261100769043,-1.368749976158142,9.015802383422852
1780563888705389800,1.531389892578125,3.6389501094818115,-1.5132639408111572,8.97262954711914
1780563888724911600,1.55091162109375,3.696674108505249,-1.6508740186691284,8.924640655517578
1780563888744434400,1.570434326171875,3.7563939094543457,-1.778676986694336,8.875009536743164
1780563888763963000,1.589962890625,3.8139939308166504,-1.8943419456481934,8.826375961303711
1780563888783492400,1.609492431640625,3.8676071166992188,-1.9968090057373047,8.780340194702148
1780563888803018800,1.629018798828125,3.916731119155884,-2.085783004760742,8.737775802612305
1780563888822539000,1.6485390625,3.962161064147949,-2.1613659858703613,8.698837280273438
1780563888842056200,1.66805615234375,4.005990028381348,-2.223526954650879,8.663022994995117
1780563888861574700,1.68757470703125,4.050213813781738,-2.273336887359619,8.629467010498047
1780563888881095000,1.707094970703125,4.095663070678711,-2.3131909370422363,8.597365379333496
1780563888900620000,1.7266201171875,4.1422038078308105,-2.346155881881714,8.56607723236084
1780563888920148000,1.74614794921875,4.188529968261719,-2.375422954559326,8.535430908203125
1780563888939676700,1.7656767578125,4.233372211456299,-2.4040889739990234,8.505228042602539
1780563888959204900,1.785204833984375,4.2765631675720215,-2.4344019889831543,8.474945068359375
1780563888978725000,1.80472509765625,4.317561149597168,-2.4686460494995117,8.444195747375488
1780563888998246400,1.824246337890625,4.355422019958496,-2.5093390941619873,8.412699699401855
1780563889017771300,1.843771240234375,4.389492034912109,-2.5579938888549805,8.380274772644043
1780563889037296600,1.863296630859375,4.420022010803223,-2.6152429580688477,8.346489906311035
1780563889056821000,1.882821044921875,4.448637008666992,-2.6800899505615234,8.310640335083008
1780563889076341500,1.902341552734375,4.476221084594727,-2.750916004180908,8.272599220275879
1780563889095861200,1.921861328125,4.503161907196045,-2.8249430656433105,8.232934951782227
1780563889115378400,1.94137841796875,4.53005313873291,-2.8985440731048584,8.192501068115234
1780563889134898000,1.96089794921875,4.555551052093506,-2.96930193901062,8.152926445007324
1780563889154421000,1.9804208984375,4.578370094299316,-3.0364179611206055,8.115336418151855
1780563889173942500,1.999942626953125,4.597003936767578,-3.101449966430664,8.080133438110352
1780563889193464800,2.01946484375,4.608692169189453,-3.1669061183929443,8.048022270202637
1780563889212983300,2.0389833984375,4.6129679679870605,-3.235551118850708,8.01821231842041
1780563889232504600,2.058504638671875,4.609630107879639,-3.310318946838379,7.989561080932617
1780563889252030500,2.078030517578125,4.6012749671936035,-3.392587900161743,7.959812164306641
1780563889271554800,2.097554931640625,4.591472148895264,-3.4823238849639893,7.9266510009765625
1780563889291082200,2.117082275390625,4.582647800445557,-3.5786941051483154,7.888744831085205
1780563889310608400,2.1366083984375,4.57741117477417,-3.6801700592041016,7.84497594833374
1780563889330127000,2.156127197265625,4.57741117477417,-3.6801700592041016,7.84497594833374
1780563889349642200,2.175642333984375,4.5723700523376465,-3.7854740619659424,7.797667026519775
1780563889369160700,2.19516064453125,4.562707901000977,-3.892357110977173,7.750564098358154
1780563889388682000,2.214681884765625,4.493343830108643,-4.107931137084961,7.679502010345459
1780563889408202500,2.234202392578125,4.493343830108643,-4.107931137084961,7.679502010345459
1780563889427723000,2.253722900390625,4.493343830108643,-4.107931137084961,7.679502010345459
1780563889447244500,2.27324462890625,4.224474906921387,-4.408669948577881,7.665339946746826
1780563889466767000,2.29276708984375,4.224474906921387,-4.408669948577881,7.665339946746826
1780563889486289000,2.312288818359375,4.099106788635254,-4.49988317489624,7.6803879737854
1780563889505809700,2.3318095703125,3.9768669605255127,-4.584737777709961,7.694458961486816
1780563889525326300,2.351326416015625,3.864017963409424,-4.663674831390381,7.7045111656188965
1780563889544844300,2.37084423828125,3.767812967300415,-4.741452217102051,7.704687118530273
1780563889564362500,2.390362548828125,3.689115047454834,-4.819985866546631,7.694034099578857
1780563889583881000,2.409880859375,3.6290769577026367,-4.899995803833008,7.672016143798828
1780563889603407600,2.42940771484375,3.5805270671844482,-4.982026100158691,7.641939163208008
1780563889622930000,2.448929931640625,3.5301530361175537,-5.066462993621826,7.6097941398620605
1780563889642450400,2.468450439453125,3.4727590084075928,-5.151825904846191,7.578827857971191
1780563889661971000,2.487970947265625,3.403639078140259,-5.236727237701416,7.551948070526123
1780563889681486600,2.507486572265625,3.3173840045928955,-5.321724891662598,7.530882835388184
1780563889701004500,2.527004638671875,3.21048903465271,-5.408018112182617,7.51572322845459
1780563889720530000,2.546530029296875,3.086848020553589,-5.496216773986816,7.503530025482178
1780563889740056000,2.56605615234375,2.9525508880615234,-5.586254119873047,7.491075038909912
1780563889759576000,2.585576171875,2.8014469146728516,-5.6786417961120605,7.479633808135986
1780563889779096600,2.6050966796875,2.6359610557556152,-5.770638942718506,7.469366073608398
1780563889798618400,2.624618408203125,2.458998918533325,-5.858933925628662,7.46097993850708
1780563889818141200,2.64414111328125,2.2731049060821533,-5.940875053405762,7.455132007598877
1780563889837667300,2.663667236328125,2.081157922744751,-6.015041828155518,7.451714992523193
1780563889857192700,2.683192626953125,1.8907239437103271,-6.0801100730896,7.4496588706970215
1780563889876716000,2.702716064453125,1.714547038078308,-6.13489294052124,7.447375774383545
1780563889896235300,2.7222353515625,1.553380012512207,-6.180222034454346,7.445258140563965
1780563889915754500,2.74175439453125,1.4100819826126099,-6.216092109680176,7.44391393661499
1780563889935278300,2.7612783203125,1.2890479564666748,-6.243444919586182,7.442965984344482
1780563889954801200,2.78080126953125,1.1937520503997803,-6.263826847076416,7.441734790802002
1780563889974321700,2.80032177734375,1.1303290128707886,-6.278907775878906,7.438929080963135
1780563889993844200,2.81984423828125,1.0938199758529663,-6.290687084197998,7.4344329833984375
1780563890013371400,2.839371337890625,1.0932869911193848,-6.30457878112793,7.422735214233398
1780563890032897800,2.858897705078125,1.1282730102539062,-6.323138236999512,7.401683807373047
1780563890052423000,2.8784228515625,1.1937719583511353,-6.347761154174805,7.370266914367676
1780563890071948000,2.897947998046875,1.2794979810714722,-6.378561973571777,7.32917594909668
1780563890091472100,2.91747216796875,1.3575609922409058,-6.415398120880127,7.282835006713867
1780563890110990800,2.936990966796875,1.4077659845352173,-6.458469867706299,7.235076904296875
1780563890130507000,2.956507080078125,1.4166799783706665,-6.5026960372924805,7.193604946136475
1780563890150028000,2.976028076171875,1.4166799783706665,-6.5026960372924805,7.193604946136475
1780563890169549600,2.995549560546875,1.3803709745407104,-6.545371055603027,7.161890983581543
1780563890189073200,3.0150732421875,1.1908290386199951,-6.61414098739624,7.132676124572754
1780563890208595700,3.034595703125,1.0761079788208008,-6.635279178619385,7.131272792816162
1780563890228115200,3.054115234375,1.0761079788208008,-6.635279178619385,7.131272792816162
1780563890247634200,3.07363427734375,1.0761079788208008,-6.635279178619385,7.131272792816162
1780563890267155500,3.093155517578125,0.881138026714325,-6.649959087371826,7.14434289932251
1780563890286678000,3.112677978515625,0.8154379725456238,-6.647045135498047,7.154847145080566
1780563890306198500,3.132198486328125,0.7749750018119812,-6.6396918296813965,7.166163921356201
1780563890325719600,3.151719482421875,0.7531639933586121,-6.628870010375977,7.178497791290283
1780563890345243000,3.171242919921875,0.7442460060119629,-6.6153459548950195,7.191889762878418
1780563890364769800,3.190769775390625,0.7628610134124756,-6.599164009094238,7.204795837402344
1780563890384295400,3.21029541015625,0.8082770109176636,-6.581268787384033,7.216203212738037
1780563890403819300,3.2298193359375,0.8789389729499817,-6.562696933746338,7.224850177764893
1780563890423347500,3.249347412109375,0.9718009829521179,-6.543858051300049,7.230042934417725
1780563890442870300,3.268870361328125,1.081555962562561,-6.5241827964782715,7.23223876953125
1780563890462390800,3.288390869140625,1.1947059631347656,-6.503228187561035,7.233304023742676
1780563890481918500,3.30791845703125,1.2918139696121216,-6.481485843658447,7.236128807067871
1780563890501444000,3.327444091796875,1.3682680130004883,-6.459105014801025,7.242085933685303
1780563890520963000,3.346963134765625,1.4192739725112915,-6.437957763671875,7.251092910766602
1780563890540487200,3.366487060546875,1.442486047744751,-6.421133041381836,7.2614240646362305
1780563890560013300,3.386013427734375,1.4379090070724487,-6.412327766418457,7.270106792449951
1780563890579538200,3.4055380859375,1.4124330282211304,-6.414181232452393,7.273466110229492
1780563890599063800,3.425063720703125,1.3752739429473877,-6.426772117614746,7.269471168518066
1780563890618590200,3.444590087890625,1.330325961112976,-6.44841194152832,7.258665084838867
1780563890638118700,3.46411865234375,1.282608985900879,-6.475513935089111,7.243109226226807
1780563890657645600,3.4836455078125,1.235645055770874,-6.499904155731201,7.229413032531738
1780563890677170700,3.503170654296875,1.1901580095291138,-6.5177321434021,7.220989227294922
1780563890696698000,3.522697998046875,1.1481560468673706,-6.5215678215026855,7.224327087402344
1780563890716222700,3.54222265625,1.114490032196045,-6.508036136627197,7.24177885055542
1780563890735745300,3.561745361328125,1.0877599716186523,-6.474991798400879,7.275387763977051
1780563890755268600,3.5812685546875,1.066938042640686,-6.421881198883057,7.325372219085693
1780563890774792200,3.600792236328125,1.050639033317566,-6.353407859802246,7.3871750831604
1780563890794319400,3.6203193359375,1.0405240058898926,-6.27131986618042,7.458407878875732
1780563890813844000,3.639843994140625,1.0389399528503418,-6.183318138122559,7.531744003295898
1780563890833367800,3.659367919921875,1.0475150346755981,-6.094851970672607,7.602334022521973
1780563890852889300,3.678889404296875,1.0671169757843018,-6.01177978515625,7.665492057800293
1780563890872409300,3.698409423828125,1.0972230434417725,-5.938506126403809,7.718175888061523
1780563890891934000,3.717933837890625,1.1370409727096558,-5.877776145935059,7.758793830871582
1780563890911459300,3.737459228515625,1.184689998626709,-5.830814838409424,7.787045955657959
1780563890930981000,3.756981201171875,1.2360860109329224,-5.7967448234558105,7.804474830627441
1780563890950503700,3.776503662109375,1.282647967338562,-5.773688793182373,7.814046859741211
1780563890970031900,3.796031982421875,1.282647967338562,-5.773688793182373,7.814046859741211
1780563890989561600,3.8155615234375,1.3207730054855347,-5.757894992828369,7.819347858428955
1780563891009087700,3.835087646484375,1.3675589561462402,-5.7362542152404785,7.827207088470459
1780563891028611300,3.854611328125,1.3748400211334229,-5.726812839508057,7.832842826843262
1780563891048134700,3.874134765625,1.3748400211334229,-5.726812839508057,7.832842826843262
1780563891067660800,3.893660888671875,1.3748400211334229,-5.726812839508057,7.832842826843262
1780563891087189800,3.913189697265625,1.3668659925460815,-5.7098541259765625,7.8466057777404785
1780563891106718700,3.93271875,1.3554489612579346,-5.702760219573975,7.853743076324463
1780563891126246000,3.952245849609375,1.3394670486450195,-5.693816184997559,7.862968921661377
1780563891145770500,3.9717705078125,1.3185479640960693,-5.678948879241943,7.877243995666504
1780563891165294000,3.991294189453125,1.292518973350525,-5.652717113494873,7.900391101837158
1780563891184820000,4.010820068359375,1.259389042854309,-5.61037015914917,7.935848236083984
1780563891204338400,4.03033837890625,1.2182600498199463,-5.548703193664551,7.985468864440918
1780563891223857400,4.049857421875,1.166975975036621,-5.468969821929932,8.04788875579834
1780563891243379500,4.06937939453125,1.1054630279541016,-5.375157833099365,8.119460105895996
1780563891262900200,4.088900146484375,1.0370769500732422,-5.277647018432617,8.192124366760254
1780563891282424800,4.1084248046875,0.9679449796676636,-5.182314872741699,8.26115608215332
1780563891301950200,4.1279501953125,0.9034540057182312,-5.1012139320373535,8.31873607635498
1780563891321474300,4.147474365234375,0.8515170216560364,-5.040213108062744,8.36129093170166
1780563891340997400,4.166997314453125,0.8211050033569336,-5.00404691696167,8.386017799377441
1780563891360521700,4.186521728515625,0.8189730048179626,-4.994075775146484,8.392168045043945
1780563891380044500,4.20604443359375,0.8488029837608337,-5.00255012512207,8.38415241241455
1780563891399564300,4.225564208984375,0.9083629846572876,-5.024822235107422,8.364568710327148
1780563891419086000,4.245086181640625,0.9916840195655823,-5.048223972320557,8.340982437133789
1780563891438606300,4.2646064453125,1.0907620191574097,-5.061377048492432,8.32061767578125
1780563891458128000,4.2841279296875,1.1981730461120605,-5.0531840324401855,8.310818672180176
1780563891477650700,4.303650634765625,1.3086459636688232,-5.0196452140808105,8.314480781555176
1780563891497167000,4.3231669921875,1.4183770418167114,-4.959888935089111,8.332328796386719
1780563891516685800,4.342685791015625,1.525115966796875,-4.877202033996582,8.362231254577637
1780563891536205800,4.362205810546875,1.6309089660644531,-4.777383804321289,8.399806022644043
1780563891555727000,4.38172705078125,1.7408889532089233,-4.670372009277344,8.437827110290527
1780563891575251500,4.40125146484375,1.86204195022583,-4.566271781921387,8.468881607055664
1780563891594776300,4.4207763671875,1.9968479871749878,-4.4683918952941895,8.490350723266602
1780563891614302000,4.440302001953125,2.146306037902832,-4.3787407875061035,8.500588417053223
1780563891633826600,4.45982666015625,2.3104910850524902,-4.295825004577637,8.499853134155273
1780563891653352200,4.479352294921875,2.4858129024505615,-4.21697998046875,8.48986530303955
1780563891672875300,4.498875244140625,2.6708929538726807,-4.138595104217529,8.472209930419922
1780563891692395800,4.518395751953125,2.8633151054382324,-4.058888912200928,8.44788932800293
1780563891711917800,4.537917724609375,3.0613420009613037,-3.9799399375915527,8.415952682495117
1780563891731442700,4.557442626953125,3.262022018432617,-3.9058399200439453,8.375179290771484
1780563891750966500,4.576966552734375,3.458132028579712,-3.84218692779541,8.325798988342285
1780563891770488000,4.596488037109375,3.6508450508117676,-3.793159008026123,8.265789985656738
1780563891790008000,4.616008056640625,3.6508450508117676,-3.793159008026123,8.265789985656738
1780563891809526800,4.63552685546875,4.0454511642456055,-3.757395029067993,8.096685409545898
1780563891829053000,4.655052978515625,4.0454511642456055,-3.757395029067993,8.096685409545898
1780563891848583700,4.674583740234375,4.4526262283325195,-3.8204219341278076,7.849743843078613
1780563891868110000,4.694110107421875,4.4526262283325195,-3.8204219341278076,7.849743843078613
1780563891887630000,4.713630126953125,4.4526262283325195,-3.8204219341278076,7.849743843078613
1780563891907143200,4.73314306640625,4.870041847229004,-3.965364933013916,7.523200988769531
1780563891926656800,4.75265673828125,5.063173770904541,-4.057016849517822,7.344717025756836
1780563891946176000,4.772176025390625,5.237094879150391,-4.158946990966797,7.163518905639648
1780563891965699000,4.791698974609375,5.3839311599731445,-4.261520862579346,6.992332935333252
1780563891985222700,4.81122265625,5.505642890930176,-4.365181922912598,6.831768989562988
1780563892004748300,4.830748291015625,5.605297088623047,-4.4672040939331055,6.683166027069092
1780563892024271600,4.850271728515625,5.688411235809326,-4.567012786865234,6.544033050537109
1780563892043795500,4.86979541015625,5.762616157531738,-4.664772033691406,6.408755779266357
1780563892063330800,4.889330810546875,5.834788799285889,-4.760643005371094,6.271482944488525
1780563892082865000,4.908864990234375,5.907680988311768,-4.853124141693115,6.130782127380371
1780563892102395000,4.928394775390625,5.982524871826172,-4.941408157348633,5.985972881317139
1780563892121921000,4.947921142578125,6.060412883758545,-5.024782180786133,5.83634614944458
1780563892141443600,4.967443603515625,6.1392388343811035,-5.103616237640381,5.683559894561768
1780563892160969200,4.98696923828125,6.211912155151367,-5.177549839019775,5.53580379486084
1780563892180492800,5.006492919921875,6.271368980407715,-5.246561050415039,5.402176856994629
1780563892200018400,5.026018310546875,6.318119049072266,-5.307469844818115,5.2869791984558105
1780563892219545900,5.0455458984375,6.351221084594727,-5.361721992492676,5.191714763641357
1780563892239072800,5.06507275390625,6.369431018829346,-5.41149377822876,5.117231845855713
1780563892258602800,5.084602783203125,6.3729248046875,-5.458841800689697,5.062298774719238
1780563892278132500,5.104132568359375,6.365063190460205,-5.504427909851074,5.022672176361084
1780563892297660200,5.12366015625,6.349424839019775,-5.548266887664795,4.9941511154174805
1780563892317189600,5.143189697265625,6.326543807983398,-5.593731880187988,4.972423076629639
1780563892336719600,5.1627197265625,6.3006792068481445,-5.638157844543457,4.955059051513672
1780563892356246500,5.18224658203125,6.278716087341309,-5.676567077636719,4.939058780670166
1780563892375771000,5.20177099609375,6.263673782348633,-5.70593786239624,4.924292087554932
1780563892395293400,5.22129345703125,6.252137184143066,-5.724852085113525,4.916993141174316
1780563892414814700,5.240814697265625,6.244907855987549,-5.732742786407471,4.91698694229126
1780563892434335000,5.2603349609375,6.238033771514893,-5.726532936096191,4.932926177978516
1780563892453859600,5.279859619140625,6.228631973266602,-5.7086639404296875,4.965410232543945
1780563892473383200,5.299383056640625,6.211410045623779,-5.682278156280518,5.016979217529297
1780563892492900400,5.318900390625,6.183556079864502,-5.648996829986572,5.08846378326416
1780563892512418600,5.33841845703125,6.14893913269043,-5.608166217803955,5.174842834472656
1780563892531939300,5.357939208984375,6.106253147125244,-5.55862283706665,5.277818202972412
1780563892551457300,5.377457275390625,6.05619478225708,-5.504574775695801,5.390932083129883
1780563892570973400,5.396973388671875,5.995334148406982,-5.44625186920166,5.516729831695557
1780563892590491600,5.41649169921875,5.9195051193237305,-5.386153221130371,5.6558637619018555
1780563892610009600,5.436009521484375,5.9195051193237305,-5.386153221130371,5.6558637619018555
1780563892629531100,5.45553125,5.82700777053833,-5.325778961181641,5.80706787109375
1780563892649051000,5.47505078125,5.593667984008789,-5.212946891784668,6.129930019378662
1780563892668571600,5.494571533203125,5.457357883453369,-5.162271022796631,6.2935028076171875
1780563892688098600,5.5140986328125,5.457357883453369,-5.162271022796631,6.2935028076171875
1780563892707622100,5.5336220703125,5.457357883453369,-5.162271022796631,6.2935028076171875
1780563892727147000,5.55314697265625,5.160575866699219,-5.077168941497803,6.605360984802246
1780563892746671600,5.572671630859375,5.005970001220703,-5.0390849113464355,6.7518792152404785
1780563892766191000,5.592191162109375,4.852869033813477,-5.00122594833374,6.890382766723633
1780563892785712400,5.61171240234375,4.706768035888672,-4.963269233703613,7.017995834350586
1780563892805237800,5.63123779296875,4.56574821472168,-4.931494235992432,7.132621765136719
1780563892824767000,5.65076708984375,4.43305778503418,-4.903533935546875,7.234869956970215
1780563892844293000,5.670293212890625,4.3120951652526855,-4.880990982055664,7.322687149047852
1780563892863815000,5.68981494140625,4.203225135803223,-4.865109920501709,7.396187782287598
1780563892883338500,5.70933837890625,4.099621772766113,-4.859127998352051,7.45801305770874
1780563892902864000,5.72886376953125,3.995250940322876,-4.8649468421936035,7.51067590713501
1780563892922389800,5.7483896484375,3.892941951751709,-4.8766350746154785,7.556680202484131
1780563892941915600,5.76791552734375,3.7905540466308594,-4.894237995147705,7.597243785858154
1780563892961441000,5.78744091796875,3.6840450763702393,-4.91297721862793,7.63743782043457
1780563892980966400,5.80696630859375,3.56318998336792,-4.933446884155273,7.681456089019775
1780563893000488400,5.826488525390625,3.424652099609375,-4.954137802124023,7.730992794036865
1780563893020011000,5.846010986328125,3.2653329372406006,-4.974637985229492,7.786562919616699
1780563893039537000,5.865536865234375,3.085503101348877,-4.995523929595947,7.8462982177734375
1780563893059063000,5.88506298828125,2.888962984085083,-5.0173020362854,7.906994819641113
1780563893078587000,5.9045869140625,2.678960084915161,-5.046361923217773,7.962247848510742
1780563893098115300,5.924115234375,2.4674758911132812,-5.082938194274902,8.0072021484375
1780563893117643500,5.9436435546875,2.2625319957733154,-5.127707004547119,8.039127349853516
1780563893137165800,5.963165771484375,2.071110963821411,-5.181278228759766,8.056353569030762
1780563893156688100,5.982688232421875,1.8970520496368408,-5.244482040405273,8.058324813842773
1780563893176213500,6.002213623046875,1.7421519756317139,-5.3184309005737305,8.04482364654541
1780563893195745500,6.02174560546875,1.6084460020065308,-5.402924060821533,8.016313552856445
1780563893215274000,6.04127392578125,1.4939320087432861,-5.496636867523193,7.97465705871582
1780563893234796000,6.060796142578125,1.3954989910125732,-5.597667217254639,7.922037124633789
1780563893254318300,6.080318359375,1.3118040561676025,-5.704701900482178,7.8597412109375
1780563893273842700,6.0998427734375,1.240278959274292,-5.815372943878174,7.789938926696777
1780563893293371100,6.11937109375,1.1841109991073608,-5.923667907714844,7.716736793518066
1780563893312898600,6.138898681640625,1.1423519849777222,-6.026601791381836,7.642977237701416
1780563893332419600,6.158419677734375,1.1153589487075806,-6.121157169342041,7.571486949920654
1780563893351942000,6.17794189453125,1.1017589569091797,-6.206590175628662,7.503622055053711
1780563893371469600,6.197469482421875,1.098397970199585,-6.282462120056152,7.440711975097656
1780563893390996200,6.216996337890625,1.10356605052948,-6.350887775421143,7.381622791290283
1780563893410522600,6.236522705078125,1.1106350421905518,-6.417764186859131,7.322484970092773
1780563893430052400,6.25605224609375,1.1175470352172852,-6.485291957855225,7.261684894561768
1780563893449579300,6.275579345703125,1.1175470352172852,-6.485291957855225,7.261684894561768
1780563893469105700,6.295105712890625,1.1229300498962402,-6.62409782409668,7.13444709777832
1780563893488632600,6.314632568359375,1.1229300498962402,-6.62409782409668,7.13444709777832
1780563893508158700,6.33415869140625,1.1237339973449707,-6.689642906188965,7.072897911071777
1780563893527681000,6.353680908203125,1.1237339973449707,-6.689642906188965,7.072897911071777
1780563893547200300,6.3732001953125,1.1038949489593506,-6.794532775878906,6.975367069244385
1780563893566724600,6.392724609375,1.085868000984192,-6.833895206451416,6.939651966094971
1780563893586252800,6.412252685546875,1.0763579607009888,-6.8649678230285645,6.910402774810791
1780563893605779700,6.43177978515625,1.0750219821929932,-6.888301849365234,6.887351989746094
1780563893625303300,6.45130322265625,1.0805599689483643,-6.907458782196045,6.867269992828369
1780563893644827000,6.470826904296875,1.0912970304489136,-6.924200057983398,6.848687171936035
1780563893664353000,6.49035302734375,1.1031080484390259,-6.942393779754639,6.828344821929932
1780563893683874300,6.509874267578125,1.1143499612808228,-6.958425998687744,6.810177803039551
1780563893703394800,6.529394775390625,1.11885404586792,-6.972239017486572,6.795294761657715
1780563893722917600,6.548917724609375,1.1167000532150269,-6.9833269119262695,6.784255027770996
1780563893742441200,6.568441162109375,1.1176589727401733,-6.988923072814941,6.778332233428955
1780563893761964800,6.58796484375,1.1249020099639893,-6.986645221710205,6.779482841491699
1780563893781486800,6.60748681640625,1.140733003616333,-6.971443176269531,6.792472839355469
1780563893801005300,6.62700537109375,1.1635260581970215,-6.945042133331299,6.815614223480225
1780563893820522500,6.6465224609375,1.1900229454040527,-6.910326957702637,6.846255779266357
1780563893840039400,6.666039306640625,1.2175430059432983,-6.8696417808532715,6.882266998291016
1780563893859553300,6.68555322265625,1.2356820106506348,-6.825470924377441,6.922863006591797
1780563893879071700,6.70507177734375,1.243939995765686,-6.777833938598633,6.968039035797119
1780563893898593000,6.724593017578125,1.2405730485916138,-6.726040840148926,7.018641948699951
1780563893918109200,6.744109130859375,1.224303960800171,-6.668801784515381,7.075885772705078
1780563893937623800,6.763623779296875,1.195930004119873,-6.604098796844482,7.141121864318848
1780563893957140000,6.783139892578125,1.1594120264053345,-6.530498027801514,7.214454174041748
1780563893976659200,6.8026591796875,1.1200430393218994,-6.447704792022705,7.294695854187012
1780563893996184300,6.822184326171875,1.0830529928207397,-6.356729030609131,7.379632949829102
1780563894015706000,6.8417060546875,1.0522129535675049,-6.259157180786133,7.46697998046875
1780563894035221800,6.8612216796875,1.0300430059432983,-6.155027866363525,7.556099891662598
1780563894054740200,6.880740234375,1.0202100276947021,-6.045077800750732,7.645665168762207
1780563894074262300,6.90026220703125,1.019582986831665,-5.929616928100586,7.735637187957764
1780563894093784600,6.91978466796875,1.026157021522522,-5.812662124633789,7.823040008544922
1780563894113301800,6.9393017578125,1.040902018547058,-5.697587966918945,7.90531587600708
1780563894132818400,6.958818359375,1.0640100240707397,-5.585087776184082,7.982147216796875
1780563894152338700,6.978338623046875,1.0964469909667969,-5.476946830749512,8.052380561828613
1780563894171858700,6.997858642578125,1.136288046836853,-5.373276233673096,8.116448402404785
1780563894191377000,7.017376953125,1.188060998916626,-5.2744140625,8.17368221282959
1780563894210896000,7.036895751953125,1.2556359767913818,-5.176977157592773,8.2257080078125
1780563894230419000,7.0564189453125,1.3399219512939453,-5.079278945922852,8.273180961608887
1780563894249944300,7.0759443359375,1.3399219512939453,-5.079278945922852,8.273180961608887
1780563894269469000,7.095468994140625,1.4444299936294556,-4.979004859924316,8.316436767578125
1780563894288987100,7.114987060546875,1.7053929567337036,-4.778556823730469,8.384331703186035
1780563894308504600,7.134504638671875,1.7053929567337036,-4.778556823730469,8.384331703186035
1780563894328025900,7.15402587890625,1.9944920539855957,-4.591928005218506,8.424736976623535
1780563894347549400,7.173549560546875,1.9944920539855957,-4.591928005218506,8.424736976623535
1780563894367070500,7.193070556640625,2.126868963241577,-4.51394510269165,8.43449592590332
1780563894386586400,7.21258642578125,2.248250961303711,-4.4534687995910645,8.435162544250488
1780563894406105900,7.23210595703125,2.363560914993286,-4.407780170440674,8.42763614654541
1780563894425633300,7.25163330078125,2.4863359928131104,-4.373377799987793,8.4102144241333
1780563894445161000,7.271160888671875,2.616763114929199,-4.348312854766846,8.383599281311035
1780563894464684300,7.290684326171875,2.762397050857544,-4.3318657875061035,8.345303535461426
1780563894484209200,7.310209228515625,2.9192678928375244,-4.322478771209717,8.29662799835205
1780563894503734800,7.32973486328125,3.08380389213562,-4.320713043212891,8.237814903259277
1780563894523256300,7.34925634765625,3.2519679069519043,-4.328176975250244,8.168939590454102
1780563894542778400,7.3687783203125,3.415898084640503,-4.347192764282227,8.091572761535645
1780563894562304500,7.388304443359375,3.5757670402526855,-4.378594875335693,8.005109786987305
1780563894581831200,7.4078310546875,3.733588933944702,-4.421657085418701,7.908809185028076
1780563894601359400,7.427359375,3.8916471004486084,-4.474451065063477,7.802200794219971
1780563894620890400,7.446890380859375,4.051938056945801,-4.53488302230835,7.684830188751221
1780563894640418800,7.466418701171875,4.214934825897217,-4.60224723815918,7.556034088134766
1780563894659940400,7.4859404296875,4.379879951477051,-4.676292896270752,7.415452003479004
1780563894679462100,7.505462158203125,4.546380043029785,-4.756056785583496,7.262942790985107
1780563894698987500,7.524987548828125,4.712916851043701,-4.840585231781006,7.099094867706299
1780563894718513400,7.544513427734375,4.877713203430176,-4.928577899932861,6.925102233886719
1780563894738041300,7.564041259765625,5.0386738777160645,-5.019065856933594,6.742457866668701
1780563894757569300,7.5835693359375,5.193795204162598,-5.1110920906066895,6.552955150604248
1780563894777092900,7.6030927734375,5.341819763183594,-5.20387077331543,6.358041763305664
1780563894796616200,7.6226162109375,5.48162317276001,-5.2970452308654785,6.1589860916137695
1780563894816140800,7.642140869140625,5.613687038421631,-5.389708042144775,5.95630407333374
1780563894835665000,7.661664794921875,5.738041877746582,-5.4811930656433105,5.750773906707764
1780563894855189800,7.681189697265625,5.852031230926514,-5.57197380065918,5.54498291015625
1780563894874715000,7.70071484375,5.954092979431152,-5.661703109741211,5.341711044311523
1780563894894240000,7.720239990234375,6.04369592666626,-5.749998092651367,5.143078804016113
1780563894913762300,7.73976220703125,6.118380069732666,-5.83591890335083,4.954538822174072
1780563894933279200,7.759279296875,6.178322792053223,-5.918981075286865,4.778491973876953
1780563894952795100,7.778795166015625,6.2232890129089355,-5.996705055236816,4.620626926422119
1780563894972315600,7.798315673828125,6.256235122680664,-6.06702995300293,4.482260227203369
1780563894991834000,7.817834228515625,6.279307842254639,-6.129670143127441,4.363189220428467
1780563895011353000,7.83735302734375,6.291615962982178,-6.186461925506592,4.264181137084961
1780563895030873600,7.85687353515625,6.297929763793945,-6.236722946166992,4.1808319091796875
1780563895050398200,7.876398193359375,6.297929763793945,-6.236722946166992,4.1808319091796875
1780563895069923000,7.895923095703125,6.296172142028809,-6.281909942626953,4.11531400680542
1780563895089443800,7.91544384765625,6.285538196563721,-6.324419975280762,4.066166877746582
1780563895108967200,7.93496728515625,6.244909763336182,-6.396839141845703,4.015162944793701
1780563895128489700,7.95448974609375,6.244909763336182,-6.396839141845703,4.015162944793701
1780563895148013300,7.974013427734375,6.1892781257629395,-6.444248199462891,4.025481224060059
1780563895167536000,7.9935361328125,6.1892781257629395,-6.444248199462891,4.025481224060059
1780563895187058700,8.01305859375,6.1598968505859375,-6.455865859985352,4.051846027374268
1780563895206581500,8.03258154296875,6.1335649490356445,-6.457118988037109,4.089620113372803
1780563895226103000,8.05210302734375,6.109189033508301,-6.449403762817383,4.137992858886719
1780563895245623600,8.07162353515625,6.086071014404297,-6.4325151443481445,4.197915077209473
1780563895265144800,8.091144775390624,6.063230991363525,-6.4085540771484375,4.267043113708496
1780563895284667400,8.11066748046875,6.039513111114502,-6.3770751953125,4.3470869064331055
1780563895304195000,8.130195068359376,6.012631893157959,-6.339094161987305,4.4389328956604
1780563895323722000,8.149721923828125,5.982080936431885,-6.293941020965576,4.543235778808594
1780563895343243500,8.169243408203124,5.947583198547363,-6.241184234619141,4.659814834594727
1780563895362768000,8.188767822265625,5.908944129943848,-6.180467128753662,4.788131237030029
1780563895382294000,8.2082939453125,5.865467071533203,-6.111699104309082,4.927822113037109
1780563895401819100,8.227819091796874,5.815898895263672,-6.03505802154541,5.078719139099121
1780563895421343000,8.247343017578125,5.758565902709961,-5.951000213623047,5.240660190582275
1780563895440866000,8.266865966796875,5.691763877868652,-5.860053062438965,5.413280010223389
1780563895460389000,8.28638916015625,5.614606857299805,-5.762159824371338,5.5958638191223145
1780563895479912000,8.305911865234375,5.526426792144775,-5.657352924346924,5.787308216094971
1780563895499434500,8.3254345703125,5.427672863006592,-5.545723915100098,5.985424041748047
1780563895518956000,8.3449560546875,5.319870948791504,-5.427755832672119,6.18695592880249
1780563895538474800,8.364474853515626,5.2045087814331055,-5.303918838500977,6.389172077178955
1780563895557992400,8.383992431640625,5.083067893981934,-5.173926830291748,6.5903639793396
1780563895577511000,8.403510986328126,4.955256938934326,-5.037759780883789,6.790168762207031
1780563895597028000,8.423028076171875,4.818849086761475,-4.896303176879883,6.988913059234619
1780563895616545300,8.442545166015625,4.670995235443115,-4.751702785491943,7.186315059661865
1780563895636068600,8.462068603515625,4.510890960693359,-4.607150077819824,7.380108833312988
1780563895655595300,8.48159521484375,4.3499040603637695,-4.466765880584717,7.560842037200928
1780563895675118800,8.501118896484375,4.199038028717041,-4.335244178771973,7.7209930419921875
1780563895694641200,8.52064111328125,4.062811851501465,-4.219536781311035,7.856783866882324
1780563895714160600,8.54016064453125,3.945138931274414,-4.121571063995361,7.967967987060547
1780563895733681000,8.559680908203125,3.850904941558838,-4.04551887512207,8.052596092224121
1780563895753201000,8.579200927734375,3.780519962310791,-3.9892189502716064,8.113802909851074
1780563895772719600,8.5987197265625,3.7187469005584717,-3.950927972793579,8.160948753356934
1780563895792240000,8.618240234375,3.653162956237793,-3.928889036178589,8.20111083984375
1780563895811761400,8.637761474609375,3.578183889389038,-3.9205191135406494,8.238088607788086
1780563895831280000,8.657280029296874,3.4909539222717285,-3.92661190032959,8.272541999816895
1780563895850795500,8.67679541015625,3.3880889415740967,-3.9434900283813477,8.307209968566895
1780563895870313000,8.69631298828125,3.3880889415740967,-3.9434900283813477,8.307209968566895
1780563895889832700,8.715832763671875,3.2665810585021973,-3.973594903945923,8.341462135314941
1780563895909358000,8.735358154296875,2.980989933013916,-4.070260047912598,8.401586532592773
1780563895928886800,8.75488671875,2.8242340087890625,-4.136298179626465,8.423462867736816
1780563895948413200,8.7744130859375,2.660875082015991,-4.212338924407959,8.438953399658203
1780563895967937000,8.79393701171875,2.660875082015991,-4.212338924407959,8.438953399658203
1780563895987460000,8.813460205078124,2.660875082015991,-4.212338924407959,8.438953399658203
1780563896006980600,8.832980712890626,2.324923038482666,-4.3752827644348145,8.45527172088623
1780563896026500900,8.8525009765625,2.159985065460205,-4.458767890930176,8.455404281616211
1780563896046019800,8.872019775390624,1.9980709552764893,-4.542866230010986,8.450448989868164
1780563896065541400,8.891541259765624,1.842128038406372,-4.628079891204834,8.439634323120117
1780563896085069600,8.911069580078125,1.6952749490737915,-4.715367794036865,8.422074317932129
1780563896104595000,8.930594970703124,1.5587949752807617,-4.808491230010986,8.395746231079102
1780563896124115200,8.950115234375,1.4322750568389893,-4.90633487701416,8.361605644226074
1780563896143633400,8.96963330078125,1.3150919675827026,-5.008315086364746,8.320295333862305
1780563896163149800,8.98914990234375,1.2067780494689941,-5.114076137542725,8.272236824035645
1780563896182667000,9.0086669921875,1.106961965560913,-5.22318696975708,8.217843055725098
1780563896202184200,9.02818408203125,1.0160030126571655,-5.335194110870361,8.157417297363281
1780563896221703000,9.047702880859376,0.9348130226135254,-5.448888778686523,8.091707229614258
1780563896241222700,9.06722265625,0.8639739751815796,-5.561859130859375,8.022422790527344
1780563896260742000,9.086741943359375,0.8032100200653076,-5.670760154724121,7.95219087600708
1780563896280258600,9.106258544921875,0.7507650256156921,-5.7715911865234375,7.884483814239502
1780563896299776300,9.1257763671875,0.7034059762954712,-5.86072301864624,7.822859764099121
1780563896319294700,9.145294677734375,0.6571090221405029,-5.935912132263184,7.770016193389893
1780563896338809300,9.164809326171875,0.6099089980125427,-5.996706962585449,7.727063179016113
1780563896358325500,9.184325439453126,0.564939022064209,-6.044074058532715,7.693504810333252
1780563896377846000,9.203845947265625,0.5271940231323242,-6.079983234405518,7.667846202850342
1780563896397366000,9.223365966796875,0.5020509958267212,-6.106427192687988,7.648496150970459
1780563896416887300,9.24288720703125,0.49321600794792175,-6.124009132385254,7.635000228881836
1780563896436412700,9.26241259765625,0.4923959970474243,-6.132326126098633,7.628375053405762
1780563896455934200,9.281934326171875,0.49945899844169617,-6.129932880401611,7.629839897155762
1780563896475451400,9.301451416015626,0.5116170048713684,-6.114515781402588,7.6413960456848145
1780563896494967000,9.320967041015624,0.5232329964637756,-6.085761070251465,7.66353178024292
1780563896514488600,9.340488525390626,0.528361976146698,-6.044394016265869,7.695851802825928
1780563896534011000,9.360010986328126,0.5272830128669739,-5.9923248291015625,7.736536979675293
1780563896553529600,9.379529541015625,0.5320280194282532,-5.932583808898926,7.782120227813721
1780563896573048600,9.399048583984374,0.5440790057182312,-5.871519088745117,7.827466011047363
1780563896592568000,9.418568115234375,0.5611870288848877,-5.812949180603027,7.869859218597412
1780563896612089300,9.43808935546875,0.5817000269889832,-5.758635997772217,7.908206939697266
1780563896631607800,9.45760791015625,0.6067749857902527,-5.707934856414795,7.943002223968506
1780563896651125500,9.47712548828125,0.634190022945404,-5.658084869384766,7.9764580726623535
1780563896670643500,9.4966435546875,0.6621050238609314,-5.605255126953125,8.011411666870117
1780563896690163500,9.51616357421875,0.6889309883117676,-5.543704986572266,8.051876068115234
1780563896709688000,9.53568798828125,0.6889309883117676,-5.543704986572266,8.051876068115234
1780563896729211400,9.55521142578125,0.7174850106239319,-5.472353935241699,8.098057746887207
1780563896748733700,9.574733642578124,0.7876570224761963,-5.299527168273926,8.205765724182129
1780563896768255500,9.59425537109375,0.7876570224761963,-5.299527168273926,8.205765724182129
1780563896787778800,9.61377880859375,0.7876570224761963,-5.299527168273926,8.205765724182129
1780563896807304700,9.6333046875,0.8883870244026184,-5.090916156768799,8.326664924621582
1780563896826832600,9.65283251953125,0.9487419724464417,-4.97639799118042,8.389001846313477
1780563896846354700,9.672354736328124,1.0102119445800781,-4.857801914215088,8.4511079788208
1780563896865874200,9.691874267578125,1.0690979957580566,-4.738471031188965,8.51140022277832
1780563896885395500,9.7113955078125,1.1266380548477173,-4.621476173400879,8.56811809539795
1780563896904918500,9.73091845703125,1.1777980327606201,-4.513275146484375,8.618766784667969
1780563896924440800,9.75044091796875,1.224679946899414,-4.416842937469482,8.662080764770508
1780563896943959600,9.76995947265625,1.2669819593429565,-4.333972930908203,8.697783470153809
1780563896963480300,9.789480224609376,1.3017569780349731,-4.264235973358154,8.727067947387695
1780563896983004400,9.80900439453125,1.3259589672088623,-4.205478191375732,8.751901626586914
1780563897002530000,9.828530029296875,1.3378549814224243,-4.154407024383545,8.774454116821289
1780563897022049800,9.8480498046875,1.339089035987854,-4.107944965362549,8.796113967895508
1780563897041571300,9.8675712890625,1.3411669731140137,-4.064591884613037,8.815914154052734
1780563897061095700,9.887095703125,1.3471399545669556,-4.024907112121582,8.833194732666016
1780563897080618800,9.90661865234375,1.36416494846344,-3.9904749393463135,8.846195220947266
1780563897100143900,9.926143798828125,1.3986279964447021,-3.962794065475464,8.853253364562988
1780563897119662800,9.945662841796874,1.4551889896392822,-3.9429450035095215,8.852999687194824
1780563897139182300,9.965182373046876,1.5350600481033325,-3.931588888168335,8.844557762145996
1780563897158706200,9.9847060546875,1.6366440057754517,-3.9282538890838623,8.82780933380127
1780563897178228200,10.004228271484376,1.769935965538025,-3.931267023086548,8.800708770751953
1780563897197749000,10.0237490234375,1.935897946357727,-3.9390408992767334,8.762206077575684
1780563897217270000,10.04327001953125,2.1436750888824463,-3.949345111846924,8.709036827087402
1780563897236795600,10.062795654296876,2.3904659748077393,-3.962235927581787,8.638654708862305
1780563897256324000,10.082323974609375,2.671504020690918,-3.9785470962524414,8.548347473144531
1780563897275849200,10.10184912109375,2.9725160598754883,-4.000021934509277,8.438243865966797
1780563897295372000,10.1213720703125,3.2771480083465576,-4.0285139083862305,8.310918807983398
1780563897314896100,10.140896240234374,3.5751280784606934,-4.064886093139648,8.169158935546875
1780563897334419200,10.160419189453124,3.851670026779175,-4.1113128662109375,8.01883602142334
1780563897353940700,10.179940673828124,4.106461048126221,-4.165966987609863,7.862677097320557
1780563897373461800,10.199461669921876,4.334794044494629,-4.2296881675720215,7.704497814178467
1780563897392983800,10.21898388671875,4.540759086608887,-4.299627780914307,7.545508861541748
1780563897412504600,10.238504638671875,4.728641033172607,-4.373010158538818,7.3862528800964355
1780563897432026400,10.2580263671875,4.904229164123535,-4.445964813232422,7.226473808288574
1780563897451552500,10.277552490234376,5.071485996246338,-4.515052795410156,7.066421985626221
1780563897471077000,10.2970771484375,5.23105001449585,-4.579351902008057,6.906928062438965
1780563897490601000,10.31660107421875,5.389498233795166,-4.63469123840332,6.746328830718994
1780563897510130700,10.336130615234374,5.389498233795166,-4.63469123840332,6.746328830718994
1780563897529657900,10.355657958984375,5.55341100692749,-4.684101104736328,6.577144145965576
1780563897549180200,10.37518017578125,5.904126167297363,-4.7646942138671875,6.203142166137695
1780563897568704300,10.394704345703126,6.091341972351074,-4.79787015914917,5.992994785308838
1780563897588224000,10.41422412109375,6.091341972351074,-4.79787015914917,5.992994785308838
1780563897607741200,10.4337412109375,6.4736199378967285,-4.865971088409424,5.5185651779174805
1780563897627262000,10.453261962890625,6.4736199378967285,-4.865971088409424,5.5185651779174805
1780563897646781700,10.47278173828125,6.654137134552002,-4.902181148529053,5.266030788421631
1780563897666302500,10.492302490234374,6.820723056793213,-4.940463066101074,5.010944843292236
1780563897685825500,10.511825439453125,6.971366882324219,-4.980857849121094,4.757214069366455
1780563897705352000,10.53135205078125,7.104633808135986,-5.021470069885254,4.510988235473633
1780563897724875300,10.550875244140625,7.221098899841309,-5.058472156524658,4.278736114501953
1780563897744395300,10.570395263671875,7.320001125335693,-5.091808795928955,4.065839767456055
1780563897763919400,10.58991943359375,7.4003190994262695,-5.12175178527832,3.878520965576172
1780563897783444200,10.6094443359375,7.457845211029053,-5.1540207862854,3.7224459648132324
1780563897802965200,10.62896533203125,7.494783878326416,-5.189216136932373,3.5972559452056885
1780563897822483700,10.648483642578125,7.510560989379883,-5.230477809906006,3.503365993499756
1780563897842006500,10.668006591796875,7.50785493850708,-5.277565956115723,3.437933921813965
1780563897861533700,10.68753369140625,7.489710807800293,-5.329329967498779,3.3974220752716064
1780563897881060000,10.70706005859375,7.462024211883545,-5.381491184234619,3.376051902770996
1780563897900589000,10.726589111328124,7.4331841468811035,-5.4271559715271,3.3665640354156494
1780563897920121600,10.74612158203125,7.4055399894714355,-5.46553897857666,3.3653900623321533
1780563897939649000,10.76564892578125,7.383546829223633,-5.493513107299805,3.368166923522949
1780563897959179000,10.785178955078125,7.367424011230469,-5.511911869049072,3.3734068870544434
1780563897978709800,10.804709716796875,7.356841087341309,-5.522087097167969,3.3798561096191406
1780563897998236000,10.82423583984375,7.35032320022583,-5.525857925415039,3.387866973876953
1780563898017763000,10.84376318359375,7.345912933349609,-5.525113105773926,3.3986289501190186
1780563898037289000,10.8632890625,7.3418731689453125,-5.521550178527832,3.413119077682495
1780563898056813800,10.882813720703124,7.336452960968018,-5.5166120529174805,3.4327030181884766
1780563898076340000,10.902340087890625,7.32835578918457,-5.510592937469482,3.459559917449951
1780563898095869200,10.921869140625,7.315673828125,-5.503530979156494,3.497436046600342
1780563898115398700,10.941398681640624,7.2936530113220215,-5.494622230529785,3.5569310188293457
1780563898134928100,10.96092822265625,7.260921955108643,-5.483386039733887,3.640259027481079
1780563898154461000,10.9804609375,7.2159199714660645,-5.46941614151001,3.7491300106048584
1780563898173989600,10.99998974609375,7.154439926147461,-5.45345401763916,3.887650966644287
1780563898193513500,11.019513427734376,7.076635837554932,-5.43204402923584,4.056366920471191
1780563898213036800,11.039036865234374,6.981752872467041,-5.404638767242432,4.2526469230651855
1780563898232562400,11.0585625,6.874975204467773,-5.369451999664307,4.465837001800537
1780563898252086000,11.0780859375,6.756731033325195,-5.326023101806641,4.692554950714111
1780563898271611000,11.09761083984375,6.626436233520508,-5.27476692199707,4.930230140686035
1780563898291138800,11.117138916015625,6.488201141357422,-5.215346813201904,5.171401023864746
1780563898310661600,11.13666162109375,6.342683792114258,-5.151863098144531,5.410049915313721
1780563898330180600,11.1561806640625,6.342683792114258,-5.151863098144531,5.410049915313721
1780563898349704700,11.17570458984375,6.192025184631348,-5.084461212158203,5.643320083618164
1780563898369227500,11.1952275390625,6.033815860748291,-5.016913890838623,5.870573043823242
1780563898388749600,11.21474951171875,5.709782123565674,-4.878909111022949,6.295602798461914
1780563898408272600,11.234272705078125,5.709782123565674,-4.878909111022949,6.295602798461914
1780563898427793400,11.25379345703125,5.709782123565674,-4.878909111022949,6.295602798461914
1780563898447314400,11.273314453125,5.381914138793945,-4.747795104980469,6.673337936401367
1780563898466836500,11.29283642578125,5.217369079589844,-4.6884541511535645,6.843790054321289
1780563898486359000,11.312359130859376,5.054977893829346,-4.635331153869629,7.000064849853516
1780563898505882600,11.331882568359376,4.891274929046631,-4.591630935668945,7.143692970275879
1780563898525407000,11.351406982421874,4.72792387008667,-4.557109832763672,7.2745771408081055
1780563898544931600,11.370931640625,4.564789772033691,-4.528672218322754,7.395526885986328
1780563898564449300,11.39044921875,4.400297164916992,-4.506059169769287,7.508183002471924
1780563898583968500,11.409968505859375,4.2330641746521,-4.487926006317139,7.614439010620117
1780563898603491300,11.4294912109375,4.060219764709473,-4.474133014678955,7.716004848480225
1780563898623013600,11.449013671875,3.8766191005706787,-4.466442108154297,7.814262866973877
1780563898642538000,11.4685380859375,3.6771929264068604,-4.466602802276611,7.909975051879883
1780563898662057000,11.488056884765625,3.4615330696105957,-4.474690914154053,8.002182960510254
1780563898681575700,11.50757568359375,3.2304248809814453,-4.490077018737793,8.089719772338867
1780563898701097000,11.527096923828125,2.986725091934204,-4.5107951164245605,8.171424865722656
1780563898720618200,11.5466181640625,2.7343289852142334,-4.533847808837891,8.246676445007324
1780563898740141000,11.56614111328125,2.4775750637054443,-4.556863784790039,8.314842224121094
1780563898759667700,11.585667724609374,2.2222979068756104,-4.580996036529541,8.373520851135254
1780563898779190500,11.6051904296875,1.9803379774093628,-4.614995956420898,8.41546630859375
1780563898798709500,11.62470947265625,1.7660390138626099,-4.662149906158447,8.437148094177246
1780563898818231800,11.644231689453125,1.5825339555740356,-4.726799011230469,8.437593460083008
1780563898837756000,11.663755859375,1.4315760135650635,-4.811266899108887,8.416787147521973
1780563898857276400,11.6832763671875,1.314527988433838,-4.91383695602417,8.376527786254883
1780563898876793300,11.70279345703125,1.2282010316848755,-5.028663158416748,8.32130241394043
1780563898896310000,11.72231005859375,1.1610749959945679,-5.144105911254883,8.260149002075195
1780563898915828500,11.741828369140626,1.1017730236053467,-5.254889965057373,8.198307037353516
1780563898935350000,11.76135009765625,1.0518840551376343,-5.358153820037842,8.137796401977539
1780563898954871300,11.780871337890625,1.016638994216919,-5.453065872192383,8.079014778137207
1780563898974391800,11.800391845703125,0.9999459981918335,-5.540034770965576,8.021726608276367
1780563898993915100,11.8199150390625,1.0041860342025757,-5.620439052581787,7.965065002441406
1780563899013444400,11.8394443359375,1.0298069715499878,-5.692704200744629,7.910284996032715
1780563899032968000,11.858968017578125,1.0758140087127686,-5.75740385055542,7.857157230377197
1780563899052484400,11.878484375,1.1363190412521362,-5.8130950927734375,7.807476043701172
1780563899072004900,11.8980048828125,1.2018330097198486,-5.857872009277344,7.7640790939331055
1780563899091531300,11.91753125,1.2659540176391602,-5.890799045562744,7.7288970947265625
1780563899111055400,11.937055419921874,1.3256479501724243,-5.912247180938721,7.702466011047363
1780563899130574800,11.956574951171875,1.3802549839019775,-5.925681114196777,7.682525157928467
1780563899150095400,11.976095458984375,1.4279990196228027,-5.933201789855957,7.667980194091797
1780563899169615600,11.99561572265625,1.4279990196228027,-5.933201789855957,7.667980194091797
1780563899189138400,12.015138427734374,1.503432035446167,-5.935382843017578,7.651857852935791
1780563899208662500,12.03466259765625,1.503432035446167,-5.935382843017578,7.651857852935791
1780563899228185000,12.05418505859375,1.5404620170593262,-5.930099964141846,7.648587226867676
1780563899247707600,12.073707763671875,1.5404620170593262,-5.930099964141846,7.648587226867676
1780563899267227600,12.0932275390625,1.6159110069274902,-5.90955114364624,7.648922920227051
1780563899286744800,12.112744873046875,1.6479120254516602,-5.895534038543701,7.652911186218262
1780563899306261500,12.132261474609376,1.6748939752578735,-5.8810272216796875,7.658213138580322
1780563899325782000,12.151781982421875,1.6947089433670044,-5.8672871589660645,7.664391994476318
1780563899345310700,12.171310791015625,1.7036880254745483,-5.8565239906311035,7.670629978179932
1780563899364837600,12.190837646484376,1.70455801486969,-5.8465681076049805,7.678028106689453
1780563899384358400,12.2103583984375,1.6974730491638184,-5.829786777496338,7.6923441886901855
1780563899403877400,12.22987744140625,1.6824699640274048,-5.803170204162598,7.715731143951416
1780563899423400200,12.249400146484374,1.6621830463409424,-5.764132976531982,7.749317169189453
1780563899442923300,12.26892333984375,1.639767050743103,-5.711242198944092,7.793128967285156
1780563899462444500,12.288444580078124,1.6191209554672241,-5.644505977630615,7.845890998840332
1780563899481970200,12.30797021484375,1.604011058807373,-5.565436840057373,7.905253887176514
1780563899501495000,12.3274951171875,1.5965369939804077,-5.480471134185791,7.965896129608154
1780563899521019600,12.34701953125,1.6048320531845093,-5.390730857849121,8.025243759155273
1780563899540544300,12.366544189453125,1.6262160539627075,-5.298068046569824,8.082443237304688
1780563899560070100,12.386070068359375,1.657984972000122,-5.203548908233643,8.137207984924316
1780563899579597600,12.40559765625,1.6959489583969116,-5.107515811920166,8.190056800842285
1780563899599121200,12.42512109375,1.7361220121383667,-5.010359764099121,8.241490364074707
1780563899618651400,12.4446513671875,1.776466965675354,-4.913980960845947,8.290775299072266
1780563899638180600,12.4641806640625,1.8179949522018433,-4.820450782775879,8.336554527282715
1780563899657703700,12.48370361328125,1.8634209632873535,-4.731882095336914,8.377167701721191
1780563899677230600,12.503230712890625,1.9150470495224,-4.650733947753906,8.410901069641113
1780563899696758000,12.522758056640624,1.972998023033142,-4.5789618492126465,8.436846733093262
1780563899716283100,12.542283203125,2.0358688831329346,-4.517864227294922,8.454829216003418
1780563899735807000,12.561806884765625,2.102189064025879,-4.46742582321167,8.465394020080566
1780563899755331000,12.5813310546875,2.1714189052581787,-4.426030158996582,8.469663619995117
1780563899774851600,12.6008515625,2.243035078048706,-4.39256477355957,8.468420028686523
1780563899794373000,12.620373046875,2.313349962234497,-4.365322113037109,8.463590621948242
1780563899813893000,12.63989306640625,2.3802480697631836,-4.3427581787109375,8.456645965576172
1780563899833411600,12.65941162109375,2.4472548961639404,-4.322668075561523,8.447809219360352
1780563899852934000,12.678933837890625,2.5145349502563477,-4.304403781890869,8.437371253967285
1780563899872455200,12.698455078125,2.5905559062957764,-4.288629055023193,8.422391891479492
1780563899891977000,12.71797705078125,2.6779279708862305,-4.277221202850342,8.400837898254395
1780563899911498200,12.737498291015624,2.782149076461792,-4.272482872009277,8.3693208694458
1780563899931015700,12.757015625,2.907991886138916,-4.275600910186768,8.324831008911133
1780563899950534100,12.7765341796875,3.053575038909912,-4.288210868835449,8.266008377075195
1780563899970053400,12.796053466796875,3.053575038909912,-4.288210868835449,8.266008377075195
1780563899989579300,12.815579345703124,3.2244338989257812,-4.317976951599121,8.185236930847168
1780563900009104400,12.8351044921875,3.4201769828796387,-4.363236904144287,8.081122398376465
1780563900028628000,12.8546279296875,3.8668129444122314,-4.49094295501709,7.805074214935303
1780563900048150500,12.874150634765625,3.8668129444122314,-4.49094295501709,7.805074214935303
1780563900067669500,12.89366943359375,3.8668129444122314,-4.49094295501709,7.805074214935303
1780563900087188500,12.9131884765625,4.366890907287598,-4.656714916229248,7.43540620803833
1780563900106708500,12.93270849609375,4.624308109283447,-4.743000030517578,7.222168922424316
1780563900126226200,12.95222607421875,4.874382019042969,-4.82944917678833,6.996913909912109
1780563900145747200,12.971747314453125,5.115268230438232,-4.914772033691406,6.7615861892700195
1780563900165272600,12.9912724609375,5.346982955932617,-4.999146938323975,6.516003131866455
1780563900184796200,13.010796142578124,5.565162181854248,-5.082698822021484,6.263794898986816
1780563900204321500,13.030321533203125,5.771584987640381,-5.165291786193848,6.0040459632873535
1780563900223849500,13.049849365234374,5.964416027069092,-5.247243881225586,5.738654136657715
1780563900243377200,13.069377197265625,6.141512870788574,-5.329060077667236,5.470184803009033
1780563900262902300,13.08890234375,6.300450801849365,-5.411230087280273,5.202201843261719
1780563900282423600,13.108423583984376,6.440555095672607,-5.4929399490356445,4.938304901123047
1780563900301948000,13.127947998046874,6.562559127807617,-5.572400093078613,4.682005882263184
1780563900321473300,13.147473388671875,6.667068004608154,-5.64893102645874,4.436188220977783
1780563900340993300,13.1669931640625,6.7562761306762695,-5.722035884857178,4.201313018798828
1780563900360514000,13.18651416015625,6.833339214324951,-5.7909040451049805,3.976289987564087
1780563900380036900,13.206036865234376,6.902202129364014,-5.8544721603393555,3.7582919597625732
1780563900399559200,13.22555908203125,6.965902805328369,-5.911959171295166,3.5447049140930176
1780563900419077400,13.245077392578125,7.0259881019592285,-5.96314001083374,3.334131956100464
1780563900438598700,13.2645986328125,7.0839738845825195,-6.007147789001465,3.1259360313415527
1780563900458128400,13.28412841796875,7.141036033630371,-6.04287576675415,2.9204869270324707
1780563900477653800,13.30365380859375,7.198178768157959,-6.0692458152771,2.718540906906128
1780563900497172200,13.323172119140626,7.255469799041748,-6.085783004760742,2.522183895111084
1780563900516691500,13.34269140625,7.312753200531006,-6.092520236968994,2.333415985107422
1780563900536209200,13.362209228515624,7.369068145751953,-6.090613842010498,2.154355049133301
1780563900555729400,13.3817294921875,7.422234058380127,-6.08082389831543,1.9934879541397095
1780563900575249400,13.40124951171875,7.469898223876953,-6.0637922286987305,1.863070011138916
1780563900594770000,13.42077001953125,7.507688999176025,-6.046102046966553,1.7661399841308594
1780563900614295600,13.440295654296875,7.534770965576172,-6.030204772949219,1.7040679454803467
1780563900633823000,13.459822998046874,7.551444053649902,-6.017275810241699,1.675732970237732
1780563900653351700,13.4793515625,7.556305885314941,-6.0094451904296875,1.6819080114364624
1780563900672877300,13.498877197265625,7.550838947296143,-6.006822109222412,1.7154910564422607
1780563900692406500,13.518406494140624,7.5361328125,-6.010537147521973,1.766394019126892
1780563900711938000,13.53793798828125,7.515117168426514,-6.016660213470459,1.833793044090271
1780563900731466800,13.557466796875,7.487504959106445,-6.024979114532471,1.9175200462341309
1780563900750995700,13.57699560546875,7.4530930519104,-6.0346832275390625,2.018415927886963
1780563900770523000,13.59652294921875,7.414401054382324,-6.0428338050842285,2.1332619190216064
1780563900790050300,13.61605029296875,7.414401054382324,-6.0428338050842285,2.1332619190216064
1780563900809579300,13.635579345703125,7.373290061950684,-6.046814918518066,2.2606709003448486
1780563900829107500,13.655107421875,7.284457206726074,-6.041835784912109,2.544187068939209
1780563900848636700,13.67463671875,7.241996765136719,-6.028824806213379,2.6919798851013184
1780563900868166000,13.694165771484375,7.241996765136719,-6.028824806213379,2.6919798851013184
1780563900887692000,13.713692138671876,7.241996765136719,-6.028824806213379,2.6919798851013184
1780563900907217400,13.733217529296875,7.161721229553223,-5.98824405670166,2.9817240238189697
1780563900926745000,13.7527451171875,7.120780944824219,-5.964198112487793,3.12454891204834
1780563900946274600,13.772274658203125,7.08079719543457,-5.935099124908447,3.267551898956299
1780563900965804800,13.7918046875,7.041162014007568,-5.89926290512085,3.4147820472717285
1780563900985338000,13.811338134765625,6.999990940093994,-5.8561601638793945,3.5700860023498535
1780563901004867800,13.830867919921875,6.956916809082031,-5.802458763122559,3.7380149364471436
1780563901024393500,13.8503935546875,6.909121990203857,-5.738217830657959,3.9213368892669678
1780563901043921000,13.8699208984375,6.853933811187744,-5.6645121574401855,4.120299816131592
1780563901063452000,13.889451904296875,6.787758827209473,-5.58394193649292,4.334272861480713
1780563901082985500,13.9089853515625,6.706390857696533,-5.498487949371338,4.56409215927124
1780563901102514700,13.9285146484375,6.6051459312438965,-5.409675121307373,4.811180114746094
1780563901122044400,13.94804443359375,6.480568885803223,-5.318702220916748,5.074801921844482
1780563901141574400,13.967574462890624,6.332658767700195,-5.225150108337402,5.351189136505127
1780563901161102000,13.98710205078125,6.1665167808532715,-5.130013942718506,5.630011081695557
1780563901180632800,14.0066328125,5.985191822052002,-5.031798839569092,5.9074931144714355
1780563901200159700,14.02615966796875,5.794034004211426,-4.929111957550049,6.178431034088135
1780563901219682300,14.045682373046875,5.6005539894104,-4.820165157318115,6.437375068664551
1780563901239206000,14.065205810546875,5.4112958908081055,-4.704239845275879,6.680418014526367
1780563901258732300,14.084732177734375,5.229095935821533,-4.582798004150391,6.906120777130127
1780563901278259700,14.104259765625,5.04969596862793,-4.455758094787598,7.119464874267578
1780563901297786000,14.1237861328125,4.871898174285889,-4.326296806335449,7.320366859436035
1780563901317314800,14.143314697265625,4.69466495513916,-4.197721004486084,7.508612155914307
1780563901336845800,14.162845703125,4.517193794250488,-4.072864055633545,7.684186935424805
1780563901356372700,14.182372802734376,4.337127208709717,-3.9545810222625732,7.847969055175781
1780563901375899100,14.201899169921875,4.151679039001465,-3.8445980548858643,8.001413345336914
1780563901395428600,14.2214287109375,3.958635091781616,-3.7478220462799072,8.143895149230957
1780563901414954200,14.240954345703125,3.7658228874206543,-3.666731119155884,8.27125358581543
1780563901434476500,14.2604765625,3.572671890258789,-3.6026339530944824,8.384332656860352
1780563901454004200,14.280004150390624,3.3810110092163086,-3.559593915939331,8.481630325317383
1780563901473535000,14.299534912109374,3.205070972442627,-3.540574073791504,8.557560920715332
1780563901493067000,14.31906689453125,3.048067092895508,-3.543761968612671,8.613422393798828
1780563901512596000,14.338595947265626,2.908231019973755,-3.5650200843811035,8.652908325195312
1780563901532121900,14.358121826171875,2.7789180278778076,-3.602739095687866,8.679739952087402
1780563901551649800,14.37764990234375,2.6568551063537598,-3.6541059017181396,8.69647216796875
1780563901571179300,14.39717919921875,2.537471055984497,-3.7132630348205566,8.707060813903809
1780563901590708500,14.41670849609375,2.408926010131836,-3.7745978832244873,8.717194557189941
1780563901610238200,14.43623828125,2.2764670848846436,-3.838653087615967,8.724817276000977
1780563901629764600,14.4557646484375,2.151905059814453,-3.9054269790649414,8.726794242858887
1780563901649291000,14.475291015625,2.0398099422454834,-3.9744820594787598,8.72253704071045
1780563901668822000,14.494822021484374,2.0398099422454834,-3.9744820594787598,8.72253704071045
1780563901688353500,14.514353515625,1.9418469667434692,-4.049342155456543,8.710456848144531
1780563901707884500,14.533884521484374,1.857354998588562,-4.131706237792969,8.690180778503418
1780563901727414500,14.55341455078125,1.7831480503082275,-4.223002910614014,8.661791801452637
1780563901746942700,14.572942626953125,1.7149139642715454,-4.323563098907471,8.625884056091309
1780563901766468900,14.59246875,1.649530053138733,-4.433002948760986,8.582978248596191
1780563901785994200,14.611994140625,1.586150050163269,-4.550376892089844,8.533357620239258
1780563901805521000,14.63152099609375,1.527554988861084,-4.673659801483154,8.477232933044434
1780563901825047300,14.65104736328125,1.4733229875564575,-4.802131175994873,8.414799690246582
1780563901844569000,14.670569091796875,1.4213099479675293,-4.93344783782959,8.347512245178223
1780563901864092400,14.690092529296875,1.3695759773254395,-5.06321382522583,8.278170585632324
1780563901883616500,14.709616455078125,1.3179099559783936,-5.18720006942749,8.209510803222656
1780563901903141000,14.72914111328125,1.266793966293335,-5.302463054656982,8.143655776977539
1780563901922664700,14.748664794921876,1.2184170484542847,-5.406717777252197,8.082255363464355
1780563901942187000,14.76818701171875,1.1754859685897827,-5.499431133270264,8.025862693786621
1780563901961709000,14.787708984375,1.1411759853363037,-5.58081579208374,7.974471092224121
1780563901981229000,14.80722900390625,1.1173089742660522,-5.651301860809326,7.928075790405273
1780563902000747800,14.826747802734374,1.1033879518508911,-5.710840225219727,7.887257099151611
1780563902020271400,14.846271240234374,1.0985000133514404,-5.7588701248168945,7.852942943572998
1780563902039799300,14.86579931640625,1.101233959197998,-5.794508934020996,7.826298236846924
1780563902059321900,14.88532177734375,1.1096700429916382,-5.816312789916992,7.808913230895996
1780563902078843600,14.90484375,1.1208629608154297,-5.824234962463379,7.8014068603515625
1780563902098364200,14.9243642578125,1.1317280530929565,-5.818549156188965,7.804080009460449
1780563902117879600,14.943879638671875,1.146522045135498,-5.798783779144287,7.816621780395508
1780563902137392000,14.96339208984375,1.1607810258865356,-5.764001846313477,7.840208053588867
1780563902156907500,14.982907470703125,1.1737749576568604,-5.718774795532227,7.871332168579102
1780563902176427800,15.002427734375,1.1850199699401855,-5.669071197509766,7.905526161193848
1780563902195946500,15.021946533203124,1.1929949522018433,-5.620049953460693,7.9392571449279785
1780563902215466500,15.041466552734375,1.194754958152771,-5.574819087982178,7.970818042755127
1780563902234989000,15.060989013671875,1.1790790557861328,-5.53403377532959,8.001514434814453
1780563902254510300,15.08051025390625,1.1449589729309082,-5.4964280128479,8.032331466674805
1780563902274032400,15.100032470703125,1.0954899787902832,-5.455431938171387,8.06710433959961
1780563902293556200,15.11955615234375,1.0368460416793823,-5.406092166900635,8.107965469360352
1780563902313076700,15.13907666015625,0.9780099987983704,-5.3442158699035645,8.156152725219727
1780563902332596000,15.158595947265624,0.9356319904327393,-5.268535137176514,8.210184097290039
1780563902352113000,15.17811279296875,0.9152370095252991,-5.181786060333252,8.267491340637207
1780563902371625500,15.19762548828125,0.9198240041732788,-5.088812828063965,8.324536323547363
1780563902391143700,15.217143798828126,0.9467629790306091,-4.995090961456299,8.378108978271484
1780563902410665700,15.236665771484375,0.9937090277671814,-4.90285587310791,8.427013397216797
1780563902430188300,15.256188232421875,1.0580929517745972,-4.813595771789551,8.470521926879883
1780563902449711900,15.2757119140625,1.0580929517745972,-4.813595771789551,8.470521926879883
1780563902469231600,15.295231689453125,1.216264009475708,-4.64868688583374,8.541101455688477
1780563902488747800,15.314747802734376,1.3082859516143799,-4.574902057647705,8.567301750183105
1780563902508268800,15.334268798828125,1.4160820245742798,-4.507190227508545,8.586031913757324
1780563902527790600,15.35379052734375,1.4160820245742798,-4.507190227508545,8.586031913757324
1780563902547309000,15.37330908203125,1.5402510166168213,-4.4448041915893555,8.59717082977295
1780563902566830800,15.392830810546876,1.6799440383911133,-4.3875861167907715,8.6003999710083
1780563902586355700,15.412355712890625,1.8308980464935303,-4.337790012359619,8.594847679138184
1780563902605877000,15.431876953125,1.9944210052490234,-4.298507213592529,8.578177452087402
1780563902625390800,15.451390869140624,2.1683900356292725,-4.270325183868408,8.549994468688965
1780563902644902400,15.47090234375,2.343524932861328,-4.25370979309082,8.511981964111328
1780563902664418300,15.490418212890624,2.5173659324645996,-4.249416828155518,8.46435546875
1780563902683938000,15.50993798828125,2.6905710697174072,-4.257932186126709,8.406595230102539
1780563902703455500,15.52945556640625,2.8666110038757324,-4.278407096862793,8.33773136138916
1780563902722972400,15.548972412109375,3.0496249198913574,-4.308503150939941,8.256912231445312
1780563902742491400,15.568491455078124,3.2417259216308594,-4.345841884613037,8.163629531860352
1780563902762009900,15.588009765625,3.443389892578125,-4.388261795043945,8.0576810836792
1780563902781524000,15.60752392578125,3.6542720794677734,-4.433256149291992,7.939302921295166
1780563902801038300,15.627038330078125,3.8738720417022705,-4.479261875152588,7.808286190032959
1780563902820558300,15.646558349609375,4.10427713394165,-4.526902198791504,7.661726951599121
1780563902840078000,15.666078125,4.350391864776611,-4.574526786804199,7.495851993560791
1780563902859603000,15.68560302734375,4.611289024353027,-4.624178886413574,7.3070502281188965
1780563902879129600,15.705129638671876,4.886195182800293,-4.6774468421936035,7.091301918029785
1780563902898655700,15.72465576171875,5.17081880569458,-4.734789848327637,6.847218036651611
1780563902918179600,15.7441796875,5.456511974334717,-4.794867992401123,6.578426837921143
1780563902937700900,15.763700927734375,5.725667953491211,-4.856180191040039,6.298748016357422
1780563902957222000,15.783221923828124,5.968480110168457,-4.919515132904053,6.017940044403076
1780563902976740600,15.80274072265625,6.183010101318359,-4.983284950256348,5.74258279800415
1780563902996267800,15.822267822265625,6.3699750900268555,-5.046227931976318,5.4771342277526855
1780563903015799600,15.841799560546875,6.531422138214111,-5.108280181884766,5.223599910736084
1780563903035328500,15.86132861328125,6.670328140258789,-5.169981002807617,4.9817681312561035
1780563903054857700,15.880857666015626,6.792520999908447,-5.230230808258057,4.748297214508057
1780563903074389200,15.90038916015625,6.900306224822998,-5.289093017578125,4.5223069190979
1780563903093917400,15.91991748046875,6.994872093200684,-5.346521854400635,4.304236888885498
1780563903113437400,15.9394375,7.074166774749756,-5.4055328369140625,4.0958991050720215
1780563903132957200,15.958957275390626,7.140017032623291,-5.467144012451172,3.894929885864258
1780563903152479500,15.9784794921875,7.194469928741455,-5.53130578994751,3.6992220878601074
1780563903172001300,15.998001220703125,7.239665985107422,-5.5960588455200195,3.5087530612945557
1780563903191522300,16.017522216796873,7.276259899139404,-5.6599578857421875,3.325795888900757
1780563903211044400,16.03704443359375,7.3051018714904785,-5.721797943115234,3.1522231101989746
1780563903230567700,16.056567626953125,7.329695224761963,-5.77816915512085,2.988028049468994
1780563903250086700,16.076086669921875,7.329695224761963,-5.77816915512085,2.988028049468994
1780563903269606700,16.095606689453124,7.351240158081055,-5.826402187347412,2.8376550674438477
1780563903289127200,16.115127197265625,7.3699798583984375,-5.866256237030029,2.703778028488159
1780563903308644900,16.134644775390626,7.391617774963379,-5.924798965454102,2.510124921798706
1780563903328166700,16.154166748046876,7.391617774963379,-5.924798965454102,2.510124921798706
1780563903347689200,16.173689208984374,7.391617774963379,-5.924798965454102,2.510124921798706
1780563903367208700,16.193208740234375,7.382925033569336,-5.96934700012207,2.428847074508667
1780563903386730800,16.212730712890625,7.367234230041504,-5.988861083984375,2.4284560680389404
1780563903406255600,16.232255615234376,7.344966888427734,-6.006403923034668,2.4524619579315186
1780563903425775900,16.25177587890625,7.317101001739502,-6.021866798400879,2.497425079345703
1780563903445290500,16.27129052734375,7.280508995056152,-6.038002014160156,2.5645089149475098
1780563903464806100,16.29080615234375,7.239107131958008,-6.051970958709717,2.647444009780884
1780563903484325000,16.3103251953125,7.193175792694092,-6.063002109527588,2.745579957962036
1780563903503848700,16.3298486328125,7.143750190734863,-6.070517063140869,2.85581111907959
1780563903523373000,16.349373046875,7.092986106872559,-6.073279857635498,2.9740219116210938
1780563903542895600,16.3688955078125,7.0457000732421875,-6.069881916046143,3.0910589694976807
1780563903562417400,16.38841748046875,7.006484031677246,-6.056737899780273,3.2039198875427246
1780563903581937400,16.4079375,6.974040985107422,-6.034895896911621,3.314023971557617
1780563903601455600,16.42745556640625,6.944052219390869,-6.006503105163574,3.4266669750213623
1780563903620971000,16.446970947265626,6.908860206604004,-5.972146987915039,3.555433988571167
1780563903640487000,16.46648681640625,6.862626075744629,-5.933650970458984,3.706228017807007
1780563903660005600,16.486005615234376,6.800923824310303,-5.8919291496276855,3.882343053817749
1780563903679524600,16.505524658203125,6.72478723526001,-5.844648838043213,4.08133602142334
1780563903699049200,16.52504931640625,6.634427070617676,-5.791134834289551,4.2996649742126465
1780563903718572800,16.54457275390625,6.53151798248291,-5.730893135070801,4.531680107116699
1780563903738094800,16.5640947265625,6.420845031738281,-5.66572380065918,4.765744209289551
1780563903757615400,16.583615478515625,6.303060054779053,-5.596418857574463,4.999151229858398
1780563903777131800,16.6031318359375,6.1727399826049805,-5.527280807495117,5.233203887939453
1780563903796651000,16.622651123046875,6.018805027008057,-5.464666843414307,5.472787857055664
1780563903816170000,16.642169921875,5.8393940925598145,-5.409293174743652,5.716731071472168
1780563903835691300,16.661691162109374,5.634376049041748,-5.36090612411499,5.9627580642700195
1780563903855215400,16.68121533203125,5.406391143798828,-5.320440769195557,6.205144882202148
1780563903874738200,16.70073828125,5.160499095916748,-5.285577774047852,6.43986701965332
1780563903894262000,16.720261962890625,4.910277843475342,-5.253946781158447,6.657717227935791
1780563903913789400,16.73978955078125,4.664662837982178,-5.2220001220703125,6.856503009796143
1780563903933315600,16.759315673828127,4.437892913818359,-5.189449787139893,7.029560089111328
1780563903952838700,16.778838623046877,4.23317813873291,-5.155278205871582,7.179365158081055
1780563903972359400,16.798359375,4.0513811111450195,-5.117908000946045,7.30980920791626
1780563903991882800,16.8178828125,3.8906280994415283,-5.0787858963012695,7.423540115356445
1780563904011408400,16.837408447265624,3.745943069458008,-5.037958145141602,7.525083065032959
1780563904030934300,16.856934326171874,3.6197149753570557,-4.998952865600586,7.612366199493408
1780563904050458600,16.876458740234376,3.500190019607544,-4.964410781860352,7.69046688079834
1780563904069982200,16.895982177734375,3.500190019607544,-4.964410781860352,7.69046688079834
1780563904089506000,16.915506103515625,3.383047103881836,-4.9388837814331055,7.759022235870361
1780563904109031700,16.93503173828125,3.2549099922180176,-4.925384998321533,7.82215690612793
1780563904128558600,16.95455859375,3.110008955001831,-4.924729824066162,7.881298065185547
1780563904148082700,16.974082763671873,2.9352331161499023,-4.937514781951904,7.940108776092529
1780563904167607800,16.99360791015625,2.491502046585083,-4.990972995758057,8.057456016540527
1780563904187136500,17.013136474609375,2.491502046585083,-4.990972995758057,8.057456016540527
1780563904206665500,17.03266552734375,2.24462890625,-5.025387763977051,8.108460426330566
1780563904226194200,17.052194091796874,2.008527994155884,-5.068158149719238,8.143683433532715
1780563904245722000,17.07172216796875,1.790037989616394,-5.120645999908447,8.161786079406738
1780563904265250800,17.091250732421877,1.597769021987915,-5.182447910308838,8.162679672241211
1780563904284778200,17.1107783203125,1.420672059059143,-5.253798007965088,8.149803161621094
1780563904304305700,17.1303056640625,1.2537070512771606,-5.333099842071533,8.125654220581055
1780563904323833300,17.149833251953126,1.0793880224227905,-5.4161601066589355,8.095685005187988
1780563904343361300,17.169361328125,0.9010930061340332,-5.4940900802612305,8.064924240112305
1780563904362892300,17.188892333984374,0.7209280133247375,-5.56390380859375,8.035124778747559
1780563904382424800,17.2084248046875,0.5551609992980957,-5.623226165771484,8.006941795349121
1780563904401951700,17.22795166015625,0.42894598841667175,-5.671844959259033,7.980360984802246
1780563904421474800,17.247474853515627,0.3479669988155365,-5.710727214813232,7.956536769866943
1780563904440998700,17.26699853515625,0.31218400597572327,-5.740668773651123,7.936450958251953
1780563904460524300,17.286524169921876,0.31000301241874695,-5.761444091796875,7.9214677810668945
1780563904480056000,17.30605615234375,0.3371570110321045,-5.773525238037109,7.911555767059326
1780563904499584500,17.32558447265625,0.382519006729126,-5.779069900512695,7.905442237854004
1780563904519107300,17.345107421875,0.4338740110397339,-5.780041217803955,7.902079105377197
1780563904538631400,17.36463134765625,0.48785600066185,-5.778940200805664,7.899735927581787
1780563904558153700,17.38415380859375,0.5422459840774536,-5.778165817260742,7.896756172180176
1780563904577680000,17.403679931640625,0.594353973865509,-5.778975009918213,7.892413139343262
1780563904597211600,17.423211669921876,0.6418150067329407,-5.7815351486206055,7.886818885803223
1780563904616736800,17.44273681640625,0.6820799708366394,-5.784442901611328,7.881306171417236
1780563904636259600,17.462259521484373,0.7131879925727844,-5.785841941833496,7.8775248527526855
1780563904655783000,17.481782958984375,0.7368500232696533,-5.7839860916137695,7.876708984375
1780563904675304400,17.501304443359373,0.7584630250930786,-5.777824878692627,7.879179000854492
1780563904694826800,17.52082666015625,0.7920799851417542,-5.766921043395996,7.8838582038879395
1780563904714344400,17.540344482421876,0.8413969874382019,-5.751204013824463,7.890227794647217
1780563904733863400,17.559863525390625,0.916271984577179,-5.730255126953125,7.897126197814941
1780563904753384000,17.579384033203127,1.015252947807312,-5.704498767852783,7.903666973114014
1780563904772904400,17.598904541015624,1.1363739967346191,-5.673903942108154,7.909200191497803
1780563904792429300,17.61842919921875,1.2598450183868408,-5.637457847595215,7.916554927825928
1780563904811953200,17.637953125,1.3736590147018433,-5.593946933746338,7.928481101989746
1780563904831473700,17.6574736328125,1.4786570072174072,-5.541357040405273,7.94650411605835
1780563904850994200,17.676994140625,1.5703480243682861,-5.479333877563477,7.971881866455078
1780563904870518500,17.6965185546875,1.6544419527053833,-5.4078450202941895,8.003625869750977
1780563904890045400,17.71604541015625,1.6544419527053833,-5.4078450202941895,8.003625869750977
1780563904909573400,17.735573486328125,1.7354910373687744,-5.327637195587158,8.040169715881348
1780563904929096200,17.75509619140625,1.9221960306167603,-5.150327205657959,8.112908363342285
1780563904948615700,17.77461572265625,2.0166990756988525,-5.059284210205078,8.147180557250977
1780563904968137700,17.7941376953125,2.0166990756988525,-5.059284210205078,8.147180557250977
1780563904987663600,17.81366357421875,2.0166990756988525,-5.059284210205078,8.147180557250977
1780563905007193000,17.833193115234376,2.181382894515991,-4.884261131286621,8.21130657196045
1780563905026723800,17.852723876953124,2.2421460151672363,-4.80350923538208,8.242514610290527
1780563905046252000,17.872251953125,2.28800892829895,-4.729662895202637,8.272562980651855
1780563905065778200,17.891778076171875,2.328974962234497,-4.663753986358643,8.298508644104004
1780563905085303800,17.9113037109375,2.363895893096924,-4.608029842376709,8.31973934173584
1780563905104828400,17.930828369140624,2.393381118774414,-4.563936233520508,8.335598945617676
1780563905124353500,17.950353515625,2.418968915939331,-4.531282901763916,8.346019744873047
1780563905143877400,17.96987744140625,2.4421451091766357,-4.50977897644043,8.35091781616211
1780563905163397600,17.989397705078126,2.4644970893859863,-4.498662948608398,8.350345611572266
1780563905182919200,18.008919189453124,2.4903628826141357,-4.49640417098999,8.343886375427246
1780563905202444800,18.02844482421875,2.525113105773926,-4.501319885253906,8.330780982971191
1780563905221975600,18.0479755859375,2.573838949203491,-4.511847019195557,8.310150146484375
1780563905241503700,18.067503662109374,2.638849973678589,-4.527166843414307,8.281378746032715
1780563905261027300,18.08702734375,2.719780921936035,-4.546250820159912,8.244658470153809
1780563905280552200,18.10655224609375,2.8165440559387207,-4.567066192626953,8.20054817199707
1780563905300077600,18.12607763671875,2.9289519786834717,-4.5885491371154785,8.149016380310059
1780563905319604200,18.145604248046876,3.058077096939087,-4.611030101776123,8.088669776916504
1780563905339133400,18.165133544921876,3.2063190937042236,-4.635810852050781,8.016780853271484
1780563905358662700,18.18466259765625,3.374596118927002,-4.665205001831055,7.930191993713379
1780563905378192100,18.204192138671875,3.5621540546417236,-4.701504230499268,7.826039791107178
1780563905397723400,18.223723388671875,3.7653820514678955,-4.7468719482421875,7.702538013458252
1780563905417253000,18.243253173828126,3.9772870540618896,-4.803412914276123,7.559657096862793
1780563905436779500,18.262779541015625,4.19091796875,-4.8716139793396,7.398889064788818
1780563905456305400,18.282305419921876,4.400004863739014,-4.950456142425537,7.223083972930908
1780563905475829000,18.3018291015625,4.599822044372559,-5.038082122802734,7.035577774047852
1780563905495355400,18.32135546875,4.785894870758057,-5.132406234741211,6.840585231781006
1780563905514881500,18.340881591796876,4.956457138061523,-5.231188774108887,6.64139986038208
1780563905534410800,18.36041064453125,5.1141462326049805,-5.331751823425293,6.438782215118408
1780563905553943800,18.37994384765625,5.261966228485107,-5.431548118591309,6.232976913452148
1780563905573474300,18.399474365234376,5.4038262367248535,-5.527799129486084,6.023462772369385
1780563905593004500,18.419004638671876,5.541761875152588,-5.618091106414795,5.810844898223877
1780563905612535300,18.438535400390624,5.678332805633545,-5.700864791870117,5.594340801239014
1780563905632066800,18.45806689453125,5.814283847808838,-5.7751688957214355,5.374154090881348
1780563905651592700,18.4775927734375,5.947920799255371,-5.841463088989258,5.15165376663208
1780563905671117800,18.497117919921877,6.0776801109313965,-5.900680065155029,4.927857875823975
1780563905690644700,18.516644775390624,6.201082229614258,-5.954220771789551,4.704659938812256
1780563905710171100,18.536171142578127,6.201082229614258,-5.954220771789551,4.704659938812256
1780563905729703700,18.55570361328125,6.427989959716797,-6.046669960021973,4.261303901672363
1780563905749236500,18.575236572265624,6.531449794769287,-6.085069179534912,4.043770790100098
1780563905768767200,18.594767333984375,6.628239154815674,-6.117970943450928,3.831041097640991
1780563905788301600,18.614301513671876,6.628239154815674,-6.117970943450928,3.831041097640991
1780563905807834400,18.63383447265625,6.717660903930664,-6.145625114440918,3.6255109310150146
1780563905827368000,18.653367919921877,6.799594879150391,-6.168615818023682,3.4283649921417236
1780563905846900200,18.672900146484373,6.874395847320557,-6.186779022216797,3.241364002227783
1780563905866429200,18.69242919921875,6.947271823883057,-6.1962127685546875,3.063059091567993
1780563905885956000,18.7119560546875,7.017949104309082,-6.197473049163818,2.894771099090576
1780563905905482800,18.731482666015626,7.085423946380615,-6.191596031188965,2.7387781143188477
1780563905925012000,18.751011962890626,7.144923210144043,-6.181350231170654,2.6040310859680176
1780563905944541200,18.770541259765626,7.192532062530518,-6.171370029449463,2.494328022003174
1780563905964070700,18.790070556640625,7.227513790130615,-6.163013935089111,2.4125289916992188
1780563905983601000,18.809600830078125,7.2480549812316895,-6.158768177032471,2.3612000942230225
1780563906003132400,18.82913232421875,7.257461071014404,-6.15586519241333,2.33978009223938
1780563906022660000,18.84866015625,7.2602858543396,-6.149909973144531,2.346666097640991
1780563906042189300,18.868189208984376,7.261905193328857,-6.135374069213867,2.3794751167297363
1780563906061724000,18.887723876953125,7.266311168670654,-6.108101844787598,2.435528039932251
1780563906081256200,18.907256103515625,7.273331165313721,-6.068242073059082,2.512985944747925
1780563906100786400,18.926786376953125,7.281733989715576,-6.01743221282959,2.6089959144592285
1780563906120312300,18.946312255859375,7.290122032165527,-5.958249092102051,2.7190780639648438
1780563906139840000,18.965840087890626,7.297539234161377,-5.895370960235596,2.833815097808838
1780563906159364000,18.985364013671877,7.3031182289123535,-5.83331823348999,2.945650100708008
1780563906178883800,19.0048837890625,7.304488182067871,-5.775714874267578,3.053778886795044
1780563906198412300,19.024412353515626,7.297152042388916,-5.727886199951172,3.159569025039673
1780563906217946400,19.0439462890625,7.278013229370117,-5.692746162414551,3.265450954437256
1780563906237473800,19.063473876953125,7.2464399337768555,-5.669363021850586,3.3745241165161133
1780563906256995800,19.082995849609375,7.200089931488037,-5.654633045196533,3.4962570667266846
1780563906276524800,19.10252490234375,7.138875961303711,-5.645373821258545,3.6340301036834717
1780563906296053800,19.1220537109375,7.062178134918213,-5.635913848876953,3.7950119972229004
1780563906315578000,19.141578125,6.972611904144287,-5.6207170486450195,3.9787209033966064
1780563906335104300,19.161104248046875,6.872127056121826,-5.595975875854492,4.183169841766357
1780563906354632000,19.1806318359375,6.75732421875,-5.5625128746032715,4.4087419509887695
1780563906374158300,19.200158447265625,6.6210198402404785,-5.524165153503418,4.656787872314453
1780563906393684200,19.219684326171876,6.460360050201416,-5.481224060058594,4.925436019897461
1780563906413208800,19.239208740234375,6.274343013763428,-5.435267925262451,5.2086920738220215
1780563906432735000,19.25873486328125,6.0610761642456055,-5.3856048583984375,5.5044169425964355
1780563906452262700,19.2782626953125,5.8123250007629395,-5.334540843963623,5.813736915588379
1780563906471790300,19.297790283203124,5.526333808898926,-5.281239986419678,6.1325459480285645
1780563906491318800,19.31731884765625,5.209397792816162,-5.222805976867676,6.451702117919922
1780563906510847200,19.33684716796875,4.8730387687683105,-5.160441875457764,6.75746488571167
1780563906530374100,19.3563740234375,4.8730387687683105,-5.160441875457764,6.75746488571167
1780563906549902600,19.375902587890625,4.530344009399414,-5.09369421005249,7.040615081787109
1780563906569430300,19.39543017578125,4.191690921783447,-5.023812770843506,7.295958995819092
1780563906588953900,19.414953857421875,3.872694969177246,-4.95225191116333,7.517807960510254
1780563906608480000,19.43447998046875,3.314336061477661,-4.822541236877441,7.861186981201172
1780563906628008200,19.45400830078125,3.0697789192199707,-4.773223876953125,7.989542007446289
1780563906647535400,19.473535400390624,3.0697789192199707,-4.773223876953125,7.989542007446289
1780563906667064600,19.493064697265623,2.8357250690460205,-4.736526012420654,8.097158432006836
1780563906686594300,19.51259423828125,2.607999086380005,-4.7118730545043945,8.187586784362793
1780563906706126300,19.532126220703127,2.3829309940338135,-4.696187973022461,8.26483154296875
1780563906725661400,19.551661376953124,2.1554958820343018,-4.685005187988281,8.33333969116211
1780563906745199000,19.57119921875,1.9234490394592285,-4.6695661544799805,8.398539543151855
1780563906764737800,19.59073779296875,1.6815170049667358,-4.642555236816406,8.465174674987793
1780563906784273200,19.610273193359376,1.432908058166504,-4.601637840270996,8.532977104187012
1780563906803805400,19.629805419921876,1.193241000175476,-4.5465779304504395,8.599115371704102
1780563906823332400,19.649332275390623,0.9765419960021973,-4.481308937072754,8.66049861907959
1780563906842854400,19.6688544921875,0.7879719734191895,-4.412891864776611,8.71467113494873
1780563906862381000,19.688381103515624,0.6329129934310913,-4.35262393951416,8.757515907287598
1780563906881912800,19.707912841796876,0.5140330195426941,-4.306614875793457,8.787994384765625
1780563906901441800,19.72744189453125,0.4301539957523346,-4.28223180770874,8.804400444030762
1780563906920969200,19.74696923828125,0.3679110109806061,-4.280265808105469,8.808176040649414
1780563906940499700,19.766499755859375,0.31606701016426086,-4.299473762512207,8.800829887390137
1780563906960031200,19.78603125,0.27555400133132935,-4.337384223937988,8.783574104309082
1780563906979559400,19.805559326171874,0.2572300136089325,-4.391297817230225,8.757301330566406
1780563906999089200,19.825089111328126,0.26298999786376953,-4.459658145904541,8.722516059875488
1780563907018621200,19.84462109375,0.2945080101490021,-4.538782119750977,8.680594444274902
1780563907038150700,19.864150634765625,0.3516550064086914,-4.62823486328125,8.63109302520752
1780563907057678000,19.883677978515625,0.43292200565338135,-4.725974082946777,8.574249267578125
1780563907077200600,19.90320068359375,0.534026026725769,-4.828897953033447,8.510967254638672
1780563907096718600,19.922718505859375,0.6402230262756348,-4.933313846588135,8.443490028381348
1780563907116238600,19.942238525390625,0.7461509704589844,-5.034975051879883,8.374502182006836
1780563907135761700,19.96176171875,0.8447930216789246,-5.128674030303955,8.30801010131836
1780563907155284700,19.98128466796875,0.9318199753761292,-5.212071895599365,8.246576309204102
1780563907174807300,20.000807373046875,1.005174994468689,-5.283474922180176,8.192344665527344
1780563907194327800,20.020327880859377,1.0627800226211548,-5.342864990234375,8.146428108215332
1780563907213853200,20.039853271484375,1.1058440208435059,-5.391964912414551,8.108255386352539
1780563907233380400,20.05938037109375,1.132066011428833,-5.432582855224609,8.077466011047363
1780563907252902400,20.07890234375,1.1446110010147095,-5.467864036560059,8.05185317993164
1780563907272423700,20.098423583984374,1.148332953453064,-5.498300075531006,8.030569076538086
1780563907291946800,20.11794677734375,1.1491379737854004,-5.524242877960205,8.012627601623535
1780563907311473200,20.13747314453125,1.1544280052185059,-5.545132160186768,7.997424125671387
1780563907330998800,20.156998779296874,1.167673945426941,-5.560564994812012,7.984776973724365
1780563907350522400,20.1765224609375,1.1946710348129272,-5.571609973907471,7.973073959350586
1780563907370045200,20.196045166015626,1.1946710348129272,-5.571609973907471,7.973073959350586
1780563907389568000,20.215568115234376,1.231850028038025,-5.581443786621094,7.960529804229736
1780563907409091600,20.235091552734374,1.2998050451278687,-5.6032562255859375,7.934357166290283
1780563907428615400,20.254615478515625,1.321563959121704,-5.616023063659668,7.921726226806641
1780563907448141300,20.274141357421875,1.321563959121704,-5.616023063659668,7.921726226806641
1780563907467668700,20.293668701171875,1.321563959121704,-5.616023063659668,7.921726226806641
1780563907487191600,20.313191650390625,1.3106379508972168,-5.630973815917969,7.9129228591918945
1780563907506713900,20.3327138671875,1.2800960540771484,-5.627706050872803,7.920244216918945
1780563907526236400,20.352236328125,1.245290994644165,-5.616148948669434,7.933985233306885
1780563907545762300,20.37176220703125,1.208817958831787,-5.5968098640441895,7.953268051147461
1780563907565286100,20.3912861328125,1.1757800579071045,-5.571653842926025,7.975851058959961
1780563907584810200,20.410810302734376,1.1521459817886353,-5.544899940490723,7.997913837432861
1780563907604335600,20.430335693359375,1.1366490125656128,-5.5167717933654785,8.01955509185791
1780563907623854300,20.449854248046876,1.1263309717178345,-5.486004829406738,8.042082786560059
1780563907643375900,20.4693759765625,1.1160629987716675,-5.450840950012207,8.067386627197266
1780563907662903300,20.4889033203125,1.1014879941940308,-5.409596920013428,8.097097396850586
1780563907682429400,20.508429443359375,1.0825639963150024,-5.361818790435791,8.131356239318848
1780563907701952500,20.527952392578126,1.0716500282287598,-5.3072028160095215,8.168546676635742
1780563907721476600,20.5474765625,1.0815349817276,-5.246853828430176,8.206144332885742
1780563907741001000,20.5670009765625,1.126142978668213,-5.18390417098999,8.240080833435059
1780563907760527400,20.58652734375,1.2093100547790527,-5.1220197677612305,8.266948699951172
1780563907780055600,20.6060556640625,1.3318209648132324,-5.064764976501465,8.283381462097168
1780563907799580200,20.625580078125,1.490049958229065,-5.0141921043396,8.287196159362793
1780563907819099000,20.645098876953124,1.6698869466781616,-4.971224784851074,8.278792381286621
1780563907838611500,20.664611572265624,1.85930597782135,-4.936251163482666,8.259321212768555
1780563907858126600,20.684126708984376,2.047888994216919,-4.909350872039795,8.230698585510254
1780563907877647600,20.703647705078126,2.235102891921997,-4.8902668952941895,8.193264961242676
1780563907897171000,20.7231708984375,2.4204630851745605,-4.879690170288086,8.146777153015137
1780563907916696000,20.742696044921875,2.601778030395508,-4.878536224365234,8.091391563415527
1780563907936223200,20.76222314453125,2.7752981185913086,-4.886487007141113,8.028696060180664
1780563907955750700,20.781750732421877,2.936897039413452,-4.901438236236572,7.961816787719727
1780563907975275000,20.80127490234375,3.084981918334961,-4.918317794799805,7.895126819610596
1780563907994795800,20.820795654296877,3.2238669395446777,-4.933294773101807,7.830023765563965
1780563908014319600,20.840319580078123,3.3520638942718506,-4.9427809715271,7.769978046417236
1780563908033842700,20.8598427734375,3.4730489253997803,-4.945277214050293,7.715060234069824
1780563908053367300,20.8793671875,3.595276117324829,-4.94268798828125,7.660536766052246
1780563908072895000,20.89889501953125,3.7238540649414062,-4.9366230964660645,7.602806091308594
1780563908092422000,20.918421875,3.861685037612915,-4.9311442375183105,7.537321090698242
1780563908111948300,20.9379482421875,4.005324840545654,-4.928843021392822,7.463501930236816
1780563908131472100,20.95747216796875,4.1568989753723145,-4.9312357902526855,7.378555774688721
1780563908150998000,20.976998046875,4.315303802490234,-4.938921928405762,7.281839847564697
1780563908170524700,20.996524658203125,4.477168083190918,-4.951194763183594,7.174999237060547
1780563908190047000,21.016046875,4.477168083190918,-4.951194763183594,7.174999237060547
1780563908209568800,21.03556884765625,4.646240234375,-4.970170021057129,7.053357124328613
1780563908229101300,21.055101318359377,4.822636127471924,-4.995995998382568,6.915359973907471
1780563908248632800,21.0746328125,5.201169013977051,-5.063422203063965,6.584041118621826
1780563908268158700,21.09415869140625,5.201169013977051,-5.063422203063965,6.584041118621826
1780563908287685400,21.113685302734375,5.201169013977051,-5.063422203063965,6.584041118621826
1780563908307210200,21.133210205078125,5.611927032470703,-5.147994041442871,6.1680169105529785
1780563908326731300,21.152731201171875,5.81013822555542,-5.197150230407715,5.939015865325928
1780563908346253300,21.17225341796875,5.81013822555542,-5.197150230407715,5.939015865325928
1780563908365781500,21.191781494140624,6.149102210998535,-5.316396236419678,5.473980903625488
1780563908385307000,21.211306884765627,6.285522937774658,-5.387351989746094,5.24486780166626
1780563908404825000,21.2308251953125,6.39387321472168,-5.465023040771484,5.029106140136719
1780563908424348200,21.25034814453125,6.478153228759766,-5.547595977783203,4.826767921447754
1780563908443870500,21.269870361328124,6.541355133056641,-5.632223129272461,4.639906883239746
1780563908463390000,21.289389892578125,6.588476181030273,-5.71554708480835,4.468165874481201
1780563908482913500,21.30891357421875,6.618348121643066,-5.798089027404785,4.3150458335876465
1780563908502442000,21.32844189453125,6.631756782531738,-5.879490852355957,4.182268142700195
1780563908521971500,21.347971435546874,6.630950927734375,-5.959012031555176,4.069479942321777
1780563908541499600,21.367499755859374,6.619725227355957,-6.035869121551514,3.973351001739502
1780563908561029000,21.387029052734373,6.602673053741455,-6.109572887420654,3.8881640434265137
1780563908580560100,21.40656005859375,6.585124969482422,-6.179365158081055,3.806778907775879
1780563908600091600,21.426091552734373,6.571540832519531,-6.244394779205322,3.7232210636138916
1780563908619619300,21.445619384765624,6.5647969245910645,-6.303707122802734,3.6341021060943604
1780563908639148800,21.465148681640624,6.56618595123291,-6.356360912322998,3.538625955581665
1780563908658678000,21.484677978515624,6.575882911682129,-6.401158809661865,3.438446044921875
1780563908678204200,21.5042041015625,6.592763900756836,-6.437312126159668,3.337131977081299
1780563908697732000,21.523732177734374,6.6146087646484375,-6.464770793914795,3.239396095275879
1780563908717260000,21.543260009765625,6.639142990112305,-6.483817100524902,3.1499040126800537
1780563908736783600,21.56278369140625,6.664277076721191,-6.495131969451904,3.0725650787353516
1780563908756307500,21.582307373046874,6.687877178192139,-6.499598979949951,3.011229991912842
1780563908775834400,21.60183447265625,6.7080841064453125,-6.497706890106201,2.970086097717285
1780563908795356200,21.621356201171874,6.722192764282227,-6.4897918701171875,2.955454111099243
1780563908814879700,21.640879638671876,6.729055881500244,-6.4764018058776855,2.9691779613494873
1780563908834407200,21.6604072265625,6.727447986602783,-6.45814323425293,3.012279987335205
1780563908853931800,21.679931884765626,6.716866970062256,-6.4356160163879395,3.0832669734954834
1780563908873458000,21.6994580078125,6.693373203277588,-6.409087181091309,3.1878440380096436
1780563908892983000,21.718983154296875,6.656210899353027,-6.379183769226074,3.322779893875122
1780563908912505000,21.738505126953125,6.605432987213135,-6.346710205078125,3.4824559688568115
1780563908932024800,21.75802490234375,6.541492938995361,-6.311885833740234,3.661823034286499
1780563908951544300,21.77754443359375,6.4637250900268555,-6.275899887084961,3.856595039367676
1780563908971069000,21.79706884765625,6.372499942779541,-6.238800048828125,4.063080787658691
1780563908990596600,21.8165966796875,6.273312091827393,-6.2013068199157715,4.2695817947387695
1780563909010124300,21.836124267578125,6.273312091827393,-6.2013068199157715,4.2695817947387695
1780563909029652000,21.85565185546875,6.058345794677734,-6.124441146850586,4.672007083892822
1780563909049182000,21.875181884765624,6.058345794677734,-6.124441146850586,4.672007083892822
1780563909068708400,21.894708251953126,5.833488941192627,-6.04006814956665,5.052521228790283
1780563909088228000,21.91422802734375,5.833488941192627,-6.04006814956665,5.052521228790283
1780563909107749600,21.93374951171875,5.833488941192627,-6.04006814956665,5.052521228790283
1780563909127270100,21.953270263671875,5.610379219055176,-5.925613880157471,5.426853179931641
1780563909146792000,21.9727919921875,5.501392841339111,-5.851655006408691,5.615407943725586
1780563909166315300,21.992315185546875,5.392739772796631,-5.763995170593262,5.808158874511719
1780563909185839000,22.011839111328126,5.283445835113525,-5.663010120391846,6.004623889923096
1780563909205358800,22.03135888671875,5.169859886169434,-5.549182891845703,6.206377029418945
1780563909224880400,22.05088037109375,5.048333168029785,-5.430479049682617,6.40813684463501
1780563909244407000,22.070406982421876,4.916012763977051,-5.3098931312561035,6.608922004699707
1780563909263934200,22.089934326171875,4.769920825958252,-5.193431854248047,6.805593967437744
1780563909283456800,22.109456787109377,4.607664108276367,-5.086686134338379,6.995358943939209
1780563909302978800,22.128978759765626,4.428916931152344,-4.9929280281066895,7.176026821136475
1780563909322506000,22.148506103515626,4.234996795654297,-4.9136271476745605,7.345818996429443
1780563909342031400,22.16803125,4.030580997467041,-4.848329067230225,7.5025410652160645
1780563909361555000,22.187554931640626,3.8209309577941895,-4.796317100524902,7.6443328857421875
1780563909381078300,22.207078369140625,3.6107919216156006,-4.756728172302246,7.7701802253723145
1780563909400600300,22.226600341796875,3.4041590690612793,-4.7282938957214355,7.88003396987915
1780563909420122400,22.246122314453125,3.203399896621704,-4.710538864135742,7.974274158477783
1780563909439644700,22.265644775390626,3.010385036468506,-4.702375888824463,8.053895950317383
1780563909459166200,22.285166259765624,2.826153039932251,-4.702455997467041,8.120330810546875
1780563909478687700,22.304687744140626,2.65010404586792,-4.710518836975098,8.174837112426758
1780563909498213000,22.324213134765625,2.4818310737609863,-4.725872039794922,8.21867561340332
1780563909517741800,22.343741943359376,2.3224360942840576,-4.747875213623047,8.25251293182373
1780563909537271000,22.36327099609375,2.1737349033355713,-4.775301933288574,8.2771577835083
1780563909556798000,22.3827978515625,2.0371310710906982,-4.806494235992432,8.293834686279297
1780563909576327000,22.402326904296874,1.9118109941482544,-4.838931083679199,8.304800987243652
1780563909595860500,22.421860595703127,1.797502040863037,-4.869194984436035,8.312636375427246
1780563909615392000,22.44139208984375,1.6969660520553589,-4.896565914154053,8.31768798828125
1780563909634924300,22.46092431640625,1.6063920259475708,-4.919701099395752,8.322020530700684
1780563909654457900,22.480457763671875,1.525365948677063,-4.9415130615234375,8.324342727661133
1780563909673989400,22.4999892578125,1.4495489597320557,-4.962460994720459,8.325429916381836
1780563909693517600,22.519517578125,1.3763070106506348,-4.990940093994141,8.320834159851074
1780563909713043500,22.53904345703125,1.3036619424819946,-5.028769016265869,8.309748649597168
1780563909732570000,22.558570068359376,1.2262409925460815,-5.078196048736572,8.291457176208496
1780563909752099300,22.578099365234376,1.1438260078430176,-5.142714977264404,8.263422012329102
1780563909771631400,22.59763134765625,1.0533959865570068,-5.221035003662109,8.22624683380127
1780563909791161900,22.617161865234376,0.9570919871330261,-5.31346321105957,8.178696632385254
1780563909810690600,22.636690673828124,0.8577430248260498,-5.411748886108398,8.125100135803223
1780563909830214100,22.656214111328126,0.8577430248260498,-5.411748886108398,8.125100135803223
1780563909849737700,22.67573779296875,0.6581779718399048,-5.611789226531982,8.007160186767578
1780563909869263400,22.695263427734375,0.6581779718399048,-5.611789226531982,8.007160186767578
1780563909888782800,22.714782958984376,0.47854599356651306,-5.780505180358887,7.899160861968994
1780563909908303600,22.7343037109375,0.47854599356651306,-5.780505180358887,7.899160861968994
1780563909927826700,22.75382666015625,0.40008801221847534,-5.845969200134277,7.855226039886475
1780563909947349500,22.773349609375,0.3289009928703308,-5.898013114929199,7.819543838500977
1780563909966872600,22.79287255859375,0.27335700392723083,-5.93780517578125,7.7915167808532715
1780563909986396400,22.812396484375,0.24474599957466125,-5.965824127197266,7.771038055419922
1780563910005921300,22.83192138671875,0.24182899296283722,-5.984993934631348,7.756375789642334
1780563910025444000,22.851444091796875,0.26324498653411865,-5.9974870681762695,7.746020793914795
1780563910044964400,22.87096435546875,0.29868799448013306,-6.00623083114624,7.737955093383789
1780563910064487700,22.89048779296875,0.34485098719596863,-6.01383113861084,7.730128765106201
1780563910084012000,22.910011962890625,0.3889319896697998,-6.021059036254883,7.72240686416626
1780563910103535400,22.929535400390623,0.41736501455307007,-6.0273518562316895,7.716012001037598
1780563910123062000,22.94906201171875,0.42798399925231934,-6.0305352210998535,7.7129411697387695
1780563910142592300,22.96859228515625,0.42268699407577515,-6.027588844299316,7.715537071228027
1780563910162120200,22.9881201171875,0.4149560034275055,-6.016475200653076,7.724624156951904
1780563910181647400,23.0076474609375,0.4104050099849701,-5.997633934020996,7.739505767822266
1780563910201174300,23.02717431640625,0.41339901089668274,-5.973546981811523,7.75795316696167
1780563910220699400,23.046699462890626,0.42564699053764343,-5.946987152099609,7.777671813964844
1780563910240223700,23.0662236328125,0.44672098755836487,-5.920326232910156,7.7968058586120605
1780563910259744000,23.085743896484374,0.47519001364707947,-5.894223213195801,7.814877986907959
1780563910279263200,23.10526318359375,0.5084109902381897,-5.868352890014648,7.8322367668151855
1780563910298787300,23.124787353515625,0.5440539717674255,-5.841419219970703,7.84995698928833
1780563910318312700,23.144312744140624,0.5825979709625244,-5.811662197113037,7.869254112243652
1780563910337833700,23.163833740234374,0.627170979976654,-5.776936054229736,7.891366958618164
1780563910357354800,23.183354736328123,0.6889100074768066,-5.7343268394470215,7.917253017425537
1780563910376880000,23.202880126953126,0.7696120142936707,-5.682325839996338,7.9472551345825195
1780563910396408300,23.222408203125,0.8703879714012146,-5.619490146636963,7.9814629554748535
1780563910415933200,23.24193310546875,0.9906619787216187,-5.544215202331543,8.019991874694824
1780563910435453400,23.261453369140625,1.1275739669799805,-5.456793785095215,8.061760902404785
1780563910454972000,23.280971923828126,1.2785910367965698,-5.358033180236816,8.105347633361816
1780563910474496300,23.300496337890625,1.4323829412460327,-5.252353191375732,8.148683547973633
1780563910494026200,23.320026123046876,1.5866249799728394,-5.143188953399658,8.189640998840332
1780563910513555000,23.339554931640624,1.7391469478607178,-5.034071922302246,8.22638988494873
1780563910533088500,23.359088623046876,1.8861500024795532,-4.927611827850342,8.258394241333008
1780563910552625400,23.37862548828125,2.0172829627990723,-4.8262739181518555,8.287198066711426
1780563910572162300,23.398162353515627,2.1229119300842285,-4.734417915344238,8.313754081726074
1780563910591694800,23.41769482421875,2.2156429290771484,-4.655324935913086,8.334199905395508
1780563910611217700,23.4372177734375,2.2992639541625977,-4.589252948760986,8.348180770874023
1780563910630734300,23.456734375,2.3880419731140137,-4.535472869873047,8.35264778137207
1780563910650250000,23.47625,2.3880419731140137,-4.535472869873047,8.35264778137207
1780563910669766100,23.49576611328125,2.6236560344696045,-4.473257064819336,8.3154296875
1780563910689279500,23.515279541015627,2.795638084411621,-4.461875915527344,8.265353202819824
1780563910708798000,23.5347978515625,2.998857021331787,-4.45996618270874,8.194849967956543
1780563910728320300,23.5543203125,3.231515884399414,-4.465806007385254,8.102707862854004
1780563910747840000,23.573840087890623,3.231515884399414,-4.465806007385254,8.102707862854004
1780563910767357700,23.593357666015624,3.484977960586548,-4.479706764221191,7.989190101623535
1780563910786875400,23.61287548828125,3.754431962966919,-4.4970879554748535,7.856235980987549
1780563910806394000,23.63239404296875,4.039371967315674,-4.517173767089844,7.701857089996338
1780563910825916200,23.651916259765624,4.337850093841553,-4.536534786224365,7.526147842407227
1780563910845441500,23.671441650390626,4.64841890335083,-4.552116870880127,7.328740119934082
1780563910864963300,23.69096337890625,4.968255043029785,-4.562455177307129,7.109179973602295
1780563910884485000,23.710485107421874,5.291018962860107,-4.565557956695557,6.870283126831055
1780563910904008400,23.730008544921876,5.610344886779785,-4.56172513961792,6.614731788635254
1780563910923529700,23.74952978515625,5.918543815612793,-4.552663803100586,6.346973896026611
1780563910943050800,23.76905078125,6.209056854248047,-4.541765213012695,6.071241855621338
1780563910962576100,23.788576171875,6.473001003265381,-4.535078048706055,5.794247150421143
1780563910982101200,23.808101318359373,6.707846164703369,-4.536587238311768,5.519435882568359
1780563911001628400,23.82762841796875,6.911342144012451,-4.550270080566406,5.250558853149414
1780563911021153300,23.8471533203125,7.083539009094238,-4.578318119049072,4.990238189697266
1780563911040673500,23.866673583984376,7.226591110229492,-4.620779037475586,4.739702224731445
1780563911060197400,23.886197265625,7.343570232391357,-4.675877094268799,4.49979305267334
1780563911079724500,23.905724609375,7.4406418800354,-4.73890495300293,4.268444061279297
1780563911099252200,23.925252197265625,7.521432876586914,-4.806340217590332,4.045629024505615
1780563911118778000,23.944778076171875,7.590784072875977,-4.8735737800598145,3.8299190998077393
1780563911138302700,23.964302734375,7.6530680656433105,-4.936923980712891,3.619020938873291
1780563911157827600,23.98382763671875,7.7107648849487305,-4.994073867797852,3.412229061126709
1780563911177348600,24.0033486328125,7.76478910446167,-5.043763160705566,3.2106850147247314
1780563911196871400,24.022871337890624,7.810472011566162,-5.0882649421691895,3.0242509841918945
1780563911216395500,24.0423955078125,7.847702980041504,-5.1283979415893555,2.855360984802246
1780563911235912700,24.06191259765625,7.876942157745361,-5.163825035095215,2.7071540355682373
1780563911255428000,24.081427978515624,7.898560047149658,-5.193613052368164,2.584402084350586
1780563911274946800,24.10094677734375,7.913272857666016,-5.218267917633057,2.4879279136657715
1780563911294471000,24.120470947265623,7.922280788421631,-5.238070011138916,2.4166250228881836
1780563911313995800,24.139995849609374,7.929253101348877,-5.252502918243408,2.361812114715576
1780563911333518800,24.159518798828124,7.933475017547607,-5.263936996459961,2.32184100151062
1780563911353037000,24.179037109375,7.9328389167785645,-5.275582790374756,2.297451972961426
1780563911372557000,24.19855712890625,7.9254279136657715,-5.2905049324035645,2.288701057434082
1780563911392080400,24.218080322265624,7.910210132598877,-5.309446811676025,2.2974660396575928
1780563911411598000,24.23759814453125,7.8862481117248535,-5.332993984222412,2.325134038925171
1780563911431112700,24.25711279296875,7.853804111480713,-5.359841823577881,2.372728109359741
1780563911450630100,24.276630126953126,7.813569068908691,-5.3879828453063965,2.44085693359375
1780563911470150700,24.296150634765624,7.813569068908691,-5.3879828453063965,2.44085693359375
1780563911489670400,24.31567041015625,7.766974925994873,-5.415073871612549,2.5280559062957764
1780563911509191200,24.335191162109375,7.660604000091553,-5.461790084838867,2.742988109588623
1780563911528715500,24.354715576171873,7.603690147399902,-5.479675769805908,2.863049030303955
1780563911548241700,24.37424169921875,7.547530174255371,-5.491941928863525,2.9855260848999023
1780563911567767600,24.393767578125,7.547530174255371,-5.491941928863525,2.9855260848999023
1780563911587291100,24.413291015625,7.496636867523193,-5.495306015014648,3.105163097381592
1780563911606817800,24.43281787109375,7.454026222229004,-5.487328052520752,3.2197370529174805
1780563911626347500,24.452347412109376,7.4209208488464355,-5.4659271240234375,3.330699920654297
1780563911645873000,24.471872802734374,7.394369125366211,-5.43302583694458,3.441735029220581
1780563911665391400,24.491391357421875,7.373738765716553,-5.387495994567871,3.5556790828704834
1780563911684913700,24.51091357421875,7.355670928955078,-5.330132961273193,3.6774699687957764
1780563911704437000,24.53043701171875,7.332883834838867,-5.264954090118408,3.814323902130127
1780563911723956700,24.549956787109377,7.299050807952881,-5.1965250968933105,3.9698829650878906
1780563911743475500,24.569475341796874,7.248846054077148,-5.128983974456787,4.145810127258301
1780563911762999800,24.588999755859376,7.18104887008667,-5.062990188598633,4.3403520584106445
1780563911782528300,24.6085283203125,7.091401100158691,-5.002127170562744,4.553102970123291
1780563911802050300,24.62805029296875,6.978489875793457,-4.947428226470947,4.781592845916748
1780563911821568300,24.647568359375,6.843242168426514,-4.8991169929504395,5.020824909210205
1780563911841087500,24.66708740234375,6.686319828033447,-4.859192848205566,5.265108108520508
1780563911860609000,24.686609130859374,6.510129928588867,-4.828435897827148,5.508575916290283
1780563911880130000,24.706130126953123,6.31783390045166,-4.806606769561768,5.746434211730957
1780563911899651300,24.7256513671875,6.111489772796631,-4.792325973510742,5.9768967628479
1780563911919170600,24.745170654296874,5.893502235412598,-4.782524108886719,6.19952392578125
1780563911938686700,24.764686767578127,5.666403770446777,-4.7732062339782715,6.414699077606201
1780563911958204700,24.78420458984375,5.434267044067383,-4.7596821784973145,6.622247219085693
1780563911977725700,24.8037255859375,5.20102596282959,-4.739209175109863,6.821232795715332
1780563911997250300,24.823250244140624,4.970279216766357,-4.711009979248047,7.010186195373535
1780563912016770000,24.84277001953125,4.746078014373779,-4.675692081451416,7.186976909637451
1780563912036285200,24.86228515625,4.5299811363220215,-4.6367621421813965,7.349809169769287
1780563912055802400,24.88180224609375,4.323215961456299,-4.5984649658203125,7.4969282150268555
1780563912075324000,24.901323974609376,4.1275739669799805,-4.565245151519775,7.62637996673584
1780563912094849300,24.920849365234375,3.943103075027466,-4.537768840789795,7.739546775817871
1780563912114372000,24.9403720703125,3.768630027770996,-4.514811038970947,7.839252948760986
1780563912133892000,24.95989208984375,3.6026270389556885,-4.494701862335205,7.928349018096924
1780563912153409300,24.9794091796875,3.4423859119415283,-4.476165771484375,8.009613037109375
1780563912172928800,24.9989287109375,3.2823610305786133,-4.4601731300354,8.085354804992676
1780563912192455200,25.018455078125,3.117638111114502,-4.448866844177246,8.156464576721191
1780563912211980000,25.03797998046875,2.939923048019409,-4.447658061981201,8.222845077514648
1780563912231498000,25.057498046875,2.7568960189819336,-4.459160804748535,8.279817581176758
1780563912251015400,25.077015380859375,2.5697309970855713,-4.486626148223877,8.32506275177002
1780563912270532000,25.096531982421876,2.384632110595703,-4.529894828796387,8.356649398803711
1780563912290047200,25.116047119140624,2.384632110595703,-4.529894828796387,8.356649398803711
1780563912309567200,25.135567138671874,2.212116003036499,-4.586479187011719,8.373215675354004
1780563912329091000,25.155091064453124,1.9197570085525513,-4.721120834350586,8.370516777038574
1780563912348612600,25.174612548828126,1.7998509407043457,-4.790500164031982,8.357728958129883
1780563912368129000,25.19412890625,1.7998509407043457,-4.790500164031982,8.357728958129883
1780563912387641600,25.2136416015625,1.7998509407043457,-4.790500164031982,8.357728958129883
1780563912407158500,25.233158447265627,1.5624899864196777,-4.915167808532715,8.333049774169922
1780563912426681300,25.252681396484373,1.4351609945297241,-4.968327045440674,8.324423789978027
1780563912446203000,25.272202880859375,1.3028219938278198,-5.014037132263184,8.318778991699219
1780563912465727000,25.29172705078125,1.1752389669418335,-5.053668975830078,8.313797950744629
1780563912485250300,25.311250244140624,1.0566339492797852,-5.089286804199219,8.307989120483398
1780563912504771800,25.330771728515625,0.9636160135269165,-5.126186847686768,8.29660415649414
1780563912524294000,25.3502939453125,0.8970410227775574,-5.167436122894287,8.278459548950195
1780563912543811800,25.369811767578124,0.8578000068664551,-5.21490478515625,8.252813339233398
1780563912563332000,25.38933203125,0.8414400219917297,-5.268196105957031,8.220588684082031
1780563912582856400,25.4088564453125,0.8336219787597656,-5.3253397941589355,8.184487342834473
1780563912602379800,25.4283798828125,0.8293319940567017,-5.383234977722168,8.14696216583252
1780563912621906400,25.447906494140625,0.8257049918174744,-5.439259052276611,8.11003589630127
1780563912641436700,25.467436767578125,0.8238310217857361,-5.490872859954834,8.075370788574219
